#time,accel_x,accel_y,accel_z
507.100324,0.000000,-9474.636058,-1762.019645
507.100647,-444.123565,-9474.636058,-1915.238745
507.100969,-666.185348,-9622.677246,-1762.019645
507.101292,-444.123565,-9918.759623,-1991.848295
507.101614,-592.164754,-9548.656652,-1608.800546
507.101937,-296.082377,-9030.512492,-2068.457845
507.102259,-370.102971,-9104.533087,-1532.190996
507.102582,-370.102971,-9178.553681,-1532.190996
507.102904,0.000000,-9548.656652,-1685.410096
507.103226,-370.102971,-9326.594869,-1455.581446
507.103549,-518.144159,-9474.636058,-1532.190996
507.103871,-740.205942,-9326.594869,-1302.362347
507.104194,-296.082377,-9474.636058,-1378.971896
507.104516,-222.061783,-9252.574275,-1608.800546
507.104839,-222.061783,-9030.512492,-1685.410096
507.105161,-148.041188,-8956.491898,-1378.971896
507.105484,0.000000,-9104.533087,-1991.848295
507.105806,-444.123565,-9178.553681,-1225.752797
507.106128,-592.164754,-9474.636058,-1225.752797
507.106451,-740.205942,-9474.636058,-1302.362347
507.106773,-296.082377,-9252.574275,-1455.581446
507.107096,-148.041188,-8808.450710,-842.705048
507.107418,-444.123565,-8586.388927,-1685.410096
507.107741,0.000000,-8956.491898,-1072.533697
507.108063,-296.082377,-9178.553681,-1302.362347
507.108386,-592.164754,-9252.574275,-1378.971896
507.108708,-592.164754,-9548.656652,-1608.800546
507.109031,-888.247130,-9178.553681,-1149.143247
507.109353,-296.082377,-9548.656652,-1532.190996
507.109675,-222.061783,-9104.533087,-1378.971896
507.109998,-222.061783,-9104.533087,-1378.971896
507.110320,-148.041188,-8956.491898,-1532.190996
507.110643,-296.082377,-8808.450710,-2145.067394
507.110965,0.000000,-9252.574275,-1302.362347
507.111288,-296.082377,-9696.697840,-1532.190996
507.111610,-592.164754,-9844.739029,-1455.581446
507.111933,-296.082377,-9844.739029,-1455.581446
507.112255,-592.164754,-9326.594869,-2145.067394
507.112578,-444.123565,-9104.533087,-1838.629195
507.112900,0.000000,-9178.553681,-1762.019645
507.113222,0.000000,-9400.615463,-1685.410096
507.113545,-296.082377,-9474.636058,-1532.190996
507.113867,-370.102971,-9770.718434,-1608.800546
507.114190,-740.205942,-9474.636058,-1072.533697
507.114512,-666.185348,-9696.697840,-1991.848295
507.114835,-592.164754,-9474.636058,-1838.629195
507.115157,-222.061783,-9252.574275,-1608.800546
507.115480,0.000000,-9104.533087,-1762.019645
507.115802,-296.082377,-9104.533087,-1378.971896
507.116125,-444.123565,-9400.615463,-1838.629195
507.116447,-666.185348,-9696.697840,-1762.019645
507.116769,-592.164754,-9918.759623,-1991.848295
507.117092,-444.123565,-9696.697840,-1915.238745
507.117414,-370.102971,-9326.594869,-1532.190996
507.117737,0.000000,-8660.409521,-1455.581446
507.118059,-296.082377,-8808.450710,-1838.629195
507.118382,0.000000,-9104.533087,-1608.800546
507.118704,-296.082377,-9326.594869,-1532.190996
507.119027,-518.144159,-9622.677246,-1838.629195
507.119349,-444.123565,-9474.636058,-1915.238745
507.119671,-296.082377,-9548.656652,-1762.019645
507.119994,-444.123565,-9326.594869,-1608.800546
507.120316,-296.082377,-9178.553681,-1608.800546
507.120639,-222.061783,-9104.533087,-1532.190996
507.120961,-148.041188,-8956.491898,-1455.581446
507.121284,814.226536,-9178.553681,-1762.019645
507.121606,1924.535449,-10140.821405,-2145.067394
507.121929,2368.659014,-10066.800811,-1225.752797
507.122251,1850.514855,-9474.636058,0.000000
507.122574,962.267725,-8586.388927,0.000000
507.122896,0.000000,-8660.409521,-2068.457845
507.123218,-962.267725,-8882.471304,-2374.896044
507.123541,-2368.659014,-9104.533087,-2451.505594
507.123863,-3701.029710,-9622.677246,-2221.676944
507.124186,-3478.967927,-9770.718434,-2604.724693
507.124508,-1480.411884,-9844.739029,-2757.943793
507.124831,1110.308913,-10955.047942,-1991.848295
507.125153,2590.720797,-11251.130318,-842.705048
507.125476,2368.659014,-9770.718434,76.609550
507.125798,1850.514855,-8364.327145,-229.828649
507.126121,2072.576638,-8956.491898,-1838.629195
507.126443,2886.803174,-9844.739029,-2451.505594
507.126765,2220.617826,-9770.718434,-1838.629195
507.127088,444.123565,-8586.388927,-153.219100
507.127410,148.041188,-7698.141797,153.219100
507.127733,1406.391290,-8364.327145,-1608.800546
507.128055,2368.659014,-9770.718434,-2757.943793
507.128378,592.164754,-9622.677246,-459.657299
507.128700,-962.267725,-8808.450710,-536.266849
507.129023,-592.164754,-9030.512492,-2834.553343
507.129345,148.041188,-9474.636058,-3447.429741
507.129667,888.247130,-9992.780217,-1455.581446
507.129990,444.123565,-10584.944971,-612.876398
507.130312,1184.329507,-10214.842000,-1532.190996
507.130635,2442.679609,-9104.533087,-1838.629195
507.130957,3182.885551,-10066.800811,-995.924147
507.131280,3775.050304,-11325.150913,-459.657299
507.131602,2886.803174,-9770.718434,-612.876398
507.131925,2146.597232,-7698.141797,-1225.752797
507.132247,2294.638420,-7476.080014,-995.924147
507.132570,2664.741391,-8512.368333,-995.924147
507.132892,2442.679609,-8216.285956,-1378.971896
507.133214,1480.411884,-7254.018232,-1149.143247
507.133537,2368.659014,-9178.553681,-459.657299
507.133859,2960.823768,-10510.924376,-766.095498
507.134182,3330.926739,-9844.739029,-1302.362347
507.134504,2442.679609,-9252.574275,-1915.238745
507.134827,2664.741391,-9992.780217,-1608.800546
507.135149,3108.864956,-9400.615463,-229.828649
507.135472,2960.823768,-9178.553681,-1915.238745
507.135794,2516.700203,-8882.471304,-2298.286494
507.136117,2590.720797,-9992.780217,-1685.410096
507.136439,3256.906145,-9696.697840,-1072.533697
507.136761,3256.906145,-9252.574275,-919.314598
507.137084,2146.597232,-9474.636058,-1532.190996
507.137406,1776.494261,-9178.553681,-1302.362347
507.137729,1406.391290,-8512.368333,-1225.752797
507.138051,444.123565,-7920.203579,-1991.848295
507.138374,-296.082377,-8586.388927,-2451.505594
507.138696,-296.082377,-9844.739029,-2604.724693
507.139019,0.000000,-10436.903782,-1608.800546
507.139341,148.041188,-11103.089130,-1455.581446
507.139664,370.102971,-12139.377449,-1455.581446
507.139986,888.247130,-12139.377449,-766.095498
507.140308,1258.350101,-10881.027347,-919.314598
507.140631,1554.432478,-10362.883188,-1302.362347
507.140953,1702.473667,-9252.574275,-1608.800546
507.141276,1924.535449,-8438.347739,-1149.143247
507.141598,1776.494261,-7846.182985,-383.047749
507.141921,2072.576638,-8290.306550,-612.876398
507.142243,1776.494261,-7772.162391,-1378.971896
507.142566,1850.514855,-8068.244768,-1608.800546
507.142888,1702.473667,-8364.327145,-1378.971896
507.143210,1924.535449,-8290.306550,-1762.019645
507.143533,1998.556043,-7920.203579,-2451.505594
507.143855,2294.638420,-8660.409521,-2221.676944
507.144178,1554.432478,-9622.677246,-2145.067394
507.144500,1332.370696,-9992.780217,-1991.848295
507.144823,814.226536,-10214.842000,-2221.676944
507.145145,370.102971,-11177.109724,-2451.505594
507.145468,444.123565,-11251.130318,-1072.533697
507.145790,592.164754,-11103.089130,-919.314598
507.146113,814.226536,-10288.862594,-842.705048
507.146435,962.267725,-9770.718434,-689.485948
507.146757,1036.288319,-9326.594869,0.000000
507.147080,1332.370696,-8290.306550,536.266849
507.147402,1036.288319,-7624.121203,229.828649
507.147725,2072.576638,-7179.997637,-919.314598
507.148047,3849.070898,-7031.956449,-1915.238745
507.148370,5551.544565,-7550.100608,-2298.286494
507.148692,6069.688724,-8290.306550,-1302.362347
507.149015,5255.462188,-8882.471304,-383.047749
507.149337,4811.338623,-10584.944971,-1455.581446
507.149660,3775.050304,-11991.336260,-2834.553343
507.149982,2368.659014,-13323.706956,-2911.162892
507.150304,1258.350101,-13545.768739,-2374.896044
507.150627,444.123565,-11843.295072,-842.705048
507.150949,148.041188,-10362.883188,-153.219100
507.151272,222.061783,-8808.450710,153.219100
507.151594,370.102971,-6957.935855,229.828649
507.151917,0.000000,-5921.647536,0.000000
507.152239,222.061783,-5107.421000,0.000000
507.152562,0.000000,-5107.421000,-766.095498
507.152884,814.226536,-5921.647536,-766.095498
507.153207,1332.370696,-6957.935855,-1378.971896
507.153529,666.185348,-8068.244768,-1608.800546
507.153851,296.082377,-9844.739029,-2145.067394
507.154174,370.102971,-11399.171507,-2528.115143
507.154496,74.020594,-11991.336260,-3217.601092
507.154819,-148.041188,-12509.480420,-3753.867940
507.155141,-666.185348,-12509.480420,-3447.429741
507.155464,-1036.288319,-11991.336260,-2604.724693
507.155786,-1110.308913,-11399.171507,-2451.505594
507.156109,-1850.514855,-11473.192101,-1915.238745
507.156431,-1702.473667,-11251.130318,-1762.019645
507.156753,-1480.411884,-10436.903782,-995.924147
507.157076,-962.267725,-9918.759623,-229.828649
507.157398,370.102971,-9400.615463,766.095498
507.157721,1332.370696,-7550.100608,0.000000
507.158043,3627.009116,-6069.688724,229.828649
507.158366,5995.668130,-5699.585753,0.000000
507.158688,6957.935855,-5033.400406,-383.047749
507.159011,7105.977043,-4885.359217,-306.438199
507.159333,6217.729913,-5477.523971,-1608.800546
507.159656,6735.874072,-8216.285956,-3907.087040
507.159978,6143.709319,-12139.377449,-4903.011187
507.160300,4737.318029,-14211.954086,-3140.991542
507.160623,1480.411884,-13471.748144,-1302.362347
507.160945,-1110.308913,-12879.583391,-383.047749
507.161268,-2368.659014,-13027.624579,-1838.629195
507.161590,-3849.070898,-11917.315666,-3294.210641
507.161913,-5551.544565,-9178.553681,-1378.971896
507.162235,-7179.997637,-5477.523971,-1378.971896
507.162558,-6291.750507,-5995.668130,-2987.772442
507.162880,-2368.659014,-7846.182985,-1915.238745
507.163203,1850.514855,-8216.285956,-1302.362347
507.163525,5181.441594,-8956.491898,-2374.896044
507.163847,8882.471304,-10881.027347,-1072.533697
507.164170,11991.336260,-11695.253884,459.657299
507.164492,13619.789333,-9696.697840,-766.095498
507.164815,13619.789333,-7846.182985,-1608.800546
507.165137,12065.356855,-6735.874072,-536.266849
507.165460,9474.636058,-8216.285956,-2068.457845
507.165782,6143.709319,-9844.739029,-2221.676944
507.166105,2294.638420,-11473.192101,-689.485948
507.166427,-1850.514855,-12361.439231,-766.095498
507.166750,-4589.276840,-12953.603985,-306.438199
507.167072,-6661.853478,-13471.748144,383.047749
507.167394,-9474.636058,-11769.274478,842.705048
507.167717,-10881.027347,-7031.956449,2374.896044
507.168039,-9770.718434,-3108.864956,-536.266849
507.168362,-6735.874072,-3034.844362,-2221.676944
507.168684,-1480.411884,-4885.359217,-3524.039291
507.169007,3552.988522,-6291.750507,-4060.306139
507.169329,7476.080014,-8438.347739,-2681.334243
507.169652,10658.965565,-11547.212695,-2145.067394
507.169974,11917.315666,-13027.624579,-766.095498
507.170297,11029.068536,-11917.315666,-1915.238745
507.170620,7698.141797,-10066.800811,-3447.429741
507.170942,3330.926739,-9178.553681,-4826.401637
507.171265,962.267725,-9992.780217,-6128.763984
507.171587,-1110.308913,-10066.800811,-4596.572988
507.171910,-3034.844362,-11399.171507,-1685.410096
507.172232,-5699.585753,-12583.501014,2068.457845
507.172555,-6661.853478,-11843.295072,5286.058936
507.172877,-5699.585753,-8586.388927,1991.848295
507.173200,-3627.009116,-7402.059420,-2374.896044
507.173522,0.000000,-9326.594869,-689.485948
507.173845,3997.112087,-6661.853478,766.095498
507.174168,8068.244768,-3997.112087,-383.047749
507.174490,11991.336260,-5773.606348,-1762.019645
507.174813,13471.748144,-9030.512492,-1302.362347
507.175135,11695.253884,-11769.274478,0.000000
507.175458,6069.688724,-11991.336260,-995.924147
507.175780,592.164754,-13175.665768,-4979.620737
507.176103,-3034.844362,-15692.365970,-7507.735880
507.176425,-5699.585753,-13915.871710,-4673.182538
507.176748,-7994.224174,-7846.182985,-459.657299
507.177070,-10807.006753,-4145.153275,-2987.772442
507.177393,-8142.265362,-5551.544565,-4213.525239
507.177716,-4293.194464,-8068.244768,-2834.553343
507.178038,-2442.679609,-10288.862594,229.828649
507.178361,-2072.576638,-9918.759623,3524.039291
507.178683,814.226536,-9178.553681,2604.724693
507.179006,3775.050304,-6957.935855,-153.219100
507.179328,6513.812290,-5329.482782,-1225.752797
507.179651,6957.935855,-5181.441594,-1991.848295
507.179973,5995.668130,-7179.997637,-2221.676944
507.180296,5477.523971,-9696.697840,-1149.143247
507.180618,6143.709319,-11177.109724,-1762.019645
507.180941,6365.771101,-12435.459826,-4136.915689
507.181264,6143.709319,-13989.892304,-4979.620737
507.181586,4071.132681,-13323.706956,-2068.457845
507.181909,1924.535449,-11547.212695,1302.362347
507.182231,-592.164754,-9992.780217,-153.219100
507.182554,-1924.535449,-10510.924376,-2451.505594
507.182876,-3552.988522,-11473.192101,-2145.067394
507.183199,-3997.112087,-10658.965565,459.657299
507.183521,-2072.576638,-9548.656652,1302.362347
507.183844,2442.679609,-8216.285956,0.000000
507.184166,6661.853478,-6661.853478,1072.533697
507.184489,9548.656652,-5995.668130,2528.115143
507.184812,9992.780217,-5255.462188,2681.334243
507.185134,8068.244768,-4885.359217,229.828649
507.185457,5403.503377,-4293.194464,-2911.162892
507.185779,2442.679609,-6291.750507,-4290.134789
507.186102,0.000000,-9474.636058,-5669.106685
507.186424,-3330.926739,-12139.377449,-6358.592633
507.186747,-5699.585753,-14211.954086,-4366.744339
507.187069,-4737.318029,-14434.015869,-2068.457845
507.187392,-2072.576638,-13767.830521,-2604.724693
507.187714,-1036.288319,-12287.418637,-5745.716235
507.188037,-666.185348,-12435.459826,-4443.353888
507.188360,-444.123565,-10881.027347,0.000000
507.188682,2072.576638,-10584.944971,2145.067394
507.189005,4811.338623,-10732.986159,153.219100
507.189327,6587.832884,-9992.780217,-766.095498
507.189650,6513.812290,-8734.430116,2451.505594
507.189972,6365.771101,-6883.915261,5898.935335
507.190295,7105.977043,-5255.462188,4903.011187
507.190617,8586.388927,-3478.967927,383.047749
507.190940,9548.656652,-3330.926739,-2451.505594
507.191262,9326.594869,-5403.503377,-1991.848295
507.191585,7105.977043,-7994.224174,766.095498
507.191908,3775.050304,-9400.615463,1149.143247
507.192230,-148.041188,-10436.903782,-1991.848295
507.192553,-4515.256246,-11769.274478,-4366.744339
507.192875,-8142.265362,-10807.006753,-5439.278036
507.193198,-9992.780217,-11103.089130,-7201.297681
507.193520,-9548.656652,-12213.398043,-7354.516781
507.193843,-7994.224174,-12879.583391,-4826.401637
507.194165,-7031.956449,-10881.027347,-1685.410096
507.194488,-6439.791695,-9474.636058,0.000000
507.194810,-5329.482782,-10436.903782,-766.095498
507.195133,-4071.132681,-11473.192101,-3064.381992
507.195456,-3849.070898,-10436.903782,-3140.991542
507.195778,-3330.926739,-7031.956449,-689.485948
507.196101,0.000000,-5773.606348,2298.286494
507.196423,5329.482782,-5107.421000,1225.752797
507.196746,8956.491898,-5625.565159,-2298.286494
507.197068,9326.594869,-7476.080014,-459.657299
507.197391,8956.491898,-7772.162391,2221.676944
507.197713,7031.956449,-8364.327145,766.095498
507.198036,3627.009116,-10732.986159,-2145.067394
507.198358,-814.226536,-11473.192101,-2911.162892
507.198681,-4811.338623,-10658.965565,-3294.210641
507.199004,-6587.832884,-10214.842000,-4903.011187
507.199326,-6069.688724,-11695.253884,-5975.544884
507.199649,-6069.688724,-12583.501014,-5669.106685
507.199971,-4737.318029,-11399.171507,-2528.115143
507.200294,-3849.070898,-10658.965565,-229.828649
507.200616,-3849.070898,-12583.501014,-2451.505594
507.200939,-4515.256246,-13323.706956,-2911.162892
507.201261,-5847.626942,-9548.656652,-1378.971896
507.201584,-5921.647536,-5477.523971,-919.314598
507.201906,-1110.308913,-5625.565159,-2145.067394
507.202229,5033.400406,-6587.832884,-4060.306139
507.202552,7698.141797,-7105.977043,-3294.210641
507.202874,8068.244768,-6809.894666,3217.601092
507.203197,9326.594869,-6291.750507,5669.106685
507.203519,9992.780217,-7254.018232,-229.828649
507.203842,7402.059420,-9844.739029,-4366.744339
507.204164,1554.432478,-10807.006753,-1302.362347
507.204487,-3997.112087,-8882.471304,766.095498
507.204809,-4071.132681,-9622.677246,-2374.896044
507.205132,-1776.494261,-10955.047942,-4136.915689
507.205454,-296.082377,-10362.883188,-3677.258390
507.205777,0.000000,-10214.842000,0.000000
507.206100,-1776.494261,-12065.356855,2451.505594
507.206422,-2294.638420,-15396.283594,1838.629195
507.206745,-2368.659014,-14730.098246,-995.924147
507.207067,-3775.050304,-9252.574275,-1838.629195
507.207390,-3478.967927,-4515.256246,-1149.143247
507.207712,666.185348,-3627.009116,-2604.724693
507.208035,4515.256246,-5329.482782,-3600.648841
507.208357,4959.379811,-7031.956449,153.219100
507.208680,4145.153275,-6291.750507,3677.258390
507.209002,3997.112087,-7476.080014,0.000000
507.209325,2812.782580,-11547.212695,-5362.668486
507.209648,-740.205942,-13249.686362,-5132.839837
507.209970,-6291.750507,-10436.903782,-2374.896044
507.210293,-8364.327145,-8734.430116,-1608.800546
507.210615,-5995.668130,-9104.533087,-3753.867940
507.210938,-3775.050304,-9622.677246,-4979.620737
507.211260,-4367.215058,-9104.533087,-2757.943793
507.211583,-3552.988522,-9992.780217,459.657299
507.211905,-1924.535449,-13471.748144,689.485948
507.212228,-444.123565,-14582.057057,-842.705048
507.212551,-1554.432478,-11029.068536,-306.438199
507.212873,-2960.823768,-6143.709319,1455.581446
507.213196,-1036.288319,-3849.070898,-229.828649
507.213518,2886.803174,-5329.482782,-3907.087040
507.213841,4515.256246,-6439.791695,-4290.134789
507.214163,4293.194464,-6513.812290,-612.876398
507.214486,4145.153275,-7624.121203,1838.629195
507.214808,4145.153275,-9548.656652,-536.266849
507.215131,1776.494261,-11843.295072,-5132.839837
507.215453,-3034.844362,-12879.583391,-5286.058936
507.215776,-6735.874072,-11103.089130,-4136.915689
507.216099,-6957.935855,-10066.800811,-4826.401637
507.216421,-4737.318029,-10807.006753,-6818.249932
507.216744,-3775.050304,-11547.212695,-4060.306139
507.217066,-3256.906145,-11843.295072,229.828649
507.217389,-2368.659014,-12287.418637,2374.896044
507.217711,-1258.350101,-13619.789333,536.266849
507.218034,-888.247130,-12435.459826,-919.314598
507.218356,-1258.350101,-7994.224174,995.924147
507.218679,0.000000,-2886.803174,1838.629195
507.219001,3627.009116,-2442.679609,-383.047749
507.219324,7179.997637,-4293.194464,-2451.505594
507.219647,8882.471304,-5773.606348,-1072.533697
507.219969,8290.306550,-6143.709319,1685.410096
507.220292,6439.791695,-8512.368333,1685.410096
507.220614,2812.782580,-11769.274478,-2298.286494
507.220937,-1184.329507,-13175.665768,-5592.497135
507.221259,-5773.606348,-11843.295072,-5898.935335
507.221582,-7031.956449,-9992.780217,-5286.058936
507.221904,-5181.441594,-10214.842000,-6128.763984
507.222227,-4071.132681,-11769.274478,-6128.763984
507.222549,-4367.215058,-11917.315666,-919.314598
507.222872,-4589.276840,-11769.274478,1915.238745
507.223195,-3627.009116,-14137.933492,0.000000
507.223517,-2220.617826,-14878.139434,-1532.190996
507.223840,-2072.576638,-11103.089130,-1762.019645
507.224162,-1332.370696,-5403.503377,842.705048
507.224485,1850.514855,-2738.761985,2451.505594
507.224807,6513.812290,-2664.741391,2451.505594
507.225130,8216.285956,-3256.906145,76.609550
507.225452,8142.265362,-4663.297435,-383.047749
507.225775,7550.100608,-7772.162391,306.438199
507.226097,5699.585753,-10288.862594,-459.657299
507.226420,1924.535449,-13249.686362,-3140.991542
507.226743,-3108.864956,-13323.706956,-3524.039291
507.227065,-6143.709319,-9992.780217,-3524.039291
507.227388,-6291.750507,-8068.244768,-5056.230287
507.227710,-5477.523971,-9992.780217,-8273.831378
507.228033,-6439.791695,-13027.624579,-5592.497135
507.228355,-7624.121203,-12361.439231,459.657299
507.228678,-6291.750507,-13471.748144,1072.533697
507.229000,-4367.215058,-14804.118840,-612.876398
507.229323,-3923.091493,-13841.851115,-1225.752797
507.229645,-4071.132681,-8068.244768,76.609550
507.229968,-2368.659014,-3108.864956,1915.238745
507.230291,1998.556043,-1850.514855,2298.286494
507.230613,6513.812290,-2664.741391,0.000000
507.230936,8512.368333,-3478.967927,-1378.971896
507.231258,8956.491898,-6069.688724,1302.362347
507.231581,8438.347739,-9474.636058,1532.190996
507.231903,5995.668130,-12361.439231,-1072.533697
507.232226,1036.288319,-12731.542202,-2911.162892
507.232548,-5403.503377,-10140.821405,-2298.286494
507.232871,-7402.059420,-8586.388927,-3447.429741
507.233193,-6661.853478,-9622.677246,-8120.612279
507.233516,-5847.626942,-11917.315666,-8197.221829
507.233839,-4737.318029,-13767.830521,-2604.724693
507.234161,-4145.153275,-13693.809927,2451.505594
507.234484,-2738.761985,-14730.098246,1455.581446
507.234806,-1850.514855,-15026.180623,-459.657299
507.235129,-2960.823768,-11473.192101,0.000000
507.235451,-3034.844362,-6217.729913,995.924147
507.235774,-666.185348,-592.164754,76.609550
507.236096,3923.091493,-296.082377,-2528.115143
507.236419,7105.977043,-2442.679609,-2221.676944
507.236741,7920.203579,-5329.482782,1455.581446
507.237064,7105.977043,-7476.080014,2911.162892
507.237387,5329.482782,-10510.924376,-1072.533697
507.237709,2294.638420,-12657.521608,-4903.011187
507.238032,-3849.070898,-12879.583391,-4903.011187
507.238354,-8364.327145,-10436.903782,-3600.648841
507.238677,-9104.533087,-9030.512492,-6281.983084
507.238999,-7105.977043,-10881.027347,-8963.317327
507.239322,-3997.112087,-13175.665768,-5745.716235
507.239644,-2664.741391,-12583.501014,76.609550
507.239967,-1406.391290,-12953.603985,1302.362347
507.240289,148.041188,-14211.954086,76.609550
507.240612,518.144159,-13471.748144,229.828649
507.240935,-370.102971,-8586.388927,1455.581446
507.241257,-518.144159,-2442.679609,459.657299
507.241580,2738.761985,-814.226536,-2068.457845
507.241902,6957.935855,-2886.803174,-3370.820191
507.242225,9178.553681,-5107.421000,-536.266849
507.242547,8808.450710,-6957.935855,2987.772442
507.242870,7624.121203,-9104.533087,1455.581446
507.243192,4145.153275,-12805.562797,-1991.848295
507.243515,-2368.659014,-13915.871710,-4596.572988
507.243837,-9326.594869,-11399.171507,-4673.182538
507.244160,-11769.274478,-9844.739029,-5975.544884
507.244483,-9474.636058,-10658.965565,-9959.241474
507.244805,-7846.182985,-11917.315666,-8503.660028
507.245128,-7402.059420,-12805.562797,-1532.190996
507.245450,-5033.400406,-12879.583391,1608.800546
507.245773,-962.267725,-14359.995275,153.219100
507.246095,1258.350101,-15396.283594,-919.314598
507.246418,0.000000,-11325.150913,1149.143247
507.246740,-888.247130,-3923.091493,1685.410096
507.247063,2072.576638,-888.247130,-153.219100
507.247385,6439.791695,-1554.432478,-2145.067394
507.247708,7698.141797,-3330.926739,-612.876398
507.248031,6809.894666,-4589.276840,2681.334243
507.248353,5255.462188,-6883.915261,3064.381992
507.248676,4071.132681,-11547.212695,-689.485948
507.248998,1110.308913,-15100.201217,-3447.429741
507.249321,-3701.029710,-14063.912898,-3524.039291
507.249643,-7179.997637,-9400.615463,-2528.115143
507.249966,-7254.018232,-7550.100608,-4366.744339
507.250288,-4367.215058,-9474.636058,-6205.373534
507.250611,-3775.050304,-10510.924376,-4136.915689
507.250934,-4515.256246,-11547.212695,229.828649
507.251256,-2738.761985,-13989.892304,2298.286494
507.251579,148.041188,-16062.468941,-383.047749
507.251901,1776.494261,-14878.139434,-612.876398
507.252224,888.247130,-8660.409521,2681.334243
507.252546,1998.556043,-2590.720797,3524.039291
507.252869,5551.544565,296.082377,-383.047749
507.253191,7476.080014,-296.082377,-2604.724693
507.253514,5773.606348,-2664.741391,-536.266849
507.253836,3182.885551,-5255.462188,2221.676944
507.254159,2368.659014,-9326.594869,1225.752797
507.254482,1110.308913,-13175.665768,-3064.381992
507.254804,-2294.638420,-14730.098246,-4443.353888
507.255127,-6883.915261,-12731.542202,-2757.943793
507.255449,-9178.553681,-9252.574275,-2681.334243
507.255772,-7476.080014,-9104.533087,-6741.640382
507.256094,-5625.565159,-10807.006753,-8733.488677
507.256417,-5847.626942,-11917.315666,-4290.134789
507.256739,-5329.482782,-13101.645173,-995.924147
507.257062,-2960.823768,-14952.160028,-1532.190996
507.257384,-148.041188,-16654.633695,-2757.943793
507.257707,1554.432478,-13619.789333,-766.095498
507.258030,2146.597232,-6439.791695,1608.800546
507.258352,3923.091493,-1850.514855,842.705048
507.258675,7402.059420,-1776.494261,-1532.190996
507.258997,8142.265362,-3182.885551,-1225.752797
507.259320,6883.915261,-4589.276840,536.266849
507.259642,5181.441594,-7476.080014,1608.800546
507.259965,3330.926739,-10955.047942,-766.095498
507.260287,370.102971,-14063.912898,-3140.991542
507.260610,-3849.070898,-13545.768739,-1685.410096
507.260932,-7179.997637,-10140.821405,-2145.067394
507.261255,-6661.853478,-8512.368333,-5515.887586
507.261578,-4959.379811,-9030.512492,-7507.735880
507.261900,-5403.503377,-10140.821405,-4749.792088
507.262223,-7328.038826,-10584.944971,-689.485948
507.262545,-5995.668130,-12953.603985,-1302.362347
507.262868,-3256.906145,-15470.304188,-3753.867940
507.263190,-1924.535449,-14952.160028,-2834.553343
507.263513,-2368.659014,-10214.842000,766.095498
507.263835,74.020594,-4737.318029,1149.143247
507.264158,4441.235652,-3478.967927,-1991.848295
507.264480,8290.306550,-4515.256246,-2757.943793
507.264803,8364.327145,-4885.359217,1225.752797
507.265126,6661.853478,-4293.194464,3370.820191
507.265448,5921.647536,-7105.977043,1532.190996
507.265771,4219.173869,-11399.171507,-1302.362347
507.266093,0.000000,-12509.480420,-1072.533697
507.266416,-4737.318029,-9696.697840,0.000000
507.266738,-5921.647536,-9030.512492,-1838.629195
507.267061,-3923.091493,-9178.553681,-4749.792088
507.267383,-3330.926739,-10140.821405,-4366.744339
507.267706,-3997.112087,-10732.986159,0.000000
507.268028,-4589.276840,-10066.800811,1532.190996
507.268351,-3330.926739,-12879.583391,-1685.410096
507.268674,-1702.473667,-14952.160028,-3217.601092
507.268996,-2516.700203,-12879.583391,-1532.190996
507.269318,-2664.741391,-7698.141797,229.828649
507.269640,0.000000,-4737.318029,-1072.533697
507.269963,3997.112087,-5699.585753,-2681.334243
507.270285,5477.523971,-6809.894666,-2374.896044
507.270607,3923.091493,-5847.626942,306.438199
507.270929,2812.782580,-6217.729913,229.828649
507.271252,2664.741391,-8882.471304,-2757.943793
507.271574,148.041188,-11769.274478,-3830.477490
507.271896,-4367.215058,-10436.903782,-2145.067394
507.272219,-6513.812290,-8734.430116,-1991.848295
507.272541,-5181.441594,-10066.800811,-4903.011187
507.272863,-3182.885551,-11917.315666,-4903.011187
507.273185,-3997.112087,-11325.150913,-2068.457845
507.273508,-4367.215058,-10658.965565,0.000000
507.273830,-2812.782580,-11103.089130,-1225.752797
507.274152,296.082377,-13693.809927,-3140.991542
507.274475,1554.432478,-13027.624579,-1455.581446
507.274797,1776.494261,-9030.512492,459.657299
507.275119,3108.864956,-5033.400406,153.219100
507.275441,6365.771101,-5403.503377,-1302.362347
507.275764,7920.203579,-6957.935855,-842.705048
507.276086,7254.018232,-7105.977043,0.000000
507.276408,4737.318029,-6217.729913,536.266849
507.276730,3627.009116,-7179.997637,-1378.971896
507.277053,2072.576638,-9844.739029,-3753.867940
507.277375,-2368.659014,-11621.233289,-3064.381992
507.277697,-7550.100608,-9844.739029,-1608.800546
507.278020,-8586.388927,-7920.203579,-2528.115143
507.278342,-5625.565159,-9696.697840,-7431.126331
507.278664,-4219.173869,-11769.274478,-6281.983084
507.278986,-4515.256246,-12139.377449,0.000000
507.279309,-4367.215058,-11843.295072,2145.067394
507.279631,-2368.659014,-12435.459826,-689.485948
507.279953,0.000000,-13027.624579,-2528.115143
507.280276,-296.082377,-10214.842000,-1302.362347
507.280598,-148.041188,-6069.688724,229.828649
507.280920,2368.659014,-3627.009116,-459.657299
507.281242,5847.626942,-4589.276840,-1532.190996
507.281565,6661.853478,-7179.997637,-76.609550
507.281887,5033.400406,-7550.100608,2298.286494
507.282209,3775.050304,-7105.977043,1378.971896
507.282531,3330.926739,-9474.636058,-3524.039291
507.282854,1110.308913,-13619.789333,-4443.353888
507.283176,-4367.215058,-11843.295072,-766.095498
507.283498,-8734.430116,-7624.121203,153.219100
507.283821,-7994.224174,-8438.347739,-4673.182538
507.284143,-5255.462188,-11843.295072,-7890.783629
507.284465,-5181.441594,-13101.645173,-4290.134789
507.284787,-5699.585753,-12065.356855,-383.047749
507.285110,-4071.132681,-13249.686362,-383.047749
507.285432,-296.082377,-15692.365970,-1762.019645
507.285754,1110.308913,-13619.789333,-1072.533697
507.286076,888.247130,-7550.100608,383.047749
507.286399,1776.494261,-3404.947333,0.000000
507.286721,6143.709319,-3627.009116,-1225.752797
507.287043,8142.265362,-4663.297435,-1762.019645
507.287366,6661.853478,-5329.482782,919.314598
507.287688,4737.318029,-6439.791695,3677.258390
507.288010,4293.194464,-8438.347739,306.438199
507.288332,2442.679609,-12139.377449,-3217.601092
507.288655,-1776.494261,-12805.562797,-2451.505594
507.288977,-6439.791695,-8808.450710,229.828649
507.289299,-7105.977043,-6365.771101,-1915.238745
507.289622,-5699.585753,-8290.306550,-5898.935335
507.289944,-5033.400406,-11473.192101,-4903.011187
507.290266,-7105.977043,-10732.986159,-995.924147
507.290588,-6587.832884,-10436.903782,-766.095498
507.290911,-3034.844362,-13397.727550,-2987.772442
507.291233,0.000000,-15396.283594,-2451.505594
507.291555,0.000000,-12583.501014,-229.828649
507.291877,962.267725,-7105.977043,459.657299
507.292200,4737.318029,-4737.318029,-1532.190996
507.292522,9178.553681,-5699.585753,-3830.477490
507.292844,10066.800811,-6587.832884,-1532.190996
507.293167,7254.018232,-5033.400406,2834.553343
507.293489,5181.441594,-5329.482782,2987.772442
507.293811,4737.318029,-9474.636058,-1302.362347
507.294133,1850.514855,-12583.501014,-2451.505594
507.294456,-3849.070898,-11103.089130,-459.657299
507.294778,-7624.121203,-7846.182985,-536.266849
507.295100,-7698.141797,-7328.038826,-3524.039291
507.295423,-5625.565159,-11103.089130,-5286.058936
507.295745,-5255.462188,-11991.336260,-2604.724693
507.296067,-5773.606348,-9696.697840,0.000000
507.296389,-3552.988522,-10214.842000,-2068.457845
507.296712,-592.164754,-13397.727550,-4136.915689
507.297034,0.000000,-14137.933492,-2834.553343
507.297356,-1924.535449,-10066.800811,0.000000
507.297678,-962.267725,-6217.729913,-995.924147
507.298001,3034.844362,-7328.038826,-5056.230287
507.298323,6587.832884,-9104.533087,-5515.887586
507.298645,5625.565159,-7772.162391,-536.266849
507.298968,3627.009116,-5255.462188,2145.067394
507.299290,3627.009116,-7402.059420,-306.438199
507.299612,2664.741391,-11843.295072,-3447.429741
507.299934,-1554.432478,-11991.336260,-2451.505594
507.300257,-7179.997637,-8068.244768,229.828649
507.300579,-8142.265362,-7994.224174,-1838.629195
507.300901,-4959.379811,-10140.821405,-5515.887586
507.301224,-3256.906145,-11177.109724,-3983.696590
507.301546,-2960.823768,-10214.842000,536.266849
507.301868,-1924.535449,-9474.636058,2528.115143
507.302190,1110.308913,-11843.295072,-766.095498
507.302513,3701.029710,-13471.748144,-2298.286494
507.302835,3552.988522,-11621.233289,-612.876398
507.303157,2368.659014,-8068.244768,1532.190996
507.303479,3775.050304,-5403.503377,689.485948
507.303802,5773.606348,-5995.668130,-2298.286494
507.304124,5551.544565,-6365.771101,-2681.334243
507.304446,3182.885551,-5403.503377,229.828649
507.304769,1332.370696,-6883.915261,536.266849
507.305091,0.000000,-9474.636058,-2834.553343
507.305413,-3330.926739,-12509.480420,-3217.601092
507.305735,-8216.285956,-10881.027347,-1532.190996
507.306058,-10436.903782,-8956.491898,-1762.019645
507.306380,-7920.203579,-9400.615463,-5209.449386
507.306702,-5699.585753,-10807.006753,-5975.544884
507.307025,-4811.338623,-11177.109724,-2145.067394
507.307347,-4737.318029,-10732.986159,459.657299
507.307669,-2294.638420,-12065.356855,-383.047749
507.307991,1332.370696,-14434.015869,-2451.505594
507.308314,2590.720797,-12805.562797,-2145.067394
507.308636,2738.761985,-7994.224174,76.609550
507.308958,4589.276840,-4885.359217,1302.362347
507.309280,7105.977043,-4515.256246,-459.657299
507.309603,7624.121203,-5625.565159,-1072.533697
507.309925,5329.482782,-5255.462188,459.657299
507.310247,3775.050304,-5921.647536,1149.143247
507.310570,3478.967927,-7920.203579,-1302.362347
507.310892,1776.494261,-12287.418637,-3830.477490
507.311214,-2812.782580,-13545.768739,-689.485948
507.311536,-7920.203579,-10510.924376,1608.800546
507.311859,-8290.306550,-8808.450710,-1915.238745
507.312181,-6883.915261,-9400.615463,-6358.592633
507.312503,-7105.977043,-9844.739029,-6052.154434
507.312825,-7772.162391,-9548.656652,-2145.067394
507.313148,-5921.647536,-10436.903782,-536.266849
507.313470,-2294.638420,-13397.727550,-2528.115143
507.313792,0.000000,-14730.098246,-2528.115143
507.314115,74.020594,-11991.336260,229.828649
507.314437,1628.453072,-7105.977043,229.828649
507.314759,5033.400406,-4737.318029,-1762.019645
507.315081,8142.265362,-5181.441594,-2451.505594
507.315404,8290.306550,-5773.606348,-306.438199
507.315726,5773.606348,-3997.112087,1225.752797
507.316048,5329.482782,-5107.421000,842.705048
507.316371,4367.215058,-9844.739029,-1685.410096
507.316693,1480.411884,-13323.706956,-2604.724693
507.317015,-3775.050304,-11399.171507,-1225.752797
507.317337,-6439.791695,-8734.430116,-612.876398
507.317660,-5181.441594,-9918.759623,-3524.039291
507.317982,-3923.091493,-11843.295072,-4673.182538
507.318304,-5477.523971,-10288.862594,-2451.505594
507.318626,-7550.100608,-8216.285956,0.000000
507.318949,-6217.729913,-9992.780217,-2221.676944
507.319271,-2072.576638,-14211.954086,-3677.258390
507.319593,-666.185348,-14211.954086,-2987.772442
507.319916,-888.247130,-9622.677246,-919.314598
507.320238,1628.453072,-7402.059420,0.000000
507.320560,6217.729913,-8216.285956,-1149.143247
507.320882,8364.327145,-7328.038826,-1915.238745
507.321205,5847.626942,-5033.400406,-766.095498
507.321527,3849.070898,-4367.215058,306.438199
507.321849,3849.070898,-7698.141797,-1838.629195
507.322172,2368.659014,-11399.171507,-3447.429741
507.322494,-2516.700203,-11177.109724,-1225.752797
507.322816,-6883.915261,-9326.594869,1149.143247
507.323138,-6513.812290,-9548.656652,-1915.238745
507.323461,-4367.215058,-11473.192101,-5056.230287
507.323783,-5921.647536,-10955.047942,-3447.429741
507.324105,-8142.265362,-9252.574275,-229.828649
507.324427,-6957.935855,-8660.409521,-229.828649
507.324750,-1850.514855,-11917.315666,-3217.601092
507.325072,1036.288319,-13397.727550,-3600.648841
507.325394,740.205942,-11251.130318,-612.876398
507.325717,666.185348,-7254.018232,2374.896044
507.326039,3552.988522,-5995.668130,76.609550
507.326361,6365.771101,-7328.038826,-2987.772442
507.326683,6439.791695,-8364.327145,-3294.210641
507.327006,4441.235652,-6069.688724,-536.266849
507.327328,3849.070898,-6143.709319,0.000000
507.327650,3849.070898,-9474.636058,-1991.848295
507.327973,1110.308913,-12731.542202,-2451.505594
507.328295,-4515.256246,-11251.130318,-306.438199
507.328617,-7179.997637,-9252.574275,229.828649
507.328939,-6291.750507,-9844.739029,-4443.353888
507.329262,-5625.565159,-11621.233289,-6435.202183
507.329584,-5403.503377,-10955.047942,-1838.629195
507.329906,-5033.400406,-8586.388927,842.705048
507.330228,-1998.556043,-9992.780217,-459.657299
507.330551,1184.329507,-13175.665768,-1302.362347
507.330873,1776.494261,-11695.253884,-383.047749
507.331195,1924.535449,-7031.956449,612.876398
507.331518,3478.967927,-5699.585753,0.000000
507.331840,6661.853478,-7031.956449,-1225.752797
507.332162,7031.956449,-6957.935855,-1455.581446
507.332484,4885.359217,-4811.338623,689.485948
507.332807,3997.112087,-4293.194464,766.095498
507.333129,3849.070898,-7254.018232,-2604.724693
507.333451,1554.432478,-11547.212695,-4979.620737
507.333773,-3849.070898,-13249.686362,-2451.505594
507.334096,-8808.450710,-11547.212695,0.000000
507.334418,-8956.491898,-10436.903782,-2221.676944
507.334740,-7328.038826,-11399.171507,-5745.716235
507.335063,-7624.121203,-11103.089130,-5592.497135
507.335385,-7920.203579,-10288.862594,-2451.505594
507.335707,-5403.503377,-9844.739029,-1685.410096
507.336029,-518.144159,-12287.418637,-2528.115143
507.336352,2442.679609,-13545.768739,-1532.190996
507.336674,2220.617826,-10807.006753,229.828649
507.336996,3775.050304,-7254.018232,919.314598
507.337319,7550.100608,-6809.894666,-306.438199
507.337641,10066.800811,-7846.182985,-1225.752797
507.337963,8068.244768,-6365.771101,306.438199
507.338285,4441.235652,-2664.741391,1915.238745
507.338608,3330.926739,-3182.885551,536.266849
507.338930,3256.906145,-8512.368333,-2911.162892
507.339252,0.000000,-11991.336260,-3447.429741
507.339574,-5181.441594,-11251.130318,-1762.019645
507.339897,-8438.347739,-9992.780217,-2145.067394
507.340219,-7328.038826,-11103.089130,-2834.553343
507.340541,-7920.203579,-12213.398043,-4749.792088
507.340864,-9474.636058,-11843.295072,-3830.477490
507.341186,-9696.697840,-9844.739029,-2834.553343
507.341508,-6439.791695,-10955.047942,-3753.867940
507.341830,-1924.535449,-13323.706956,-4366.744339
507.342153,-370.102971,-12805.562797,-2145.067394
507.342475,0.000000,-9326.594869,153.219100
507.342797,3478.967927,-7179.997637,0.000000
507.343120,8142.265362,-7476.080014,-1915.238745
507.343442,8512.368333,-7179.997637,-2451.505594
507.343764,5773.606348,-4219.173869,1532.190996
507.344086,4145.153275,-2664.741391,1915.238745
507.344409,4663.297435,-7031.956449,-1762.019645
507.344731,2738.761985,-11547.212695,-2451.505594
507.345053,-2368.659014,-11547.212695,-153.219100
507.345375,-6217.729913,-9696.697840,153.219100
507.345698,-5625.565159,-9844.739029,-2528.115143
507.346020,-2960.823768,-11991.336260,-3677.258390
507.346342,-4219.173869,-11473.192101,-2911.162892
507.346665,-5847.626942,-9104.533087,-612.876398
507.346987,-4885.359217,-9474.636058,0.000000
507.347309,-962.267725,-11917.315666,-2681.334243
507.347631,592.164754,-13175.665768,-3907.087040
507.347954,0.000000,-11991.336260,-1685.410096
507.348276,0.000000,-9178.553681,459.657299
507.348598,3478.967927,-7179.997637,-612.876398
507.348921,5699.585753,-6883.915261,-2068.457845
507.349243,4441.235652,-6587.832884,-1685.410096
507.349565,2146.597232,-4811.338623,0.000000
507.349887,1554.432478,-5107.421000,-1225.752797
507.350210,1406.391290,-8882.471304,-2987.772442
507.350532,-1184.329507,-11251.130318,-2451.505594
507.350854,-4959.379811,-9918.759623,-919.314598
507.351176,-5921.647536,-8734.430116,-1072.533697
507.351499,-3997.112087,-10732.986159,-3447.429741
507.351821,-2516.700203,-12139.377449,-3370.820191
507.352143,-3997.112087,-9918.759623,-919.314598
507.352466,-4293.194464,-7772.162391,919.314598
507.352788,-2442.679609,-9844.739029,-689.485948
507.353110,-296.082377,-12953.603985,-2451.505594
507.353432,-370.102971,-11991.336260,-1072.533697
507.353755,-1184.329507,-7994.224174,383.047749
507.354077,1628.453072,-5551.544565,0.000000
507.354399,6439.791695,-7105.977043,-2221.676944
507.354721,8216.285956,-7698.141797,-1915.238745
507.355044,6661.853478,-5625.565159,689.485948
507.355366,4589.276840,-5107.421000,306.438199
507.355688,3478.967927,-8068.244768,-2221.676944
507.356011,1258.350101,-11991.336260,-4136.915689
507.356333,-3775.050304,-12065.356855,-2987.772442
507.356655,-7254.018232,-11251.130318,-2145.067394
507.356977,-5995.668130,-11325.150913,-3294.210641
507.357300,-3330.926739,-11621.233289,-5132.839837
507.357622,-2812.782580,-10658.965565,-3064.381992
507.357944,-4367.215058,-8586.388927,1302.362347
507.358267,-3478.967927,-8586.388927,842.705048
507.358589,-1628.453072,-10807.006753,-2451.505594
507.358911,-666.185348,-11991.336260,-2604.724693
507.359233,-1702.473667,-10436.903782,0.000000
507.359556,-1332.370696,-7698.141797,1378.971896
507.359878,2442.679609,-6217.729913,0.000000
507.360200,6143.709319,-6957.935855,-2604.724693
507.360522,6735.874072,-7031.956449,-2145.067394
507.360845,5773.606348,-7328.038826,-536.266849
507.361167,4663.297435,-8142.265362,-383.047749
507.361489,2294.638420,-10436.903782,-3524.039291
507.361812,-2516.700203,-12509.480420,-4290.134789
507.362134,-6883.915261,-11843.295072,-2451.505594
507.362456,-7328.038826,-10732.986159,-3370.820191
507.362778,-5255.462188,-11473.192101,-6205.373534
507.363101,-4145.153275,-12213.398043,-4213.525239
507.363423,-5625.565159,-8586.388927,1072.533697
507.363745,-5477.523971,-6587.832884,1608.800546
507.364068,-2664.741391,-9326.594869,-2604.724693
507.364390,-296.082377,-12435.459826,-4060.306139
507.364712,-814.226536,-12139.377449,-2298.286494
507.365034,-1184.329507,-8142.265362,689.485948
507.365357,1628.453072,-7179.997637,1455.581446
507.365679,5773.606348,-7846.182985,-383.047749
507.366001,7254.018232,-7254.018232,-1072.533697
507.366323,5551.544565,-5033.400406,459.657299
507.366646,3404.947333,-4515.256246,459.657299
507.366968,2072.576638,-7772.162391,-3064.381992
507.367290,-222.061783,-11769.274478,-3983.696590
507.367613,-3923.091493,-11621.233289,-2145.067394
507.367935,-5995.668130,-9252.574275,-1608.800546
507.368257,-4885.359217,-10288.862594,-3677.258390
507.368579,-2886.803174,-13101.645173,-3983.696590
507.368902,-4441.235652,-12361.439231,-1455.581446
507.369224,-5921.647536,-9770.718434,1378.971896
507.369546,-5107.421000,-9400.615463,0.000000
507.369868,-2664.741391,-11473.192101,-3294.210641
507.370190,-2220.617826,-11029.068536,-3600.648841
507.370513,-2368.659014,-7402.059420,-766.095498
507.370835,0.000000,-5699.585753,459.657299
507.371157,4589.276840,-7328.038826,-1225.752797
507.371479,7328.038826,-9474.636058,-2374.896044
507.371801,7031.956449,-8734.430116,0.000000
507.372124,6143.709319,-7105.977043,1149.143247
507.372446,6661.853478,-8216.285956,-1225.752797
507.372768,6217.729913,-11251.130318,-3907.087040
507.373090,1776.494261,-10955.047942,-2221.676944
507.373412,-3849.070898,-9252.574275,76.609550
507.373735,-4441.235652,-8882.471304,-536.266849
507.374057,-1924.535449,-10881.027347,-4826.401637
507.374379,-1554.432478,-11695.253884,-4673.182538
507.374701,-2812.782580,-10584.944971,-153.219100
507.375023,-3108.864956,-8586.388927,2757.943793
507.375346,-1406.391290,-10658.965565,-153.219100
507.375668,-592.164754,-12065.356855,-1532.190996
507.375990,-2146.597232,-9474.636058,76.609550
507.376312,-2516.700203,-5921.647536,0.000000
507.376634,-814.226536,-5255.462188,-1378.971896
507.376957,2960.823768,-7920.203579,-2221.676944
507.377279,4367.215058,-8216.285956,-1302.362347
507.377601,3404.947333,-6587.832884,383.047749
507.377923,2960.823768,-6143.709319,76.609550
507.378246,2886.803174,-8882.471304,-2757.943793
507.378568,888.247130,-12213.398043,-5286.058936
507.378890,-4145.153275,-10807.006753,-3294.210641
507.379212,-7105.977043,-8808.450710,-2221.676944
507.379534,-6069.688724,-9622.677246,-4213.525239
507.379857,-4145.153275,-11621.233289,-4213.525239
507.380179,-3775.050304,-11177.109724,-1915.238745
507.380501,-5403.503377,-9844.739029,229.828649
507.380823,-3997.112087,-10288.862594,306.438199
507.381145,-814.226536,-12509.480420,-1149.143247
507.381468,-370.102971,-11917.315666,-1149.143247
507.381790,-740.205942,-7994.224174,-612.876398
507.382112,0.000000,-5181.441594,153.219100
507.382434,4589.276840,-6291.750507,-1149.143247
507.382756,8290.306550,-7698.141797,-2528.115143
507.383079,7994.224174,-7105.977043,-1762.019645
507.383401,5699.585753,-5329.482782,-229.828649
507.383723,5477.523971,-8068.244768,-1225.752797
507.384045,3775.050304,-11843.295072,-4596.572988
507.384367,-740.205942,-13989.892304,-5745.716235
507.384690,-6957.935855,-12213.398043,-3677.258390
507.385012,-8660.409521,-11029.068536,-3600.648841
507.385334,-6143.709319,-11325.150913,-5515.887586
507.385656,-5329.482782,-10807.006753,-5439.278036
507.385978,-5699.585753,-10140.821405,-2374.896044
507.386301,-4441.235652,-8660.409521,-306.438199
507.386623,-1628.453072,-10140.821405,-612.876398
507.386945,0.000000,-11251.130318,-1915.238745
507.387267,-962.267725,-10214.842000,-612.876398
507.387589,-888.247130,-7179.997637,995.924147
507.387912,1998.556043,-5921.647536,0.000000
507.388234,5773.606348,-7031.956449,-1455.581446
507.388556,6735.874072,-7402.059420,-919.314598
507.388878,5773.606348,-5625.565159,995.924147
507.389200,5329.482782,-6513.812290,1072.533697
507.389523,4737.318029,-9622.677246,-1838.629195
507.389845,1776.494261,-13175.665768,-3600.648841
507.390167,-3627.009116,-12509.480420,-2221.676944
507.390489,-6439.791695,-10066.800811,-1072.533697
507.390811,-5699.585753,-10214.842000,-2757.943793
507.391134,-3701.029710,-11251.130318,-4519.963438
507.391456,-4367.215058,-10066.800811,-1762.019645
507.391778,-5773.606348,-7328.038826,1608.800546
507.392100,-4293.194464,-7846.182985,842.705048
507.392422,-1480.411884,-10807.006753,-1608.800546
507.392745,-1924.535449,-11251.130318,-1455.581446
507.393067,-2886.803174,-8512.368333,612.876398
507.393389,-962.267725,-5995.668130,383.047749
507.393711,3330.926739,-7105.977043,-766.095498
507.394033,5773.606348,-7476.080014,-689.485948
507.394356,5033.400406,-6217.729913,306.438199
507.394678,3849.070898,-5403.503377,919.314598
507.395000,4219.173869,-7624.121203,-1762.019645
507.395322,3182.885551,-11843.295072,-3830.477490
507.395644,-740.205942,-13249.686362,-3600.648841
507.395967,-5699.585753,-11251.130318,-689.485948
507.396289,-5699.585753,-10140.821405,-1991.848295
507.396611,-2886.803174,-11621.233289,-5515.887586
507.396933,-1850.514855,-12657.521608,-4749.792088
507.397256,-2886.803174,-10955.047942,0.000000
507.397578,-3108.864956,-8734.430116,1838.629195
507.397900,-444.123565,-10214.842000,-766.095498
507.398222,370.102971,-11325.150913,-2221.676944
507.398544,-888.247130,-8660.409521,-536.266849
507.398867,0.000000,-6291.750507,1149.143247
507.399189,3849.070898,-6587.832884,-1685.410096
507.399511,7254.018232,-8512.368333,-3140.991542
507.399833,7698.141797,-8364.327145,-1225.752797
507.400155,5773.606348,-6587.832884,1072.533697
507.400478,5107.421000,-7179.997637,-383.047749
507.400800,4367.215058,-10140.821405,-4596.572988
507.401122,370.102971,-12657.521608,-6205.373534
507.401444,-5181.441594,-12805.562797,-3907.087040
507.401766,-7772.162391,-11177.109724,-1991.848295
507.402089,-5995.668130,-10584.944971,-4060.306139
507.402411,-3701.029710,-11621.233289,-5822.325785
507.402733,-4145.153275,-10436.903782,-3217.601092
507.403055,-4811.338623,-8512.368333,842.705048
507.403377,-3997.112087,-7994.224174,-689.485948
507.403700,-1776.494261,-11251.130318,-2221.676944
507.404022,-1406.391290,-11547.212695,-689.485948
507.404344,-1332.370696,-7179.997637,-459.657299
507.404666,740.205942,-5033.400406,0.000000
507.404988,4071.132681,-6365.771101,459.657299
507.405311,6513.812290,-7105.977043,306.438199
507.405633,5921.647536,-6217.729913,229.828649
507.405955,5255.462188,-6587.832884,229.828649
507.406277,4589.276840,-8956.491898,-1072.533697
507.406599,2590.720797,-11843.295072,-3524.039291
507.406922,-2368.659014,-11695.253884,-3370.820191
507.407244,-7476.080014,-10732.986159,-2068.457845
507.407566,-7624.121203,-11473.192101,-2757.943793
507.407888,-5477.523971,-11769.274478,-4903.011187
507.408210,-4959.379811,-11695.253884,-4673.182538
507.408533,-6069.688724,-10807.006753,-612.876398
507.408855,-4145.153275,-10436.903782,766.095498
507.409177,-1628.453072,-10140.821405,-995.924147
507.409499,-296.082377,-11621.233289,-1762.019645
507.409821,-1110.308913,-10066.800811,1072.533697
507.410144,-296.082377,-6069.688724,612.876398
507.410466,2220.617826,-4811.338623,-1072.533697
507.410788,5477.523971,-6587.832884,-459.657299
507.411110,6291.750507,-7550.100608,995.924147
507.411432,4293.194464,-6587.832884,612.876398
507.411755,4441.235652,-6809.894666,0.000000
507.412077,3849.070898,-9178.553681,-3140.991542
507.412399,740.205942,-11695.253884,-4060.306139
507.412721,-4811.338623,-11325.150913,-1532.190996
507.413043,-7476.080014,-9770.718434,-1302.362347
507.413366,-5329.482782,-10658.965565,-5898.935335
507.413688,-3256.906145,-13397.727550,-7431.126331
507.414010,-4663.297435,-12953.603985,-1762.019645
507.414332,-6143.709319,-9992.780217,1991.848295
507.414655,-3552.988522,-9474.636058,-459.657299
507.414977,222.061783,-11251.130318,-2834.553343
507.415299,1406.391290,-11177.109724,-2451.505594
507.415621,666.185348,-7920.203579,-459.657299
507.415943,2220.617826,-5255.462188,1225.752797
507.416266,5477.523971,-5181.441594,383.047749
507.416588,8586.388927,-7254.018232,-1991.848295
507.416910,7994.224174,-7476.080014,76.609550
507.417232,6217.729913,-5847.626942,2451.505594
507.417554,5329.482782,-6439.791695,-919.314598
507.417877,3404.947333,-10881.027347,-3830.477490
507.418199,-814.226536,-12361.439231,-2221.676944
507.418521,-5107.421000,-11177.109724,-1532.190996
507.418843,-6439.791695,-10140.821405,-3447.429741
507.419165,-4515.256246,-11769.274478,-4519.963438
507.419488,-4589.276840,-10807.006753,-3677.258390
507.419810,-5403.503377,-9326.594869,-1762.019645
507.420132,-5625.565159,-9548.656652,-1378.971896
507.420454,-3627.009116,-12361.439231,-612.876398
507.420776,-2146.597232,-12287.418637,-1838.629195
507.421099,-2368.659014,-8216.285956,-1915.238745
507.421421,-1554.432478,-5255.462188,-995.924147
507.421743,2516.700203,-6661.853478,-1302.362347
507.422065,5181.441594,-7624.121203,-995.924147
507.422387,4737.318029,-6957.935855,306.438199
507.422710,4367.215058,-5847.626942,995.924147
507.423032,4737.318029,-6365.771101,-2068.457845
507.423354,4145.153275,-9252.574275,-4443.353888
507.423676,1110.308913,-12953.603985,-3370.820191
507.423998,-3701.029710,-12435.459826,-1302.362347
507.424321,-5699.585753,-10807.006753,-1685.410096
507.424643,-4737.318029,-11473.192101,-3370.820191
507.424965,-3404.947333,-11991.336260,-3447.429741
507.425287,-4293.194464,-10436.903782,-2987.772442
507.425609,-5329.482782,-9622.677246,-1378.971896
507.425932,-3701.029710,-11177.109724,-229.828649
507.426254,-1850.514855,-12361.439231,0.000000
507.426576,-2590.720797,-9696.697840,383.047749
507.426898,-2516.700203,-5847.626942,1302.362347
507.427220,-222.061783,-4293.194464,-1225.752797
507.427543,3997.112087,-6883.915261,-2681.334243
507.427865,5255.462188,-7846.182985,-1455.581446
507.428187,4145.153275,-7105.977043,383.047749
507.428509,3849.070898,-7105.977043,153.219100
507.428831,4737.318029,-10436.903782,-2451.505594
507.429154,3256.906145,-13101.645173,-4903.011187
507.429476,-1776.494261,-12731.542202,-3524.039291
507.429798,-6069.688724,-10658.965565,-2145.067394
507.430120,-5995.668130,-10510.924376,-2911.162892
507.430442,-3997.112087,-11621.233289,-3983.696590
507.430765,-4367.215058,-11177.109724,-2451.505594
507.431087,-5551.544565,-8586.388927,76.609550
507.431409,-3552.988522,-7698.141797,612.876398
507.431731,-370.102971,-8956.491898,-459.657299
507.432053,222.061783,-9474.636058,0.000000
507.432376,-814.226536,-7031.956449,2068.457845
507.432698,518.144159,-4959.379811,1915.238745
507.433020,5107.421000,-5625.565159,-842.705048
507.433342,8068.244768,-7179.997637,-2145.067394
507.433665,7698.141797,-7328.038826,-612.876398
507.433987,5255.462188,-7179.997637,995.924147
507.434309,5033.400406,-9104.533087,-536.266849
507.434631,4737.318029,-11991.336260,-4060.306139
507.434953,1258.350101,-13175.665768,-5822.325785
507.435276,-4367.215058,-12657.521608,-4060.306139
507.435598,-7105.977043,-11399.171507,-2451.505594
507.435920,-6735.874072,-11843.295072,-3447.429741
507.436242,-6661.853478,-10955.047942,-4060.306139
507.436564,-8142.265362,-9178.553681,-2757.943793
507.436887,-7550.100608,-8364.327145,-1991.848295
507.437209,-3849.070898,-9548.656652,-2987.772442
507.437531,-814.226536,-11621.233289,-2604.724693
507.437853,740.205942,-11325.150913,-459.657299
507.438175,1406.391290,-7846.182985,1149.143247
507.438498,4441.235652,-6217.729913,1072.533697
507.438820,8068.244768,-7031.956449,-995.924147
507.439142,8956.491898,-7624.121203,-2145.067394
507.439464,5921.647536,-6809.894666,-383.047749
507.439786,4737.318029,-6365.771101,0.000000
507.440109,4367.215058,-8438.347739,-2221.676944
507.440431,2368.659014,-11991.336260,-4519.963438
507.440753,-2664.741391,-11843.295072,-2604.724693
507.441075,-6809.894666,-10807.006753,-1302.362347
507.441397,-7105.977043,-11029.068536,-2528.115143
507.441720,-6069.688724,-13841.851115,-4749.792088
507.442042,-7476.080014,-12287.418637,-3064.381992
507.442364,-9474.636058,-8734.430116,229.828649
507.442686,-8290.306550,-6957.935855,-689.485948
507.443008,-3923.091493,-10066.800811,-2987.772442
507.443331,-1110.308913,-11103.089130,-2298.286494
507.443653,-296.082377,-8438.347739,-842.705048
507.443975,1998.556043,-6883.915261,76.609550
507.444297,6217.729913,-7994.224174,383.047749
507.444619,8364.327145,-8586.388927,-153.219100
507.444942,7328.038826,-7550.100608,-536.266849
507.445264,5847.626942,-5699.585753,766.095498
507.445586,5477.523971,-6735.874072,-766.095498
507.445908,2960.823768,-8290.306550,-2757.943793
507.446230,-1554.432478,-11547.212695,-1455.581446
507.446553,-6439.791695,-11325.150913,536.266849
507.446875,-7994.224174,-10658.965565,-1225.752797
507.447197,-5921.647536,-11103.089130,-3447.429741
507.447519,-5033.400406,-11991.336260,-3294.210641
507.447841,-5995.668130,-10066.800811,-459.657299
507.448164,-5995.668130,-7402.059420,1532.190996
507.448486,-3849.070898,-8882.471304,995.924147
507.448808,-1850.514855,-11547.212695,-1991.848295
507.449130,-1702.473667,-10584.944971,-2451.505594
507.449452,-1258.350101,-7698.141797,-1302.362347
507.449775,1776.494261,-7105.977043,-1072.533697
507.450097,5921.647536,-9400.615463,-1378.971896
507.450419,6809.894666,-8882.471304,-842.705048
507.450741,5107.421000,-6735.874072,459.657299
507.451063,4663.297435,-6069.688724,-306.438199
507.451386,4737.318029,-8512.368333,-4903.011187
507.451708,1776.494261,-11029.068536,-5745.716235
507.452030,-3701.029710,-10732.986159,-2911.162892
507.452352,-7179.997637,-10140.821405,-459.657299
507.452675,-5921.647536,-10881.027347,-1455.581446
507.452997,-3108.864956,-12731.542202,-4136.915689
507.453319,-3256.906145,-11991.336260,-2757.943793
507.453641,-4515.256246,-8882.471304,0.000000
507.453963,-2960.823768,-8142.265362,689.485948
507.454286,-518.144159,-10214.842000,-842.705048
507.454608,148.041188,-10436.903782,-1378.971896
507.454930,0.000000,-8438.347739,-995.924147
507.455252,1628.453072,-6587.832884,-842.705048
507.455574,5329.482782,-7994.224174,-1225.752797
507.455897,7550.100608,-8586.388927,-1225.752797
507.456219,6661.853478,-6661.853478,-612.876398
507.456541,5033.400406,-5699.585753,-459.657299
507.456863,4219.173869,-6957.935855,-1685.410096
507.457185,2368.659014,-9770.718434,-4443.353888
507.457508,-2368.659014,-11325.150913,-5056.230287
507.457830,-7772.162391,-10658.965565,-2911.162892
507.458152,-8512.368333,-11251.130318,-1838.629195
507.458474,-5699.585753,-12731.542202,-4136.915689
507.458796,-3775.050304,-13027.624579,-4519.963438
507.459119,-4663.297435,-9548.656652,-842.705048
507.459441,-4367.215058,-7698.141797,459.657299
507.459763,-1258.350101,-9400.615463,-919.314598
507.460085,740.205942,-10807.006753,-1532.190996
507.460407,0.000000,-9030.512492,-1225.752797
507.460730,-222.061783,-6069.688724,229.828649
507.461052,2886.803174,-6439.791695,153.219100
507.461374,7105.977043,-8068.244768,-842.705048
507.461696,7476.080014,-7846.182985,-383.047749
507.462018,5995.668130,-6661.853478,536.266849
507.462341,5625.565159,-6291.750507,153.219100
507.462663,4959.379811,-8290.306550,-2374.896044
507.462985,1110.308913,-11621.233289,-4366.744339
507.463307,-4737.318029,-11991.336260,-3370.820191
507.463629,-9104.533087,-10955.047942,-2221.676944
507.463952,-8734.430116,-11769.274478,-3600.648841
507.464274,-6883.915261,-12953.603985,-5362.668486
507.464596,-7179.997637,-11843.295072,-4213.525239
507.464918,-7105.977043,-10436.903782,-766.095498
507.465240,-4737.318029,-10807.006753,536.266849
507.465563,-2072.576638,-11991.336260,-1685.410096
507.465885,-1406.391290,-11029.068536,-2451.505594
507.466207,-1776.494261,-7698.141797,-612.876398
507.466529,444.123565,-5403.503377,-459.657299
507.466851,5181.441594,-6513.812290,-1838.629195
507.467174,7994.224174,-8586.388927,-995.924147
507.467496,7698.141797,-7179.997637,1915.238745
507.467818,6587.832884,-5477.523971,2528.115143
507.468140,6809.894666,-6957.935855,0.000000
507.468462,5625.565159,-10436.903782,-3217.601092
507.468785,888.247130,-12139.377449,-3294.210641
507.469107,-5107.421000,-10214.842000,-1072.533697
507.469430,-6365.771101,-9696.697840,-1149.143247
507.469752,-4811.338623,-11473.192101,-4060.306139
507.470075,-4737.318029,-12287.418637,-4290.134789
507.470397,-6217.729913,-10807.006753,-1225.752797
507.470719,-6587.832884,-8438.347739,689.485948
507.471042,-4293.194464,-10584.944971,-1072.533697
507.471364,-1850.514855,-11917.315666,-2451.505594
507.471687,-1702.473667,-9474.636058,-1838.629195
507.472009,-1332.370696,-6143.709319,-1225.752797
507.472331,2368.659014,-5255.462188,-1072.533697
507.472654,7105.977043,-6957.935855,-1838.629195
507.472976,8142.265362,-7105.977043,-2604.724693
507.473299,6217.729913,-6809.894666,0.000000
507.473621,5403.503377,-7179.997637,1915.238745
507.473943,5033.400406,-9104.533087,-1225.752797
507.474266,2220.617826,-12065.356855,-4290.134789
507.474588,-3108.864956,-11399.171507,-2528.115143
507.474911,-6735.874072,-8586.388927,-766.095498
507.475233,-5847.626942,-8216.285956,-2681.334243
507.475556,-4737.318029,-10658.965565,-3753.867940
507.475878,-5403.503377,-11843.295072,-1915.238745
507.476200,-6513.812290,-9622.677246,842.705048
507.476523,-4441.235652,-9918.759623,-536.266849
507.476845,-1702.473667,-12213.398043,-2451.505594
507.477168,-814.226536,-12287.418637,-1838.629195
507.477490,-888.247130,-8808.450710,-536.266849
507.477812,1480.411884,-6143.709319,-766.095498
507.478135,5625.565159,-6143.709319,-1608.800546
507.478457,7994.224174,-7920.203579,-2451.505594
507.478780,6143.709319,-7772.162391,-995.924147
507.479102,3775.050304,-7402.059420,306.438199
507.479424,2516.700203,-8956.491898,-1608.800546
507.479747,1480.411884,-11843.295072,-4443.353888
507.480069,-2368.659014,-12509.480420,-4826.401637
507.480392,-6957.935855,-9918.759623,-2374.896044
507.480714,-8068.244768,-8586.388927,-1991.848295
507.481036,-6069.688724,-10436.903782,-3600.648841
507.481359,-4737.318029,-11917.315666,-4136.915689
507.481681,-5329.482782,-9918.759623,-1685.410096
507.482004,-4441.235652,-9178.553681,-842.705048
507.482326,-1554.432478,-11991.336260,-995.924147
507.482649,148.041188,-13249.686362,-536.266849
507.482971,0.000000,-9844.739029,612.876398
507.483293,1110.308913,-5773.606348,0.000000
507.483616,4959.379811,-5551.544565,-766.095498
507.483938,7772.162391,-5255.462188,-1608.800546
507.484261,7550.100608,-4959.379811,-459.657299
507.484583,5773.606348,-5181.441594,459.657299
507.484905,5921.647536,-6883.915261,0.000000
507.485228,5477.523971,-10214.842000,-2757.943793
507.485550,1406.391290,-12805.562797,-4060.306139
507.485873,-4367.215058,-11917.315666,-2145.067394
507.486195,-7624.121203,-9696.697840,-1532.190996
507.486517,-5921.647536,-9992.780217,-4903.011187
507.486840,-3552.988522,-12583.501014,-6281.983084
507.487162,-3923.091493,-11843.295072,-2911.162892
507.487485,-4515.256246,-9326.594869,995.924147
507.487807,-3256.906145,-10066.800811,0.000000
507.488130,-1184.329507,-13397.727550,-766.095498
507.488452,-814.226536,-12509.480420,-306.438199
507.488774,-1480.411884,-6957.935855,-306.438199
507.489097,666.185348,-4219.173869,-766.095498
507.489419,5107.421000,-6143.709319,-1149.143247
507.489742,6735.874072,-6587.832884,383.047749
507.490064,4737.318029,-5033.400406,1838.629195
507.490386,3404.947333,-5033.400406,1378.971896
507.490709,4145.153275,-7994.224174,-1838.629195
507.491031,2664.741391,-11547.212695,-5515.887586
507.491354,-2516.700203,-13175.665768,-4903.011187
507.491676,-7402.059420,-12213.398043,-1149.143247
507.491998,-7402.059420,-11843.295072,-1378.971896
507.492321,-4441.235652,-11991.336260,-4596.572988
507.492643,-4293.194464,-10807.006753,-5515.887586
507.492966,-6365.771101,-9474.636058,-2145.067394
507.493288,-5921.647536,-9474.636058,306.438199
507.493610,-2960.823768,-11177.109724,-1072.533697
507.493933,-1110.308913,-11991.336260,-1915.238745
507.494255,-1258.350101,-9548.656652,306.438199
507.494578,-592.164754,-5995.668130,1915.238745
507.494900,2960.823768,-5181.441594,689.485948
507.495223,6365.771101,-6587.832884,-1149.143247
507.495545,6439.791695,-6957.935855,-383.047749
507.495867,5033.400406,-5921.647536,1149.143247
507.496190,4885.359217,-5699.585753,689.485948
507.496512,4737.318029,-8438.347739,-1991.848295
507.496835,1628.453072,-12139.377449,-4290.134789
507.497157,-2812.782580,-12139.377449,-3064.381992
507.497479,-5847.626942,-10658.965565,-1838.629195
507.497802,-5551.544565,-10362.883188,-3983.696590
507.498124,-4071.132681,-11621.233289,-4979.620737
507.498447,-5033.400406,-10955.047942,-2834.553343
507.498769,-5921.647536,-8586.388927,-612.876398
507.499091,-4885.359217,-9030.512492,-459.657299
507.499414,-2442.679609,-12435.459826,-1532.190996
507.499736,-1480.411884,-12287.418637,-1532.190996
507.500059,-1406.391290,-8364.327145,-459.657299
507.500381,1406.391290,-5773.606348,-306.438199
507.500704,6143.709319,-6513.812290,-1302.362347
507.501026,8956.491898,-7476.080014,-1838.629195
507.501348,7920.203579,-7105.977043,0.000000
507.501671,6513.812290,-6883.915261,919.314598
507.501993,5551.544565,-8142.265362,-612.876398
507.502316,3849.070898,-10732.986159,-4749.792088
507.502638,-370.102971,-12953.603985,-5515.887586
507.502960,-4811.338623,-11769.274478,-2528.115143
507.503283,-5847.626942,-10288.862594,-1225.752797
507.503605,-4071.132681,-10436.903782,-3830.477490
507.503928,-4441.235652,-10658.965565,-4213.525239
507.504250,-5107.421000,-9548.656652,-1225.752797
507.504572,-5033.400406,-8734.430116,-306.438199
507.504895,-3775.050304,-10732.986159,-1302.362347
507.505217,-1554.432478,-12953.603985,-1225.752797
507.505540,-666.185348,-10955.047942,-995.924147
507.505862,0.000000,-6291.750507,-229.828649
507.506184,2368.659014,-4885.359217,76.609550
507.506507,5403.503377,-7254.018232,-306.438199
507.506829,5921.647536,-8142.265362,-2145.067394
507.507152,4589.276840,-7476.080014,-1225.752797
507.507474,3552.988522,-7031.956449,-536.266849
507.507797,3552.988522,-9474.636058,-2987.772442
507.508119,1628.453072,-12435.459826,-4673.182538
507.508441,-3256.906145,-11843.295072,-2757.943793
507.508764,-6513.812290,-9474.636058,-919.314598
507.509086,-5921.647536,-10214.842000,-2834.553343
507.509409,-4737.318029,-11325.150913,-5132.839837
507.509731,-5699.585753,-10658.965565,-2987.772442
507.510053,-6809.894666,-9252.574275,306.438199
507.510376,-5033.400406,-10510.924376,229.828649
507.510698,-2442.679609,-13619.789333,-689.485948
507.511021,-1776.494261,-12361.439231,459.657299
507.511343,-1480.411884,-7105.977043,689.485948
507.511665,1924.535449,-4367.215058,-919.314598
507.511988,5847.626942,-5403.503377,-1302.362347
507.512310,7105.977043,-6957.935855,-995.924147
507.512633,5773.606348,-7105.977043,995.924147
507.512955,5033.400406,-5625.565159,1762.019645
507.513278,5329.482782,-6513.812290,-2221.676944
507.513600,3256.906145,-10140.821405,-5898.935335
507.513922,-1258.350101,-12065.356855,-3524.039291
507.514245,-6069.688724,-11399.171507,-1149.143247
507.514567,-6661.853478,-10807.006753,-2528.115143
507.514890,-4071.132681,-11695.253884,-4596.572988
507.515212,-4441.235652,-11029.068536,-4213.525239
507.515534,-6069.688724,-9178.553681,-1225.752797
507.515857,-5477.523971,-9548.656652,-383.047749
507.516179,-2886.803174,-11991.336260,-2145.067394
507.516502,-1480.411884,-13693.809927,-2145.067394
507.516824,-1776.494261,-9918.759623,306.438199
507.517146,222.061783,-5551.544565,842.705048
507.517469,5477.523971,-5255.462188,-1532.190996
507.517791,9400.615463,-7105.977043,-1991.848295
507.518114,8808.450710,-7550.100608,842.705048
507.518436,6217.729913,-6661.853478,3524.039291
507.518758,5847.626942,-6143.709319,1455.581446
507.519081,4441.235652,-7920.203579,-3217.601092
507.519403,1628.453072,-11695.253884,-5439.278036
507.519726,-3404.947333,-12361.439231,-2911.162892
507.520048,-5995.668130,-11103.089130,-1225.752797
507.520371,-5033.400406,-10510.924376,-3140.991542
507.520693,-3849.070898,-11695.253884,-4596.572988
507.521015,-4737.318029,-12213.398043,-3217.601092
507.521338,-6069.688724,-9770.718434,-612.876398
507.521660,-5625.565159,-9770.718434,-1915.238745
507.521983,-3552.988522,-13323.706956,-3217.601092
507.522305,-2368.659014,-13101.645173,-842.705048
507.522627,-2516.700203,-7550.100608,1455.581446
507.522950,222.061783,-3775.050304,153.219100
507.523272,5033.400406,-5699.585753,-1072.533697
507.523595,7550.100608,-7698.141797,-1532.190996
507.523917,5847.626942,-6143.709319,919.314598
507.524239,3923.091493,-4663.297435,2068.457845
507.524562,4145.153275,-6735.874072,-842.705048
507.524884,2664.741391,-11399.171507,-4213.525239
507.525207,-1850.514855,-12731.542202,-3524.039291
507.525529,-6143.709319,-10362.883188,-2451.505594
507.525852,-6143.709319,-10658.965565,-3753.867940
507.526174,-3256.906145,-13027.624579,-4903.011187
507.526496,-3404.947333,-12731.542202,-2451.505594
507.526819,-5995.668130,-9252.574275,-689.485948
507.527141,-6365.771101,-9252.574275,-306.438199
507.527464,-4293.194464,-11843.295072,-1149.143247
507.527786,-3108.864956,-12509.480420,-2374.896044
507.528108,-3552.988522,-8438.347739,-612.876398
507.528431,-1332.370696,-4885.359217,76.609550
507.528753,3997.112087,-4663.297435,-383.047749
507.529076,7846.182985,-7031.956449,-383.047749
507.529398,6661.853478,-7254.018232,1455.581446
507.529720,3923.091493,-5921.647536,1762.019645
507.530043,2664.741391,-5847.626942,-1378.971896
507.530365,2738.761985,-10140.821405,-6128.763984
507.530688,814.226536,-14952.160028,-6435.202183
507.531010,-4441.235652,-13471.748144,-2528.115143
507.531333,-6809.894666,-10584.944971,-689.485948
507.531655,-4885.359217,-10584.944971,-2987.772442
507.531977,-3330.926739,-11917.315666,-4826.401637
507.532300,-4441.235652,-11325.150913,-2911.162892
507.532622,-5181.441594,-8956.491898,-1149.143247
507.532945,-3034.844362,-9696.697840,-306.438199
507.533267,296.082377,-11399.171507,-459.657299
507.533589,1258.350101,-9474.636058,229.828649
507.533912,518.144159,-5477.523971,1072.533697
507.534234,2516.700203,-4367.215058,1072.533697
507.534557,5995.668130,-6439.791695,0.000000
507.534879,6587.832884,-7328.038826,-1302.362347
507.535201,4959.379811,-7402.059420,-459.657299
507.535524,3849.070898,-7179.997637,-459.657299
507.535846,3997.112087,-9548.656652,-2451.505594
507.536169,2664.741391,-12583.501014,-4443.353888
507.536491,-2294.638420,-13249.686362,-4290.134789
507.536813,-6809.894666,-10955.047942,-2987.772442
507.537136,-6957.935855,-10288.862594,-2757.943793
507.537458,-4885.359217,-11399.171507,-4596.572988
507.537781,-4663.297435,-11251.130318,-4213.525239
507.538103,-5699.585753,-8364.327145,-459.657299
507.538426,-3775.050304,-8438.347739,229.828649
507.538748,-370.102971,-11029.068536,-919.314598
507.539070,1332.370696,-11843.295072,0.000000
507.539393,0.000000,-8290.306550,2068.457845
507.539715,518.144159,-5255.462188,1685.410096
507.540038,3923.091493,-6069.688724,-995.924147
507.540360,6365.771101,-8142.265362,-2298.286494
507.540682,5329.482782,-7772.162391,-612.876398
507.541005,3478.967927,-5847.626942,1302.362347
507.541327,4589.276840,-6439.791695,-229.828649
507.541650,5329.482782,-10362.883188,-4060.306139
507.541972,1406.391290,-13841.851115,-3753.867940
507.542294,-4515.256246,-12287.418637,-1455.581446
507.542617,-7105.977043,-11399.171507,-2374.896044
507.542939,-5847.626942,-12065.356855,-4443.353888
507.543262,-5329.482782,-13175.665768,-4826.401637
507.543584,-7624.121203,-10140.821405,-1608.800546
507.543907,-8956.491898,-7328.038826,383.047749
507.544229,-5699.585753,-8808.450710,-306.438199
507.544551,-2590.720797,-10955.047942,-2068.457845
507.544874,-2664.741391,-10362.883188,-1225.752797
507.545196,-3627.009116,-7624.121203,766.095498
507.545519,-962.267725,-6587.832884,689.485948
507.545841,2738.761985,-7476.080014,-612.876398
507.546163,4367.215058,-7179.997637,-1532.190996
507.546486,4071.132681,-6143.709319,-1915.238745
507.546808,3997.112087,-6439.791695,-1838.629195
507.547131,4663.297435,-10066.800811,-1762.019645
507.547453,2146.597232,-13101.645173,-2068.457845
507.547775,-3182.885551,-12731.542202,-2221.676944
507.548098,-7698.141797,-11029.068536,-2221.676944
507.548420,-9030.512492,-9844.739029,-2834.553343
507.548743,-7328.038826,-10955.047942,-4826.401637
507.549065,-8216.285956,-10362.883188,-4903.011187
507.549387,-8734.430116,-7698.141797,-1149.143247
507.549710,-6439.791695,-6883.915261,-153.219100
507.550032,-1554.432478,-9696.697840,-842.705048
507.550355,222.061783,-11473.192101,-766.095498
507.550677,-1480.411884,-8660.409521,-459.657299
507.551000,-3627.009116,-5847.626942,0.000000
507.551322,-2294.638420,-7328.038826,306.438199
507.551644,296.082377,-8216.285956,-1455.581446
507.551967,888.247130,-6513.812290,-3677.258390
507.552289,1258.350101,-7031.956449,-3907.087040
507.552612,2812.782580,-9252.574275,-1302.362347
507.552934,4071.132681,-10658.965565,-689.485948
507.553256,2664.741391,-12435.459826,-2374.896044
507.553579,-1406.391290,-13397.727550,-3140.991542
507.553901,-5773.606348,-12139.377449,-1991.848295
507.554224,-9030.512492,-10436.903782,-3217.601092
507.554546,-9696.697840,-9474.636058,-5209.449386
507.554868,-7846.182985,-9548.656652,-5209.449386
507.555191,-5551.544565,-9178.553681,-2834.553343
507.555513,-3627.009116,-8068.244768,1149.143247
507.555836,-1406.391290,-8438.347739,2757.943793
507.556158,740.205942,-9474.636058,1072.533697
507.556481,1480.411884,-9474.636058,-1608.800546
507.556803,0.000000,-7772.162391,-1915.238745
507.557125,-2442.679609,-7254.018232,229.828649
507.557448,-3330.926739,-7254.018232,-383.047749
507.557770,-2590.720797,-6957.935855,-2757.943793
507.558093,0.000000,-7846.182985,-4979.620737
507.558415,1776.494261,-9548.656652,-4903.011187
507.558737,2072.576638,-11473.192101,-2145.067394
507.559060,1850.514855,-11991.336260,-383.047749
507.559382,888.247130,-11843.295072,-1149.143247
507.559705,74.020594,-11473.192101,-3447.429741
507.560027,-2294.638420,-10510.924376,-4979.620737
507.560349,-5625.565159,-10066.800811,-4213.525239
507.560672,-8216.285956,-10584.944971,-2374.896044
507.560994,-7698.141797,-9474.636058,-1225.752797
507.561317,-5477.523971,-7550.100608,-1838.629195
507.561639,-3404.947333,-7846.182985,-1302.362347
507.561961,-2146.597232,-8290.306550,689.485948
507.562284,-1702.473667,-6587.832884,2451.505594
507.562606,-1036.288319,-5551.544565,0.000000
507.562929,-1184.329507,-5921.647536,-1608.800546
507.563251,-2072.576638,-8808.450710,-2987.772442
507.563574,-4663.297435,-10732.986159,-2374.896044
507.563896,-7179.997637,-11621.233289,0.000000
507.564218,-6513.812290,-11399.171507,153.219100
507.564541,-2886.803174,-11991.336260,-3677.258390
507.564863,444.123565,-12435.459826,-4979.620737
507.565186,1554.432478,-11769.274478,-2221.676944
507.565508,740.205942,-9548.656652,1072.533697
507.565830,666.185348,-7920.203579,1455.581446
507.566153,814.226536,-7105.977043,-689.485948
507.566475,-296.082377,-5995.668130,-2987.772442
507.566798,-3256.906145,-5921.647536,-4673.182538
507.567120,-6365.771101,-7846.182985,-2528.115143
507.567442,-7476.080014,-10658.965565,76.609550
507.567765,-5699.585753,-11621.233289,-766.095498
507.568087,-4737.318029,-10214.842000,-2374.896044
507.568410,-3923.091493,-8290.306550,-3370.820191
507.568732,-3627.009116,-9178.553681,-1915.238745
507.569055,-4071.132681,-8364.327145,-459.657299
507.569377,-4441.235652,-8216.285956,-1532.190996
507.569699,-3923.091493,-8660.409521,-2374.896044
507.570022,-2146.597232,-9104.533087,-4136.915689
507.570344,-740.205942,-10732.986159,-4060.306139
507.570667,-222.061783,-11769.274478,-1838.629195
507.570989,370.102971,-12509.480420,-229.828649
507.571311,1036.288319,-12139.377449,0.000000
507.571634,888.247130,-10881.027347,459.657299
507.571956,-666.185348,-9400.615463,766.095498
507.572279,-3034.844362,-7772.162391,-306.438199
507.572601,-4367.215058,-7550.100608,-842.705048
507.572923,-4293.194464,-7179.997637,-459.657299
507.573246,-3404.947333,-6661.853478,-1532.190996
507.573568,-1702.473667,-6439.791695,-2298.286494
507.573890,814.226536,-7105.977043,-1991.848295
507.574213,3330.926739,-9252.574275,-1532.190996
507.574535,4293.194464,-11251.130318,-766.095498
507.574857,3478.967927,-10955.047942,-995.924147
507.575180,1110.308913,-9992.780217,-1072.533697
507.575502,-1776.494261,-8586.388927,-2451.505594
507.575824,-3701.029710,-8734.430116,-4673.182538
507.576147,-4737.318029,-9918.759623,-4979.620737
507.576469,-5921.647536,-10955.047942,-4826.401637
507.576792,-6809.894666,-11325.150913,-1225.752797
507.577114,-7772.162391,-10584.944971,612.876398
507.577436,-7624.121203,-9770.718434,-536.266849
507.577759,-6735.874072,-8586.388927,-2451.505594
507.578081,-5181.441594,-6957.935855,-2451.505594
507.578403,-3182.885551,-5329.482782,-2987.772442
507.578726,-1776.494261,-4885.359217,-2757.943793
507.579048,222.061783,-6661.853478,-919.314598
507.579370,1702.473667,-8734.430116,306.438199
507.579693,2516.700203,-9992.780217,-306.438199
507.580015,3256.906145,-12731.542202,-2757.943793
507.580337,2516.700203,-14137.933492,-3447.429741
507.580660,1110.308913,-14211.954086,-2528.115143
507.580982,-1332.370696,-12213.398043,-612.876398
507.581305,-4219.173869,-10288.862594,-459.657299
507.581627,-7031.956449,-9770.718434,-1608.800546
507.581949,-9622.677246,-8808.450710,-2221.676944
507.582272,-11769.274478,-6809.894666,-2604.724693
507.582594,-11325.150913,-7624.121203,-2757.943793
507.582916,-8364.327145,-8882.471304,-1838.629195
507.583239,-4367.215058,-8956.491898,-919.314598
507.583561,-666.185348,-6587.832884,0.000000
507.583883,2590.720797,-4885.359217,-306.438199
507.584206,4219.173869,-5403.503377,-2528.115143
507.584528,4515.256246,-7772.162391,-4136.915689
507.584850,2590.720797,-9992.780217,-4060.306139
507.585173,0.000000,-12879.583391,-3447.429741
507.585495,-2220.617826,-14656.077652,-2834.553343
507.585817,-3701.029710,-15026.180623,-3294.210641
507.586140,-5625.565159,-13471.748144,-3140.991542
507.586462,-7772.162391,-10584.944971,-2298.286494
507.586785,-8438.347739,-10732.986159,-2068.457845
507.587107,-8142.265362,-8512.368333,-1915.238745
507.587429,-7550.100608,-7772.162391,-1455.581446
507.587752,-6957.935855,-6217.729913,-229.828649
507.588074,-4811.338623,-6069.688724,76.609550
507.588396,-2146.597232,-7402.059420,229.828649
507.588719,0.000000,-7402.059420,689.485948
507.589041,1924.535449,-6735.874072,0.000000
507.589363,3775.050304,-6957.935855,-919.314598
507.589686,5773.606348,-7698.141797,-766.095498
507.590008,7031.956449,-7994.224174,-1608.800546
507.590330,6513.812290,-7994.224174,-3983.696590
507.590653,5033.400406,-10584.944971,-3753.867940
507.590975,1924.535449,-12879.583391,-2298.286494
507.591298,-2368.659014,-14063.912898,-1838.629195
507.591620,-6217.729913,-15100.201217,-1838.629195
507.591942,-8734.430116,-13545.768739,-1608.800546
507.592265,-9326.594869,-11103.089130,-3140.991542
507.592587,-8586.388927,-8512.368333,-2911.162892
507.592909,-7624.121203,-7328.038826,-1149.143247
507.593232,-5921.647536,-5995.668130,0.000000
507.593554,-3627.009116,-4959.379811,76.609550
507.593876,-1776.494261,-4219.173869,459.657299
507.594199,-1332.370696,-4737.318029,-995.924147
507.594521,-1554.432478,-8290.306550,-2221.676944
507.594843,-1850.514855,-10881.027347,-2374.896044
507.595166,-2664.741391,-11621.233289,-2604.724693
507.595488,-2812.782580,-12435.459826,-2528.115143
507.595811,-1776.494261,-13619.789333,-1915.238745
507.596133,-1110.308913,-12435.459826,-2068.457845
507.596455,-518.144159,-10584.944971,-1685.410096
507.596778,-296.082377,-9992.780217,-766.095498
507.597100,-296.082377,-9474.636058,-689.485948
507.597422,-444.123565,-9770.718434,-383.047749
507.597745,-1258.350101,-7920.203579,0.000000
507.598067,-2146.597232,-5847.626942,0.000000
507.598389,-2516.700203,-5551.544565,-153.219100
507.598712,-2072.576638,-5921.647536,-306.438199
507.599034,-2664.741391,-5477.523971,-612.876398
507.599356,-3478.967927,-6069.688724,-1838.629195
507.599679,-3701.029710,-7994.224174,-2451.505594
507.600001,-4737.318029,-9844.739029,-2987.772442
507.600324,-5033.400406,-10955.047942,-3907.087040
507.600646,-5403.503377,-11769.274478,-4596.572988
507.600968,-5255.462188,-12879.583391,-4903.011187
507.601291,-5181.441594,-13693.809927,-4290.134789
507.601613,-4959.379811,-13989.892304,-4673.182538
507.601935,-4589.276840,-13545.768739,-2834.553343
507.602258,-3404.947333,-11843.295072,-1302.362347
507.602580,-2886.803174,-8734.430116,-1378.971896
507.602902,-1776.494261,-7402.059420,-1378.971896
507.603225,-222.061783,-6587.832884,-459.657299
507.603547,1036.288319,-5403.503377,-383.047749
507.603869,1776.494261,-5181.441594,-229.828649
507.604192,1554.432478,-6439.791695,1149.143247
507.604514,1998.556043,-7698.141797,995.924147
507.604837,2220.617826,-8734.430116,-689.485948
507.605159,2368.659014,-9992.780217,-995.924147
507.605481,2072.576638,-11843.295072,-1685.410096
507.605804,1036.288319,-12435.459826,-1149.143247
507.606126,-888.247130,-11547.212695,-383.047749
507.606448,-2368.659014,-10658.965565,-1532.190996
507.606771,-3182.885551,-10584.944971,-2451.505594
507.607093,-3997.112087,-10362.883188,-2757.943793
507.607415,-4959.379811,-9400.615463,-2681.334243
507.607738,-5921.647536,-9178.553681,-1838.629195
507.608060,-5625.565159,-9326.594869,-612.876398
507.608382,-4663.297435,-8882.471304,-995.924147
507.608705,-4293.194464,-7624.121203,-1838.629195
507.609027,-4515.256246,-6883.915261,-2451.505594
507.609350,-4589.276840,-6513.812290,-2757.943793
507.609672,-5033.400406,-7105.977043,-2987.772442
507.609994,-5329.482782,-8142.265362,-2451.505594
507.610317,-5921.647536,-8882.471304,-2451.505594
507.610639,-5329.482782,-10140.821405,-3830.477490
507.610961,-3330.926739,-12953.603985,-3983.696590
507.611284,-2368.659014,-13027.624579,-1838.629195
507.611606,-1406.391290,-12287.418637,-229.828649
507.611928,518.144159,-11029.068536,-153.219100
507.612251,1776.494261,-9918.759623,-459.657299
507.612573,1776.494261,-8290.306550,383.047749
507.612895,222.061783,-7476.080014,536.266849
507.613218,-1702.473667,-7846.182985,919.314598
507.613540,-3108.864956,-7550.100608,459.657299
507.613863,-4145.153275,-6735.874072,-919.314598
507.614185,-4145.153275,-6587.832884,-1915.238745
507.614507,-3478.967927,-8216.285956,-919.314598
507.614830,-3108.864956,-9030.512492,-536.266849
507.615152,-1998.556043,-8882.471304,-1378.971896
507.615474,-1110.308913,-9696.697840,-3217.601092
507.615797,0.000000,-11991.336260,-3830.477490
507.616119,-666.185348,-13693.809927,-2604.724693
507.616441,-1998.556043,-11917.315666,-1915.238745
507.616764,-2072.576638,-11991.336260,-3677.258390
507.617086,-666.185348,-13397.727550,-3830.477490
507.617408,0.000000,-13027.624579,-2068.457845
507.617731,-1258.350101,-11029.068536,689.485948
507.618053,-1554.432478,-9252.574275,1915.238745
507.618376,-518.144159,-8808.450710,1149.143247
507.618698,148.041188,-7550.100608,766.095498
507.619020,592.164754,-5847.626942,1455.581446
507.619343,1332.370696,-6217.729913,1455.581446
507.619665,2442.679609,-6957.935855,1762.019645
507.619987,3182.885551,-7254.018232,2451.505594
507.620310,3330.926739,-9104.533087,1915.238745
507.620632,2812.782580,-11251.130318,1532.190996
507.620954,2368.659014,-12361.439231,1378.971896
507.621277,2220.617826,-11917.315666,306.438199
507.621599,2220.617826,-11251.130318,612.876398
507.621921,1998.556043,-11325.150913,919.314598
507.622244,1332.370696,-10658.965565,1838.629195
507.622566,0.000000,-9252.574275,2145.067394
507.622889,-740.205942,-8660.409521,2145.067394
507.623211,-1554.432478,-8438.347739,1455.581446
507.623533,-2072.576638,-8142.265362,1378.971896
507.623856,-2738.761985,-7920.203579,2298.286494
507.624178,-2960.823768,-8364.327145,3677.258390
507.624500,-2590.720797,-7994.224174,3677.258390
507.624823,-2886.803174,-7402.059420,2987.772442
507.625145,-2738.761985,-7476.080014,1991.848295
507.625467,-2738.761985,-8660.409521,2221.676944
507.625790,-2368.659014,-9252.574275,2451.505594
507.626112,-2442.679609,-9918.759623,2145.067394
507.626434,-2738.761985,-10955.047942,2604.724693
507.626757,-2590.720797,-11843.295072,2911.162892
507.627079,-2738.761985,-11399.171507,2451.505594
507.627402,-2664.741391,-11325.150913,2298.286494
507.627724,-2442.679609,-11177.109724,1685.410096
507.628046,-1924.535449,-9992.780217,2145.067394
507.628369,-1036.288319,-9622.677246,2604.724693
507.628691,0.000000,-9178.553681,2987.772442
507.629013,296.082377,-8882.471304,2757.943793
507.629336,444.123565,-8512.368333,2221.676944
507.629658,0.000000,-8808.450710,1762.019645
507.629980,-814.226536,-9918.759623,1762.019645
507.630303,-1998.556043,-10362.883188,1608.800546
507.630625,-3256.906145,-10066.800811,1685.410096
507.630947,-3775.050304,-9104.533087,536.266849
507.631270,-2812.782580,-9178.553681,-1378.971896
507.631592,-962.267725,-9770.718434,-1991.848295
507.631915,-666.185348,-8956.491898,-1072.533697
507.632237,-1258.350101,-8734.430116,459.657299
507.632559,-2072.576638,-9474.636058,0.000000
507.632882,-1406.391290,-10732.986159,-1455.581446
507.633204,-518.144159,-10955.047942,-1838.629195
507.633526,740.205942,-9918.759623,-766.095498
507.633849,2516.700203,-7920.203579,0.000000
507.634171,4737.318029,-7105.977043,76.609550
507.634493,6069.688724,-5403.503377,76.609550
507.634816,6365.771101,-5625.565159,-842.705048
507.635138,5033.400406,-7476.080014,-2145.067394
507.635460,2960.823768,-8734.430116,-2451.505594
507.635783,-518.144159,-9252.574275,-2145.067394
507.636105,-3627.009116,-9696.697840,-2757.943793
507.636428,-5107.421000,-11621.233289,-3370.820191
507.636750,-5107.421000,-12065.356855,-3524.039291
507.637072,-4663.297435,-10881.027347,-5209.449386
507.637395,-1406.391290,-12065.356855,-4443.353888
507.637717,2146.597232,-14211.954086,-2221.676944
507.638039,4219.173869,-14063.912898,995.924147
507.638362,4515.256246,-11991.336260,1915.238745
507.638684,5255.462188,-10066.800811,536.266849
507.639006,6217.729913,-8364.327145,689.485948
507.639329,5773.606348,-6957.935855,-153.219100
507.639651,3775.050304,-5625.565159,-1149.143247
507.639973,1258.350101,-6291.750507,383.047749
507.640296,-1776.494261,-6883.915261,2145.067394
507.640618,-4737.318029,-7105.977043,306.438199
507.640941,-7179.997637,-9696.697840,-2374.896044
507.641263,-8142.265362,-12213.398043,-3064.381992
507.641585,-8808.450710,-11325.150913,-3983.696590
507.641908,-7920.203579,-11695.253884,-4749.792088
507.642230,-5477.523971,-14211.954086,-3217.601092
507.642552,-3923.091493,-15248.242405,0.000000
507.642875,-3627.009116,-12805.562797,153.219100
507.643197,-2812.782580,-9918.759623,-1608.800546
507.643519,-1776.494261,-9400.615463,-2757.943793
507.643842,-518.144159,-9622.677246,-1455.581446
507.644164,-1332.370696,-8512.368333,919.314598
507.644486,-2590.720797,-7031.956449,3753.867940
507.644809,-2590.720797,-7772.162391,4136.915689
507.645131,-1184.329507,-8660.409521,3753.867940
507.645454,-814.226536,-8438.347739,3830.477490
507.645776,-1110.308913,-8290.306550,4749.792088
507.646098,-1184.329507,-8216.285956,5822.325785
507.646421,-444.123565,-7550.100608,5975.544884
507.646743,666.185348,-6069.688724,3524.039291
507.647065,1332.370696,-5625.565159,1378.971896
507.647388,2442.679609,-7031.956449,536.266849
507.647710,3478.967927,-7920.203579,1378.971896
507.648032,3627.009116,-9770.718434,2451.505594
507.648355,4071.132681,-10955.047942,3524.039291
507.648677,4145.153275,-11695.253884,3217.601092
507.648999,4145.153275,-11917.315666,2681.334243
507.649322,2590.720797,-11399.171507,1532.190996
507.649644,592.164754,-10584.944971,1378.971896
507.649967,-2516.700203,-8956.491898,3524.039291
507.650289,-5255.462188,-7031.956449,3753.867940
507.650611,-6439.791695,-7994.224174,2911.162892
507.650934,-5329.482782,-10066.800811,1302.362347
507.651256,-3182.885551,-10658.965565,919.314598
507.651578,-1110.308913,-11547.212695,1532.190996
507.651901,1628.453072,-12583.501014,3524.039291
507.652223,4589.276840,-12361.439231,5056.230287
507.652545,6957.935855,-9474.636058,3524.039291
507.652868,6809.894666,-8068.244768,919.314598
507.653190,5625.565159,-8068.244768,2221.676944
507.653512,5995.668130,-6513.812290,3064.381992
507.653835,6143.709319,-6217.729913,-1608.800546
507.654157,5625.565159,-10881.027347,-3753.867940
507.654479,4145.153275,-14730.098246,306.438199
507.654802,222.061783,-12435.459826,3064.381992
507.655124,-6217.729913,-10955.047942,1838.629195
507.655447,-9252.574275,-13101.645173,1455.581446
507.655769,-11029.068536,-12065.356855,-1838.629195
507.656091,-14211.954086,-9622.677246,-6971.469032
507.656414,-16654.633695,-8142.265362,-3064.381992
507.656736,-16802.674883,-7031.956449,3907.087040
507.657058,-11251.130318,-4367.215058,-1532.190996
507.657381,-3627.009116,-6069.688724,-5975.544884
507.657703,2960.823768,-8512.368333,-2834.553343
507.658025,6069.688724,-8512.368333,-3217.601092
507.658348,7550.100608,-9548.656652,-1608.800546
507.658670,9548.656652,-7846.182985,4213.525239
507.658992,9548.656652,-5403.503377,0.000000
507.659315,8808.450710,-5477.523971,-8733.488677
507.659637,7476.080014,-10658.965565,-6128.763984
507.659960,3404.947333,-12213.398043,383.047749
507.660282,-3478.967927,-13767.830521,1072.533697
507.660604,-8734.430116,-16432.571912,3294.210641
507.660927,-10807.006753,-13619.789333,4060.306139
507.661249,-9918.759623,-9400.615463,-4443.353888
507.661571,-6883.915261,-6291.750507,-9039.926876
507.661894,-3701.029710,-7624.121203,-3217.601092
507.662216,-148.041188,-5033.400406,2528.115143
507.662538,2960.823768,-3627.009116,2145.067394
507.662861,5403.503377,-7476.080014,1225.752797
507.663183,5773.606348,-11917.315666,-536.266849
507.663505,4589.276840,-13545.768739,-3907.087040
507.663828,2886.803174,-12879.583391,-4060.306139
507.664150,1850.514855,-12287.418637,-1991.848295
507.664473,2442.679609,-11177.109724,-995.924147
507.664795,1702.473667,-9696.697840,-2374.896044
507.665117,-1258.350101,-11399.171507,-919.314598
507.665440,-4515.256246,-14952.160028,-1838.629195
507.665762,-6069.688724,-17172.777854,-1532.190996
507.666084,-6809.894666,-13471.748144,1455.581446
507.666407,-5181.441594,-6809.894666,2528.115143
507.666729,-1924.535449,-3923.091493,-766.095498
507.667051,1850.514855,-4663.297435,306.438199
507.667374,3923.091493,-4663.297435,2528.115143
507.667696,3034.844362,-5847.626942,2757.943793
507.668018,888.247130,-8956.491898,4136.915689
507.668341,-296.082377,-11473.192101,4673.182538
507.668663,-1184.329507,-10955.047942,2987.772442
507.668986,444.123565,-10732.986159,1149.143247
507.669308,4145.153275,-10658.965565,1532.190996
507.669631,5329.482782,-8586.388927,2068.457845
507.669953,4737.318029,-6957.935855,5056.230287
507.670276,1184.329507,-7402.059420,8120.612279
507.670598,-2220.617826,-9474.636058,5898.935335
507.670920,-2812.782580,-10362.883188,919.314598
507.671243,-2368.659014,-11029.068536,-842.705048
507.671565,-2960.823768,-10584.944971,2298.286494
507.671888,-3627.009116,-9104.533087,6665.030833
507.672210,-4293.194464,-8882.471304,8273.831378
507.672533,-3627.009116,-8882.471304,6358.592633
507.672855,-1776.494261,-7624.121203,3064.381992
507.673178,-740.205942,-5255.462188,-383.047749
507.673500,-296.082377,-3404.947333,-1225.752797
507.673822,592.164754,-4737.318029,383.047749
507.674145,1850.514855,-8142.265362,2145.067394
507.674467,1998.556043,-11621.233289,2221.676944
507.674790,-518.144159,-13841.851115,1302.362347
507.675112,-5033.400406,-13915.871710,-766.095498
507.675435,-8956.491898,-14063.912898,-1532.190996
507.675757,-9104.533087,-14137.933492,-1991.848295
507.676080,-6809.894666,-12361.439231,-1455.581446
507.676402,-3404.947333,-10066.800811,-153.219100
507.676725,-74.020594,-7624.121203,1608.800546
507.677047,3034.844362,-5995.668130,1225.752797
507.677369,3552.988522,-6809.894666,-766.095498
507.677692,1924.535449,-11325.150913,153.219100
507.678014,-296.082377,-13101.645173,3524.039291
507.678337,-962.267725,-9104.533087,2451.505594
507.678659,1702.473667,-5329.482782,-1378.971896
507.678982,6661.853478,-5551.544565,-3983.696590
507.679304,10288.862594,-7476.080014,-2987.772442
507.679627,10066.800811,-8734.430116,306.438199
507.679949,7624.121203,-9770.718434,2145.067394
507.680271,4885.359217,-11029.068536,0.000000
507.680594,2590.720797,-12953.603985,-4826.401637
507.680916,-444.123565,-15100.201217,-6435.202183
507.681239,-5181.441594,-15026.180623,-4826.401637
507.681561,-7254.018232,-12731.542202,-3524.039291
507.681884,-5625.565159,-11547.212695,-3600.648841
507.682206,-3182.885551,-11029.068536,-2757.943793
507.682529,-3478.967927,-11325.150913,0.000000
507.682851,-4663.297435,-9548.656652,1762.019645
507.683173,-3849.070898,-6439.791695,306.438199
507.683496,-1850.514855,-4959.379811,-2834.553343
507.683818,-296.082377,-4589.276840,-2757.943793
507.684141,-1184.329507,-4663.297435,-536.266849
507.684463,-3627.009116,-5699.585753,1149.143247
507.684786,-3404.947333,-7698.141797,-536.266849
507.685108,-1480.411884,-11029.068536,-3064.381992
507.685431,-296.082377,-13027.624579,-3064.381992
507.685753,0.000000,-11621.233289,-1991.848295
507.686076,1036.288319,-7994.224174,-1915.238745
507.686398,3182.885551,-5699.585753,-3753.867940
507.686720,3552.988522,-7105.977043,-3983.696590
507.687043,74.020594,-9548.656652,-2451.505594
507.687365,-4589.276840,-11251.130318,-306.438199
507.687688,-6069.688724,-12213.398043,-995.924147
507.688010,-4293.194464,-12583.501014,-1685.410096
507.688333,-962.267725,-12287.418637,-306.438199
507.688655,2886.803174,-8586.388927,2298.286494
507.688978,5921.647536,-2590.720797,3140.991542
507.689300,8216.285956,444.123565,1991.848295
507.689622,6513.812290,-1258.350101,1838.629195
507.689945,1702.473667,-6513.812290,2068.457845
507.690267,-3182.885551,-9770.718434,-229.828649
507.690590,-4145.153275,-12361.439231,-4673.182538
507.690912,-1998.556043,-15100.201217,-5745.716235
507.691235,222.061783,-14804.118840,-4673.182538
507.691557,1406.391290,-11843.295072,-2681.334243
507.691880,444.123565,-9844.739029,-2451.505594
507.692202,-888.247130,-11917.315666,-2911.162892
507.692525,-3701.029710,-13989.892304,-4749.792088
507.692847,-8216.285956,-14211.954086,-7277.907231
507.693169,-10881.027347,-12583.501014,-7890.783629
507.693492,-8882.471304,-12361.439231,-5898.935335
507.693814,-3849.070898,-12213.398043,-1302.362347
507.694137,-666.185348,-10658.965565,3677.258390
507.694459,888.247130,-8290.306550,4673.182538
507.694782,1480.411884,-7179.997637,3064.381992
507.695104,1998.556043,-7031.956449,1455.581446
507.695427,1110.308913,-7031.956449,612.876398
507.695749,-222.061783,-5107.421000,766.095498
507.696071,1702.473667,-3923.091493,-612.876398
507.696394,5921.647536,-3997.112087,0.000000
507.696716,8216.285956,-5847.626942,1762.019645
507.697039,6957.935855,-7920.203579,2298.286494
507.697361,4441.235652,-11177.109724,229.828649
507.697684,2812.782580,-13397.727550,-2221.676944
507.698006,666.185348,-13249.686362,-3064.381992
507.698329,-2960.823768,-11103.089130,-2834.553343
507.698651,-4811.338623,-8216.285956,-2528.115143
507.698973,-3849.070898,-5995.668130,-2987.772442
507.699296,-1776.494261,-5921.647536,-2221.676944
507.699618,-2442.679609,-7994.224174,919.314598
507.699941,-3627.009116,-10732.986159,2221.676944
507.700263,-3034.844362,-11103.089130,1149.143247
507.700586,-962.267725,-9474.636058,-689.485948
507.700908,222.061783,-7402.059420,-766.095498
507.701231,74.020594,-5107.421000,0.000000
507.701553,592.164754,-3923.091493,-536.266849
507.701876,1850.514855,-5181.441594,-1838.629195
507.702198,2294.638420,-8290.306550,-2298.286494
507.702520,1924.535449,-11103.089130,-2604.724693
507.702843,1924.535449,-13693.809927,-4596.572988
507.703165,2812.782580,-15470.304188,-6358.592633
507.703488,2294.638420,-16358.551318,-4903.011187
507.703810,-444.123565,-15322.262999,-1915.238745
507.704133,-4145.153275,-13323.706956,-1149.143247
507.704455,-6365.771101,-10955.047942,-4443.353888
507.704778,-6587.832884,-10140.821405,-7201.297681
507.705100,-6069.688724,-10807.006753,-6435.202183
507.705422,-4737.318029,-10362.883188,-2145.067394
507.705745,-2368.659014,-8882.471304,766.095498
507.706067,1036.288319,-7994.224174,766.095498
507.706390,2812.782580,-8142.265362,459.657299
507.706712,1480.411884,-9474.636058,919.314598
507.707035,-1480.411884,-9474.636058,306.438199
507.707357,-2368.659014,-7624.121203,-2528.115143
507.707680,74.020594,-6291.750507,-4519.963438
507.708002,3775.050304,-5625.565159,-3294.210641
507.708325,5699.585753,-4959.379811,-612.876398
507.708647,4811.338623,-5329.482782,-229.828649
507.708969,3256.906145,-8068.244768,-995.924147
507.709292,888.247130,-11547.212695,-1762.019645
507.709614,-2960.823768,-11917.315666,-3677.258390
507.709937,-6439.791695,-11399.171507,-5592.497135
507.710259,-6883.915261,-11473.192101,-6358.592633
507.710582,-3923.091493,-11325.150913,-3140.991542
507.710904,-740.205942,-9474.636058,689.485948
507.711227,444.123565,-6883.915261,2604.724693
507.711549,592.164754,-6217.729913,2451.505594
507.711871,1184.329507,-6587.832884,153.219100
507.712194,-296.082377,-7550.100608,-1225.752797
507.712516,-2146.597232,-8586.388927,-1455.581446
507.712839,-1702.473667,-7846.182985,-1991.848295
507.713161,1184.329507,-6661.853478,-2757.943793
507.713484,4737.318029,-6069.688724,-2221.676944
507.713806,5181.441594,-7031.956449,-536.266849
507.714129,3701.029710,-9252.574275,-2604.724693
507.714451,2442.679609,-12509.480420,-4826.401637
507.714773,666.185348,-14211.954086,-5898.935335
507.715096,-2886.803174,-14285.974681,-5209.449386
507.715418,-6587.832884,-14508.036463,-3524.039291
507.715741,-7846.182985,-13693.809927,-3830.477490
507.716063,-6735.874072,-12509.480420,-4903.011187
507.716386,-3627.009116,-12509.480420,-3753.867940
507.716708,-1998.556043,-11177.109724,153.219100
507.717031,-814.226536,-8586.388927,1302.362347
507.717353,962.267725,-6957.935855,919.314598
507.717676,2960.823768,-6291.750507,919.314598
507.717998,3034.844362,-6957.935855,1915.238745
507.718320,1406.391290,-6439.791695,1915.238745
507.718643,962.267725,-4737.318029,76.609550
507.718965,2294.638420,-6365.771101,-1991.848295
507.719288,4589.276840,-9474.636058,-1378.971896
507.719610,4589.276840,-11103.089130,229.828649
507.719933,3034.844362,-11399.171507,153.219100
507.720255,1702.473667,-10955.047942,-1378.971896
507.720578,296.082377,-12139.377449,-2298.286494
507.720900,-2442.679609,-12657.521608,-2757.943793
507.721222,-6365.771101,-11029.068536,-2987.772442
507.721545,-8142.265362,-9252.574275,-3907.087040
507.721867,-6883.915261,-8586.388927,-2604.724693
507.722190,-3849.070898,-9252.574275,995.924147
507.722512,-2442.679609,-8808.450710,2911.162892
507.722835,-2368.659014,-8734.430116,2451.505594
507.723157,-1850.514855,-8586.388927,2911.162892
507.723480,-1258.350101,-7402.059420,2987.772442
507.723802,-962.267725,-4959.379811,1225.752797
507.724125,592.164754,-1702.473667,-1762.019645
507.724447,2886.803174,-518.144159,-2374.896044
507.724769,5107.421000,-2146.597232,-842.705048
507.725092,6513.812290,-7105.977043,-153.219100
507.725414,5847.626942,-12657.521608,-2221.676944
507.725737,3849.070898,-15988.448347,-3830.477490
507.726059,962.267725,-17690.922014,-3983.696590
507.726382,-2516.700203,-17690.922014,-3140.991542
507.726704,-4885.359217,-14878.139434,-4060.306139
507.727027,-5477.523971,-10066.800811,-6052.154434
507.727349,-4663.297435,-7328.038826,-6128.763984
507.727671,-2738.761985,-7846.182985,-3447.429741
507.727994,-2072.576638,-9622.677246,-383.047749
507.728316,-1406.391290,-10362.883188,306.438199
507.728639,0.000000,-10288.862594,-1532.190996
507.728961,1036.288319,-9918.759623,-2834.553343
507.729284,518.144159,-8438.347739,-1838.629195
507.729606,592.164754,-5477.523971,-1762.019645
507.729929,1110.308913,-3701.029710,-3677.258390
507.730251,2812.782580,-5625.565159,-4519.963438
507.730573,3627.009116,-8586.388927,-3294.210641
507.730896,2368.659014,-9400.615463,-2987.772442
507.731218,1332.370696,-11251.130318,-3753.867940
507.731541,888.247130,-13915.871710,-4443.353888
507.731863,-444.123565,-15988.448347,-4596.572988
507.732186,-3997.112087,-14952.160028,-2911.162892
507.732508,-7328.038826,-12139.377449,-2298.286494
507.732831,-7105.977043,-10140.821405,-3830.477490
507.733153,-3997.112087,-8734.430116,-3753.867940
507.733476,-2072.576638,-6217.729913,-1762.019645
507.733798,-1850.514855,-4885.359217,612.876398
507.734120,-370.102971,-5403.503377,2145.067394
507.734443,2442.679609,-6883.915261,2604.724693
507.734765,2294.638420,-7402.059420,1532.190996
507.735088,-296.082377,-6513.812290,229.828649
507.735410,-1850.514855,-5255.462188,-1762.019645
507.735733,296.082377,-5477.523971,-3447.429741
507.736055,3627.009116,-6217.729913,-2681.334243
507.736378,4737.318029,-7550.100608,-3370.820191
507.736700,3923.091493,-9918.759623,-3294.210641
507.737022,3108.864956,-12287.418637,-2911.162892
507.737345,888.247130,-13841.851115,-2834.553343
507.737667,-2738.761985,-14508.036463,-3753.867940
507.737990,-5699.585753,-14952.160028,-4290.134789
507.738312,-6735.874072,-12213.398043,-5286.058936
507.738635,-5107.421000,-9400.615463,-4903.011187
507.738957,-1924.535449,-8660.409521,-1149.143247
507.739280,444.123565,-8142.265362,2145.067394
507.739602,2368.659014,-7254.018232,2681.334243
507.739925,3256.906145,-7105.977043,1149.143247
507.740247,3478.967927,-8216.285956,766.095498
507.740569,2590.720797,-9400.615463,919.314598
507.740892,1406.391290,-8586.388927,0.000000
507.741214,2220.617826,-7624.121203,-1762.019645
507.741537,4515.256246,-7624.121203,-2528.115143
507.741859,5033.400406,-8512.368333,-1991.848295
507.742182,3330.926739,-10288.862594,-1378.971896
507.742504,444.123565,-12213.398043,-2374.896044
507.742827,-2368.659014,-14063.912898,-4519.963438
507.743149,-5329.482782,-16358.551318,-4596.572988
507.743471,-8660.409521,-16062.468941,-3064.381992
507.743794,-10436.903782,-13175.665768,-4136.915689
507.744116,-9030.512492,-9400.615463,-4826.401637
507.744439,-5403.503377,-7031.956449,-2757.943793
507.744761,-3404.947333,-7328.038826,229.828649
507.745084,-3701.029710,-7179.997637,3524.039291
507.745406,-3034.844362,-7772.162391,4060.306139
507.745729,-1480.411884,-8438.347739,2145.067394
507.746051,-148.041188,-8290.306550,1455.581446
507.746373,1036.288319,-5403.503377,1302.362347
507.746696,4367.215058,-2664.741391,-536.266849
507.747018,8438.347739,-2664.741391,-1532.190996
507.747341,10732.986159,-4663.297435,153.219100
507.747663,7920.203579,-6809.894666,2298.286494
507.747986,3404.947333,-9992.780217,1532.190996
507.748308,962.267725,-12435.459826,-1302.362347
507.748631,-1258.350101,-13471.748144,-5132.839837
507.748953,-4367.215058,-13175.665768,-5515.887586
507.749276,-7105.977043,-11325.150913,-3753.867940
507.749598,-6439.791695,-9770.718434,-3677.258390
507.749920,-3997.112087,-9400.615463,-4060.306139
507.750243,-2886.803174,-10066.800811,-1455.581446
507.750565,-3552.988522,-8438.347739,0.000000
507.750888,-4219.173869,-7624.121203,-1225.752797
507.751210,-2516.700203,-8586.388927,-2757.943793
507.751533,0.000000,-9844.739029,-2911.162892
507.751855,370.102971,-9104.533087,-766.095498
507.752178,1036.288319,-6957.935855,0.000000
507.752500,2960.823768,-5995.668130,-766.095498
507.752822,5995.668130,-7179.997637,-2221.676944
507.753145,7772.162391,-8142.265362,-2681.334243
507.753467,7328.038826,-10066.800811,-4290.134789
507.753790,7105.977043,-11843.295072,-5898.935335
507.754112,6587.832884,-13767.830521,-4979.620737
507.754435,2072.576638,-14656.077652,-3677.258390
507.754757,-5181.441594,-14137.933492,-1532.190996
507.755080,-9474.636058,-12509.480420,-2451.505594
507.755402,-8734.430116,-11029.068536,-6511.811733
507.755725,-5699.585753,-10510.924376,-7967.393179
507.756047,-4737.318029,-9622.677246,-3524.039291
507.756369,-3849.070898,-7698.141797,1455.581446
507.756692,-1332.370696,-6143.709319,1762.019645
507.757014,296.082377,-6291.750507,612.876398
507.757337,-592.164754,-7772.162391,-153.219100
507.757659,-3182.885551,-6513.812290,-1532.190996
507.757982,-2590.720797,-5107.421000,-4060.306139
507.758304,1702.473667,-6143.709319,-5745.716235
507.758627,5847.626942,-9622.677246,-3753.867940
507.758949,6439.791695,-10881.027347,995.924147
507.759271,4589.276840,-9548.656652,2374.896044
507.759594,2368.659014,-9696.697840,-1149.143247
507.759916,74.020594,-11769.274478,-4903.011187
507.760239,-3775.050304,-11473.192101,-5515.887586
507.760561,-7846.182985,-8882.471304,-4060.306139
507.760884,-7402.059420,-8068.244768,-4290.134789
507.761206,-3552.988522,-10658.965565,-3753.867940
507.761529,-814.226536,-13323.706956,-383.047749
507.761851,-1406.391290,-12879.583391,3217.601092
507.762173,-3182.885551,-10066.800811,4673.182538
507.762496,-2442.679609,-8290.306550,1991.848295
507.762818,-296.082377,-6661.853478,-306.438199
507.763141,814.226536,-3627.009116,-1685.410096
507.763463,518.144159,-1776.494261,-1532.190996
507.763786,1110.308913,-3775.050304,76.609550
507.764108,3775.050304,-7254.018232,919.314598
507.764431,4219.173869,-10955.047942,229.828649
507.764753,3775.050304,-14063.912898,-2145.067394
507.765076,2442.679609,-15396.283594,-3830.477490
507.765398,1702.473667,-14359.995275,-3600.648841
507.765720,-296.082377,-11103.089130,-2604.724693
507.766043,-3182.885551,-9844.739029,-1838.629195
507.766365,-5255.462188,-8512.368333,-2145.067394
507.766688,-6217.729913,-9696.697840,-3830.477490
507.767010,-5107.421000,-12435.459826,-2374.896044
507.767333,-3997.112087,-12805.562797,536.266849
507.767655,-1924.535449,-11621.233289,2068.457845
507.767978,2294.638420,-9548.656652,2604.724693
507.768300,4959.379811,-6217.729913,3064.381992
507.768622,4515.256246,-3034.844362,3447.429741
507.768945,1924.535449,-1924.535449,2451.505594
507.769267,888.247130,-3256.906145,-306.438199
507.769590,2072.576638,-5921.647536,-2604.724693
507.769912,4515.256246,-8216.285956,-2374.896044
507.770235,5551.544565,-11103.089130,-2604.724693
507.770557,5329.482782,-13693.809927,-1838.629195
507.770880,4959.379811,-15174.221811,-1149.143247
507.771202,2146.597232,-13841.851115,-2451.505594
507.771524,-3330.926739,-13175.665768,-4290.134789
507.771847,-8808.450710,-12435.459826,-4673.182538
507.772169,-11547.212695,-10510.924376,-6128.763984
507.772492,-10658.965565,-9548.656652,-6894.859482
507.772814,-7772.162391,-10214.842000,-2451.505594
507.773137,-5625.565159,-9770.718434,1838.629195
507.773459,-2812.782580,-7920.203579,3217.601092
507.773782,148.041188,-5699.585753,2298.286494
507.774104,1258.350101,-6143.709319,689.485948
507.774427,-296.082377,-6513.812290,-306.438199
507.774749,-370.102971,-5847.626942,-1225.752797
507.775072,1406.391290,-4737.318029,-2757.943793
507.775394,4145.153275,-6513.812290,-3830.477490
507.775716,5329.482782,-8512.368333,-1532.190996
507.776039,5107.421000,-9474.636058,-306.438199
507.776361,4219.173869,-11177.109724,-2604.724693
507.776684,2220.617826,-13323.706956,-5209.449386
507.777006,-1332.370696,-15914.427753,-4749.792088
507.777329,-5625.565159,-15766.386565,-3447.429741
507.777651,-7476.080014,-13471.748144,-4673.182538
507.777974,-6513.812290,-11029.068536,-5515.887586
507.778296,-3182.885551,-9696.697840,-2911.162892
507.778619,-1998.556043,-7179.997637,1149.143247
507.778941,-1850.514855,-4663.297435,2834.553343
507.779263,-444.123565,-5255.462188,1915.238745
507.779586,2368.659014,-8438.347739,76.609550
507.779908,1850.514855,-9178.553681,-229.828649
507.780231,222.061783,-7031.956449,612.876398
507.780553,666.185348,-5107.421000,-459.657299
507.780876,4293.194464,-4737.318029,-1455.581446
507.781198,7994.224174,-4441.235652,-1378.971896
507.781521,7179.997637,-5181.441594,-2604.724693
507.781843,4885.359217,-10436.903782,-4596.572988
507.782166,3552.988522,-15988.448347,-3753.867940
507.782488,1406.391290,-17690.922014,-3524.039291
507.782811,-2960.823768,-16580.613101,-4749.792088
507.783133,-6513.812290,-15396.283594,-4519.963438
507.783455,-6661.853478,-13101.645173,-4060.306139
507.783778,-4441.235652,-9400.615463,-3677.258390
507.784100,-2960.823768,-7254.018232,-1762.019645
507.784423,-2146.597232,-6513.812290,1302.362347
507.784745,-1184.329507,-5551.544565,1378.971896
507.785068,296.082377,-5847.626942,766.095498
507.785390,888.247130,-6661.853478,995.924147
507.785713,74.020594,-7031.956449,1149.143247
507.786035,0.000000,-6957.935855,0.000000
507.786358,2146.597232,-6587.832884,-1915.238745
507.786680,4219.173869,-8216.285956,-1532.190996
507.787002,4515.256246,-10214.842000,-2221.676944
507.787325,3108.864956,-11547.212695,-2374.896044
507.787647,1480.411884,-12805.562797,-3600.648841
507.787970,-370.102971,-13989.892304,-4596.572988
507.788292,-3034.844362,-14952.160028,-3830.477490
507.788615,-7105.977043,-13619.789333,-3064.381992
507.788937,-8882.471304,-10436.903782,-3830.477490
507.789260,-7105.977043,-9252.574275,-5056.230287
507.789582,-4663.297435,-9474.636058,-4060.306139
507.789905,-3552.988522,-9770.718434,-383.047749
507.790227,-4589.276840,-9326.594869,3600.648841
507.790550,-4219.173869,-9252.574275,5132.839837
507.790872,-2072.576638,-7994.224174,3140.991542
507.791194,-592.164754,-5255.462188,-459.657299
507.791517,444.123565,-1184.329507,-1455.581446
507.791839,3256.906145,74.020594,-1991.848295
507.792162,7328.038826,-3701.029710,-2451.505594
507.792484,8808.450710,-8586.388927,0.000000
507.792807,6883.915261,-12361.439231,2528.115143
507.793129,3330.926739,-13249.686362,1302.362347
507.793452,1332.370696,-14359.995275,-2681.334243
507.793774,518.144159,-14211.954086,-5592.497135
507.794097,-2294.638420,-11473.192101,-5515.887586
507.794419,-4663.297435,-7920.203579,-3217.601092
507.794741,-4441.235652,-7328.038826,-1915.238745
507.795064,-2368.659014,-9326.594869,-2298.286494
507.795386,-1332.370696,-11769.274478,-1149.143247
507.795709,-2738.761985,-11621.233289,1072.533697
507.796031,-3182.885551,-10732.986159,689.485948
507.796354,-2072.576638,-9696.697840,0.000000
507.796676,-592.164754,-7772.162391,459.657299
507.796999,-1036.288319,-4663.297435,766.095498
507.797321,-1184.329507,-3330.926739,-229.828649
507.797644,1110.308913,-5181.441594,-1991.848295
507.797966,3627.009116,-8586.388927,-2987.772442
507.798289,4071.132681,-11399.171507,-1991.848295
507.798611,2886.803174,-11399.171507,-536.266849
507.798933,2664.741391,-11843.295072,-2145.067394
507.799256,3182.885551,-12657.521608,-3294.210641
507.799578,1406.391290,-13619.789333,-3753.867940
507.799901,-3552.988522,-13545.768739,-3600.648841
507.800223,-7476.080014,-12361.439231,-2911.162892
507.800546,-6809.894666,-11029.068536,-4903.011187
507.800868,-3997.112087,-10436.903782,-3677.258390
507.801191,-1184.329507,-8660.409521,-536.266849
507.801513,148.041188,-6957.935855,1838.629195
507.801836,592.164754,-6735.874072,2068.457845
507.802158,0.000000,-7402.059420,4290.134789
507.802480,-1850.514855,-6883.915261,3983.696590
507.802803,-2516.700203,-5033.400406,0.000000
507.803125,-1036.288319,-3997.112087,-3600.648841
507.803448,2220.617826,-4737.318029,-3600.648841
507.803770,5551.544565,-6809.894666,-612.876398
507.804093,7476.080014,-9770.718434,306.438199
507.804415,8586.388927,-12657.521608,536.266849
507.804738,6957.935855,-12805.562797,-1225.752797
507.805060,2294.638420,-12657.521608,-2987.772442
507.805383,-3701.029710,-14137.933492,-2681.334243
507.805705,-7846.182985,-12509.480420,-2757.943793
507.806028,-8882.471304,-9548.656652,-4290.134789
507.806350,-6661.853478,-8142.265362,-4060.306139
507.806672,-3701.029710,-8882.471304,-1302.362347
507.806995,-1998.556043,-8808.450710,2068.457845
507.807317,-1184.329507,-9326.594869,2374.896044
507.807640,-1184.329507,-9178.553681,2221.676944
507.807962,-1110.308913,-9030.512492,612.876398
507.808285,-2516.700203,-7105.977043,-1302.362347
507.808607,-2960.823768,-4959.379811,-1608.800546
507.808930,-1332.370696,-4441.235652,-1762.019645
507.809252,2072.576638,-5625.565159,-3524.039291
507.809575,6291.750507,-9474.636058,-4519.963438
507.809897,7920.203579,-14137.933492,-3677.258390
507.810219,6439.791695,-14359.995275,-2528.115143
507.810542,1924.535449,-14508.036463,-2528.115143
507.810864,-2368.659014,-15840.407159,-3064.381992
507.811187,-5773.606348,-13767.830521,-4673.182538
507.811509,-7624.121203,-9844.739029,-7201.297681
507.811832,-6735.874072,-8364.327145,-7431.126331
507.812154,-4219.173869,-9178.553681,-3830.477490
507.812477,-1850.514855,-9770.718434,919.314598
507.812799,814.226536,-9474.636058,2681.334243
507.813122,2960.823768,-8586.388927,1991.848295
507.813444,3182.885551,-8068.244768,229.828649
507.813767,1406.391290,-6661.853478,229.828649
507.814089,-444.123565,-3478.967927,76.609550
507.814411,-888.247130,-592.164754,-1991.848295
507.814734,2960.823768,-3330.926739,-4213.525239
507.815056,5921.647536,-7994.224174,-3830.477490
507.815379,5107.421000,-11251.130318,-612.876398
507.815701,2812.782580,-11843.295072,612.876398
507.816024,1036.288319,-12213.398043,-1302.362347
507.816346,0.000000,-13027.624579,-4443.353888
507.816669,-3182.885551,-11621.233289,-5515.887586
507.816991,-7920.203579,-9030.512492,-6281.983084
507.817314,-9696.697840,-8808.450710,-5822.325785
507.817636,-7402.059420,-11843.295072,-3217.601092
507.817958,-4515.256246,-13397.727550,-536.266849
507.818281,-2960.823768,-11769.274478,1532.190996
507.818603,-2516.700203,-9474.636058,2451.505594
507.818926,-222.061783,-8438.347739,1608.800546
507.819248,1850.514855,-7031.956449,1072.533697
507.819571,1776.494261,-5107.421000,536.266849
507.819893,666.185348,-3701.029710,153.219100
507.820216,1480.411884,-4441.235652,-229.828649
507.820538,3701.029710,-6809.894666,-842.705048
507.820861,5625.565159,-9474.636058,-1072.533697
507.821183,7031.956449,-11917.315666,-2451.505594
507.821506,7105.977043,-13249.686362,-2987.772442
507.821828,6809.894666,-14211.954086,-2681.334243
507.822150,3182.885551,-13915.871710,-1149.143247
507.822473,-3034.844362,-13249.686362,-689.485948
507.822795,-7402.059420,-11103.089130,-2145.067394
507.823118,-8216.285956,-9326.594869,-4596.572988
507.823440,-5995.668130,-9844.739029,-4903.011187
507.823763,-3849.070898,-9992.780217,-766.095498
507.824085,-2220.617826,-9030.512492,3753.867940
507.824408,-222.061783,-8512.368333,4673.182538
507.824730,666.185348,-7772.162391,4519.963438
507.825053,-962.267725,-6217.729913,2834.553343
507.825375,-2738.761985,-3182.885551,-229.828649
507.825697,-2294.638420,-1110.308913,-4136.915689
507.826020,296.082377,-2960.823768,-4903.011187
507.826342,2220.617826,-8068.244768,-1149.143247
507.826665,1776.494261,-11103.089130,2145.067394
507.826987,1628.453072,-13471.748144,1072.533697
507.827310,1258.350101,-15100.201217,-2604.724693
507.827632,666.185348,-15914.427753,-5439.278036
507.827955,-1406.391290,-12953.603985,-5439.278036
507.828277,-4293.194464,-8660.409521,-5056.230287
507.828600,-4219.173869,-6735.874072,-5056.230287
507.828922,-1554.432478,-9252.574275,-4290.134789
507.829244,0.000000,-11325.150913,-1685.410096
507.829567,-1184.329507,-10362.883188,1072.533697
507.829889,-740.205942,-10362.883188,1455.581446
507.830212,1628.453072,-12657.521608,-536.266849
507.830534,2960.823768,-11917.315666,-306.438199
507.830857,1480.411884,-7105.977043,153.219100
507.831179,518.144159,-2368.659014,-842.705048
507.831502,1776.494261,-2072.576638,-2757.943793
507.831824,3330.926739,-5403.503377,-2451.505594
507.832147,2812.782580,-9474.636058,-2374.896044
507.832469,962.267725,-13027.624579,-2681.334243
507.832792,74.020594,-14730.098246,-4366.744339
507.833114,222.061783,-15692.365970,-5132.839837
507.833436,-1036.288319,-14137.933492,-4903.011187
507.833759,-3849.070898,-11621.233289,-4979.620737
507.834081,-6661.853478,-8956.491898,-5745.716235
507.834404,-7105.977043,-7994.224174,-4979.620737
507.834726,-5847.626942,-8216.285956,-2451.505594
507.835049,-5477.523971,-8142.265362,-919.314598
507.835371,-4737.318029,-8956.491898,-459.657299
507.835694,-2812.782580,-10066.800811,1455.581446
507.836016,-296.082377,-8660.409521,2681.334243
507.836339,888.247130,-4959.379811,2604.724693
507.836661,1776.494261,-2442.679609,1915.238745
507.836983,3627.009116,-1776.494261,-536.266849
507.837306,5477.523971,-2294.638420,-1838.629195
507.837628,5921.647536,-4663.297435,-766.095498
507.837951,4959.379811,-8216.285956,0.000000
507.838273,5403.503377,-12065.356855,-766.095498
507.838596,5403.503377,-14434.015869,-1455.581446
507.838918,3923.091493,-15322.262999,-1915.238745
507.839241,518.144159,-15100.201217,-2298.286494
507.839563,-2072.576638,-14137.933492,-3064.381992
507.839886,-2368.659014,-11843.295072,-4826.401637
507.840208,-2664.741391,-10288.862594,-5056.230287
507.840531,-2738.761985,-9178.553681,-1378.971896
507.840853,-2146.597232,-7550.100608,919.314598
507.841175,222.061783,-7402.059420,153.219100
507.841498,1406.391290,-7624.121203,-689.485948
507.841820,444.123565,-8512.368333,1072.533697
507.842143,-2442.679609,-8956.491898,1225.752797
507.842465,-4515.256246,-8734.430116,-459.657299
507.842788,-3627.009116,-9178.553681,-2757.943793
507.843110,-1850.514855,-8956.491898,-3983.696590
507.843433,222.061783,-8290.306550,-3983.696590
507.843755,1850.514855,-9178.553681,-4213.525239
507.844078,2220.617826,-10732.986159,-4903.011187
507.844400,444.123565,-13989.892304,-3600.648841
507.844722,-2960.823768,-15988.448347,-2298.286494
507.845045,-7105.977043,-15174.221811,-3217.601092
507.845367,-8808.450710,-13101.645173,-5056.230287
507.845690,-6365.771101,-11177.109724,-6665.030833
507.846012,-2738.761985,-9252.574275,-3600.648841
507.846335,-222.061783,-6809.894666,689.485948
507.846657,1258.350101,-5255.462188,3830.477490
507.846980,2886.803174,-5477.523971,3830.477490
507.847302,3775.050304,-7105.977043,1915.238745
507.847625,2072.576638,-7402.059420,536.266849
507.847947,666.185348,-6809.894666,0.000000
507.848270,1702.473667,-4885.359217,-1072.533697
507.848592,4367.215058,-4219.173869,-689.485948
507.848914,6217.729913,-4219.173869,919.314598
507.849237,5329.482782,-5477.523971,689.485948
507.849559,2812.782580,-7624.121203,-1991.848295
507.849882,0.000000,-10881.027347,-4290.134789
507.850204,-3182.885551,-13693.809927,-4826.401637
507.850527,-5921.647536,-13841.851115,-4673.182538
507.850849,-7105.977043,-13323.706956,-6358.592633
507.851172,-6217.729913,-11843.295072,-6052.154434
507.851494,-3997.112087,-9992.780217,-3677.258390
507.851817,-2664.741391,-8808.450710,-1378.971896
507.852139,-2664.741391,-8438.347739,-919.314598
507.852461,-2146.597232,-9696.697840,-1455.581446
507.852784,-1702.473667,-10584.944971,-1072.533697
507.853106,-814.226536,-10214.842000,-229.828649
507.853429,296.082377,-7772.162391,306.438199
507.853751,2590.720797,-5403.503377,-689.485948
507.854074,6143.709319,-3701.029710,-1838.629195
507.854396,8068.244768,-6143.709319,-1915.238745
507.854719,7105.977043,-9474.636058,-1991.848295
507.855041,4293.194464,-13471.748144,-1762.019645
507.855364,2294.638420,-14582.057057,-2451.505594
507.855686,296.082377,-14434.015869,-4673.182538
507.856009,-1924.535449,-14359.995275,-4213.525239
507.856331,-4515.256246,-12509.480420,-3217.601092
507.856653,-6809.894666,-8882.471304,-4290.134789
507.856976,-6439.791695,-9400.615463,-4443.353888
507.857298,-4737.318029,-11769.274478,-2451.505594
507.857621,-4219.173869,-11917.315666,-1072.533697
507.857943,-4589.276840,-9104.533087,76.609550
507.858266,-2812.782580,-7402.059420,1149.143247
507.858588,-444.123565,-6661.853478,612.876398
507.858911,592.164754,-4811.338623,0.000000
507.859233,666.185348,-2960.823768,229.828649
507.859556,888.247130,-2516.700203,459.657299
507.859878,2590.720797,-5403.503377,-1149.143247
507.860200,3627.009116,-8956.491898,-229.828649
507.860523,2738.761985,-10584.944971,689.485948
507.860845,2368.659014,-10807.006753,0.000000
507.861168,3330.926739,-10066.800811,-1762.019645
507.861490,2960.823768,-9770.718434,-2681.334243
507.861813,-370.102971,-9474.636058,-2911.162892
507.862135,-3775.050304,-10066.800811,-2528.115143
507.862458,-4737.318029,-11621.233289,-3294.210641
507.862780,-3404.947333,-12435.459826,-3524.039291
507.863103,-2368.659014,-12287.418637,-1072.533697
507.863425,-1406.391290,-10658.965565,1302.362347
507.863748,370.102971,-8586.388927,1532.190996
507.864070,1998.556043,-7698.141797,1149.143247
507.864392,1776.494261,-7179.997637,1225.752797
507.864715,-222.061783,-5477.523971,383.047749
507.865037,-814.226536,-5329.482782,-1991.848295
507.865360,814.226536,-6661.853478,-4596.572988
507.865682,2294.638420,-8438.347739,-4136.915689
507.866005,1924.535449,-10288.862594,-1149.143247
507.866327,666.185348,-10510.924376,-306.438199
507.866650,370.102971,-11399.171507,-2987.772442
507.866972,-1406.391290,-12213.398043,-5515.887586
507.867295,-4737.318029,-13693.809927,-5286.058936
507.867617,-8808.450710,-14137.933492,-4519.963438
507.867939,-9696.697840,-14434.015869,-4979.620737
507.868262,-6513.812290,-13323.706956,-4443.353888
507.868584,-2368.659014,-11917.315666,-1915.238745
507.868907,370.102971,-9030.512492,1225.752797
507.869229,1924.535449,-5773.606348,1838.629195
507.869552,3330.926739,-5329.482782,1225.752797
507.869874,3627.009116,-6513.812290,1149.143247
507.870197,2146.597232,-7105.977043,1455.581446
507.870519,1332.370696,-5921.647536,842.705048
507.870842,3849.070898,-5181.441594,-2068.457845
507.871164,7550.100608,-6661.853478,-3140.991542
507.871487,9030.512492,-8068.244768,-766.095498
507.871814,6291.750507,-8660.409521,1149.143247
507.872136,2294.638420,-9992.780217,229.828649
507.872459,-518.144159,-11843.295072,-2528.115143
507.872781,-4515.256246,-12731.542202,-6128.763984
507.873103,-8956.491898,-12287.418637,-6511.811733
507.873426,-11769.274478,-10214.842000,-5669.106685
507.873748,-8882.471304,-9252.574275,-5975.544884
507.874071,-4885.359217,-9696.697840,-4519.963438
507.874393,-3330.926739,-10510.924376,0.000000
507.874716,-3923.091493,-10658.965565,2145.067394
507.875038,-3997.112087,-10807.006753,1302.362347
507.875360,-1924.535449,-10436.903782,306.438199
507.875683,-518.144159,-8364.327145,-1225.752797
507.876005,1480.411884,-3256.906145,-2757.943793
507.876328,4811.338623,-888.247130,-2221.676944
507.876650,9400.615463,-2442.679609,-612.876398
507.876972,9622.677246,-6809.894666,612.876398
507.877295,5921.647536,-12213.398043,2374.896044
507.877617,518.144159,-14211.954086,1532.190996
507.877940,-2442.679609,-14582.057057,-3294.210641
507.878262,-3627.009116,-14211.954086,-6741.640382
507.878585,-3552.988522,-11547.212695,-5209.449386
507.878907,-4145.153275,-7476.080014,-4673.182538
507.879229,-3627.009116,-7105.977043,-4366.744339
507.879552,-2516.700203,-11621.233289,-1915.238745
507.879874,-3182.885551,-14804.118840,76.609550
507.880197,-5847.626942,-13915.871710,-229.828649
507.880519,-5773.606348,-12213.398043,-2145.067394
507.880841,-2590.720797,-9474.636058,-3907.087040
507.881164,1258.350101,-6365.771101,-2681.334243
507.881486,2664.741391,-2368.659014,536.266849
507.881809,1998.556043,-1332.370696,2451.505594
507.882131,1776.494261,-3923.091493,1608.800546
507.882454,3034.844362,-8512.368333,-153.219100
507.882776,3775.050304,-11843.295072,-2221.676944
507.883098,4293.194464,-13471.748144,-3677.258390
507.883421,5773.606348,-14211.954086,-2834.553343
507.883743,6957.935855,-11917.315666,76.609550
507.884066,3923.091493,-7772.162391,2374.896044
507.884388,-888.247130,-6661.853478,1532.190996
507.884710,-4959.379811,-7550.100608,-2374.896044
507.885033,-6883.915261,-9918.759623,-5669.106685
507.885355,-7031.956449,-11843.295072,-5439.278036
507.885678,-5181.441594,-12583.501014,-919.314598
507.886000,-2294.638420,-11769.274478,3140.991542
507.886323,1110.308913,-8660.409521,3370.820191
507.886645,2220.617826,-5329.482782,3064.381992
507.886967,-370.102971,-4589.276840,919.314598
507.887290,-4293.194464,-4737.318029,-1915.238745
507.887612,-5181.441594,-5403.503377,-4060.306139
507.887935,-3256.906145,-7624.121203,-5362.668486
