#time,accel_x,accel_y,accel_z
231.605510,-222.061783,-9622.677246,-1608.800546
231.605832,-370.102971,-9474.636058,-1072.533697
231.606154,0.000000,-9252.574275,-1685.410096
231.606476,-148.041188,-9104.533087,-1685.410096
231.606798,0.000000,-8882.471304,-1915.238745
231.607120,-296.082377,-9178.553681,-1762.019645
231.607443,-370.102971,-9548.656652,-1378.971896
231.607765,-888.247130,-9178.553681,-1455.581446
231.608087,-888.247130,-9770.718434,-1378.971896
231.608409,-740.205942,-9696.697840,-1532.190996
231.608731,-666.185348,-9474.636058,-1685.410096
231.609053,-370.102971,-9400.615463,-1991.848295
231.609375,0.000000,-9474.636058,-1532.190996
231.609697,-444.123565,-9252.574275,-1608.800546
231.610019,-444.123565,-9326.594869,-1762.019645
231.610342,-592.164754,-9696.697840,-1532.190996
231.610664,-740.205942,-9918.759623,-1378.971896
231.610986,-592.164754,-9474.636058,-2145.067394
231.611308,-740.205942,-9474.636058,-1455.581446
231.611630,-666.185348,-9400.615463,-1532.190996
231.611952,-518.144159,-9400.615463,-1762.019645
231.612274,-370.102971,-9326.594869,-1685.410096
231.612596,-444.123565,-9400.615463,-1608.800546
231.612919,-296.082377,-9326.594869,-1378.971896
231.613241,-666.185348,-9326.594869,-1378.971896
231.613563,-592.164754,-9474.636058,-1532.190996
231.613885,-444.123565,-9548.656652,-1532.190996
231.614207,-518.144159,-9622.677246,-1532.190996
231.614529,-370.102971,-9326.594869,-1915.238745
231.614851,-296.082377,-9178.553681,-1149.143247
231.615173,0.000000,-9326.594869,-1455.581446
231.615496,-296.082377,-9252.574275,-1302.362347
231.615818,-148.041188,-9178.553681,-1225.752797
231.616140,-296.082377,-9104.533087,-1455.581446
231.616462,-370.102971,-9104.533087,-1149.143247
231.616784,-296.082377,-9326.594869,-1149.143247
231.617106,-222.061783,-9474.636058,-1302.362347
231.617428,-222.061783,-9252.574275,-1072.533697
231.617750,-148.041188,-9474.636058,-1072.533697
231.618072,0.000000,-9178.553681,-1378.971896
231.618395,-222.061783,-8956.491898,-1072.533697
231.618717,0.000000,-9030.512492,-1225.752797
231.619039,0.000000,-9178.553681,-1455.581446
231.619361,0.000000,-9474.636058,-1302.362347
231.619683,0.000000,-9030.512492,-1225.752797
231.620005,-370.102971,-9252.574275,-1149.143247
231.620327,-370.102971,-9474.636058,-1378.971896
231.620649,-296.082377,-9474.636058,-1225.752797
231.620972,-370.102971,-9252.574275,-1149.143247
231.621294,-518.144159,-9252.574275,-1149.143247
231.621616,-74.020594,-9104.533087,-1608.800546
231.621938,-148.041188,-9030.512492,-1608.800546
231.622260,-370.102971,-9178.553681,-1532.190996
231.622582,-296.082377,-9400.615463,-1532.190996
231.622904,-444.123565,-9548.656652,-1378.971896
231.623226,-592.164754,-9474.636058,-1455.581446
231.623549,-370.102971,-9474.636058,-1455.581446
231.623871,-222.061783,-9548.656652,-1532.190996
231.624193,740.205942,-9622.677246,-1915.238745
231.624515,1258.350101,-9844.739029,-1608.800546
231.624837,1332.370696,-9548.656652,-536.266849
231.625159,444.123565,-8882.471304,-689.485948
231.625481,222.061783,-8882.471304,-1149.143247
231.625803,-370.102971,-9400.615463,-1991.848295
231.626125,-1258.350101,-9474.636058,-2145.067394
231.626448,-1850.514855,-9252.574275,-1838.629195
231.626770,-1184.329507,-9030.512492,-2374.896044
231.627092,-296.082377,-9844.739029,-2221.676944
231.627414,0.000000,-10436.903782,-1378.971896
231.627736,0.000000,-9696.697840,-1225.752797
231.628058,518.144159,-9474.636058,-1685.410096
231.628380,1924.535449,-10140.821405,-2145.067394
231.628702,1924.535449,-10732.986159,-1685.410096
231.629025,1184.329507,-9992.780217,-919.314598
231.629347,1332.370696,-8808.450710,-536.266849
231.629669,2738.761985,-9030.512492,-1378.971896
231.629991,3775.050304,-9474.636058,-1455.581446
231.630313,3182.885551,-8364.327145,-229.828649
231.630635,2590.720797,-7846.182985,0.000000
231.630957,3108.864956,-8290.306550,-459.657299
231.631279,3182.885551,-9030.512492,-842.705048
231.631602,2368.659014,-9474.636058,-766.095498
231.631924,2590.720797,-8586.388927,-1302.362347
231.632246,2664.741391,-8290.306550,-2604.724693
231.632568,3997.112087,-9696.697840,-2834.553343
231.632890,4737.318029,-10955.047942,-1915.238745
231.633212,4367.215058,-10214.842000,-1225.752797
231.633534,4293.194464,-9992.780217,-1225.752797
231.633856,5033.400406,-10732.986159,-1762.019645
231.634178,4589.276840,-10436.903782,-1608.800546
231.634501,3997.112087,-9474.636058,-2451.505594
231.634823,3627.009116,-9104.533087,-2068.457845
231.635145,3256.906145,-9104.533087,-995.924147
231.635467,4071.132681,-9178.553681,-1225.752797
231.635789,4811.338623,-7994.224174,-1225.752797
231.636111,5699.585753,-8808.450710,-1302.362347
231.636433,6069.688724,-9178.553681,-1149.143247
231.636755,6143.709319,-8734.430116,-766.095498
231.637078,5403.503377,-8734.430116,-459.657299
231.637400,4737.318029,-8734.430116,-689.485948
231.637722,3552.988522,-9548.656652,-1991.848295
231.638044,2072.576638,-10510.924376,-2528.115143
231.638366,666.185348,-12139.377449,-2221.676944
231.638688,0.000000,-13175.665768,-766.095498
231.639010,148.041188,-13471.748144,76.609550
231.639332,592.164754,-12805.562797,383.047749
231.639655,1110.308913,-11695.253884,919.314598
231.639977,1554.432478,-10066.800811,1532.190996
231.640299,1036.288319,-8512.368333,1762.019645
231.640621,-370.102971,-6069.688724,2145.067394
231.640943,-1332.370696,-5033.400406,919.314598
231.641265,-1998.556043,-4737.318029,-766.095498
231.641587,-1480.411884,-4811.338623,-1838.629195
231.641909,0.000000,-5255.462188,-3064.381992
231.642231,1702.473667,-6143.709319,-3753.867940
231.642554,3849.070898,-7105.977043,-3753.867940
231.642876,5033.400406,-9252.574275,-4749.792088
231.643198,4663.297435,-11843.295072,-5056.230287
231.643520,3330.926739,-14211.954086,-4366.744339
231.643842,1480.411884,-15100.201217,-2987.772442
231.644164,518.144159,-14804.118840,-1685.410096
231.644486,-592.164754,-13989.892304,-1762.019645
231.644808,-1258.350101,-12657.521608,-153.219100
231.645131,-1998.556043,-11029.068536,2068.457845
231.645453,-2294.638420,-8290.306550,4060.306139
231.645775,-1850.514855,-5255.462188,3907.087040
231.646097,-1406.391290,-3330.926739,2374.896044
231.646419,-1554.432478,-3034.844362,1532.190996
231.646741,-3108.864956,-2886.803174,2834.553343
231.647063,-4293.194464,-3108.864956,1991.848295
231.647385,-4071.132681,-5181.441594,-3217.601092
231.647708,-1998.556043,-8364.327145,-8044.002729
231.648030,-1184.329507,-10362.883188,-9193.145976
231.648352,-444.123565,-13767.830521,-6741.640382
231.648674,296.082377,-18653.189738,-4443.353888
231.648996,1924.535449,-21317.931130,-4136.915689
231.649318,2368.659014,-20429.683999,-4979.620737
231.649640,1480.411884,-17764.942608,-4366.744339
231.649962,222.061783,-12731.542202,-1532.190996
231.650284,-370.102971,-6957.935855,-842.705048
231.650607,-148.041188,-3478.967927,0.000000
231.650929,0.000000,-1850.514855,2528.115143
231.651251,-444.123565,-2442.679609,3907.087040
231.651573,-1110.308913,-3478.967927,3983.696590
231.651895,-296.082377,-4663.297435,3753.867940
231.652217,2368.659014,-4145.153275,2221.676944
231.652539,5033.400406,-4885.359217,-995.924147
231.652861,6069.688724,-7179.997637,-2451.505594
231.653184,3478.967927,-8882.471304,-383.047749
231.653506,1110.308913,-11103.089130,-2221.676944
231.653828,296.082377,-14582.057057,-6052.154434
231.654150,592.164754,-15174.221811,-8197.221829
231.654472,-1036.288319,-13027.624579,-7507.735880
231.654794,-2960.823768,-13101.645173,-5286.058936
231.655116,-3034.844362,-14137.933492,-2834.553343
231.655438,-2294.638420,-11621.233289,-2451.505594
231.655761,-1480.411884,-9178.553681,-3907.087040
231.656083,-1258.350101,-9178.553681,-2451.505594
231.656405,-1554.432478,-8882.471304,536.266849
231.656727,-2368.659014,-7328.038826,919.314598
231.657049,-1184.329507,-6069.688724,1685.410096
231.657371,740.205942,-6587.832884,2987.772442
231.657693,1554.432478,-6587.832884,2298.286494
231.658015,518.144159,-5995.668130,1455.581446
231.658337,1406.391290,-6365.771101,1072.533697
231.658660,3256.906145,-7476.080014,-2298.286494
231.658982,6069.688724,-9770.718434,-5132.839837
231.659304,6365.771101,-11399.171507,-4673.182538
231.659626,4145.153275,-12731.542202,-1608.800546
231.659948,1258.350101,-15026.180623,0.000000
231.660270,0.000000,-15544.324782,-1685.410096
231.660592,-1332.370696,-13619.789333,-4673.182538
231.660914,-3108.864956,-11399.171507,-5898.935335
231.661237,-5033.400406,-9326.594869,-3217.601092
231.661559,-5995.668130,-7105.977043,153.219100
231.661881,-5847.626942,-5181.441594,1455.581446
231.662203,-5995.668130,-3923.091493,919.314598
231.662525,-6957.935855,-5255.462188,-229.828649
231.662847,-8512.368333,-6883.915261,-1302.362347
231.663169,-7698.141797,-7476.080014,-2374.896044
231.663491,-5699.585753,-9622.677246,-2987.772442
231.663814,-3034.844362,-12287.418637,-1225.752797
231.664136,-1258.350101,-12805.562797,1608.800546
231.664458,-666.185348,-12731.542202,1149.143247
231.664780,-740.205942,-12139.377449,0.000000
231.665102,74.020594,-11473.192101,-1302.362347
231.665424,1998.556043,-9474.636058,-3064.381992
231.665746,5181.441594,-7920.203579,-4826.401637
231.666068,7105.977043,-8438.347739,-2834.553343
231.666390,7105.977043,-7328.038826,1072.533697
231.666713,5699.585753,-6439.791695,3064.381992
231.667035,3997.112087,-6069.688724,1991.848295
231.667357,2294.638420,-7920.203579,-1149.143247
231.667679,444.123565,-7550.100608,-3140.991542
231.668001,-666.185348,-7328.038826,-2604.724693
231.668323,-2220.617826,-7994.224174,306.438199
231.668645,-2072.576638,-8882.471304,2374.896044
231.668967,-2220.617826,-9030.512492,1149.143247
231.669290,-2072.576638,-8290.306550,-1302.362347
231.669612,-2664.741391,-8438.347739,-2911.162892
231.669934,-4071.132681,-8734.430116,-3217.601092
231.670256,-4219.173869,-9400.615463,-3524.039291
231.670578,-5107.421000,-11029.068536,-4136.915689
231.670900,-3849.070898,-12953.603985,-3524.039291
231.671222,-2368.659014,-11621.233289,-3370.820191
231.671544,-1184.329507,-12213.398043,-3217.601092
231.671867,1406.391290,-13101.645173,-3294.210641
231.672189,5403.503377,-13619.789333,-3217.601092
231.672511,6661.853478,-13027.624579,-2757.943793
231.672832,7476.080014,-12731.542202,-153.219100
231.673154,8290.306550,-11029.068536,2298.286494
231.673476,7994.224174,-7179.997637,919.314598
231.673798,7846.182985,-3552.988522,-766.095498
231.674119,7105.977043,-4663.297435,-1378.971896
231.674441,5995.668130,-7772.162391,-2604.724693
231.674763,4885.359217,-9178.553681,-1455.581446
231.675084,3552.988522,-9252.574275,766.095498
231.675406,814.226536,-9992.780217,1302.362347
231.675728,-962.267725,-11029.068536,1072.533697
231.676049,-3923.091493,-9696.697840,-1225.752797
231.676371,-6291.750507,-8882.471304,-3907.087040
231.676693,-7476.080014,-9622.677246,-3753.867940
231.677014,-7920.203579,-9622.677246,-2068.457845
231.677336,-7328.038826,-7105.977043,-2068.457845
231.677658,-6217.729913,-6069.688724,-1762.019645
231.677980,-6809.894666,-7105.977043,-1302.362347
231.678301,-8216.285956,-8808.450710,-2987.772442
231.678623,-9474.636058,-9400.615463,-4903.011187
231.678945,-9548.656652,-9696.697840,-5592.497135
231.679266,-6809.894666,-11991.336260,-4903.011187
231.679588,-3552.988522,-12731.542202,-2528.115143
231.679910,-1480.411884,-12805.562797,-842.705048
231.680231,0.000000,-11177.109724,536.266849
231.680553,2516.700203,-9104.533087,1149.143247
231.680875,5255.462188,-8068.244768,-1532.190996
231.681197,6957.935855,-8512.368333,-2911.162892
231.681518,6587.832884,-9030.512492,-383.047749
231.681840,5995.668130,-7105.977043,2451.505594
231.682162,5255.462188,-5847.626942,2145.067394
231.682483,5773.606348,-8660.409521,536.266849
231.682805,3849.070898,-9104.533087,-612.876398
231.683127,1850.514855,-7698.141797,-2145.067394
231.683448,-666.185348,-8364.327145,-2145.067394
231.683770,-2664.741391,-10362.883188,153.219100
231.684092,-4663.297435,-9992.780217,459.657299
231.684413,-6439.791695,-8438.347739,-1608.800546
231.684735,-6439.791695,-8438.347739,-3370.820191
231.685057,-6587.832884,-7920.203579,-3140.991542
231.685379,-7402.059420,-7476.080014,-2911.162892
231.685700,-7254.018232,-7402.059420,-2298.286494
231.686022,-5329.482782,-8956.491898,-3140.991542
231.686344,-3997.112087,-11769.274478,-4673.182538
231.686665,-3108.864956,-12879.583391,-3600.648841
231.686987,-2516.700203,-10288.862594,-1685.410096
231.687309,-1332.370696,-9622.677246,-2987.772442
231.687630,1776.494261,-12361.439231,-3753.867940
231.687952,4441.235652,-13619.789333,-2068.457845
231.688274,6217.729913,-11621.233289,-1072.533697
231.688596,8364.327145,-10510.924376,306.438199
231.688917,10066.800811,-10214.842000,3064.381992
231.689239,9992.780217,-7476.080014,3140.991542
231.689561,8734.430116,-2812.782580,689.485948
231.689882,7402.059420,-3478.967927,-995.924147
231.690204,7772.162391,-9252.574275,-2604.724693
231.690526,6513.812290,-12065.356855,-1915.238745
231.690847,3997.112087,-10807.006753,1532.190996
231.691169,1998.556043,-10362.883188,2757.943793
231.691491,2220.617826,-12361.439231,995.924147
231.691812,370.102971,-11325.150913,-1685.410096
231.692134,-3256.906145,-8216.285956,-3830.477490
231.692456,-5995.668130,-7920.203579,-3064.381992
231.692778,-6661.853478,-8512.368333,-1838.629195
231.693099,-6587.832884,-7254.018232,-2221.676944
231.693421,-8142.265362,-6143.709319,-2451.505594
231.693743,-8660.409521,-8068.244768,-3064.381992
231.694064,-8512.368333,-11325.150913,-4596.572988
231.694386,-7920.203579,-13471.748144,-5056.230287
231.694708,-7328.038826,-12731.542202,-3753.867940
231.695029,-5403.503377,-12287.418637,-1608.800546
231.695351,-2960.823768,-12361.439231,-536.266849
231.695673,-1850.514855,-10807.006753,-153.219100
231.695995,-296.082377,-7920.203579,-995.924147
231.696316,2072.576638,-5995.668130,-2145.067394
231.696638,4959.379811,-7031.956449,-1608.800546
231.696960,5847.626942,-8216.285956,-153.219100
231.697281,5921.647536,-8438.347739,612.876398
231.697603,7772.162391,-8956.491898,919.314598
231.697925,9474.636058,-9252.574275,-689.485948
231.698246,7550.100608,-10658.965565,-1378.971896
231.698568,3627.009116,-8882.471304,536.266849
231.698890,666.185348,-6513.812290,459.657299
231.699211,-1184.329507,-8364.327145,-2068.457845
231.699533,-3923.091493,-11769.274478,-2374.896044
231.699855,-7846.182985,-10436.903782,-1072.533697
231.700177,-9474.636058,-7328.038826,-2221.676944
231.700498,-8216.285956,-7772.162391,-3064.381992
231.700820,-7328.038826,-7920.203579,-1762.019645
231.701142,-8290.306550,-5773.606348,-1838.629195
231.701463,-8068.244768,-5551.544565,-3524.039291
231.701785,-6513.812290,-8512.368333,-5592.497135
231.702107,-5699.585753,-12435.459826,-5056.230287
231.702428,-5033.400406,-14211.954086,-3140.991542
231.702750,-3627.009116,-12953.603985,-1149.143247
231.703072,-962.267725,-12139.377449,-842.705048
231.703394,1924.535449,-12657.521608,-2451.505594
231.703715,3552.988522,-11547.212695,-1608.800546
231.704037,5107.421000,-7624.121203,-612.876398
231.704359,7402.059420,-6291.750507,-766.095498
231.704680,9400.615463,-7105.977043,919.314598
231.705002,9548.656652,-6957.935855,2068.457845
231.705324,8660.409521,-6439.791695,-459.657299
231.705645,7994.224174,-8512.368333,-766.095498
231.705967,6809.894666,-10732.986159,689.485948
231.706289,3997.112087,-10807.006753,919.314598
231.706610,1998.556043,-11251.130318,536.266849
231.706932,888.247130,-11547.212695,689.485948
231.707254,-888.247130,-11473.192101,-306.438199
231.707576,-3034.844362,-10807.006753,-1302.362347
231.707897,-4589.276840,-8512.368333,-1378.971896
231.708219,-4737.318029,-5773.606348,-2068.457845
231.708541,-4811.338623,-6661.853478,-3064.381992
231.708862,-5921.647536,-9104.533087,-1838.629195
231.709184,-8068.244768,-8586.388927,-2528.115143
231.709506,-8956.491898,-8808.450710,-4903.011187
231.709827,-7179.997637,-11621.233289,-5439.278036
231.710149,-5107.421000,-13989.892304,-4596.572988
231.710471,-5329.482782,-12509.480420,-3217.601092
231.710793,-4071.132681,-11695.253884,-766.095498
231.711114,-1554.432478,-11621.233289,229.828649
231.711436,1480.411884,-9474.636058,-919.314598
231.711758,3552.988522,-7402.059420,-2298.286494
231.712079,4811.338623,-6587.832884,-995.924147
231.712401,6587.832884,-6513.812290,995.924147
231.712723,8068.244768,-6291.750507,536.266849
231.713044,8808.450710,-7698.141797,-689.485948
231.713366,8660.409521,-9104.533087,995.924147
231.713688,7105.977043,-9178.553681,1455.581446
231.714009,4737.318029,-10584.944971,919.314598
231.714331,2812.782580,-9844.739029,229.828649
231.714653,1036.288319,-8142.265362,-842.705048
231.714975,-1850.514855,-9992.780217,-1762.019645
231.715296,-4219.173869,-11103.089130,-229.828649
231.715618,-6439.791695,-7846.182985,-612.876398
231.715940,-6439.791695,-6587.832884,-3447.429741
231.716261,-5921.647536,-9030.512492,-3294.210641
231.716583,-7254.018232,-9622.677246,-1991.848295
231.716905,-8660.409521,-7105.977043,-3524.039291
231.717226,-7031.956449,-7994.224174,-5745.716235
231.717548,-4589.276840,-11843.295072,-5209.449386
231.717870,-3404.947333,-13619.789333,-4596.572988
231.718192,-3627.009116,-13027.624579,-2528.115143
231.718513,-2812.782580,-12805.562797,-306.438199
231.718835,-592.164754,-12953.603985,-842.705048
231.719157,2368.659014,-11029.068536,-2298.286494
231.719478,4367.215058,-8438.347739,-2604.724693
231.719800,6439.791695,-6217.729913,-919.314598
231.720122,8142.265362,-5773.606348,919.314598
231.720443,8808.450710,-7254.018232,1302.362347
231.720765,9326.594869,-7772.162391,-689.485948
231.721087,8586.388927,-8216.285956,-306.438199
231.721408,6439.791695,-9696.697840,689.485948
231.721730,2812.782580,-11547.212695,689.485948
231.722052,222.061783,-12361.439231,689.485948
231.722374,-814.226536,-10436.903782,153.219100
231.722695,-2886.803174,-9400.615463,-1532.190996
231.723017,-4145.153275,-11029.068536,-2068.457845
231.723339,-5255.462188,-8142.265362,-1608.800546
231.723660,-5699.585753,-4737.318029,-3064.381992
231.723982,-5995.668130,-5921.647536,-2528.115143
231.724304,-7624.121203,-9400.615463,-995.924147
231.724625,-9992.780217,-8142.265362,-2451.505594
231.724947,-10658.965565,-7846.182985,-6358.592633
231.725269,-8364.327145,-11399.171507,-6358.592633
231.725591,-5625.565159,-13989.892304,-4673.182538
231.725912,-4811.338623,-13397.727550,-2834.553343
231.726234,-3552.988522,-11103.089130,0.000000
231.726556,-962.267725,-10807.006753,1225.752797
231.726877,1702.473667,-9474.636058,-459.657299
231.727199,3997.112087,-6439.791695,-2987.772442
231.727521,6291.750507,-5699.585753,-3370.820191
231.727842,8660.409521,-7920.203579,-1225.752797
231.728164,8364.327145,-8142.265362,2221.676944
231.728486,7550.100608,-6291.750507,3677.258390
231.728807,7476.080014,-6439.791695,1302.362347
231.729129,7772.162391,-10510.924376,-612.876398
231.729451,4959.379811,-10955.047942,-1608.800546
231.729773,1036.288319,-8512.368333,-1608.800546
231.730094,-1036.288319,-10288.862594,-306.438199
231.730416,-1850.514855,-11473.192101,1072.533697
231.730738,-3552.988522,-9178.553681,0.000000
231.731059,-5033.400406,-7772.162391,-4136.915689
231.731381,-5551.544565,-9548.656652,-4136.915689
231.731703,-6291.750507,-9770.718434,-2757.943793
231.732024,-7402.059420,-7105.977043,-3064.381992
231.732346,-6661.853478,-6661.853478,-4903.011187
231.732668,-4589.276840,-11473.192101,-5056.230287
231.732990,-2960.823768,-14508.036463,-4979.620737
231.733311,-4071.132681,-12731.542202,-2604.724693
231.733633,-3182.885551,-11029.068536,-459.657299
231.733955,-814.226536,-12065.356855,-1072.533697
231.734276,1924.535449,-12509.480420,-2681.334243
231.734598,3627.009116,-9252.574275,-1991.848295
231.734920,5255.462188,-7254.018232,229.828649
231.735241,7772.162391,-6809.894666,2145.067394
231.735563,9104.533087,-6661.853478,1532.190996
231.735885,9104.533087,-6291.750507,-306.438199
231.736206,8364.327145,-7846.182985,-306.438199
231.736528,6809.894666,-8882.471304,536.266849
231.736850,4071.132681,-11325.150913,76.609550
231.737172,1628.453072,-11843.295072,612.876398
231.737493,0.000000,-10066.800811,459.657299
231.737815,-2220.617826,-9548.656652,-1685.410096
231.738137,-4441.235652,-11843.295072,-2374.896044
231.738458,-5551.544565,-10436.903782,-919.314598
231.738780,-6587.832884,-5847.626942,-1532.190996
231.739102,-5995.668130,-5921.647536,-2757.943793
231.739423,-6587.832884,-9770.718434,-1915.238745
231.739745,-8660.409521,-9474.636058,-1149.143247
231.740067,-10807.006753,-5921.647536,-4443.353888
231.740389,-8438.347739,-8142.265362,-6052.154434
231.740710,-5181.441594,-13249.686362,-5515.887586
231.741032,-4145.153275,-14211.954086,-2987.772442
231.741354,-4441.235652,-12065.356855,153.219100
231.741675,-2442.679609,-11473.192101,1608.800546
231.741997,888.247130,-10881.027347,766.095498
231.742319,2738.761985,-8068.244768,-2221.676944
231.742640,3923.091493,-4811.338623,-3677.258390
231.742962,6809.894666,-6365.771101,-2298.286494
231.743284,7772.162391,-8882.471304,1072.533697
231.743605,7105.977043,-8660.409521,2987.772442
231.743927,6587.832884,-6069.688724,2757.943793
231.744249,6809.894666,-8956.491898,536.266849
231.744571,5255.462188,-11103.089130,-1685.410096
231.744892,1258.350101,-8586.388927,-1762.019645
231.745214,-1702.473667,-7624.121203,-1608.800546
231.745536,-2812.782580,-10140.821405,612.876398
231.745857,-4145.153275,-10584.944971,536.266849
231.746179,-6217.729913,-8660.409521,-2757.943793
231.746501,-6217.729913,-8808.450710,-4519.963438
231.746822,-5995.668130,-9252.574275,-2298.286494
231.747144,-6439.791695,-7550.100608,-2528.115143
231.747466,-6291.750507,-5551.544565,-3600.648841
231.747788,-4515.256246,-7846.182985,-5056.230287
231.748109,-3256.906145,-12435.459826,-5898.935335
231.748431,-2960.823768,-15100.201217,-4290.134789
231.748753,-3182.885551,-12583.501014,-1455.581446
231.749074,-1110.308913,-11621.233289,-1532.190996
231.749396,1998.556043,-13101.645173,-2451.505594
231.749718,4515.256246,-12657.521608,-1608.800546
231.750039,5921.647536,-8142.265362,-383.047749
231.750361,8068.244768,-5773.606348,0.000000
231.750683,9696.697840,-6735.874072,1915.238745
231.751004,9770.718434,-6809.894666,2068.457845
231.751326,7994.224174,-5625.565159,-153.219100
231.751648,7476.080014,-6957.935855,-1302.362347
231.751970,6735.874072,-9474.636058,-306.438199
231.752291,4145.153275,-11251.130318,0.000000
231.752613,814.226536,-11843.295072,842.705048
231.752935,-962.267725,-10955.047942,1072.533697
231.753256,-2368.659014,-11103.089130,-1072.533697
231.753578,-3701.029710,-12065.356855,-3677.258390
231.753900,-5551.544565,-9252.574275,-2834.553343
231.754221,-5921.647536,-5699.585753,-3140.991542
231.754543,-5551.544565,-6069.688724,-2757.943793
231.754865,-6957.935855,-9252.574275,-1532.190996
231.755186,-9400.615463,-8808.450710,-995.924147
231.755508,-10732.986159,-7179.997637,-4596.572988
231.755830,-8956.491898,-10066.800811,-6818.249932
231.756152,-6291.750507,-13101.645173,-5822.325785
231.756473,-5477.523971,-12953.603985,-2834.553343
231.756795,-4589.276840,-11843.295072,306.438199
231.757117,-1332.370696,-11029.068536,1455.581446
231.757438,1924.535449,-9622.677246,0.000000
231.757760,3923.091493,-7179.997637,-3294.210641
231.758082,6217.729913,-7105.977043,-4060.306139
231.758403,7772.162391,-8586.388927,-1378.971896
231.758725,7476.080014,-8956.491898,2221.676944
231.759047,6735.874072,-6291.750507,3217.601092
231.759369,6439.791695,-7328.038826,1072.533697
231.759690,5995.668130,-9918.759623,-1762.019645
231.760012,3404.947333,-10140.821405,-1915.238745
231.760334,-518.144159,-8512.368333,-1685.410096
231.760655,-2368.659014,-9104.533087,0.000000
231.760977,-2812.782580,-9548.656652,1838.629195
231.761299,-4071.132681,-8438.347739,-919.314598
231.761620,-5255.462188,-8660.409521,-3447.429741
231.761942,-5847.626942,-9474.636058,-2834.553343
231.762264,-6513.812290,-8290.306550,-2145.067394
231.762585,-7328.038826,-7031.956449,-3140.991542
231.762907,-5625.565159,-6809.894666,-4366.744339
231.763229,-3849.070898,-10510.924376,-5592.497135
231.763551,-2590.720797,-14211.954086,-5286.058936
231.763872,-2146.597232,-13323.706956,-2451.505594
231.764194,-1184.329507,-10955.047942,-1991.848295
231.764516,1184.329507,-12583.501014,-1608.800546
231.764837,2368.659014,-13249.686362,-919.314598
231.765159,2738.761985,-9326.594869,0.000000
231.765481,4367.215058,-5921.647536,0.000000
231.765802,7476.080014,-6217.729913,1225.752797
231.766124,8660.409521,-7624.121203,766.095498
231.766446,8290.306550,-6587.832884,689.485948
231.766768,7476.080014,-6143.709319,919.314598
231.767089,7254.018232,-7994.224174,1455.581446
231.767411,5181.441594,-9474.636058,0.000000
231.767733,2664.741391,-10436.903782,-1149.143247
231.768054,74.020594,-9844.739029,-306.438199
231.768376,-1924.535449,-10510.924376,-1455.581446
231.768698,-3552.988522,-12731.542202,-3217.601092
231.769019,-4811.338623,-11843.295072,-2834.553343
231.769341,-5033.400406,-7550.100608,-2374.896044
231.769663,-3923.091493,-7105.977043,-3983.696590
231.769984,-4145.153275,-10436.903782,-2987.772442
231.770306,-6587.832884,-10288.862594,-919.314598
231.770628,-9400.615463,-7476.080014,-2528.115143
231.770950,-8512.368333,-8216.285956,-5592.497135
231.771271,-4959.379811,-11843.295072,-6358.592633
231.771593,-3997.112087,-12287.418637,-4826.401637
231.771915,-4145.153275,-11029.068536,-1302.362347
231.772236,-2146.597232,-10955.047942,1991.848295
231.772558,1110.308913,-11029.068536,1915.238745
231.772880,2442.679609,-8734.430116,-919.314598
231.773202,3552.988522,-6069.688724,-2528.115143
231.773524,5403.503377,-7254.018232,-2834.553343
231.773846,6439.791695,-9474.636058,-1532.190996
231.774168,6143.709319,-8660.409521,1378.971896
231.774489,5921.647536,-6069.688724,2604.724693
231.774811,6661.853478,-8882.471304,153.219100
231.775133,4959.379811,-12213.398043,-1608.800546
231.775455,888.247130,-11029.068536,-1302.362347
231.775777,-2960.823768,-7920.203579,-1378.971896
231.776099,-3923.091493,-9104.533087,-995.924147
231.776421,-4885.359217,-10066.800811,-919.314598
231.776742,-7105.977043,-7550.100608,-1915.238745
231.777064,-8068.244768,-6735.874072,-3524.039291
231.777386,-6735.874072,-10066.800811,-2221.676944
231.777708,-6365.771101,-9474.636058,-1149.143247
231.778030,-6291.750507,-6143.709319,-2068.457845
231.778352,-4885.359217,-5921.647536,-4060.306139
231.778674,-3182.885551,-9548.656652,-3983.696590
231.778995,-2516.700203,-13101.645173,-3830.477490
231.779317,-2812.782580,-13249.686362,-2757.943793
231.779639,-1110.308913,-11621.233289,-536.266849
231.779961,1332.370696,-13027.624579,-1378.971896
231.780283,2812.782580,-14063.912898,-1072.533697
231.780605,3775.050304,-9992.780217,1532.190996
231.780927,6365.771101,-4959.379811,766.095498
231.781248,9474.636058,-5625.565159,-1532.190996
231.781570,10066.800811,-8808.450710,612.876398
231.781892,7105.977043,-7254.018232,2068.457845
231.782214,4441.235652,-4811.338623,2374.896044
231.782536,4293.194464,-6661.853478,842.705048
231.782858,3997.112087,-11029.068536,-1685.410096
231.783180,962.267725,-11251.130318,-2451.505594
231.783501,-2368.659014,-10362.883188,-919.314598
231.783823,-3997.112087,-11473.192101,612.876398
231.784145,-3701.029710,-12879.583391,153.219100
231.784467,-4071.132681,-9178.553681,-2451.505594
231.784789,-4293.194464,-6513.812290,-4366.744339
231.785111,-3923.091493,-7624.121203,-3907.087040
231.785433,-5255.462188,-9992.780217,-1532.190996
231.785754,-7846.182985,-7846.182985,-1378.971896
231.786076,-8364.327145,-7105.977043,-3753.867940
231.786398,-5625.565159,-10362.883188,-5822.325785
231.786720,-3108.864956,-14285.974681,-6052.154434
231.787042,-3330.926739,-13249.686362,-2528.115143
231.787364,-2220.617826,-10955.047942,536.266849
231.787686,740.205942,-10362.883188,919.314598
231.788007,2886.803174,-10584.944971,-229.828649
231.788329,2886.803174,-8438.347739,-1225.752797
231.788651,2960.823768,-6143.709319,-919.314598
231.788973,5403.503377,-6513.812290,-919.314598
231.789295,6291.750507,-8734.430116,-1149.143247
231.789617,6513.812290,-9400.615463,766.095498
231.789939,5921.647536,-6883.915261,1991.848295
231.790260,5921.647536,-9104.533087,306.438199
231.790582,4959.379811,-11251.130318,-1378.971896
231.790904,2072.576638,-9104.533087,-1532.190996
231.791226,-1480.411884,-7105.977043,-2068.457845
231.791548,-3404.947333,-9770.718434,-1838.629195
231.791870,-4737.318029,-12139.377449,-689.485948
231.792192,-6883.915261,-9030.512492,-2068.457845
231.792513,-6735.874072,-7254.018232,-4366.744339
231.792835,-4811.338623,-9474.636058,-3677.258390
231.793157,-4737.318029,-9030.512492,-1838.629195
231.793479,-6439.791695,-7031.956449,-1149.143247
231.793801,-6735.874072,-5921.647536,-2451.505594
231.794123,-5181.441594,-9030.512492,-5286.058936
231.794445,-3997.112087,-12065.356855,-6588.421283
231.794766,-3849.070898,-12805.562797,-3983.696590
231.795088,-3034.844362,-12287.418637,-536.266849
231.795410,370.102971,-13027.624579,229.828649
231.795732,3404.947333,-13397.727550,-612.876398
231.796054,5181.441594,-11251.130318,0.000000
231.796376,6513.812290,-6809.894666,-229.828649
231.796698,8068.244768,-5255.462188,-306.438199
231.797020,8512.368333,-5773.606348,536.266849
231.797341,7772.162391,-5477.523971,766.095498
231.797663,7402.059420,-6883.915261,-383.047749
231.797985,6957.935855,-9918.759623,-1149.143247
231.798307,4959.379811,-12361.439231,536.266849
231.798629,1776.494261,-12657.521608,842.705048
231.798951,370.102971,-12213.398043,-153.219100
231.799273,-74.020594,-11251.130318,-306.438199
231.799594,-1554.432478,-9992.780217,-1685.410096
231.799916,-3404.947333,-8586.388927,-2451.505594
231.800238,-4811.338623,-6365.771101,-1762.019645
231.800560,-5329.482782,-5699.585753,-1838.629195
231.800882,-6143.709319,-7772.162391,-2834.553343
231.801204,-7846.182985,-10288.862594,-2145.067394
231.801526,-9252.574275,-9400.615463,-2451.505594
231.801847,-9400.615463,-8438.347739,-4366.744339
231.802169,-7328.038826,-10362.883188,-5056.230287
231.802491,-4811.338623,-11991.336260,-3600.648841
231.802813,-4219.173869,-11769.274478,-2451.505594
231.803135,-2960.823768,-11695.253884,-1072.533697
231.803457,-962.267725,-11843.295072,919.314598
231.803779,1480.411884,-9474.636058,0.000000
231.804100,4293.194464,-6143.709319,-2451.505594
231.804422,7846.182985,-7105.977043,-2834.553343
231.804744,9030.512492,-9104.533087,-536.266849
231.805066,7550.100608,-8882.471304,1455.581446
231.805388,6069.688724,-6291.750507,3294.210641
231.805710,5995.668130,-5995.668130,1685.410096
231.806032,5847.626942,-10436.903782,-1532.190996
231.806353,3478.967927,-11621.233289,-3064.381992
231.806675,0.000000,-9770.718434,-1149.143247
231.806997,-2146.597232,-10066.800811,1378.971896
231.807319,-2442.679609,-10807.006753,2451.505594
231.807641,-4071.132681,-7328.038826,-842.705048
231.807963,-5477.523971,-5329.482782,-4673.182538
231.808285,-5625.565159,-7698.141797,-4213.525239
231.808606,-6809.894666,-9326.594869,-2451.505594
231.808928,-8142.265362,-8734.430116,-2298.286494
231.809250,-7624.121203,-6587.832884,-3217.601092
231.809572,-5403.503377,-9696.697840,-4903.011187
231.809894,-4219.173869,-13693.809927,-6435.202183
231.810216,-3849.070898,-14434.015869,-4290.134789
231.810538,-3330.926739,-12139.377449,-2221.676944
231.810859,-962.267725,-12213.398043,-1302.362347
231.811181,1258.350101,-12065.356855,0.000000
231.811503,2590.720797,-9770.718434,76.609550
231.811825,4219.173869,-5551.544565,-766.095498
231.812147,7920.203579,-5033.400406,-766.095498
231.812469,9992.780217,-7994.224174,-995.924147
231.812791,9400.615463,-9030.512492,0.000000
231.813112,7624.121203,-7105.977043,1838.629195
231.813434,6291.750507,-7254.018232,3064.381992
231.813756,5107.421000,-10288.862594,229.828649
231.814078,2886.803174,-12213.398043,-1915.238745
231.814400,0.000000,-10436.903782,-1762.019645
231.814722,-2442.679609,-9400.615463,-995.924147
231.815044,-3627.009116,-12065.356855,-766.095498
231.815365,-3997.112087,-10362.883188,-919.314598
231.815687,-4589.276840,-6291.750507,-3064.381992
231.816009,-4737.318029,-6439.791695,-4826.401637
231.816331,-5699.585753,-10955.047942,-3447.429741
231.816653,-8142.265362,-10732.986159,-1302.362347
231.816975,-10658.965565,-6217.729913,-3830.477490
231.817297,-9030.512492,-8290.306550,-5362.668486
231.817618,-5699.585753,-13175.665768,-5745.716235
231.817940,-4885.359217,-13323.706956,-4903.011187
231.818262,-5477.523971,-11695.253884,-1072.533697
231.818584,-2960.823768,-11177.109724,2145.067394
231.818906,296.082377,-10140.821405,2451.505594
231.819228,2220.617826,-7105.977043,-842.705048
231.819550,4071.132681,-4737.318029,-3064.381992
231.819871,7105.977043,-6365.771101,-1991.848295
231.820193,8512.368333,-9474.636058,-919.314598
231.820515,6587.832884,-8142.265362,2374.896044
231.820837,5477.523971,-5403.503377,4826.401637
231.821159,6143.709319,-7846.182985,1378.971896
231.821481,6735.874072,-12953.603985,-2757.943793
231.821803,3627.009116,-11917.315666,-2834.553343
231.822125,-222.061783,-8438.347739,-536.266849
231.822446,-1850.514855,-9844.739029,1225.752797
231.822768,-2220.617826,-10288.862594,1915.238745
231.823090,-4589.276840,-6735.874072,-1532.190996
231.823412,-6365.771101,-6143.709319,-4366.744339
231.823734,-6439.791695,-9844.739029,-2987.772442
231.824056,-6735.874072,-11251.130318,-2145.067394
231.824378,-7846.182985,-7179.997637,-2528.115143
231.824699,-6661.853478,-4811.338623,-3370.820191
231.825021,-3849.070898,-9474.636058,-3753.867940
231.825343,-2590.720797,-14137.933492,-6281.983084
231.825665,-3108.864956,-14137.933492,-3447.429741
231.825987,-2516.700203,-12213.398043,-919.314598
231.826309,0.000000,-13619.789333,-536.266849
231.826631,2368.659014,-13175.665768,306.438199
231.826952,3330.926739,-7624.121203,306.438199
231.827274,5403.503377,-2960.823768,-1149.143247
231.827596,8660.409521,-3997.112087,-383.047749
231.827918,9326.594869,-7846.182985,76.609550
231.828240,7550.100608,-8808.450710,766.095498
231.828562,7179.997637,-7476.080014,1149.143247
231.828884,7179.997637,-9326.594869,842.705048
231.829205,4515.256246,-11029.068536,229.828649
231.829527,296.082377,-10436.903782,-306.438199
231.829849,-2220.617826,-10066.800811,-919.314598
231.830171,-2442.679609,-11029.068536,-1838.629195
231.830493,-3997.112087,-12657.521608,-1915.238745
231.830815,-4885.359217,-10362.883188,-1149.143247
231.831137,-4293.194464,-5699.585753,-2145.067394
231.831458,-2886.803174,-5995.668130,-3677.258390
231.831780,-3478.967927,-9918.759623,-2834.553343
231.832102,-7254.018232,-9104.533087,-1455.581446
231.832424,-10510.924376,-7476.080014,-3524.039291
231.832746,-9178.553681,-10658.965565,-6281.983084
231.833068,-5181.441594,-14359.995275,-6052.154434
231.833390,-3775.050304,-13841.851115,-4596.572988
231.833711,-3478.967927,-12139.377449,-919.314598
231.834033,-1110.308913,-11103.089130,2374.896044
231.834355,1480.411884,-8734.430116,1608.800546
231.834677,3034.844362,-5847.626942,-2604.724693
231.834999,4885.359217,-6143.709319,-4136.915689
231.835321,6883.915261,-9770.718434,-3524.039291
231.835643,6735.874072,-8734.430116,0.000000
231.835964,5551.544565,-6883.915261,3447.429741
231.836286,4737.318029,-5329.482782,3370.820191
231.836608,5107.421000,-9030.512492,-229.828649
231.836930,3627.009116,-11473.192101,-2451.505594
231.837252,0.000000,-9474.636058,-1915.238745
231.837574,-2294.638420,-8734.430116,-842.705048
231.837896,-2516.700203,-10955.047942,766.095498
231.838217,-3182.885551,-9104.533087,689.485948
231.838539,-4589.276840,-6735.874072,-2221.676944
231.838861,-4737.318029,-8512.368333,-4366.744339
231.839183,-5329.482782,-11399.171507,-3753.867940
231.839505,-6513.812290,-8808.450710,-2911.162892
231.839827,-6883.915261,-5403.503377,-4136.915689
231.840149,-3775.050304,-9030.512492,-4749.792088
231.840470,-740.205942,-14211.954086,-5056.230287
231.840792,-888.247130,-13471.748144,-3753.867940
231.841114,-1480.411884,-11991.336260,-1378.971896
231.841436,0.000000,-12583.501014,536.266849
231.841758,1628.453072,-12953.603985,76.609550
231.842080,2294.638420,-9474.636058,-1149.143247
231.842402,3034.844362,-6143.709319,-1149.143247
231.842723,5699.585753,-5847.626942,1302.362347
231.843045,7624.121203,-6291.750507,1762.019645
231.843367,8142.265362,-6143.709319,689.485948
231.843689,8734.430116,-6587.832884,153.219100
231.844011,8882.471304,-8438.347739,612.876398
231.844333,6291.750507,-10214.842000,612.876398
231.844655,1776.494261,-9918.759623,842.705048
231.844976,-666.185348,-10140.821405,76.609550
231.845298,-1406.391290,-10881.027347,-2221.676944
231.845620,-2738.761985,-11769.274478,-3983.696590
231.845942,-5255.462188,-11769.274478,-2145.067394
231.846264,-5329.482782,-9104.533087,-919.314598
231.846586,-3256.906145,-6513.812290,-1991.848295
231.846908,-2368.659014,-8438.347739,-3830.477490
231.847230,-4737.318029,-9918.759623,-1532.190996
231.847551,-8734.430116,-7328.038826,-1532.190996
231.847873,-10066.800811,-7328.038826,-4519.963438
231.848195,-7179.997637,-11251.130318,-6511.811733
231.848517,-3923.091493,-12731.542202,-4903.011187
231.848839,-3701.029710,-11991.336260,-2834.553343
231.849161,-2886.803174,-12879.583391,1302.362347
231.849483,-444.123565,-11473.192101,4443.353888
231.849804,2220.617826,-8068.244768,76.609550
231.850126,3404.947333,-5773.606348,-3370.820191
231.850448,5107.421000,-7402.059420,-3524.039291
231.850770,6513.812290,-9104.533087,-2145.067394
231.851092,6291.750507,-8586.388927,0.000000
231.851414,5921.647536,-6883.915261,2911.162892
231.851736,5773.606348,-6587.832884,2145.067394
231.852057,4589.276840,-10807.006753,-1149.143247
231.852379,1406.391290,-12583.501014,-2374.896044
231.852701,-2146.597232,-8956.491898,-1532.190996
231.853023,-3108.864956,-8956.491898,-1072.533697
231.853345,-3256.906145,-11029.068536,0.000000
231.853667,-4737.318029,-8364.327145,0.000000
231.853989,-6513.812290,-5995.668130,-2987.772442
231.854310,-5625.565159,-8290.306550,-2911.162892
231.854632,-5107.421000,-10658.965565,-1378.971896
231.854954,-6587.832884,-8068.244768,-2681.334243
231.855276,-7328.038826,-5255.462188,-3753.867940
231.855598,-5551.544565,-8660.409521,-4136.915689
231.855920,-3552.988522,-13249.686362,-5822.325785
231.856242,-2664.741391,-14137.933492,-4443.353888
231.856563,-2516.700203,-12139.377449,-2145.067394
231.856885,-148.041188,-13693.809927,-536.266849
231.857207,2442.679609,-13915.871710,-536.266849
231.857529,4219.173869,-10436.903782,-766.095498
231.857851,5773.606348,-6217.729913,-459.657299
231.858173,8956.491898,-4737.318029,459.657299
231.858495,9696.697840,-5403.503377,919.314598
231.858816,8364.327145,-6365.771101,995.924147
231.859138,7624.121203,-6735.874072,153.219100
231.859460,7476.080014,-8734.430116,76.609550
231.859782,6143.709319,-10658.965565,842.705048
231.860104,2368.659014,-11251.130318,1149.143247
231.860426,-370.102971,-10881.027347,995.924147
231.860748,-888.247130,-10732.986159,-612.876398
231.861069,-2220.617826,-11547.212695,-1991.848295
231.861391,-4515.256246,-10584.944971,-1149.143247
231.861713,-4663.297435,-7105.977043,-2221.676944
231.862035,-3701.029710,-5403.503377,-3907.087040
231.862357,-3256.906145,-8586.388927,-3600.648841
231.862679,-5921.647536,-8734.430116,-1685.410096
231.863001,-9400.615463,-8068.244768,-2757.943793
231.863322,-9400.615463,-10436.903782,-5822.325785
231.863644,-7105.977043,-13545.768739,-5669.106685
231.863966,-5477.523971,-13397.727550,-4596.572988
231.864288,-4737.318029,-12361.439231,-2451.505594
231.864610,-2220.617826,-11399.171507,842.705048
231.864932,888.247130,-9474.636058,1685.410096
231.865254,2442.679609,-6883.915261,-842.705048
231.865575,3923.091493,-5847.626942,-1378.971896
231.865897,5847.626942,-7920.203579,-1838.629195
231.866219,6957.935855,-9104.533087,-1991.848295
231.866541,6809.894666,-8808.450710,689.485948
231.866863,6587.832884,-6513.812290,3524.039291
231.867185,5847.626942,-7105.977043,919.314598
231.867507,4663.297435,-11029.068536,-612.876398
231.867828,1702.473667,-9918.759623,-1302.362347
231.868150,-1406.391290,-7179.997637,-2528.115143
231.868472,-2886.803174,-9548.656652,-2451.505594
231.868794,-4367.215058,-12213.398043,383.047749
231.869116,-6513.812290,-8438.347739,0.000000
231.869438,-6735.874072,-7105.977043,-3677.258390
231.869760,-5107.421000,-10214.842000,-3677.258390
231.870081,-5107.421000,-11029.068536,-2528.115143
231.870403,-7476.080014,-6513.812290,-2987.772442
231.870725,-7179.997637,-4737.318029,-3677.258390
231.871047,-4589.276840,-10140.821405,-4903.011187
231.871369,-2664.741391,-14285.974681,-6205.373534
231.871691,-3478.967927,-13249.686362,-3370.820191
231.872013,-3256.906145,-12065.356855,0.000000
231.872334,-370.102971,-13323.706956,919.314598
231.872656,3182.885551,-12509.480420,-766.095498
231.872978,4885.359217,-8808.450710,-2068.457845
231.873299,6217.729913,-5995.668130,-306.438199
231.873621,8956.491898,-5847.626942,2451.505594
231.873943,9104.533087,-6069.688724,1915.238745
231.874265,8956.491898,-6513.812290,-153.219100
231.874586,8882.471304,-6661.853478,-689.485948
231.874908,7031.956449,-9030.512492,76.609550
231.875230,2960.823768,-11843.295072,1225.752797
231.875551,-296.082377,-12065.356855,1608.800546
231.875873,-1702.473667,-10436.903782,0.000000
231.876195,-1258.350101,-10214.842000,-2911.162892
231.876516,-2812.782580,-12065.356855,-2757.943793
231.876838,-4663.297435,-10362.883188,-995.924147
231.877160,-4811.338623,-5329.482782,-1532.190996
231.877482,-3034.844362,-6143.709319,-3370.820191
231.877803,-3627.009116,-9326.594869,-2834.553343
231.878125,-6735.874072,-8512.368333,-2451.505594
231.878447,-9622.677246,-8364.327145,-4673.182538
231.878768,-7328.038826,-11695.253884,-5898.935335
231.879090,-4441.235652,-13915.871710,-4673.182538
231.879412,-3330.926739,-12805.562797,-2451.505594
231.879733,-2960.823768,-10955.047942,0.000000
231.880055,-444.123565,-10658.965565,1072.533697
231.880377,2368.659014,-9474.636058,-1302.362347
231.880699,3034.844362,-8142.265362,-2604.724693
231.881020,3923.091493,-7179.997637,0.000000
231.881342,5181.441594,-6957.935855,229.828649
231.881664,7105.977043,-7476.080014,-612.876398
231.881985,7920.203579,-8216.285956,0.000000
231.882307,7105.977043,-6587.832884,995.924147
231.882629,5551.544565,-8586.388927,0.000000
231.882950,3108.864956,-11621.233289,306.438199
231.883272,592.164754,-10214.842000,306.438199
231.883594,-1628.453072,-7328.038826,-2451.505594
231.883916,-3330.926739,-10658.965565,-3294.210641
231.884237,-4293.194464,-12213.398043,-995.924147
231.884559,-7031.956449,-7624.121203,-1302.362347
231.884881,-7031.956449,-5551.544565,-3677.258390
231.885202,-5329.482782,-9252.574275,-2834.553343
231.885524,-5699.585753,-10510.924376,-1762.019645
231.885846,-8364.327145,-6587.832884,-3064.381992
231.886167,-7846.182985,-6957.935855,-4366.744339
231.886489,-5255.462188,-11029.068536,-4366.744339
231.886811,-4441.235652,-12879.583391,-4979.620737
231.887132,-4737.318029,-11547.212695,-2681.334243
231.887454,-4145.153275,-10955.047942,-459.657299
231.887776,-740.205942,-13101.645173,-1991.848295
231.888098,2738.761985,-13175.665768,-2298.286494
231.888419,4367.215058,-9844.739029,-1762.019645
231.888741,5847.626942,-7179.997637,0.000000
231.889063,8068.244768,-6587.832884,2145.067394
231.889384,9030.512492,-6365.771101,1838.629195
231.889706,8142.265362,-5625.565159,-306.438199
231.890028,7772.162391,-5921.647536,-1532.190996
231.890349,6661.853478,-8808.450710,-995.924147
231.890671,3701.029710,-12213.398043,383.047749
231.890993,1110.308913,-12953.603985,1608.800546
231.891315,0.000000,-11473.192101,612.876398
231.891636,-222.061783,-11029.068536,-1225.752797
231.891958,-1628.453072,-10732.986159,-2221.676944
231.892280,-4367.215058,-8216.285956,-1302.362347
231.892601,-5329.482782,-4737.318029,-995.924147
231.892923,-5107.421000,-5403.503377,-2298.286494
231.893245,-5181.441594,-9474.636058,-2604.724693
231.893566,-7031.956449,-9474.636058,-2757.943793
231.893888,-8438.347739,-8734.430116,-3600.648841
231.894210,-7476.080014,-10140.821405,-4673.182538
231.894532,-5921.647536,-13249.686362,-3447.429741
231.894853,-5551.544565,-12213.398043,-2451.505594
231.895175,-5551.544565,-10732.986159,-1991.848295
231.895497,-3256.906145,-11325.150913,-1455.581446
231.895818,222.061783,-11399.171507,-2145.067394
231.896140,3330.926739,-9770.718434,-2221.676944
231.896462,5477.523971,-8290.306550,-1302.362347
231.896783,7105.977043,-8068.244768,2298.286494
231.897105,7846.182985,-6291.750507,4290.134789
231.897427,7994.224174,-4885.359217,1532.190996
231.897749,8290.306550,-6957.935855,-2374.896044
231.898070,8290.306550,-9622.677246,-1685.410096
231.898392,5625.565159,-10436.903782,-153.219100
231.898714,2368.659014,-10732.986159,1762.019645
231.899035,1924.535449,-12361.439231,2298.286494
231.899357,1480.411884,-11843.295072,1149.143247
231.899679,-814.226536,-9474.636058,-1302.362347
231.900000,-4071.132681,-7476.080014,-2298.286494
231.900322,-6291.750507,-6587.832884,-1915.238745
231.900644,-7254.018232,-5181.441594,-2374.896044
231.900966,-7772.162391,-6365.771101,-3524.039291
231.901287,-7920.203579,-9178.553681,-3294.210641
231.901609,-8290.306550,-10807.006753,-2834.553343
231.901931,-8068.244768,-9844.739029,-4290.134789
231.902252,-6587.832884,-11251.130318,-4903.011187
231.902574,-3849.070898,-13767.830521,-4443.353888
231.902896,-2220.617826,-13545.768739,-3370.820191
231.903217,-1850.514855,-12435.459826,-1915.238745
231.903539,-888.247130,-10807.006753,-153.219100
231.903861,2368.659014,-8882.471304,-919.314598
231.904183,5181.441594,-6291.750507,-2911.162892
231.904504,6957.935855,-5329.482782,-2451.505594
231.904826,8290.306550,-6291.750507,1685.410096
231.905148,7994.224174,-7254.018232,2604.724693
231.905469,8216.285956,-8956.491898,306.438199
231.905791,8586.388927,-9474.636058,-383.047749
231.906113,6587.832884,-10066.800811,0.000000
231.906434,2886.803174,-10066.800811,1149.143247
231.906756,666.185348,-11325.150913,766.095498
231.907078,0.000000,-12065.356855,0.000000
231.907400,-666.185348,-10510.924376,-1149.143247
231.907721,-2738.761985,-9400.615463,-1608.800546
231.908043,-4367.215058,-8142.265362,-1685.410096
231.908365,-4441.235652,-5699.585753,-1608.800546
231.908686,-5625.565159,-5181.441594,-2604.724693
231.909008,-6883.915261,-8734.430116,-3753.867940
231.909330,-9326.594869,-9548.656652,-3370.820191
231.909651,-11621.233289,-8586.388927,-4366.744339
231.909973,-11399.171507,-10362.883188,-5132.839837
231.910295,-7402.059420,-13693.809927,-5592.497135
231.910617,-4737.318029,-13989.892304,-4443.353888
231.910938,-3701.029710,-13249.686362,-2604.724693
231.911260,-2368.659014,-11769.274478,1072.533697
231.911582,666.185348,-9104.533087,1302.362347
231.911903,3701.029710,-5551.544565,-1838.629195
231.912225,6661.853478,-4737.318029,-3447.429741
231.912547,8660.409521,-6069.688724,-2221.676944
231.912868,9178.553681,-7550.100608,-459.657299
231.913190,8956.491898,-9252.574275,1072.533697
231.913512,7698.141797,-9844.739029,3370.820191
231.913834,6217.729913,-9770.718434,2911.162892
231.914155,4737.318029,-10807.006753,229.828649
231.914477,3256.906145,-12065.356855,-2221.676944
231.914799,1406.391290,-10584.944971,-1762.019645
231.915120,-1480.411884,-8734.430116,689.485948
231.915442,-3330.926739,-7994.224174,2145.067394
231.915764,-3552.988522,-6661.853478,-383.047749
231.916085,-3997.112087,-6809.894666,-4519.963438
231.916407,-5477.523971,-9770.718434,-5132.839837
231.916729,-7624.121203,-10362.883188,-2298.286494
231.917050,-9326.594869,-7624.121203,-3064.381992
231.917372,-8734.430116,-9030.512492,-5362.668486
231.917694,-5551.544565,-13027.624579,-5439.278036
231.918016,-3923.091493,-13693.809927,-5286.058936
231.918337,-3849.070898,-13249.686362,-3600.648841
231.918659,-2738.761985,-12805.562797,689.485948
231.918981,-222.061783,-10732.986159,1991.848295
231.919302,2664.741391,-7846.182985,-1762.019645
231.919624,4959.379811,-6069.688724,-2987.772442
231.919946,6735.874072,-6291.750507,0.000000
231.920267,7105.977043,-5033.400406,1532.190996
231.920589,7476.080014,-4811.338623,1532.190996
231.920911,8956.491898,-8216.285956,1302.362347
231.921233,9104.533087,-10732.986159,153.219100
231.921554,6587.832884,-11621.233289,459.657299
231.921876,3256.906145,-11473.192101,2068.457845
231.922198,1258.350101,-10510.924376,1302.362347
231.922519,148.041188,-10214.842000,-1149.143247
231.922841,-1110.308913,-10510.924376,-2451.505594
231.923163,-3108.864956,-10288.862594,-1762.019645
231.923484,-4441.235652,-8438.347739,-383.047749
231.923806,-4441.235652,-6365.771101,-919.314598
231.924128,-4145.153275,-6883.915261,-2451.505594
231.924450,-5921.647536,-8438.347739,-2987.772442
231.924771,-9326.594869,-7772.162391,-3370.820191
231.925093,-11399.171507,-8660.409521,-5056.230287
231.925415,-10066.800811,-11991.336260,-4979.620737
231.925736,-6513.812290,-13545.768739,-4443.353888
231.926058,-4737.318029,-12731.542202,-3524.039291
231.926380,-3478.967927,-13101.645173,-612.876398
231.926701,-1036.288319,-11029.068536,1378.971896
231.927023,1776.494261,-7698.141797,-459.657299
231.927345,4367.215058,-4811.338623,-3447.429741
231.927667,6143.709319,-4811.338623,-2451.505594
231.927988,6883.915261,-7105.977043,-1915.238745
231.928310,6513.812290,-7846.182985,-1072.533697
231.928632,6365.771101,-9400.615463,612.876398
231.928953,5329.482782,-9622.677246,1915.238745
231.929275,3849.070898,-10140.821405,919.314598
231.929597,1924.535449,-10881.027347,-919.314598
231.929918,592.164754,-11103.089130,-2068.457845
231.930240,-962.267725,-10362.883188,-1455.581446
231.930562,-2368.659014,-9474.636058,229.828649
231.930884,-3108.864956,-7698.141797,919.314598
231.931205,-3256.906145,-5773.606348,-995.924147
231.931527,-3775.050304,-7179.997637,-3753.867940
231.931849,-5773.606348,-9918.759623,-3294.210641
231.932170,-7550.100608,-8956.491898,-3370.820191
231.932492,-8586.388927,-8290.306550,-4519.963438
231.932814,-6587.832884,-10881.027347,-4979.620737
231.933135,-3849.070898,-13841.851115,-5132.839837
231.933457,-2368.659014,-13915.871710,-4443.353888
231.933779,-1702.473667,-13323.706956,-1762.019645
231.934101,0.000000,-12287.418637,995.924147
231.934422,1702.473667,-9474.636058,-459.657299
231.934744,4145.153275,-7105.977043,-2911.162892
231.935066,5403.503377,-6957.935855,-1991.848295
231.935387,6809.894666,-6291.750507,766.095498
231.935709,6809.894666,-5329.482782,1225.752797
231.936031,7624.121203,-6143.709319,1225.752797
231.936352,8142.265362,-8438.347739,995.924147
231.936674,7476.080014,-9770.718434,0.000000
231.936996,4071.132681,-9918.759623,842.705048
231.937318,1036.288319,-10214.842000,1915.238745
231.937639,-148.041188,-10584.944971,612.876398
231.937961,-962.267725,-11177.109724,-1225.752797
231.938283,-3404.947333,-11029.068536,-1838.629195
231.938604,-4515.256246,-9918.759623,-612.876398
231.938926,-3923.091493,-7105.977043,-1378.971896
231.939248,-3182.885551,-6143.709319,-2757.943793
231.939569,-4071.132681,-6661.853478,-3064.381992
231.939891,-6439.791695,-7328.038826,-2451.505594
231.940213,-9030.512492,-7994.224174,-4519.963438
231.940535,-9104.533087,-11251.130318,-5209.449386
231.940856,-7476.080014,-14359.995275,-4903.011187
231.941178,-5477.523971,-14211.954086,-3677.258390
231.941500,-3404.947333,-13101.645173,-1762.019645
231.941821,-888.247130,-12065.356855,1072.533697
231.942143,1628.453072,-9030.512492,919.314598
231.942465,3478.967927,-5921.647536,-1532.190996
231.942786,4959.379811,-4885.359217,-2451.505594
231.943108,6069.688724,-6809.894666,-1991.848295
231.943430,6439.791695,-7402.059420,-612.876398
231.943752,5847.626942,-7624.121203,229.828649
231.944073,5403.503377,-8882.471304,1149.143247
231.944395,4737.318029,-9770.718434,995.924147
231.944717,3552.988522,-9992.780217,-459.657299
231.945038,2072.576638,-9844.739029,-1532.190996
231.945360,740.205942,-10584.944971,-2068.457845
231.945682,-1184.329507,-11251.130318,-1072.533697
231.946003,-3330.926739,-10510.924376,0.000000
231.946325,-3923.091493,-7994.224174,-1302.362347
231.946647,-3627.009116,-7402.059420,-2911.162892
231.946968,-4441.235652,-9030.512492,-3907.087040
231.947290,-6217.729913,-9622.677246,-2987.772442
231.947612,-8068.244768,-7698.141797,-2987.772442
231.947934,-8142.265362,-7105.977043,-4290.134789
231.948255,-5551.544565,-10066.800811,-4979.620737
231.948577,-3923.091493,-12583.501014,-6052.154434
231.948899,-3849.070898,-13619.789333,-3600.648841
231.949220,-2886.803174,-12879.583391,0.000000
231.949542,-518.144159,-12287.418637,1072.533697
231.949864,2442.679609,-9992.780217,-689.485948
231.950185,5477.523971,-7920.203579,-2451.505594
231.950507,7031.956449,-6143.709319,-1915.238745
231.950829,8142.265362,-5033.400406,76.609550
231.951151,8586.388927,-5551.544565,689.485948
231.951472,8512.368333,-7698.141797,383.047749
231.951794,8586.388927,-9252.574275,306.438199
231.952116,6365.771101,-10510.924376,-153.219100
231.952437,2516.700203,-11029.068536,689.485948
231.952759,-296.082377,-11399.171507,919.314598
231.953081,-1036.288319,-10658.965565,-229.828649
231.953402,-1480.411884,-10214.842000,-1762.019645
231.953724,-2442.679609,-9918.759623,-1608.800546
231.954046,-3701.029710,-8586.388927,0.000000
231.954368,-3849.070898,-5699.585753,-1149.143247
231.954689,-3627.009116,-6069.688724,-3140.991542
231.955011,-5033.400406,-7920.203579,-3753.867940
231.955333,-8216.285956,-8364.327145,-4213.525239
231.955654,-10140.821405,-9030.512492,-4749.792088
231.955976,-9252.574275,-12139.377449,-4826.401637
231.956298,-5995.668130,-14211.954086,-4596.572988
231.956619,-3404.947333,-14211.954086,-3983.696590
231.956941,-1702.473667,-12879.583391,-1762.019645
231.957263,296.082377,-11473.192101,1685.410096
231.957585,1998.556043,-8808.450710,766.095498
231.957906,3849.070898,-6365.771101,-1532.190996
231.958228,5625.565159,-5329.482782,-2298.286494
231.958550,6809.894666,-5625.565159,-1685.410096
231.958871,7254.018232,-7476.080014,0.000000
231.959193,7105.977043,-8364.327145,536.266849
231.959515,6439.791695,-9622.677246,1915.238745
231.959836,4367.215058,-9622.677246,1762.019645
231.960158,2146.597232,-9918.759623,842.705048
231.960480,740.205942,-10807.006753,-1378.971896
231.960802,-444.123565,-11473.192101,-2604.724693
231.961123,-2442.679609,-11251.130318,-1838.629195
231.961445,-3849.070898,-9992.780217,229.828649
231.961767,-3849.070898,-7254.018232,153.219100
231.962088,-3256.906145,-6513.812290,-2757.943793
231.962410,-3627.009116,-8364.327145,-3983.696590
231.962732,-6587.832884,-9400.615463,-3370.820191
231.963053,-9400.615463,-8216.285956,-3217.601092
231.963375,-9474.636058,-8364.327145,-4596.572988
231.963697,-6513.812290,-11695.253884,-5515.887586
231.964019,-3627.009116,-13545.768739,-5362.668486
231.964340,-2368.659014,-13323.706956,-2911.162892
231.964662,-962.267725,-12731.542202,0.000000
231.964984,1258.350101,-11251.130318,1455.581446
231.965305,3627.009116,-8882.471304,-459.657299
231.965627,5329.482782,-6883.915261,-2298.286494
231.965949,5921.647536,-5995.668130,-1149.143247
231.966270,7031.956449,-5773.606348,-536.266849
231.966592,7772.162391,-6513.812290,-306.438199
231.966914,7772.162391,-7624.121203,536.266849
231.967236,6513.812290,-9400.615463,1915.238745
231.967557,2960.823768,-9770.718434,1455.581446
231.967879,296.082377,-11251.130318,919.314598
231.968201,-1036.288319,-11029.068536,-459.657299
231.968522,-1554.432478,-10066.800811,-2374.896044
231.968844,-2442.679609,-10288.862594,-2374.896044
231.969166,-3775.050304,-9548.656652,306.438199
231.969487,-3849.070898,-7105.977043,766.095498
231.969809,-3627.009116,-5847.626942,-1915.238745
231.970131,-3997.112087,-8216.285956,-3677.258390
231.970453,-6587.832884,-9474.636058,-3447.429741
231.970774,-9474.636058,-8586.388927,-3677.258390
231.971096,-10140.821405,-8956.491898,-4826.401637
231.971418,-7920.203579,-11843.295072,-4213.525239
231.971739,-5403.503377,-13175.665768,-3983.696590
231.972061,-3478.967927,-12805.562797,-3294.210641
231.972383,-1776.494261,-12065.356855,-995.924147
231.972704,592.164754,-11251.130318,1685.410096
231.973026,3108.864956,-9326.594869,229.828649
231.973348,5255.462188,-7179.997637,-842.705048
231.973670,6513.812290,-5699.585753,-612.876398
231.973991,7624.121203,-6291.750507,-459.657299
231.974313,7328.038826,-7031.956449,459.657299
231.974635,6587.832884,-7698.141797,842.705048
231.974956,4959.379811,-8438.347739,1378.971896
231.975278,3330.926739,-9252.574275,536.266849
231.975600,2368.659014,-10732.986159,-536.266849
231.975922,1554.432478,-11473.192101,-1685.410096
231.976243,74.020594,-10732.986159,-1838.629195
231.976565,-2516.700203,-11251.130318,0.000000
231.976887,-4293.194464,-9844.739029,689.485948
231.977209,-4885.359217,-6809.894666,-1838.629195
231.977531,-4589.276840,-7328.038826,-4903.011187
231.977852,-5403.503377,-9400.615463,-4903.011187
231.978174,-7846.182985,-9030.512492,-2911.162892
231.978496,-9474.636058,-8290.306550,-3447.429741
231.978818,-7624.121203,-10510.924376,-4673.182538
231.979140,-4293.194464,-13693.809927,-4749.792088
231.979461,-2516.700203,-13693.809927,-4060.306139
231.979783,-1554.432478,-12213.398043,-1608.800546
231.980105,740.205942,-11843.295072,76.609550
231.980427,3478.967927,-10214.842000,0.000000
231.980748,6217.729913,-8438.347739,-1608.800546
231.981070,7476.080014,-7402.059420,-1455.581446
231.981392,8586.388927,-7105.977043,612.876398
231.981714,8956.491898,-6217.729913,2298.286494
231.982036,8142.265362,-5625.565159,1455.581446
231.982357,7179.997637,-6217.729913,0.000000
231.982679,5477.523971,-8882.471304,-383.047749
231.983001,2664.741391,-10214.842000,-383.047749
231.983323,-814.226536,-10881.027347,76.609550
231.983645,-1850.514855,-11547.212695,76.609550
231.983966,-2072.576638,-11695.253884,-842.705048
231.984288,-2664.741391,-11473.192101,-1302.362347
231.984610,-3775.050304,-9030.512492,-1455.581446
231.984932,-3849.070898,-6957.935855,-2221.676944
231.985253,-3775.050304,-5921.647536,-2451.505594
231.985575,-4663.297435,-6735.874072,-2451.505594
231.985897,-7476.080014,-7031.956449,-2681.334243
231.986219,-9400.615463,-7920.203579,-4290.134789
231.986541,-9622.677246,-11177.109724,-5209.449386
231.986862,-9104.533087,-13397.727550,-3753.867940
231.987184,-7994.224174,-12509.480420,-3217.601092
231.987506,-5403.503377,-11695.253884,-2834.553343
231.987828,-1480.411884,-11695.253884,-1915.238745
231.988150,1480.411884,-10436.903782,-612.876398
231.988471,3108.864956,-8586.388927,-536.266849
231.988793,5329.482782,-7846.182985,-919.314598
231.989115,6957.935855,-7846.182985,-306.438199
231.989437,7772.162391,-6883.915261,229.828649
231.989758,6809.894666,-5995.668130,306.438199
231.990080,6809.894666,-7402.059420,76.609550
231.990402,6883.915261,-10140.821405,-1072.533697
231.990724,6661.853478,-10955.047942,-1149.143247
231.991046,5329.482782,-10362.883188,-383.047749
231.991367,3478.967927,-10807.006753,536.266849
231.991689,1998.556043,-11473.192101,459.657299
231.992011,0.000000,-10066.800811,459.657299
231.992333,-2886.803174,-7846.182985,-1915.238745
231.992655,-4737.318029,-7476.080014,-2757.943793
231.992976,-5995.668130,-8290.306550,-2987.772442
231.993298,-7772.162391,-7994.224174,-2757.943793
231.993620,-8882.471304,-6217.729913,-2911.162892
231.993942,-7920.203579,-8808.450710,-4366.744339
231.994263,-6957.935855,-12583.501014,-5745.716235
231.994585,-7624.121203,-13101.645173,-3907.087040
231.994907,-8068.244768,-11177.109724,-2298.286494
231.995229,-5329.482782,-11843.295072,-2987.772442
231.995551,-1406.391290,-13175.665768,-3294.210641
231.995872,1184.329507,-12213.398043,-2987.772442
231.996194,2886.803174,-9252.574275,-1991.848295
231.996516,5995.668130,-7846.182985,-229.828649
231.996838,8660.409521,-8586.388927,1225.752797
231.997160,9030.512492,-6513.812290,2374.896044
231.997481,8586.388927,-4145.153275,842.705048
231.997803,7994.224174,-5625.565159,0.000000
231.998125,7254.018232,-9622.677246,0.000000
231.998447,5181.441594,-11399.171507,0.000000
231.998768,2368.659014,-10214.842000,76.609550
231.999090,1554.432478,-10881.027347,1455.581446
231.999412,222.061783,-12657.521608,1608.800546
231.999734,-1184.329507,-10214.842000,306.438199
232.000056,-2664.741391,-6587.832884,-1685.410096
232.000377,-3182.885551,-6439.791695,-2834.553343
232.000699,-4219.173869,-7550.100608,-2528.115143
232.001021,-7179.997637,-7328.038826,-1838.629195
232.001343,-9400.615463,-7105.977043,-2911.162892
232.001665,-9474.636058,-8808.450710,-4596.572988
232.001986,-9252.574275,-12287.418637,-5439.278036
232.002308,-9548.656652,-13397.727550,-5132.839837
232.002630,-8956.491898,-12953.603985,-3753.867940
232.002952,-6217.729913,-12213.398043,-2528.115143
232.003273,-2886.803174,-11991.336260,-1685.410096
232.003595,-740.205942,-9696.697840,-1302.362347
232.003917,1110.308913,-6587.832884,-1608.800546
232.004239,3849.070898,-5329.482782,-1149.143247
232.004561,6143.709319,-6587.832884,229.828649
232.004882,6587.832884,-6291.750507,766.095498
232.005204,6513.812290,-6439.791695,383.047749
232.005526,7550.100608,-8512.368333,-153.219100
232.005848,8142.265362,-11251.130318,-536.266849
232.006170,6809.894666,-11029.068536,-229.828649
232.006491,4959.379811,-10881.027347,536.266849
232.006813,3775.050304,-11103.089130,1149.143247
232.007135,2442.679609,-12139.377449,-229.828649
232.007457,74.020594,-10584.944971,-1455.581446
232.007778,-2146.597232,-8808.450710,-1532.190996
232.008100,-3034.844362,-7105.977043,-2298.286494
232.008422,-3923.091493,-7624.121203,-2604.724693
232.008744,-5551.544565,-7772.162391,-2604.724693
232.009066,-7550.100608,-7920.203579,-2528.115143
232.009387,-9030.512492,-8882.471304,-3983.696590
232.009709,-8956.491898,-10881.027347,-5132.839837
232.010031,-8586.388927,-12509.480420,-5209.449386
232.010353,-7846.182985,-12879.583391,-3524.039291
232.010675,-6069.688724,-12065.356855,-2068.457845
232.010996,-2886.803174,-11399.171507,-1225.752797
232.011318,148.041188,-9548.656652,-1225.752797
232.011640,3404.947333,-7698.141797,-2374.896044
232.011962,5773.606348,-7105.977043,-2451.505594
232.012283,6735.874072,-7254.018232,0.000000
232.012605,7328.038826,-6587.832884,2451.505594
232.012927,7624.121203,-5699.585753,1149.143247
232.013249,8068.244768,-7624.121203,-1455.581446
232.013571,8068.244768,-10807.006753,-1072.533697
232.013892,5551.544565,-11621.233289,0.000000
232.014214,2960.823768,-11103.089130,1838.629195
232.014536,2368.659014,-10658.965565,2451.505594
232.014858,1628.453072,-10732.986159,1455.581446
232.015180,222.061783,-9474.636058,-536.266849
232.015501,-1924.535449,-7920.203579,-1225.752797
232.015823,-3256.906145,-6957.935855,-1225.752797
232.016145,-4293.194464,-6587.832884,-1685.410096
232.016467,-5847.626942,-7105.977043,-2145.067394
232.016788,-7772.162391,-7772.162391,-3294.210641
232.017110,-9474.636058,-9178.553681,-4443.353888
232.017432,-10140.821405,-11621.233289,-4749.792088
232.017754,-10066.800811,-13767.830521,-4519.963438
232.018076,-8586.388927,-14656.077652,-4136.915689
232.018397,-6217.729913,-13471.748144,-3064.381992
232.018719,-3627.009116,-11991.336260,-1532.190996
232.019041,-1258.350101,-9770.718434,-229.828649
232.019363,1480.411884,-6587.832884,-919.314598
232.019685,4293.194464,-4959.379811,-1838.629195
232.020006,5847.626942,-5477.523971,-1532.190996
232.020328,5995.668130,-7179.997637,0.000000
232.020650,5773.606348,-7698.141797,536.266849
232.020972,6439.791695,-9104.533087,383.047749
232.021293,7105.977043,-9918.759623,459.657299
232.021615,6957.935855,-9474.636058,536.266849
232.021937,5033.400406,-9400.615463,383.047749
232.022259,3330.926739,-9844.739029,76.609550
232.022581,1184.329507,-10807.006753,-153.219100
232.022902,-444.123565,-11177.109724,-383.047749
232.023224,-2368.659014,-8882.471304,-1378.971896
232.023546,-2590.720797,-7624.121203,-2834.553343
232.023868,-2812.782580,-8512.368333,-3447.429741
232.024190,-4959.379811,-9474.636058,-2604.724693
232.024511,-6883.915261,-8734.430116,-2374.896044
232.024833,-7550.100608,-8290.306550,-4290.134789
232.025155,-6661.853478,-12213.398043,-5515.887586
232.025477,-5625.565159,-13545.768739,-3983.696590
232.025798,-5181.441594,-11621.233289,-2757.943793
232.026120,-3849.070898,-10881.027347,-1532.190996
232.026442,-444.123565,-10584.944971,-1149.143247
232.026764,3108.864956,-10066.800811,-1685.410096
232.027086,4663.297435,-8586.388927,-2757.943793
232.027407,5403.503377,-8364.327145,-842.705048
232.027729,6439.791695,-7105.977043,2681.334243
232.028051,7179.997637,-4441.235652,1225.752797
232.028373,7772.162391,-4737.318029,-1838.629195
232.028695,7846.182985,-8438.347739,-2374.896044
232.029016,5699.585753,-10807.006753,-229.828649
232.029338,1554.432478,-10807.006753,1838.629195
232.029660,-962.267725,-11325.150913,1991.848295
232.029982,-592.164754,-11843.295072,995.924147
232.030303,-370.102971,-11769.274478,-2298.286494
232.030625,-2664.741391,-9918.759623,-2528.115143
232.030947,-4145.153275,-7772.162391,-536.266849
232.031269,-3923.091493,-5921.647536,306.438199
232.031591,-3627.009116,-5773.606348,-2068.457845
232.031912,-5181.441594,-6735.874072,-4060.306139
232.032234,-7254.018232,-8068.244768,-4213.525239
232.032556,-8734.430116,-9992.780217,-4903.011187
232.032878,-8586.388927,-12657.521608,-4213.525239
232.033200,-6661.853478,-14137.933492,-3064.381992
232.033521,-4885.359217,-13323.706956,-2374.896044
232.033843,-2812.782580,-12879.583391,-2451.505594
232.034165,-1480.411884,-11547.212695,-689.485948
232.034487,592.164754,-8438.347739,-612.876398
232.034808,3330.926739,-5551.544565,-1915.238745
232.035130,5107.421000,-4811.338623,-1838.629195
232.035452,6069.688724,-5995.668130,0.000000
232.035774,5033.400406,-6809.894666,1072.533697
232.036096,4885.359217,-7624.121203,689.485948
232.036417,5329.482782,-9252.574275,-842.705048
232.036739,4959.379811,-10288.862594,-995.924147
232.037061,3552.988522,-10436.903782,-153.219100
232.037383,2146.597232,-10658.965565,536.266849
232.037705,1036.288319,-10807.006753,-153.219100
232.038026,-666.185348,-10584.944971,-1302.362347
232.038348,-2368.659014,-9844.739029,-1532.190996
232.038670,-4145.153275,-7624.121203,-1762.019645
232.038992,-4589.276840,-8438.347739,-3217.601092
232.039313,-4811.338623,-9474.636058,-3294.210641
232.039635,-5551.544565,-9622.677246,-2681.334243
232.039957,-6365.771101,-8882.471304,-2987.772442
232.040279,-6143.709319,-9104.533087,-4290.134789
232.040601,-4959.379811,-10436.903782,-4136.915689
232.040922,-3997.112087,-11399.171507,-3983.696590
232.041244,-2516.700203,-11843.295072,-2757.943793
232.041566,0.000000,-12435.459826,-995.924147
232.041888,2590.720797,-11917.315666,-612.876398
232.042210,4737.318029,-10288.862594,-919.314598
232.042531,7031.956449,-9400.615463,-689.485948
232.042853,8142.265362,-8142.265362,689.485948
232.043175,8734.430116,-5921.647536,1532.190996
232.043497,8068.244768,-4071.132681,0.000000
232.043818,6957.935855,-5551.544565,-536.266849
232.044140,4959.379811,-7994.224174,-153.219100
232.044462,2294.638420,-10140.821405,459.657299
232.044784,-74.020594,-10658.965565,306.438199
232.045106,-962.267725,-11621.233289,229.828649
232.045427,-1480.411884,-11843.295072,-153.219100
232.045749,-2368.659014,-10510.924376,-536.266849
232.046071,-4219.173869,-8734.430116,-689.485948
232.046393,-4885.359217,-6661.853478,-919.314598
232.046715,-4885.359217,-6217.729913,-2528.115143
232.047036,-5403.503377,-7254.018232,-3370.820191
232.047358,-7550.100608,-8438.347739,-3907.087040
232.047680,-8808.450710,-9252.574275,-3447.429741
232.048002,-8438.347739,-11621.233289,-3753.867940
232.048323,-7550.100608,-13249.686362,-3064.381992
232.048645,-5551.544565,-13175.665768,-2681.334243
232.048967,-3182.885551,-11917.315666,-2834.553343
232.049289,-1036.288319,-11325.150913,-1762.019645
232.049611,740.205942,-9696.697840,0.000000
232.049932,2368.659014,-7550.100608,0.000000
232.050254,4441.235652,-5921.647536,-1072.533697
232.050576,5995.668130,-6365.771101,-1072.533697
232.050898,6587.832884,-7550.100608,459.657299
232.051220,5551.544565,-8142.265362,459.657299
232.051541,4737.318029,-7846.182985,689.485948
232.051863,4811.338623,-8438.347739,-612.876398
232.052185,4811.338623,-10214.842000,-1532.190996
232.052507,3552.988522,-11251.130318,-1378.971896
232.052828,1628.453072,-10288.862594,-459.657299
232.053150,-888.247130,-10510.924376,-536.266849
232.053472,-3330.926739,-11325.150913,-153.219100
232.053794,-5107.421000,-9252.574275,-1149.143247
232.054116,-6809.894666,-6587.832884,-3830.477490
232.054437,-6587.832884,-7772.162391,-4749.792088
232.054759,-6291.750507,-9918.759623,-3600.648841
232.055081,-6883.915261,-8882.471304,-3064.381992
232.055403,-7031.956449,-7402.059420,-3217.601092
232.055725,-5773.606348,-9696.697840,-3677.258390
232.056046,-4441.235652,-12583.501014,-3753.867940
232.056368,-3552.988522,-12583.501014,-4673.182538
232.056690,-2072.576638,-12361.439231,-3217.601092
232.057012,1480.411884,-12657.521608,-1608.800546
232.057333,4737.318029,-11917.315666,-459.657299
232.057655,6587.832884,-9770.718434,-229.828649
232.057977,8068.244768,-7254.018232,383.047749
232.058299,9918.759623,-5847.626942,1455.581446
232.058621,10066.800811,-4959.379811,766.095498
232.058942,8438.347739,-4885.359217,-536.266849
232.059264,6661.853478,-7031.956449,-306.438199
232.059586,4885.359217,-8808.450710,383.047749
232.059908,2294.638420,-10584.944971,0.000000
232.060230,0.000000,-11325.150913,229.828649
232.060551,-1554.432478,-11103.089130,383.047749
232.060873,-2146.597232,-11251.130318,-306.438199
232.061195,-3478.967927,-10955.047942,-1302.362347
232.061517,-4589.276840,-8882.471304,-842.705048
232.061838,-5329.482782,-6513.812290,-1378.971896
232.062160,-5255.462188,-5921.647536,-3217.601092
232.062482,-5847.626942,-7105.977043,-4060.306139
232.062804,-7772.162391,-8512.368333,-3524.039291
232.063126,-9252.574275,-9770.718434,-3524.039291
232.063447,-9400.615463,-12065.356855,-3447.429741
232.063769,-7920.203579,-13767.830521,-3217.601092
232.064091,-5107.421000,-13175.665768,-3370.820191
232.064413,-2368.659014,-11843.295072,-3294.210641
232.064735,296.082377,-11103.089130,-1685.410096
232.065056,2516.700203,-9104.533087,153.219100
232.065378,4145.153275,-7031.956449,459.657299
232.065700,5699.585753,-5995.668130,-306.438199
232.066022,6661.853478,-7031.956449,229.828649
232.066343,6883.915261,-7550.100608,383.047749
232.066665,6217.729913,-7772.162391,-76.609550
232.066987,6439.791695,-8290.306550,153.219100
232.067309,6217.729913,-9474.636058,383.047749
232.067631,4885.359217,-9622.677246,0.000000
232.067952,3034.844362,-9696.697840,0.000000
232.068274,962.267725,-9696.697840,-536.266849
232.068596,-1110.308913,-10732.986159,-1378.971896
232.068918,-3701.029710,-10658.965565,-919.314598
232.069240,-6143.709319,-8586.388927,-1532.190996
232.069561,-6587.832884,-6587.832884,-2834.553343
232.069883,-6143.709319,-7772.162391,-3753.867940
232.070205,-6291.750507,-8808.450710,-2911.162892
232.070527,-8068.244768,-8142.265362,-2757.943793
232.070848,-8586.388927,-7476.080014,-3447.429741
232.071170,-7254.018232,-10362.883188,-4903.011187
232.071492,-5625.565159,-12879.583391,-4673.182538
232.071814,-4367.215058,-12361.439231,-3294.210641
232.072136,-2368.659014,-12139.377449,-2374.896044
232.072457,1332.370696,-12731.542202,-1225.752797
232.072779,4737.318029,-11621.233289,-612.876398
232.073101,6661.853478,-9474.636058,-1072.533697
232.073423,7846.182985,-7698.141797,-383.047749
232.073745,8882.471304,-6365.771101,1838.629195
232.074066,9252.574275,-5033.400406,1302.362347
232.074388,8586.388927,-5033.400406,-842.705048
232.074710,7624.121203,-7920.203579,-842.705048
232.075032,5847.626942,-10214.842000,766.095498
232.075354,3256.906145,-11029.068536,919.314598
232.075676,1480.411884,-11325.150913,842.705048
232.075998,1406.391290,-11621.233289,0.000000
232.076319,518.144159,-11769.274478,-1072.533697
232.076641,-1998.556043,-10214.842000,-766.095498
232.076963,-4293.194464,-8068.244768,153.219100
232.077285,-4219.173869,-6809.894666,-2145.067394
232.077607,-5329.482782,-7105.977043,-4443.353888
232.077929,-7772.162391,-7920.203579,-3907.087040
232.078251,-10066.800811,-8290.306550,-3753.867940
232.078573,-11473.192101,-9992.780217,-4826.401637
232.078895,-11177.109724,-12583.501014,-4826.401637
232.079217,-10288.862594,-13397.727550,-4290.134789
232.079539,-8586.388927,-11695.253884,-3600.648841
232.079860,-5329.482782,-10288.862594,-3294.210641
232.080182,-1924.535449,-10436.903782,-1915.238745
232.080504,444.123565,-8808.450710,-229.828649
232.080826,2886.803174,-7476.080014,-995.924147
232.081148,4811.338623,-6661.853478,-229.828649
232.081470,6587.832884,-7105.977043,1149.143247
232.081792,7105.977043,-6291.750507,1149.143247
232.082114,7328.038826,-6143.709319,-306.438199
232.082436,7994.224174,-7994.224174,-842.705048
232.082758,8142.265362,-10807.006753,76.609550
232.083080,7254.018232,-10807.006753,919.314598
232.083402,5699.585753,-10584.944971,689.485948
232.083723,3849.070898,-11177.109724,842.705048
232.084045,1776.494261,-10658.965565,0.000000
232.084367,-1628.453072,-9770.718434,-842.705048
232.084689,-4515.256246,-8364.327145,-1608.800546
232.085011,-5329.482782,-6957.935855,-2528.115143
232.085333,-5921.647536,-7550.100608,-3600.648841
232.085655,-6661.853478,-8438.347739,-2451.505594
232.085977,-7920.203579,-8586.388927,-2221.676944
232.086299,-8290.306550,-9696.697840,-3677.258390
232.086621,-7624.121203,-11177.109724,-4443.353888
232.086943,-7402.059420,-10436.903782,-3753.867940
232.087264,-7031.956449,-10732.986159,-4213.525239
232.087586,-4515.256246,-11991.336260,-3907.087040
232.087908,-814.226536,-12953.603985,-2528.115143
232.088230,2146.597232,-11325.150913,-2451.505594
232.088552,4737.318029,-10288.862594,-1302.362347
232.088874,7624.121203,-9992.780217,1072.533697
232.089196,9696.697840,-7698.141797,1455.581446
232.089518,9696.697840,-5329.482782,612.876398
232.089840,9030.512492,-4959.379811,1225.752797
232.090162,7846.182985,-6439.791695,1149.143247
232.090484,5625.565159,-8808.450710,-612.876398
232.090806,4737.318029,-10732.986159,-612.876398
232.091127,3997.112087,-11917.315666,689.485948
232.091449,3256.906145,-13175.665768,1378.971896
232.091771,814.226536,-13249.686362,2298.286494
232.092093,-1184.329507,-10732.986159,2911.162892
232.092415,-2516.700203,-6217.729913,229.828649
232.092737,-4145.153275,-5033.400406,-3907.087040
232.093059,-6661.853478,-5625.565159,-4366.744339
232.093381,-9474.636058,-6365.771101,-3753.867940
232.093703,-10955.047942,-7476.080014,-4290.134789
232.094025,-10288.862594,-10436.903782,-4673.182538
232.094347,-9622.677246,-13693.809927,-3600.648841
232.094668,-10584.944971,-14878.139434,-3524.039291
232.094990,-9770.718434,-14137.933492,-4443.353888
232.095312,-6735.874072,-11769.274478,-3677.258390
232.095634,-3330.926739,-10066.800811,-2681.334243
232.095956,-962.267725,-8068.244768,-2451.505594
232.096278,1036.288319,-5477.523971,-1072.533697
232.096600,3775.050304,-4811.338623,-536.266849
232.096922,6513.812290,-6365.771101,766.095498
232.097244,6957.935855,-7846.182985,995.924147
232.097566,6587.832884,-8882.471304,229.828649
232.097888,6957.935855,-8882.471304,0.000000
232.098210,7624.121203,-9770.718434,76.609550
232.098531,7994.224174,-10066.800811,0.000000
232.098853,7624.121203,-9474.636058,0.000000
232.099175,6143.709319,-9770.718434,0.000000
232.099497,2886.803174,-10436.903782,536.266849
232.099819,-370.102971,-10510.924376,383.047749
232.100141,-2812.782580,-9326.594869,-995.924147
232.100463,-4071.132681,-7994.224174,-3983.696590
232.100785,-5033.400406,-8068.244768,-4903.011187
232.101107,-5921.647536,-8586.388927,-3677.258390
232.101429,-7550.100608,-8438.347739,-2834.553343
232.101751,-8512.368333,-8956.491898,-3294.210641
232.102072,-7920.203579,-10807.006753,-4443.353888
232.102394,-7328.038826,-12213.398043,-4826.401637
232.102716,-6809.894666,-12213.398043,-4673.182538
232.103038,-4885.359217,-12287.418637,-3447.429741
232.103360,-1628.453072,-11621.233289,-1915.238745
232.103682,2146.597232,-10362.883188,-1149.143247
232.104004,4811.338623,-9252.574275,-1915.238745
232.104326,7476.080014,-7698.141797,-1149.143247
232.104648,8808.450710,-7105.977043,1072.533697
232.104970,9252.574275,-6217.729913,1378.971896
232.105292,9252.574275,-5699.585753,383.047749
232.105614,8882.471304,-8364.327145,-536.266849
232.105935,7105.977043,-10140.821405,153.219100
232.106257,4811.338623,-10658.965565,1149.143247
232.106579,3108.864956,-10732.986159,689.485948
232.106901,2738.761985,-11769.274478,459.657299
232.107223,1628.453072,-11769.274478,842.705048
232.107545,-740.205942,-9548.656652,689.485948
232.107867,-2516.700203,-7476.080014,0.000000
232.108189,-4071.132681,-6735.874072,-919.314598
232.108511,-5477.523971,-6069.688724,-3370.820191
232.108833,-8216.285956,-6439.791695,-3907.087040
232.109155,-9992.780217,-7624.121203,-4366.744339
232.109476,-10510.924376,-10214.842000,-4290.134789
232.109798,-10881.027347,-12583.501014,-3677.258390
232.110120,-10436.903782,-13397.727550,-2757.943793
232.110442,-9474.636058,-12953.603985,-2834.553343
232.110764,-6365.771101,-11621.233289,-3447.429741
232.111086,-3775.050304,-10066.800811,-2834.553343
232.111408,-1036.288319,-8290.306550,-1762.019645
232.111730,1110.308913,-6143.709319,-689.485948
232.112052,4071.132681,-5329.482782,-689.485948
232.112374,5551.544565,-6439.791695,0.000000
232.112696,6217.729913,-7105.977043,459.657299
232.113017,6069.688724,-7550.100608,0.000000
232.113339,6513.812290,-8882.471304,-229.828649
232.113661,6661.853478,-10214.842000,0.000000
232.113983,6957.935855,-10658.965565,229.828649
232.114305,5995.668130,-10732.986159,459.657299
232.114627,4737.318029,-11029.068536,766.095498
232.114949,1776.494261,-10955.047942,1072.533697
232.115271,-1480.411884,-9474.636058,229.828649
232.115593,-3404.947333,-8216.285956,-1991.848295
232.115915,-4663.297435,-7920.203579,-3447.429741
232.116237,-5033.400406,-8882.471304,-3983.696590
232.116559,-5921.647536,-8734.430116,-3983.696590
232.116880,-7105.977043,-9178.553681,-2987.772442
232.117202,-7254.018232,-9548.656652,-2528.115143
232.117524,-7624.121203,-10584.944971,-3830.477490
232.117846,-7328.038826,-11547.212695,-4979.620737
232.118168,-5921.647536,-12879.583391,-4979.620737
232.118490,-3256.906145,-13027.624579,-3753.867940
232.118812,0.000000,-12139.377449,-2451.505594
232.119134,2812.782580,-10881.027347,-1302.362347
232.119456,5773.606348,-8882.471304,153.219100
232.119778,7476.080014,-6587.832884,229.828649
232.120100,8512.368333,-5255.462188,0.000000
232.120421,7550.100608,-5181.441594,-153.219100
232.120743,6957.935855,-6439.791695,0.000000
232.121065,6143.709319,-7698.141797,-536.266849
232.121387,5255.462188,-9696.697840,76.609550
232.121709,4145.153275,-11695.253884,1149.143247
232.122031,2442.679609,-11843.295072,1991.848295
232.122353,518.144159,-11251.130318,1455.581446
232.122675,-1628.453072,-10214.842000,766.095498
232.122997,-3182.885551,-8882.471304,0.000000
232.123319,-4441.235652,-7105.977043,-1915.238745
232.123641,-5107.421000,-6439.791695,-3447.429741
232.123963,-5551.544565,-8068.244768,-2834.553343
232.124284,-6809.894666,-8438.347739,-2834.553343
232.124606,-7846.182985,-9622.677246,-3524.039291
232.124928,-8364.327145,-11251.130318,-3600.648841
232.125250,-8364.327145,-12583.501014,-3217.601092
232.125572,-7550.100608,-12657.521608,-3600.648841
232.125894,-5107.421000,-11695.253884,-3830.477490
232.126216,-1998.556043,-10732.986159,-3140.991542
232.126538,518.144159,-9992.780217,-1302.362347
232.126860,2294.638420,-8290.306550,0.000000
232.127182,4145.153275,-6661.853478,689.485948
232.127504,5847.626942,-6809.894666,1072.533697
232.127825,6143.709319,-6735.874072,153.219100
232.128147,5181.441594,-6661.853478,76.609550
232.128469,4515.256246,-6291.750507,-306.438199
232.128791,5181.441594,-8216.285956,-842.705048
232.129113,5773.606348,-11103.089130,-1302.362347
232.129435,4959.379811,-11177.109724,612.876398
232.129757,2442.679609,-10288.862594,1302.362347
232.130079,-444.123565,-10658.965565,1149.143247
232.130401,-2960.823768,-11103.089130,-306.438199
232.130723,-4959.379811,-9252.574275,-2528.115143
232.131045,-6143.709319,-7031.956449,-4443.353888
232.131367,-5847.626942,-7994.224174,-4519.963438
232.131688,-5181.441594,-9252.574275,-3830.477490
232.132010,-5329.482782,-9104.533087,-3294.210641
232.132332,-6365.771101,-9030.512492,-2604.724693
232.132654,-6291.750507,-10140.821405,-3140.991542
232.132976,-6735.874072,-11547.212695,-4749.792088
232.133298,-5181.441594,-12583.501014,-5439.278036
232.133620,-2442.679609,-12435.459826,-4136.915689
232.133942,962.267725,-12657.521608,-2528.115143
232.134264,3627.009116,-11325.150913,459.657299
232.134586,5921.647536,-9474.636058,1455.581446
232.134908,7772.162391,-7031.956449,1378.971896
232.135229,9104.533087,-5847.626942,-229.828649
232.135551,8512.368333,-5921.647536,-383.047749
232.135873,5995.668130,-5847.626942,306.438199
232.136195,3330.926739,-5255.462188,0.000000
232.136517,3478.967927,-7846.182985,-459.657299
232.136839,3775.050304,-11177.109724,-766.095498
232.137161,2738.761985,-13175.665768,-459.657299
232.137483,740.205942,-12287.418637,842.705048
232.137805,-1406.391290,-11769.274478,2298.286494
232.138127,-2220.617826,-10807.006753,1072.533697
232.138449,-3849.070898,-8142.265362,-1762.019645
232.138771,-4885.359217,-5995.668130,-4749.792088
232.139092,-5699.585753,-6439.791695,-4903.011187
232.139414,-6143.709319,-8512.368333,-2528.115143
232.139736,-6661.853478,-8956.491898,-2834.553343
232.140058,-7105.977043,-9548.656652,-2911.162892
232.140380,-7254.018232,-11251.130318,-3140.991542
232.140702,-7772.162391,-12731.542202,-3294.210641
232.141024,-7105.977043,-12287.418637,-3524.039291
232.141346,-4219.173869,-10881.027347,-3600.648841
232.141668,-814.226536,-10881.027347,-3217.601092
232.141990,1628.453072,-10436.903782,-919.314598
232.142312,3034.844362,-9030.512492,1072.533697
232.142633,4885.359217,-7402.059420,1225.752797
232.142955,7328.038826,-7328.038826,842.705048
232.143277,8142.265362,-7105.977043,459.657299
232.143599,6365.771101,-6365.771101,153.219100
232.143921,5033.400406,-6587.832884,459.657299
232.144243,5255.462188,-8438.347739,0.000000
232.144565,6143.709319,-10214.842000,-1302.362347
232.144887,5255.462188,-10807.006753,0.000000
232.145209,2146.597232,-10214.842000,1378.971896
232.145531,-888.247130,-10658.965565,1838.629195
232.145853,-3627.009116,-10140.821405,842.705048
232.146175,-5477.523971,-8142.265362,-2145.067394
232.146496,-6735.874072,-6365.771101,-4979.620737
232.146818,-6587.832884,-6883.915261,-5515.887586
232.147140,-6291.750507,-7994.224174,-4366.744339
232.147462,-6069.688724,-8956.491898,-3447.429741
232.147784,-6439.791695,-9770.718434,-2681.334243
232.148106,-6291.750507,-11399.171507,-2911.162892
232.148428,-6587.832884,-12287.418637,-3447.429741
232.148750,-4959.379811,-12805.562797,-5362.668486
232.149072,-1702.473667,-12287.418637,-4903.011187
232.149394,2072.576638,-12287.418637,-2834.553343
232.149716,4219.173869,-11843.295072,76.609550
232.150037,6365.771101,-9400.615463,2068.457845
232.150359,8364.327145,-6439.791695,1302.362347
232.150681,9696.697840,-5995.668130,-229.828649
232.151003,9548.656652,-6661.853478,-766.095498
232.151325,6957.935855,-6513.812290,-612.876398
232.151647,4811.338623,-6957.935855,0.000000
232.151969,3923.091493,-8734.430116,1455.581446
232.152291,3701.029710,-11029.068536,76.609550
232.152613,2590.720797,-11917.315666,-1072.533697
232.152935,888.247130,-11917.315666,-229.828649
232.153257,-1554.432478,-11917.315666,1072.533697
232.153579,-2738.761985,-10881.027347,842.705048
232.153900,-4441.235652,-7846.182985,-612.876398
232.154222,-5329.482782,-6365.771101,-3830.477490
232.154544,-6439.791695,-6291.750507,-4826.401637
232.154866,-7920.203579,-6587.832884,-3830.477490
232.155188,-8660.409521,-7402.059420,-3830.477490
232.155510,-8734.430116,-9696.697840,-3600.648841
232.155832,-8290.306550,-11547.212695,-3217.601092
232.156154,-8438.347739,-13323.706956,-3524.039291
232.156476,-7402.059420,-13619.789333,-2834.553343
232.156798,-4589.276840,-10881.027347,-2757.943793
232.157120,-1850.514855,-9474.636058,-2757.943793
232.157441,740.205942,-9400.615463,-1532.190996
232.157763,2590.720797,-8068.244768,459.657299
232.158085,4367.215058,-6587.832884,1072.533697
232.158407,6439.791695,-6069.688724,1455.581446
232.158729,7920.203579,-6809.894666,842.705048
232.159051,8364.327145,-7328.038826,-919.314598
232.159373,7179.997637,-8068.244768,-842.705048
232.159695,6217.729913,-10140.821405,766.095498
232.160017,4737.318029,-11251.130318,1225.752797
232.160339,3330.926739,-11177.109724,919.314598
232.160661,1406.391290,-10658.965565,76.609550
232.160983,-1628.453072,-10881.027347,-766.095498
232.161304,-3923.091493,-10288.862594,-536.266849
232.161626,-5403.503377,-8068.244768,-1225.752797
232.161948,-5699.585753,-6217.729913,-2834.553343
232.162270,-4959.379811,-6809.894666,-3447.429741
232.162592,-6069.688724,-7994.224174,-3983.696590
232.162914,-7772.162391,-8734.430116,-3983.696590
232.163236,-8512.368333,-10066.800811,-4443.353888
232.163558,-7698.141797,-11917.315666,-4826.401637
232.163880,-6291.750507,-12953.603985,-3600.648841
232.164202,-4293.194464,-13175.665768,-3294.210641
232.164524,-2146.597232,-12731.542202,-2298.286494
232.164845,1776.494261,-11917.315666,-1685.410096
232.165167,5107.421000,-10732.986159,-1455.581446
232.165489,6735.874072,-8808.450710,-536.266849
232.165811,8290.306550,-6957.935855,1455.581446
232.166133,9474.636058,-6735.874072,1762.019645
232.166455,9622.677246,-5403.503377,1685.410096
232.166777,8586.388927,-5329.482782,-306.438199
232.167099,7550.100608,-7772.162391,-1455.581446
232.167421,6069.688724,-10140.821405,-919.314598
232.167743,3775.050304,-10732.986159,995.924147
232.168065,1628.453072,-11251.130318,1225.752797
232.168386,0.000000,-11695.253884,1149.143247
232.168708,-2220.617826,-11843.295072,689.485948
232.169030,-4071.132681,-9696.697840,-842.705048
232.169352,-4959.379811,-7624.121203,-2604.724693
232.169674,-4811.338623,-6439.791695,-3600.648841
232.169996,-5403.503377,-5921.647536,-3830.477490
232.170318,-6883.915261,-6217.729913,-2987.772442
232.170640,-8586.388927,-6883.915261,-3217.601092
232.170962,-9400.615463,-9622.677246,-4596.572988
232.171284,-9326.594869,-13397.727550,-5515.887586
232.171606,-8808.450710,-15174.221811,-3983.696590
232.171928,-7254.018232,-13693.809927,-2221.676944
232.172249,-4145.153275,-11843.295072,-1608.800546
232.172571,444.123565,-11399.171507,-1685.410096
232.172893,3627.009116,-8438.347739,-1455.581446
232.173215,5181.441594,-6217.729913,-1072.533697
232.173537,6365.771101,-6439.791695,459.657299
232.173859,6809.894666,-7624.121203,2451.505594
232.174181,6291.750507,-7624.121203,1455.581446
232.174503,5699.585753,-6513.812290,-1225.752797
232.174825,6291.750507,-9104.533087,-1685.410096
232.175147,6069.688724,-10881.027347,-383.047749
232.175468,4589.276840,-9992.780217,919.314598
232.175790,2812.782580,-9474.636058,1685.410096
232.176112,1702.473667,-10140.821405,842.705048
232.176434,-518.144159,-10140.821405,-689.485948
232.176756,-3775.050304,-9400.615463,-2145.067394
232.177078,-5773.606348,-7994.224174,-3217.601092
232.177400,-5773.606348,-7476.080014,-3907.087040
232.177722,-6069.688724,-7328.038826,-3907.087040
232.178044,-7254.018232,-7105.977043,-3064.381992
232.178365,-7846.182985,-8068.244768,-3064.381992
232.178687,-7772.162391,-10732.986159,-5669.106685
232.179009,-7402.059420,-12953.603985,-5515.887586
232.179331,-7105.977043,-12657.521608,-2834.553343
232.179653,-5995.668130,-11769.274478,-2451.505594
232.179975,-3182.885551,-12065.356855,-1762.019645
232.180297,1184.329507,-11621.233289,-1532.190996
232.180619,4219.173869,-10066.800811,-2298.286494
232.180940,6661.853478,-8216.285956,-1915.238745
232.181262,8956.491898,-8438.347739,689.485948
232.181584,10436.903782,-8216.285956,1838.629195
232.181906,10214.842000,-6365.771101,1915.238745
232.182228,8956.491898,-5477.523971,1378.971896
232.182550,7402.059420,-7179.997637,459.657299
232.182872,5181.441594,-9400.615463,-459.657299
232.183194,3775.050304,-10732.986159,-459.657299
232.183515,3108.864956,-11769.274478,306.438199
232.183837,2812.782580,-13101.645173,612.876398
232.184159,1332.370696,-13175.665768,1762.019645
232.184481,-962.267725,-9622.677246,1608.800546
232.184803,-2368.659014,-5847.626942,-919.314598
232.185125,-3552.988522,-5403.503377,-4213.525239
232.185447,-5847.626942,-6291.750507,-4673.182538
232.185769,-9252.574275,-6291.750507,-3907.087040
232.186090,-10732.986159,-7179.997637,-3830.477490
232.186412,-9326.594869,-10214.842000,-3600.648841
232.186734,-8068.244768,-13841.851115,-4366.744339
232.187056,-8364.327145,-14804.118840,-3140.991542
232.187378,-8586.388927,-12879.583391,-1685.410096
232.187700,-6291.750507,-10955.047942,-2068.457845
232.188022,-2294.638420,-10066.800811,-2987.772442
232.188344,962.267725,-8586.388927,-2911.162892
232.188665,2812.782580,-6587.832884,-2298.286494
232.188987,4589.276840,-6587.832884,-383.047749
232.189309,6069.688724,-7550.100608,2451.505594
232.189631,6291.750507,-7031.956449,2451.505594
232.189953,5995.668130,-7105.977043,0.000000
232.190275,6365.771101,-9178.553681,-1685.410096
232.190597,6883.915261,-11251.130318,-1225.752797
232.190919,5921.647536,-11547.212695,-383.047749
232.191241,4811.338623,-10658.965565,919.314598
232.191562,3478.967927,-10584.944971,2298.286494
232.191884,962.267725,-10436.903782,1225.752797
232.192206,-1258.350101,-9178.553681,-842.705048
232.192528,-3108.864956,-7254.018232,-2911.162892
232.192850,-3849.070898,-6957.935855,-3677.258390
232.193172,-5403.503377,-6809.894666,-2834.553343
232.193494,-7402.059420,-6143.709319,-1455.581446
232.193816,-8364.327145,-6587.832884,-2604.724693
232.194137,-8142.265362,-9548.656652,-4979.620737
232.194459,-7772.162391,-13471.748144,-5745.716235
232.194781,-8512.368333,-14582.057057,-4290.134789
232.195103,-8364.327145,-14063.912898,-1608.800546
232.195425,-5551.544565,-12509.480420,-1149.143247
232.195747,-1924.535449,-10807.006753,-1991.848295
232.196069,1480.411884,-8660.409521,-3600.648841
232.196391,4145.153275,-6735.874072,-3830.477490
232.196712,6365.771101,-6735.874072,-1838.629195
232.197034,7402.059420,-7698.141797,612.876398
232.197356,7179.997637,-7105.977043,2604.724693
232.197678,7402.059420,-6957.935855,1149.143247
232.198000,7179.997637,-8660.409521,-1378.971896
232.198322,6365.771101,-11325.150913,-1532.190996
232.198644,5033.400406,-11399.171507,-383.047749
232.198966,3775.050304,-10807.006753,383.047749
232.199287,3182.885551,-12065.356855,1838.629195
232.199609,1924.535449,-11473.192101,2681.334243
232.199931,-370.102971,-8660.409521,689.485948
232.200253,-1480.411884,-6069.688724,-1915.238745
232.200575,-2590.720797,-6143.709319,-2834.553343
232.200897,-5107.421000,-6439.791695,-3140.991542
232.201219,-7772.162391,-6291.750507,-2604.724693
232.201541,-9178.553681,-7328.038826,-2757.943793
232.201863,-8586.388927,-10732.986159,-3524.039291
232.202184,-8142.265362,-13915.871710,-4060.306139
232.202506,-8808.450710,-14063.912898,-3753.867940
232.202828,-8290.306550,-14137.933492,-2757.943793
232.203150,-6069.688724,-12657.521608,-995.924147
232.203472,-3627.009116,-10140.821405,-612.876398
232.203794,-592.164754,-7105.977043,-1915.238745
232.204116,2072.576638,-5921.647536,-3064.381992
232.204438,4589.276840,-6143.709319,-2221.676944
232.204759,5181.441594,-6513.812290,383.047749
232.205081,4959.379811,-6883.915261,2298.286494
232.205403,5255.462188,-8438.347739,919.314598
232.205725,7031.956449,-9770.718434,-1149.143247
232.206047,7402.059420,-11325.150913,-1378.971896
232.206369,6809.894666,-10807.006753,-306.438199
232.206691,5773.606348,-10140.821405,1685.410096
232.207013,4145.153275,-10288.862594,2298.286494
232.207334,1554.432478,-9844.739029,1455.581446
232.207656,-296.082377,-8660.409521,-689.485948
232.207978,-1776.494261,-7402.059420,-3064.381992
232.208300,-2960.823768,-7254.018232,-3830.477490
232.208622,-4589.276840,-7031.956449,-2528.115143
232.208944,-6365.771101,-6217.729913,-995.924147
232.209266,-6513.812290,-8586.388927,-2298.286494
232.209588,-7105.977043,-11325.150913,-4903.011187
232.209909,-7846.182985,-13101.645173,-4596.572988
232.210231,-8956.491898,-12657.521608,-2987.772442
232.210553,-7402.059420,-12583.501014,-2681.334243
232.210875,-3627.009116,-12213.398043,-1762.019645
232.211197,740.205942,-10955.047942,-2221.676944
232.211519,3552.988522,-9400.615463,-2374.896044
232.211841,5699.585753,-8216.285956,-1532.190996
232.212163,7328.038826,-7624.121203,153.219100
232.212484,7920.203579,-6439.791695,1072.533697
232.212806,7105.977043,-4589.276840,842.705048
232.213128,6661.853478,-6439.791695,-459.657299
232.213450,5625.565159,-9474.636058,-1608.800546
232.213772,4663.297435,-11473.192101,-919.314598
232.214094,3256.906145,-11103.089130,536.266849
232.214416,2516.700203,-10658.965565,919.314598
232.214738,1702.473667,-11695.253884,1991.848295
232.215060,0.000000,-10584.944971,766.095498
232.215381,-1776.494261,-7846.182985,-1532.190996
232.215703,-3256.906145,-6883.915261,-3677.258390
232.216025,-4515.256246,-7031.956449,-3370.820191
232.216347,-6069.688724,-6957.935855,-3677.258390
232.216669,-7994.224174,-7846.182985,-4136.915689
232.216991,-7846.182985,-10362.883188,-4519.963438
232.217313,-7920.203579,-13397.727550,-4136.915689
232.217635,-9400.615463,-14211.954086,-2528.115143
232.217956,-8734.430116,-13249.686362,-2145.067394
232.218278,-6217.729913,-11325.150913,-2528.115143
232.218600,-2368.659014,-10658.965565,-3677.258390
232.218922,74.020594,-10436.903782,-2604.724693
232.219244,1184.329507,-8290.306550,-612.876398
232.219566,2516.700203,-6439.791695,1149.143247
232.219888,3849.070898,-6291.750507,2145.067394
232.220210,5181.441594,-6365.771101,1225.752797
232.220531,5181.441594,-5921.647536,-1378.971896
232.220853,6143.709319,-7920.203579,-2374.896044
232.221175,6439.791695,-9548.656652,-383.047749
232.221497,4885.359217,-9178.553681,1838.629195
232.221819,2886.803174,-8216.285956,2374.896044
232.222141,1554.432478,-9252.574275,842.705048
232.222463,0.000000,-10510.924376,-1225.752797
232.222785,-2220.617826,-10955.047942,-2451.505594
232.223106,-3552.988522,-9548.656652,-2757.943793
232.223428,-3849.070898,-8216.285956,-1838.629195
232.223750,-3701.029710,-6439.791695,-1685.410096
232.224072,-3923.091493,-6439.791695,-2987.772442
232.224394,-4737.318029,-9178.553681,-5362.668486
232.224716,-5699.585753,-11029.068536,-4903.011187
232.225038,-7031.956449,-11547.212695,-2987.772442
232.225360,-6957.935855,-11843.295072,-2451.505594
232.225682,-3627.009116,-12657.521608,-2451.505594
232.226003,1184.329507,-12213.398043,-2681.334243
232.226325,3923.091493,-12509.480420,-3370.820191
232.226647,4811.338623,-11769.274478,-1072.533697
232.226969,6439.791695,-10288.862594,2987.772442
232.227291,7920.203579,-7105.977043,1838.629195
232.227613,8808.450710,-5329.482782,-153.219100
232.227935,8068.244768,-4515.256246,766.095498
232.228257,6809.894666,-4737.318029,0.000000
232.228578,4737.318029,-6661.853478,-2451.505594
232.228900,3849.070898,-9622.677246,-1302.362347
232.229222,2960.823768,-11325.150913,1072.533697
232.229544,148.041188,-12065.356855,1072.533697
232.229866,-2590.720797,-13101.645173,383.047749
232.230188,-3923.091493,-11695.253884,0.000000
232.230510,-3923.091493,-8882.471304,-2834.553343
232.230832,-4737.318029,-7476.080014,-5132.839837
232.231153,-5773.606348,-7624.121203,-3370.820191
232.231475,-6661.853478,-6587.832884,-1838.629195
232.231797,-5847.626942,-7105.977043,-3524.039291
232.232119,-4885.359217,-10288.862594,-4903.011187
232.232441,-4811.338623,-12287.418637,-4213.525239
232.232763,-7105.977043,-12287.418637,-2451.505594
232.233085,-8142.265362,-11843.295072,-1072.533697
232.233407,-4811.338623,-11621.233289,-1838.629195
232.233728,-370.102971,-11177.109724,-4519.963438
232.234050,1480.411884,-11473.192101,-4060.306139
232.234372,2294.638420,-10658.965565,76.609550
232.234694,3552.988522,-8660.409521,3370.820191
232.235016,4885.359217,-6513.812290,2911.162892
232.235338,5477.523971,-4959.379811,1455.581446
232.235660,5551.544565,-5477.523971,-1149.143247
232.235982,4145.153275,-6365.771101,-3524.039291
232.236303,3256.906145,-8956.491898,-1915.238745
232.236625,2294.638420,-9474.636058,612.876398
232.236947,888.247130,-9844.739029,1455.581446
232.237269,-592.164754,-10881.027347,689.485948
232.237591,-2516.700203,-10362.883188,-842.705048
232.237913,-5181.441594,-9400.615463,-3217.601092
232.238235,-6365.771101,-9696.697840,-3370.820191
232.238557,-6735.874072,-8216.285956,-1762.019645
232.238879,-6809.894666,-6439.791695,-2604.724693
232.239200,-5773.606348,-5699.585753,-3217.601092
232.239522,-4885.359217,-7550.100608,-3830.477490
232.239844,-5477.523971,-10955.047942,-5209.449386
232.240166,-5181.441594,-11917.315666,-4519.963438
232.240488,-4737.318029,-11325.150913,-2145.067394
232.240810,-3701.029710,-12287.418637,-1762.019645
232.241132,814.226536,-13471.748144,-1762.019645
232.241454,4663.297435,-12583.501014,-2911.162892
232.241775,6069.688724,-11103.089130,-3140.991542
232.242097,7698.141797,-10658.965565,536.266849
232.242419,9696.697840,-9770.718434,4213.525239
232.242741,10214.842000,-7179.997637,1838.629195
232.243063,9696.697840,-5329.482782,1455.581446
232.243385,8882.471304,-4663.297435,2221.676944
232.243707,6143.709319,-3923.091493,-1685.410096
232.244029,4663.297435,-6809.894666,-2834.553343
232.244350,3108.864956,-9178.553681,-1072.533697
232.244672,666.185348,-11029.068536,536.266849
232.244994,-2812.782580,-12879.583391,919.314598
232.245316,-5255.462188,-13323.706956,919.314598
232.245638,-5847.626942,-11473.192101,-1838.629195
232.245960,-6365.771101,-8808.450710,-5286.058936
232.246282,-6809.894666,-7402.059420,-5209.449386
232.246604,-6809.894666,-6587.832884,-3064.381992
232.246925,-6513.812290,-6217.729913,-3140.991542
232.247247,-5921.647536,-8068.244768,-4366.744339
232.247569,-5181.441594,-10732.986159,-3600.648841
232.247891,-6143.709319,-12435.459826,-2987.772442
232.248213,-6661.853478,-12583.501014,-2451.505594
232.248535,-4589.276840,-12583.501014,-1532.190996
232.248857,0.000000,-11991.336260,-2451.505594
232.249179,3849.070898,-11621.233289,-2145.067394
232.249501,5181.441594,-11029.068536,0.000000
232.249822,5921.647536,-9770.718434,2757.943793
232.250144,6439.791695,-7994.224174,3830.477490
232.250466,6957.935855,-6513.812290,2911.162892
232.250788,6957.935855,-6143.709319,229.828649
232.251110,5773.606348,-6439.791695,-2221.676944
232.251432,4145.153275,-7179.997637,-2374.896044
232.251754,2886.803174,-8068.244768,-383.047749
232.252076,1776.494261,-8290.306550,612.876398
232.252397,-888.247130,-9474.636058,0.000000
232.252719,-2368.659014,-9844.739029,-1072.533697
232.253041,-5625.565159,-9030.512492,-2528.115143
232.253363,-7846.182985,-9992.780217,-3524.039291
232.253685,-8142.265362,-9918.759623,-2757.943793
232.254007,-7624.121203,-7772.162391,-3370.820191
232.254329,-7031.956449,-7254.018232,-3524.039291
232.254651,-6513.812290,-5847.626942,-2451.505594
232.254972,-6513.812290,-7402.059420,-3140.991542
232.255294,-6957.935855,-10510.924376,-6435.202183
232.255616,-6143.709319,-12361.439231,-5362.668486
232.255938,-4737.318029,-12139.377449,-1762.019645
232.256260,-3034.844362,-12509.480420,-995.924147
232.256582,370.102971,-13175.665768,-612.876398
232.256904,4515.256246,-12213.398043,-1685.410096
232.257226,6809.894666,-10066.800811,-2604.724693
232.257547,8734.430116,-9992.780217,153.219100
232.257869,9918.759623,-9918.759623,3294.210641
232.258191,9622.677246,-7550.100608,2987.772442
232.258513,9992.780217,-4367.215058,2145.067394
232.258835,10214.842000,-4737.318029,-766.095498
232.259157,8438.347739,-7476.080014,-3370.820191
232.259479,5625.565159,-9474.636058,-1685.410096
232.259801,1258.350101,-9326.594869,919.314598
232.260122,-1998.556043,-10732.986159,919.314598
232.260444,-3627.009116,-12879.583391,76.609550
232.260766,-5329.482782,-12361.439231,-1915.238745
232.261088,-7179.997637,-10066.800811,-4213.525239
232.261410,-8364.327145,-8586.388927,-4060.306139
232.261732,-7476.080014,-8068.244768,-2834.553343
232.262054,-7328.038826,-6217.729913,-2221.676944
232.262376,-7105.977043,-5255.462188,-3217.601092
232.262698,-5699.585753,-7105.977043,-4136.915689
232.263019,-5403.503377,-11399.171507,-5362.668486
232.263341,-6069.688724,-13397.727550,-4596.572988
232.263663,-5995.668130,-12509.480420,-919.314598
232.263985,-3330.926739,-11103.089130,383.047749
232.264307,740.205942,-11473.192101,-2298.286494
232.264629,4737.318029,-11769.274478,-3600.648841
232.264951,6143.709319,-10510.924376,-1149.143247
232.265273,6661.853478,-8882.471304,1915.238745
232.265594,7624.121203,-8808.450710,4136.915689
232.265916,7994.224174,-7698.141797,4136.915689
232.266238,7328.038826,-5033.400406,1762.019645
232.266560,6439.791695,-5033.400406,-2221.676944
232.266882,5773.606348,-8068.244768,-3217.601092
232.267204,4737.318029,-9400.615463,-1838.629195
232.267526,1702.473667,-8882.471304,459.657299
232.267848,-1258.350101,-9326.594869,2298.286494
232.268169,-2442.679609,-10658.965565,1608.800546
232.268491,-3627.009116,-10955.047942,-2604.724693
232.268813,-5107.421000,-10510.924376,-4903.011187
232.269135,-6587.832884,-9992.780217,-2911.162892
232.269457,-6513.812290,-7698.141797,-1532.190996
232.269779,-6439.791695,-5847.626942,-1608.800546
232.270101,-6587.832884,-5329.482782,-1608.800546
232.270423,-7254.018232,-6439.791695,-3753.867940
232.270744,-7031.956449,-9918.759623,-6741.640382
232.271066,-6957.935855,-13249.686362,-6665.030833
232.271388,-6069.688724,-13989.892304,-1455.581446
232.271710,-4145.153275,-12213.398043,1915.238745
232.272032,-888.247130,-11325.150913,153.219100
232.272354,2812.782580,-11399.171507,-2528.115143
232.272676,5255.462188,-9918.759623,-3600.648841
232.272998,6439.791695,-9030.512492,-2451.505594
232.273320,8142.265362,-9474.636058,766.095498
232.273641,8142.265362,-9030.512492,3600.648841
232.273963,8512.368333,-6587.832884,3600.648841
232.274285,8512.368333,-3478.967927,995.924147
232.274607,7846.182985,-5773.606348,-2528.115143
232.274929,6365.771101,-9992.780217,-3600.648841
232.275251,3330.926739,-10955.047942,-1762.019645
232.275573,-888.247130,-10140.821405,1532.190996
232.275895,-3108.864956,-11843.295072,2451.505594
232.276216,-4441.235652,-13027.624579,689.485948
232.276538,-6143.709319,-10584.944971,-2987.772442
232.276860,-7402.059420,-8290.306550,-5975.544884
232.277182,-7846.182985,-8290.306550,-4290.134789
232.277504,-7920.203579,-7328.038826,-919.314598
232.277826,-8438.347739,-4885.359217,-919.314598
232.278148,-7476.080014,-5033.400406,-3524.039291
232.278470,-4885.359217,-9400.615463,-6665.030833
232.278791,-4959.379811,-13545.768739,-7048.078582
232.279113,-7105.977043,-14211.954086,-1762.019645
232.279435,-7254.018232,-11917.315666,2221.676944
232.279757,-3330.926739,-10955.047942,0.000000
232.280079,1554.432478,-11843.295072,-4366.744339
232.280401,4441.235652,-11029.068536,-4596.572988
232.280723,5181.441594,-8882.471304,-1302.362347
232.281045,7031.956449,-7994.224174,1762.019645
232.281367,9178.553681,-9030.512492,3830.477490
232.281688,9030.512492,-7624.121203,3370.820191
232.282010,6809.894666,-4293.194464,1149.143247
232.282332,5625.565159,-4811.338623,-1225.752797
232.282654,5403.503377,-8216.285956,-2757.943793
232.282976,4811.338623,-9622.677246,-2451.505594
232.283298,3182.885551,-9770.718434,-306.438199
232.283620,814.226536,-11177.109724,2604.724693
232.283942,-1036.288319,-12953.603985,2911.162892
232.284263,-3997.112087,-11103.089130,153.219100
232.284585,-5625.565159,-7846.182985,-4213.525239
232.284907,-6513.812290,-7105.977043,-5745.716235
232.285229,-7328.038826,-6957.935855,-3907.087040
232.285551,-8734.430116,-5847.626942,-1378.971896
232.285873,-8586.388927,-6069.688724,-2374.896044
232.286195,-6291.750507,-9400.615463,-4826.401637
232.286517,-4145.153275,-13175.665768,-6894.859482
232.286839,-5033.400406,-14508.036463,-4596.572988
232.287160,-5699.585753,-13915.871710,306.438199
232.287482,-2960.823768,-11251.130318,842.705048
232.287804,1554.432478,-11325.150913,-2068.457845
232.288126,5403.503377,-10288.862594,-4136.915689
232.288448,7105.977043,-8808.450710,-3294.210641
232.288770,8734.430116,-7550.100608,-689.485948
232.289092,10362.883188,-8438.347739,3217.601092
232.289414,10362.883188,-7994.224174,4903.011187
232.289735,8808.450710,-5477.523971,1685.410096
232.290057,6661.853478,-6143.709319,-1532.190996
232.290379,5329.482782,-9474.636058,-2757.943793
232.290701,3034.844362,-10807.006753,-2451.505594
232.291023,1332.370696,-10732.986159,-1149.143247
232.291345,-1036.288319,-11103.089130,1608.800546
232.291667,-3182.885551,-12287.418637,2757.943793
232.291989,-4663.297435,-11103.089130,612.876398
232.292311,-5921.647536,-8068.244768,-3677.258390
232.292632,-6661.853478,-6661.853478,-6435.202183
232.292954,-7179.997637,-6809.894666,-4290.134789
232.293276,-8956.491898,-5847.626942,-2068.457845
232.293598,-9622.677246,-5551.544565,-2145.067394
232.293920,-7994.224174,-7994.224174,-4366.744339
232.294242,-6069.688724,-12139.377449,-6128.763984
232.294564,-6143.709319,-14211.954086,-4749.792088
232.294886,-6069.688724,-14063.912898,-1225.752797
232.295207,-3552.988522,-11991.336260,536.266849
232.295529,148.041188,-11399.171507,-766.095498
232.295851,2590.720797,-10214.842000,-1991.848295
232.296173,4219.173869,-7846.182985,-2221.676944
232.296495,4811.338623,-6809.894666,-1302.362347
232.296817,5995.668130,-7105.977043,1915.238745
232.297139,6143.709319,-6957.935855,3753.867940
232.297461,6365.771101,-6143.709319,1302.362347
232.297783,8068.244768,-8512.368333,-2451.505594
232.298104,7994.224174,-11103.089130,-2451.505594
232.298426,6291.750507,-10881.027347,-689.485948
232.298748,2812.782580,-9178.553681,1302.362347
232.299070,0.000000,-9326.594869,2068.457845
232.299392,-1924.535449,-10436.903782,0.000000
232.299714,-4071.132681,-10214.842000,-2987.772442
232.300036,-5847.626942,-9474.636058,-4673.182538
232.300358,-6439.791695,-8586.388927,-3753.867940
232.300679,-6587.832884,-7105.977043,-2298.286494
232.301001,-6883.915261,-5329.482782,-1608.800546
232.301323,-6513.812290,-6365.771101,-3447.429741
232.301645,-5995.668130,-9696.697840,-6665.030833
232.301967,-6365.771101,-12657.521608,-6435.202183
232.302289,-6439.791695,-12879.583391,-2834.553343
232.302611,-5033.400406,-11991.336260,0.000000
232.302933,-814.226536,-11843.295072,-919.314598
232.303254,3923.091493,-11843.295072,-2834.553343
232.303576,6143.709319,-11325.150913,-2911.162892
232.303898,7402.059420,-9400.615463,-1378.971896
232.304220,9548.656652,-8216.285956,1149.143247
232.304542,10658.965565,-7698.141797,2298.286494
232.304864,9918.759623,-5773.606348,2604.724693
232.305186,8512.368333,-4071.132681,1532.190996
232.305508,6587.832884,-6661.853478,-1838.629195
232.305830,4959.379811,-10807.006753,-3217.601092
232.306151,2886.803174,-11843.295072,-766.095498
232.306473,0.000000,-10436.903782,689.485948
232.306795,-1850.514855,-11325.150913,1685.410096
232.307117,-3330.926739,-12139.377449,1302.362347
232.307439,-4811.338623,-9474.636058,-1378.971896
232.307761,-6291.750507,-7550.100608,-4673.182538
232.308083,-7772.162391,-7994.224174,-4443.353888
232.308405,-8290.306550,-8290.306550,-2681.334243
232.308726,-9030.512492,-6735.874072,-2068.457845
232.309048,-7698.141797,-6883.915261,-3830.477490
232.309370,-5033.400406,-10066.800811,-5745.716235
232.309692,-4737.318029,-13249.686362,-4979.620737
232.310014,-6291.750507,-12805.562797,-1225.752797
232.310336,-5773.606348,-10510.924376,229.828649
232.310658,-2368.659014,-10807.006753,-1302.362347
232.310980,1110.308913,-11695.253884,-3447.429741
232.311302,2960.823768,-10955.047942,-2757.943793
232.311623,3775.050304,-8216.285956,0.000000
232.311945,5255.462188,-7624.121203,2451.505594
232.312267,6291.750507,-6513.812290,4290.134789
232.312589,7031.956449,-5033.400406,1149.143247
232.312911,6661.853478,-5921.647536,-3447.429741
232.313233,6291.750507,-9548.656652,-3447.429741
232.313555,4293.194464,-10362.883188,-1608.800546
232.313877,592.164754,-9770.718434,1072.533697
232.314198,-2072.576638,-10066.800811,2911.162892
232.314520,-2886.803174,-11399.171507,536.266849
232.314842,-4293.194464,-12213.398043,-3370.820191
232.315164,-5995.668130,-10807.006753,-3447.429741
232.315486,-6587.832884,-7698.141797,-1608.800546
232.315808,-5107.421000,-6587.832884,-2681.334243
232.316130,-4589.276840,-6513.812290,-2681.334243
232.316452,-5699.585753,-4737.318029,-2145.067394
232.316774,-6735.874072,-6809.894666,-5209.449386
232.317095,-6143.709319,-12583.501014,-7354.516781
232.317417,-4885.359217,-14804.118840,-4673.182538
232.317739,-4441.235652,-13841.851115,-536.266849
232.318061,-2442.679609,-12435.459826,383.047749
232.318383,1776.494261,-12583.501014,-459.657299
232.318705,5329.482782,-10288.862594,-3064.381992
232.319027,7105.977043,-8438.347739,-3370.820191
232.319349,8068.244768,-8142.265362,-536.266849
232.319670,8734.430116,-8956.491898,2528.115143
232.319992,7698.141797,-7476.080014,3524.039291
232.320314,6883.915261,-4071.132681,3294.210641
232.320636,6735.874072,-3701.029710,-229.828649
232.320958,6365.771101,-7550.100608,-4366.744339
232.321280,4441.235652,-10955.047942,-2911.162892
232.321602,370.102971,-10214.842000,1072.533697
232.321924,-2294.638420,-10362.883188,2834.553343
232.322246,-3182.885551,-13101.645173,2221.676944
232.322567,-4737.318029,-12509.480420,-995.924147
232.322889,-6217.729913,-8956.491898,-4749.792088
232.323211,-6735.874072,-7772.162391,-5975.544884
232.323533,-6291.750507,-7772.162391,-3447.429741
232.323855,-5995.668130,-6957.935855,-1455.581446
232.324177,-6069.688724,-5477.523971,-2221.676944
232.324499,-4515.256246,-7550.100608,-4903.011187
232.324821,-3108.864956,-12139.377449,-6281.983084
232.325142,-4219.173869,-14730.098246,-4290.134789
232.325464,-5699.585753,-13397.727550,229.828649
232.325786,-3552.988522,-10436.903782,1532.190996
232.326108,444.123565,-11325.150913,-1455.581446
232.326430,3627.009116,-11695.253884,-2911.162892
232.326752,4589.276840,-9474.636058,-1608.800546
232.327074,4737.318029,-7550.100608,306.438199
232.327396,5995.668130,-8216.285956,3140.991542
232.327718,6661.853478,-7254.018232,4749.792088
232.328039,5847.626942,-4811.338623,459.657299
232.328361,4885.359217,-5847.626942,-3677.258390
232.328683,5107.421000,-9178.553681,-2911.162892
232.329005,3108.864956,-8956.491898,-919.314598
232.329327,-296.082377,-8068.244768,459.657299
232.329649,-2368.659014,-10066.800811,1838.629195
232.329971,-2812.782580,-12509.480420,-229.828649
232.330293,-4737.318029,-11843.295072,-4060.306139
232.330614,-7105.977043,-10288.862594,-4213.525239
232.330936,-6439.791695,-8142.265362,-2834.553343
232.331258,-5255.462188,-6587.832884,-2681.334243
232.331580,-4737.318029,-5625.565159,-2528.115143
232.331902,-5329.482782,-5625.565159,-2298.286494
232.332224,-5477.523971,-8660.409521,-4213.525239
232.332546,-4737.318029,-11399.171507,-5209.449386
232.332868,-4663.297435,-13989.892304,-4443.353888
232.333190,-4145.153275,-13915.871710,0.000000
232.333511,-2072.576638,-12287.418637,995.924147
232.333833,1258.350101,-11695.253884,-689.485948
232.334155,5033.400406,-9918.759623,-2374.896044
232.334477,7550.100608,-7772.162391,-2451.505594
232.334799,9178.553681,-7550.100608,-1302.362347
232.335121,9474.636058,-9178.553681,1149.143247
232.335443,8586.388927,-8216.285956,4519.963438
232.335765,7550.100608,-5403.503377,3140.991542
232.336086,6587.832884,-5181.441594,-2451.505594
232.336408,5033.400406,-9400.615463,-4136.915689
232.336730,1998.556043,-10881.027347,-2451.505594
232.337052,-1702.473667,-10510.924376,0.000000
232.337374,-3330.926739,-11547.212695,1608.800546
232.337696,-3849.070898,-12731.542202,1685.410096
232.338018,-4737.318029,-11251.130318,-1608.800546
232.338340,-6735.874072,-8068.244768,-4136.915689
232.338662,-7772.162391,-7105.977043,-4213.525239
232.338983,-7105.977043,-6957.935855,-2987.772442
232.339305,-6735.874072,-6069.688724,-2757.943793
232.339627,-5847.626942,-6217.729913,-2451.505594
232.339949,-5033.400406,-8216.285956,-3447.429741
232.340271,-4071.132681,-11695.253884,-4596.572988
232.340593,-4145.153275,-13915.871710,-3524.039291
232.340915,-3182.885551,-13175.665768,-842.705048
232.341237,-1184.329507,-11695.253884,0.000000
232.341558,1628.453072,-11769.274478,-995.924147
232.341880,3108.864956,-11621.233289,-1302.362347
232.342202,4885.359217,-9844.739029,-459.657299
232.342524,5995.668130,-7402.059420,-689.485948
232.342846,7476.080014,-6957.935855,1225.752797
232.343168,6883.915261,-6143.709319,3370.820191
232.343490,5921.647536,-5181.441594,1991.848295
232.343812,4811.338623,-6143.709319,-1378.971896
232.344134,4885.359217,-8882.471304,-2911.162892
232.344455,3701.029710,-10362.883188,-1838.629195
232.344777,74.020594,-10362.883188,76.609550
232.345099,-2442.679609,-11029.068536,1532.190996
232.345421,-3478.967927,-11473.192101,612.876398
232.345743,-4145.153275,-10807.006753,-2604.724693
232.346065,-4737.318029,-9474.636058,-4749.792088
232.346387,-5551.544565,-8660.409521,-4366.744339
232.346709,-6069.688724,-7254.018232,-2757.943793
232.347030,-6587.832884,-6957.935855,-2451.505594
232.347352,-6883.915261,-7179.997637,-3064.381992
232.347674,-5847.626942,-8438.347739,-4903.011187
232.347996,-4589.276840,-11177.109724,-6894.859482
232.348318,-3923.091493,-13471.748144,-4290.134789
232.348640,-3182.885551,-12139.377449,0.000000
232.348962,-962.267725,-11473.192101,919.314598
232.349284,2516.700203,-11917.315666,-766.095498
232.349606,5033.400406,-11621.233289,-1915.238745
232.349927,6661.853478,-9918.759623,-2451.505594
232.350249,7698.141797,-8882.471304,-1302.362347
232.350571,8882.471304,-8290.306550,1915.238745
232.350893,9474.636058,-5699.585753,3677.258390
232.351215,8438.347739,-3478.967927,919.314598
232.351537,7105.977043,-6291.750507,-2451.505594
232.351859,4737.318029,-9844.739029,-2068.457845
232.352181,1406.391290,-10881.027347,-1225.752797
232.352502,-2516.700203,-10584.944971,-536.266849
232.352824,-4441.235652,-12435.459826,536.266849
232.353146,-5107.421000,-12805.562797,76.609550
232.353468,-6217.729913,-10584.944971,-2298.286494
232.353790,-7105.977043,-8734.430116,-4060.306139
232.354112,-6365.771101,-7772.162391,-2987.772442
232.354434,-6217.729913,-6513.812290,-2528.115143
232.354756,-7550.100608,-5329.482782,-2834.553343
232.355078,-7476.080014,-5847.626942,-2987.772442
232.355399,-7179.997637,-7994.224174,-4596.572988
232.355721,-6809.894666,-11399.171507,-5745.716235
232.356043,-6587.832884,-13619.789333,-3677.258390
232.356365,-4737.318029,-13323.706956,-995.924147
232.356687,-1332.370696,-12953.603985,-766.095498
232.357009,1406.391290,-13027.624579,-766.095498
232.357331,2812.782580,-11473.192101,995.924147
232.357653,4367.215058,-7994.224174,229.828649
232.357974,5847.626942,-5773.606348,-995.924147
232.358296,7031.956449,-5995.668130,766.095498
232.358618,7105.977043,-5551.544565,2145.067394
232.358940,6587.832884,-5773.606348,689.485948
232.359262,6735.874072,-7920.203579,-536.266849
232.359584,7179.997637,-10066.800811,-536.266849
232.359906,5107.421000,-9844.739029,-229.828649
232.360228,1258.350101,-9622.677246,612.876398
232.360550,-1110.308913,-10881.027347,1302.362347
232.360871,-3034.844362,-11547.212695,-1225.752797
232.361193,-4959.379811,-11251.130318,-3677.258390
232.361515,-6217.729913,-9548.656652,-3830.477490
232.361837,-5995.668130,-7920.203579,-2911.162892
232.362159,-5625.565159,-7254.018232,-2834.553343
232.362481,-5921.647536,-7105.977043,-2604.724693
232.362803,-6883.915261,-7179.997637,-2528.115143
232.363125,-6957.935855,-9178.553681,-4903.011187
232.363446,-6143.709319,-11621.233289,-6665.030833
232.363768,-5107.421000,-13471.748144,-4519.963438
232.364090,-3552.988522,-13619.789333,-536.266849
232.364412,-1332.370696,-12213.398043,1302.362347
232.364734,1924.535449,-11325.150913,229.828649
232.365056,4959.379811,-10066.800811,-1225.752797
232.365378,7550.100608,-8660.409521,-2298.286494
232.365700,8660.409521,-8512.368333,-919.314598
232.366022,9104.533087,-8068.244768,1991.848295
232.366343,8882.471304,-5329.482782,3600.648841
232.366665,9252.574275,-4293.194464,1072.533697
232.366987,8216.285956,-6883.915261,-2298.286494
232.367309,6513.812290,-9918.759623,-1915.238745
232.367631,2442.679609,-11325.150913,0.000000
232.367953,-1110.308913,-11621.233289,919.314598
232.368275,-2664.741391,-12435.459826,919.314598
232.368597,-3627.009116,-12065.356855,-612.876398
232.368918,-4959.379811,-10658.965565,-3677.258390
232.369240,-5847.626942,-8808.450710,-3907.087040
232.369562,-5699.585753,-7624.121203,-3064.381992
232.369884,-5477.523971,-5995.668130,-2834.553343
232.370206,-5995.668130,-5477.523971,-3140.991542
232.370528,-6809.894666,-5995.668130,-3677.258390
232.370850,-7105.977043,-8512.368333,-5669.106685
232.371172,-7698.141797,-12361.439231,-6128.763984
232.371494,-8068.244768,-13767.830521,-3524.039291
232.371815,-7550.100608,-12657.521608,-383.047749
232.372137,-4885.359217,-11547.212695,-919.314598
232.372459,-1258.350101,-11177.109724,-1838.629195
232.372781,1702.473667,-9992.780217,-2374.896044
232.373103,4145.153275,-8142.265362,-1915.238745
232.373425,5995.668130,-7402.059420,-995.924147
232.373747,7698.141797,-8734.430116,1225.752797
232.374069,7105.977043,-7698.141797,3524.039291
232.374390,6661.853478,-4811.338623,2911.162892
232.374712,7105.977043,-5551.544565,-919.314598
232.375034,7920.203579,-9474.636058,-2528.115143
232.375356,7550.100608,-10362.883188,-1302.362347
232.375678,4737.318029,-9326.594869,229.828649
232.376000,2590.720797,-10807.006753,2068.457845
232.376322,518.144159,-12805.562797,2451.505594
232.376644,-1924.535449,-11177.109724,-689.485948
232.376966,-3923.091493,-8882.471304,-5056.230287
232.377287,-5329.482782,-9030.512492,-5515.887586
232.377609,-6661.853478,-8512.368333,-3294.210641
232.377931,-8364.327145,-6069.688724,-1302.362347
232.378253,-8438.347739,-5625.565159,-2987.772442
232.378575,-6661.853478,-8438.347739,-5286.058936
232.378897,-6291.750507,-12953.603985,-6894.859482
232.379218,-7402.059420,-13619.789333,-3907.087040
232.379540,-7698.141797,-11843.295072,153.219100
232.379862,-4441.235652,-11325.150913,-229.828649
232.380184,74.020594,-11843.295072,-2145.067394
232.380506,3552.988522,-10881.027347,-2604.724693
232.380827,5403.503377,-8808.450710,-2451.505594
232.381149,7994.224174,-8660.409521,-459.657299
232.381471,10510.924376,-8660.409521,2451.505594
232.381793,10881.027347,-7179.997637,2834.553343
232.382115,8956.491898,-4737.318029,2068.457845
232.382437,7624.121203,-5477.523971,1302.362347
232.382758,5847.626942,-9030.512492,-919.314598
232.383080,3552.988522,-10658.965565,-1991.848295
232.383402,2146.597232,-10807.006753,-153.219100
232.383724,222.061783,-11991.336260,919.314598
232.384046,-1480.411884,-13545.768739,1685.410096
232.384368,-3404.947333,-11843.295072,1455.581446
232.384689,-4737.318029,-7476.080014,-1532.190996
232.385011,-4737.318029,-6661.853478,-5056.230287
232.385333,-5995.668130,-7772.162391,-4596.572988
232.385655,-8808.450710,-7031.956449,-2451.505594
232.385977,-10510.924376,-5847.626942,-2451.505594
232.386299,-9326.594869,-7179.997637,-4443.353888
232.386620,-7179.997637,-10955.047942,-6358.592633
232.386942,-7624.121203,-13323.706956,-4596.572988
232.387264,-7698.141797,-13471.748144,-2911.162892
232.387586,-5625.565159,-13027.624579,-1378.971896
232.387908,-2368.659014,-11843.295072,-766.095498
232.388229,74.020594,-9918.759623,-689.485948
232.388551,592.164754,-6661.853478,-1532.190996
232.388873,2812.782580,-5329.482782,-1685.410096
232.389195,4663.297435,-5699.585753,-383.047749
232.389517,5625.565159,-6069.688724,1455.581446
232.389839,6069.688724,-6439.791695,995.924147
232.390160,7698.141797,-8808.450710,-919.314598
232.390482,8512.368333,-10658.965565,-1455.581446
