#time,accel_x,accel_y,accel_z
572.504479,0.000000,-8956.491898,-1455.581446
572.504802,-222.061783,-8956.491898,-995.924147
572.505124,-592.164754,-9252.574275,-995.924147
572.505447,-518.144159,-9622.677246,-1225.752797
572.505769,-666.185348,-9992.780217,-1149.143247
572.506092,-518.144159,-9770.718434,-1149.143247
572.506414,-370.102971,-9474.636058,-1685.410096
572.506737,-222.061783,-8956.491898,-1608.800546
572.507059,0.000000,-8808.450710,-1378.971896
572.507382,0.000000,-8734.430116,-1302.362347
572.507704,-296.082377,-9252.574275,-1302.362347
572.508027,-518.144159,-9400.615463,-1378.971896
572.508349,-518.144159,-9992.780217,-1225.752797
572.508672,-814.226536,-9696.697840,-1225.752797
572.508994,-666.185348,-9474.636058,-1378.971896
572.509317,-296.082377,-9030.512492,-1378.971896
572.509639,0.000000,-8808.450710,-1455.581446
572.509962,-296.082377,-8512.368333,-1378.971896
572.510284,-518.144159,-8512.368333,-2068.457845
572.510607,-592.164754,-9400.615463,-1532.190996
572.510929,-740.205942,-9770.718434,-1838.629195
572.511252,-740.205942,-9548.656652,-1378.971896
572.511574,-666.185348,-9400.615463,-1455.581446
572.511897,-592.164754,-8882.471304,-1608.800546
572.512219,-148.041188,-8956.491898,-1455.581446
572.512542,0.000000,-8882.471304,-1685.410096
572.512864,0.000000,-9178.553681,-1991.848295
572.513187,-296.082377,-9326.594869,-1762.019645
572.513509,-740.205942,-9548.656652,-2068.457845
572.513832,-666.185348,-9770.718434,-1608.800546
572.514154,-592.164754,-9622.677246,-1915.238745
572.514477,-296.082377,-9252.574275,-1915.238745
572.514799,0.000000,-8956.491898,-1915.238745
572.515122,222.061783,-9104.533087,-1838.629195
572.515444,-148.041188,-8808.450710,-1225.752797
572.515767,-444.123565,-9474.636058,-1991.848295
572.516089,-740.205942,-9474.636058,-1991.848295
572.516412,-740.205942,-9844.739029,-2145.067394
572.516734,-666.185348,-9696.697840,-1991.848295
572.517057,-370.102971,-9474.636058,-1915.238745
572.517379,-592.164754,-9400.615463,-1915.238745
572.517702,-148.041188,-9474.636058,-1915.238745
572.518024,-296.082377,-9178.553681,-1991.848295
572.518347,-444.123565,-9326.594869,-2145.067394
572.518669,-592.164754,-9770.718434,-1915.238745
572.518992,-740.205942,-9622.677246,-1608.800546
572.519314,-814.226536,-9992.780217,-1838.629195
572.519637,-666.185348,-9770.718434,-1762.019645
572.519959,-296.082377,-9474.636058,-1762.019645
572.520282,-370.102971,-9030.512492,-1915.238745
572.520604,-370.102971,-9178.553681,-1225.752797
572.520927,-222.061783,-9326.594869,-1685.410096
572.521249,-370.102971,-9474.636058,-1685.410096
572.521572,-518.144159,-9548.656652,-1915.238745
572.521894,-592.164754,-9770.718434,-1378.971896
572.522217,-592.164754,-9474.636058,-842.705048
572.522539,0.000000,-9474.636058,-1532.190996
572.522862,-74.020594,-9252.574275,-1302.362347
572.523184,0.000000,-8956.491898,-1302.362347
572.523507,518.144159,-9030.512492,-1532.190996
572.523829,1554.432478,-9326.594869,-1685.410096
572.524152,2516.700203,-9992.780217,-1225.752797
572.524474,1850.514855,-9326.594869,0.000000
572.524797,962.267725,-8586.388927,-383.047749
572.525119,148.041188,-8586.388927,-1532.190996
572.525442,-1110.308913,-8734.430116,-2068.457845
572.525764,-2220.617826,-9030.512492,-1608.800546
572.526087,-3404.947333,-9326.594869,-1762.019645
572.526409,-3404.947333,-9030.512492,-2451.505594
572.526732,-1998.556043,-9474.636058,-2528.115143
572.527054,814.226536,-10881.027347,-1838.629195
572.527377,2738.761985,-10732.986159,-536.266849
572.527699,2146.597232,-9696.697840,306.438199
572.528022,1776.494261,-8734.430116,0.000000
572.528344,1998.556043,-9252.574275,-995.924147
572.528667,2368.659014,-9474.636058,-2221.676944
572.528989,1924.535449,-9326.594869,-1532.190996
572.529312,814.226536,-8068.244768,-612.876398
572.529634,296.082377,-7105.977043,-229.828649
572.529957,1406.391290,-8364.327145,-1991.848295
572.530279,1850.514855,-10140.821405,-2374.896044
572.530602,0.000000,-9770.718434,-612.876398
572.530924,-1332.370696,-8660.409521,-612.876398
572.531247,-740.205942,-9178.553681,-2911.162892
572.531569,740.205942,-9548.656652,-4213.525239
572.531892,1258.350101,-9622.677246,-2374.896044
572.532214,1628.453072,-10955.047942,-995.924147
572.532537,2294.638420,-10288.862594,-1532.190996
572.532859,3701.029710,-9696.697840,-2145.067394
572.533182,4145.153275,-10510.924376,-1225.752797
572.533504,4367.215058,-11325.150913,-612.876398
572.533826,3404.947333,-10140.821405,-1149.143247
572.534149,2146.597232,-7994.224174,-1149.143247
572.534471,1850.514855,-7550.100608,-689.485948
572.534794,2294.638420,-7846.182985,-1149.143247
572.535116,2220.617826,-7698.141797,-2068.457845
572.535439,1258.350101,-7550.100608,-1608.800546
572.535761,1406.391290,-9104.533087,-689.485948
572.536084,2294.638420,-10584.944971,-1072.533697
572.536406,2516.700203,-10140.821405,-1532.190996
572.536729,2072.576638,-9400.615463,-2374.896044
572.537051,2072.576638,-9992.780217,-1915.238745
572.537374,2738.761985,-9622.677246,-1685.410096
572.537696,3256.906145,-9474.636058,-2451.505594
572.538019,2960.823768,-9252.574275,-2451.505594
572.538341,2442.679609,-10881.027347,-1608.800546
572.538664,3404.947333,-10436.903782,-919.314598
572.538986,3182.885551,-9770.718434,-1532.190996
572.539309,2590.720797,-9474.636058,-2068.457845
572.539631,2590.720797,-8808.450710,-689.485948
572.539954,2072.576638,-7476.080014,-306.438199
572.540276,962.267725,-6957.935855,-766.095498
572.540599,370.102971,-7994.224174,-1762.019645
572.540921,-222.061783,-9474.636058,-1532.190996
572.541244,-592.164754,-9844.739029,-842.705048
572.541566,-740.205942,-10807.006753,-995.924147
572.541889,-592.164754,-11843.295072,-1072.533697
572.542211,74.020594,-11547.212695,-689.485948
572.542534,962.267725,-11103.089130,-612.876398
572.542856,962.267725,-10214.842000,-459.657299
572.543179,1924.535449,-9474.636058,-2221.676944
572.543501,1628.453072,-8882.471304,-1532.190996
572.543824,1406.391290,-8660.409521,-919.314598
572.544146,1406.391290,-8660.409521,-1072.533697
572.544469,1184.329507,-8808.450710,-1608.800546
572.544791,1184.329507,-8586.388927,-995.924147
572.545114,1184.329507,-7920.203579,-1225.752797
572.545436,1628.453072,-7624.121203,-2068.457845
572.545759,1628.453072,-7254.018232,-2604.724693
572.546081,1702.473667,-7772.162391,-2374.896044
572.546404,2072.576638,-9252.574275,-1378.971896
572.546726,1406.391290,-9622.677246,-1378.971896
572.547049,1702.473667,-10732.986159,-2298.286494
572.547371,1406.391290,-11399.171507,-1991.848295
572.547694,1110.308913,-11695.253884,-1378.971896
572.548016,962.267725,-11251.130318,-459.657299
572.548339,962.267725,-9992.780217,-1302.362347
572.548661,1554.432478,-9548.656652,-1608.800546
572.548984,1850.514855,-9474.636058,-919.314598
572.549306,2146.597232,-9178.553681,-536.266849
572.549629,2442.679609,-8956.491898,-536.266849
572.549951,3552.988522,-8586.388927,-536.266849
572.550274,4885.359217,-8364.327145,-1915.238745
572.550596,5921.647536,-7624.121203,-2145.067394
572.550919,5773.606348,-7476.080014,-1302.362347
572.551241,4811.338623,-7994.224174,-1378.971896
572.551564,4145.153275,-9400.615463,-2681.334243
572.551886,2590.720797,-10881.027347,-2987.772442
572.552209,1628.453072,-12583.501014,-2451.505594
572.552531,592.164754,-13027.624579,-1532.190996
572.552854,74.020594,-11991.336260,-1072.533697
572.553176,148.041188,-10436.903782,-689.485948
572.553499,0.000000,-8586.388927,383.047749
572.553821,0.000000,-7031.956449,306.438199
572.554144,0.000000,-5921.647536,-612.876398
572.554466,222.061783,-5181.441594,-1149.143247
572.554789,814.226536,-5403.503377,-1149.143247
572.555111,1554.432478,-6513.812290,-1532.190996
572.555434,1554.432478,-8142.265362,-536.266849
572.555756,1258.350101,-9252.574275,-1685.410096
572.556079,1110.308913,-10658.965565,-2374.896044
572.556401,1036.288319,-11917.315666,-2604.724693
572.556724,666.185348,-11917.315666,-3677.258390
572.557046,74.020594,-11917.315666,-3447.429741
572.557369,-740.205942,-11621.233289,-2987.772442
572.557691,-592.164754,-11769.274478,-2757.943793
572.558014,-962.267725,-11843.295072,-2374.896044
572.558336,-1628.453072,-11917.315666,-1685.410096
572.558659,-1480.411884,-11621.233289,-612.876398
572.558981,-1332.370696,-11325.150913,-229.828649
572.559304,-814.226536,-10214.842000,0.000000
572.559626,-148.041188,-9030.512492,536.266849
572.559949,1110.308913,-7105.977043,459.657299
572.560271,3182.885551,-5773.606348,0.000000
572.560594,5403.503377,-4959.379811,0.000000
572.560916,6661.853478,-5107.421000,-689.485948
572.561239,6809.894666,-5625.565159,-229.828649
572.561561,6735.874072,-6143.709319,-766.095498
572.561884,6217.729913,-7846.182985,-3064.381992
572.562206,6291.750507,-12509.480420,-4826.401637
572.562529,4589.276840,-14730.098246,-3447.429741
572.562851,1332.370696,-13545.768739,-995.924147
572.563174,-2294.638420,-11843.295072,-153.219100
572.563496,-3330.926739,-11325.150913,-1225.752797
572.563819,-3404.947333,-10732.986159,-4060.306139
572.564141,-4737.318029,-9326.594869,-2987.772442
572.564464,-6513.812290,-7476.080014,-229.828649
572.564786,-6587.832884,-6217.729913,76.609550
572.565109,-4071.132681,-7402.059420,-1225.752797
572.565431,592.164754,-7994.224174,-1455.581446
572.565754,4737.318029,-7920.203579,-2451.505594
572.566076,8290.306550,-9400.615463,-3524.039291
572.566399,11695.253884,-10584.944971,-536.266849
572.566721,13915.871710,-10362.883188,1149.143247
572.567044,14730.098246,-9326.594869,-919.314598
572.567366,14211.954086,-8586.388927,-1991.848295
572.567689,11547.212695,-9178.553681,-2298.286494
572.568011,7105.977043,-10807.006753,-2374.896044
572.568334,1998.556043,-11399.171507,-2145.067394
572.568656,-2368.659014,-12361.439231,-1608.800546
572.568979,-4811.338623,-12879.583391,-766.095498
572.569301,-5773.606348,-13323.706956,536.266849
572.569624,-9104.533087,-10658.965565,766.095498
572.569946,-10214.842000,-7105.977043,2145.067394
572.570269,-9622.677246,-3108.864956,536.266849
572.570591,-6365.771101,-3108.864956,-1225.752797
572.570914,-1702.473667,-4663.297435,-2221.676944
572.571236,2368.659014,-4885.359217,-3217.601092
572.571559,5255.462188,-6957.935855,-3524.039291
572.571881,8956.491898,-10807.006753,-2451.505594
572.572204,11029.068536,-12139.377449,-1915.238745
572.572526,10436.903782,-11325.150913,-3600.648841
572.572849,7031.956449,-11399.171507,-4060.306139
572.573171,3478.967927,-11399.171507,-4443.353888
572.573494,1332.370696,-11399.171507,-6435.202183
572.573816,-888.247130,-11695.253884,-5898.935335
572.574138,-2738.761985,-12065.356855,-1532.190996
572.574461,-5477.523971,-13101.645173,766.095498
572.574783,-6809.894666,-11251.130318,3830.477490
572.575106,-6439.791695,-8068.244768,2757.943793
572.575428,-4145.153275,-7179.997637,-1149.143247
572.575751,-370.102971,-8216.285956,-689.485948
572.576073,4737.318029,-6365.771101,1455.581446
572.576396,9326.594869,-3182.885551,153.219100
572.576718,13619.789333,-4663.297435,-1532.190996
572.577041,15100.201217,-9030.512492,-612.876398
572.577363,12509.480420,-11399.171507,1685.410096
572.577685,7179.997637,-12139.377449,0.000000
572.578008,1628.453072,-13323.706956,-4979.620737
572.578330,-2516.700203,-16062.468941,-7124.688131
572.578653,-5403.503377,-15248.242405,-4826.401637
572.578975,-8586.388927,-9326.594869,-1685.410096
572.579298,-9844.739029,-5477.523971,-3217.601092
572.579620,-6883.915261,-6439.791695,-4060.306139
572.579943,-3034.844362,-7920.203579,-2604.724693
572.580265,-1998.556043,-9548.656652,-383.047749
572.580588,-2886.803174,-10066.800811,3217.601092
572.580910,-2368.659014,-7920.203579,3294.210641
572.581232,814.226536,-5921.647536,-383.047749
572.581555,4219.173869,-5477.523971,-2298.286494
572.581877,4441.235652,-5329.482782,-2221.676944
572.582200,3701.029710,-6439.791695,-1762.019645
572.582522,4811.338623,-9622.677246,-842.705048
572.582845,7105.977043,-11399.171507,-1225.752797
572.583167,7846.182985,-12509.480420,-4519.963438
572.583490,6513.812290,-13323.706956,-4290.134789
572.583812,4219.173869,-13323.706956,-1762.019645
572.584134,2368.659014,-12065.356855,766.095498
572.584457,814.226536,-11621.233289,-919.314598
572.584779,-592.164754,-11621.233289,-2528.115143
572.585102,-2368.659014,-11769.274478,-536.266849
572.585424,-2368.659014,-10362.883188,2451.505594
572.585747,0.000000,-8734.430116,1991.848295
572.586069,3775.050304,-7698.141797,229.828649
572.586392,7105.977043,-6217.729913,0.000000
572.586714,8660.409521,-4885.359217,3294.210641
572.587037,8216.285956,-4293.194464,3830.477490
572.587359,6513.812290,-4589.276840,0.000000
572.587681,4811.338623,-5033.400406,-3753.867940
572.588004,3034.844362,-7031.956449,-5286.058936
572.588326,962.267725,-9770.718434,-6052.154434
572.588649,-2516.700203,-12361.439231,-5362.668486
572.588971,-5477.523971,-12953.603985,-2834.553343
572.589294,-5699.585753,-12805.562797,-2221.676944
572.589616,-2960.823768,-14656.077652,-5056.230287
572.589939,-2072.576638,-14582.057057,-7048.078582
572.590261,-1480.411884,-13249.686362,-4749.792088
572.590583,-370.102971,-11325.150913,-459.657299
572.590906,3627.009116,-10732.986159,2528.115143
572.591228,6957.935855,-9770.718434,995.924147
572.591551,8290.306550,-9326.594869,0.000000
572.591873,6883.915261,-8586.388927,2987.772442
572.592196,5699.585753,-6809.894666,5745.716235
572.592518,6217.729913,-3923.091493,3600.648841
572.592841,7476.080014,-2442.679609,-1762.019645
572.593163,9030.512492,-3923.091493,-2834.553343
572.593486,8438.347739,-5625.565159,0.000000
572.593808,5107.421000,-6217.729913,2451.505594
572.594130,1702.473667,-8882.471304,0.000000
572.594453,-1184.329507,-12435.459826,-3830.477490
572.594775,-4367.215058,-13323.706956,-6281.983084
572.595098,-8734.430116,-13027.624579,-6741.640382
572.595420,-10066.800811,-12361.439231,-5745.716235
572.595743,-8216.285956,-12509.480420,-5592.497135
572.596065,-4959.379811,-12065.356855,-5898.935335
572.596388,-4145.153275,-10510.924376,-2451.505594
572.596710,-3849.070898,-8882.471304,842.705048
572.597033,-2294.638420,-10214.842000,-1532.190996
572.597355,-370.102971,-12731.542202,-4213.525239
572.597677,0.000000,-11399.171507,-1762.019645
572.598000,888.247130,-7179.997637,1762.019645
572.598322,3627.009116,-3849.070898,2298.286494
572.598645,7920.203579,-2886.803174,1225.752797
572.598967,9918.759623,-3627.009116,153.219100
572.599290,9918.759623,-6069.688724,-306.438199
572.599612,9104.533087,-8808.450710,1762.019645
572.599935,7624.121203,-10140.821405,1455.581446
572.600257,4441.235652,-11473.192101,-1991.848295
572.600579,888.247130,-13101.645173,-2987.772442
572.600902,-2294.638420,-11177.109724,-919.314598
572.601224,-2590.720797,-9844.739029,-3447.429741
572.601547,-2220.617826,-10658.965565,-7048.078582
572.601869,-2368.659014,-11621.233289,-5745.716235
572.602192,-3256.906145,-12435.459826,-2145.067394
572.602514,-3478.967927,-13249.686362,0.000000
572.602837,-3849.070898,-14211.954086,-766.095498
572.603159,-4885.359217,-11769.274478,-2298.286494
572.603482,-4145.153275,-8364.327145,-2145.067394
572.603804,-296.082377,-6217.729913,-2528.115143
572.604126,3849.070898,-5181.441594,-3677.258390
572.604449,6957.935855,-6069.688724,-1991.848295
572.604771,8734.430116,-5773.606348,2221.676944
572.605094,10362.883188,-6069.688724,3217.601092
572.605416,10362.883188,-7994.224174,0.000000
572.605739,7105.977043,-9474.636058,-1685.410096
572.606061,3330.926739,-9918.759623,76.609550
572.606384,1850.514855,-9474.636058,-536.266849
572.606706,1702.473667,-9622.677246,-3140.991542
572.607029,888.247130,-9696.697840,-4060.306139
572.607351,666.185348,-9770.718434,-1991.848295
572.607673,888.247130,-12657.521608,919.314598
572.607996,1036.288319,-15174.221811,1378.971896
572.608318,0.000000,-14656.077652,612.876398
572.608641,-296.082377,-12213.398043,229.828649
572.608963,1998.556043,-9770.718434,536.266849
572.609286,5625.565159,-6661.853478,-919.314598
572.609608,7105.977043,-3404.947333,-2911.162892
572.609931,7031.956449,-2368.659014,0.000000
572.610253,6809.894666,-4441.235652,2145.067394
572.610575,5773.606348,-6809.894666,-919.314598
572.610898,2368.659014,-9548.656652,-3447.429741
572.611220,-814.226536,-12435.459826,-3294.210641
572.611543,-3701.029710,-12953.603985,-3600.648841
572.611865,-5699.585753,-10955.047942,-4366.744339
572.612188,-6957.935855,-8808.450710,-4596.572988
572.612510,-6217.729913,-11251.130318,-4213.525239
572.612833,-5551.544565,-11325.150913,-1532.190996
572.613155,-4071.132681,-11695.253884,689.485948
572.613478,-2220.617826,-11547.212695,-995.924147
572.613800,2590.720797,-12065.356855,-2374.896044
572.614122,6809.894666,-11473.192101,766.095498
572.614445,8882.471304,-7846.182985,3830.477490
572.614767,9252.574275,-4737.318029,3294.210641
572.615090,9252.574275,-2368.659014,995.924147
572.615412,7402.059420,-2368.659014,-612.876398
572.615735,3997.112087,-5033.400406,-1455.581446
572.616057,-1110.308913,-6513.812290,-1762.019645
572.616380,-5699.585753,-7476.080014,-4519.963438
572.616702,-6809.894666,-9474.636058,-6588.421283
572.617024,-5033.400406,-14359.995275,-7507.735880
572.617347,-5181.441594,-16728.654289,-6281.983084
572.617669,-6735.874072,-16062.468941,-1915.238745
572.617992,-6883.915261,-13989.892304,-1302.362347
572.618314,-4219.173869,-12731.542202,-3830.477490
572.618637,-888.247130,-13767.830521,-4673.182538
572.618959,2294.638420,-12657.521608,-2834.553343
572.619282,5107.421000,-9252.574275,-612.876398
572.619604,8142.265362,-7328.038826,1455.581446
572.619927,11325.150913,-5477.523971,3830.477490
572.620249,11621.233289,-4293.194464,3677.258390
572.620571,8068.244768,-3923.091493,1608.800546
572.620894,3182.885551,-4219.173869,0.000000
572.621216,-2220.617826,-4811.338623,-1532.190996
572.621539,-4663.297435,-7476.080014,-4136.915689
572.621861,-5403.503377,-10066.800811,-4443.353888
572.622184,-4737.318029,-10288.862594,-3983.696590
572.622506,-2368.659014,-13101.645173,-4213.525239
572.622829,-222.061783,-13841.851115,-2451.505594
572.623151,740.205942,-13619.789333,-1378.971896
572.623474,1036.288319,-13619.789333,-1762.019645
572.623796,1480.411884,-12879.583391,-2221.676944
572.624118,740.205942,-10584.944971,-2068.457845
572.624441,888.247130,-8290.306550,-1762.019645
572.624763,2072.576638,-7846.182985,-1378.971896
572.625086,962.267725,-6661.853478,-689.485948
572.625408,-814.226536,-5847.626942,1072.533697
572.625731,-2516.700203,-4885.359217,2374.896044
572.626053,-3034.844362,-3552.988522,-536.266849
572.626376,-2368.659014,-4811.338623,-3677.258390
572.626698,-1184.329507,-8734.430116,-3370.820191
572.627020,-2146.597232,-9844.739029,-2145.067394
572.627343,-2664.741391,-9696.697840,-919.314598
572.627665,-2146.597232,-9992.780217,-1455.581446
572.627988,-592.164754,-12065.356855,-2451.505594
572.628310,592.164754,-13989.892304,-3064.381992
572.628633,2220.617826,-12731.542202,-2451.505594
572.628955,4071.132681,-13323.706956,-3447.429741
572.629278,4885.359217,-14730.098246,-1608.800546
572.629600,4145.153275,-13767.830521,2451.505594
572.629923,1480.411884,-8956.491898,3907.087040
572.630245,-1702.473667,-4737.318029,-229.828649
572.630567,-2664.741391,-4737.318029,-2834.553343
572.630890,-2368.659014,-5921.647536,-2374.896044
572.631212,-2442.679609,-4885.359217,-1608.800546
572.631535,-2590.720797,-4885.359217,0.000000
572.631857,-2220.617826,-7772.162391,0.000000
572.632180,-1258.350101,-10362.883188,-229.828649
572.632502,-1036.288319,-10288.862594,-2374.896044
572.632825,-2368.659014,-10066.800811,-4136.915689
572.633147,-3330.926739,-11103.089130,-5669.106685
572.633469,-4293.194464,-12213.398043,-4366.744339
572.633792,-4663.297435,-12953.603985,-2451.505594
572.634114,-3775.050304,-14359.995275,-3753.867940
572.634437,-1258.350101,-13323.706956,-4060.306139
572.634759,2220.617826,-11547.212695,-995.924147
572.635082,4145.153275,-9622.677246,1455.581446
572.635404,4219.173869,-8142.265362,1532.190996
572.635727,3330.926739,-6661.853478,1608.800546
572.636049,1406.391290,-3997.112087,2987.772442
572.636372,740.205942,-3701.029710,1225.752797
572.636694,370.102971,-3627.009116,-2374.896044
572.637016,-148.041188,-3849.070898,-2987.772442
572.637339,-518.144159,-7105.977043,612.876398
572.637661,-1628.453072,-10288.862594,2757.943793
572.637984,-3849.070898,-11769.274478,-153.219100
572.638306,-5107.421000,-11843.295072,-4060.306139
572.638629,-4219.173869,-12287.418637,-5898.935335
572.638951,-3775.050304,-12435.459826,-5822.325785
572.639274,-2738.761985,-12213.398043,-4673.182538
572.639596,-2590.720797,-10807.006753,-3753.867940
572.639919,-1110.308913,-11399.171507,-2221.676944
572.640241,2664.741391,-12509.480420,-1149.143247
572.640563,4145.153275,-11473.192101,-2451.505594
572.640886,3034.844362,-8586.388927,-2451.505594
572.641208,1332.370696,-6439.791695,-229.828649
572.641531,2146.597232,-6587.832884,1225.752797
572.641853,2368.659014,-6883.915261,459.657299
572.642176,74.020594,-7105.977043,-1378.971896
572.642498,-2738.761985,-7031.956449,-689.485948
572.642821,-2738.761985,-7254.018232,0.000000
572.643143,148.041188,-9104.533087,-1532.190996
572.643465,1258.350101,-11177.109724,-3064.381992
572.643788,1406.391290,-11473.192101,-1915.238745
572.644110,3256.906145,-11991.336260,-229.828649
572.644433,4959.379811,-11177.109724,-919.314598
572.644755,4293.194464,-9992.780217,-2374.896044
572.645078,1628.453072,-9918.759623,-2528.115143
572.645400,-1332.370696,-9548.656652,-2145.067394
572.645723,-2368.659014,-9474.636058,-2911.162892
572.646045,-3404.947333,-10288.862594,-3217.601092
572.646368,-4219.173869,-10510.924376,-2911.162892
572.646690,-5033.400406,-8586.388927,-1762.019645
572.647012,-5329.482782,-6661.853478,-1455.581446
572.647335,-3849.070898,-7402.059420,-995.924147
572.647657,-3404.947333,-8734.430116,-1532.190996
572.647980,-3108.864956,-8142.265362,-2451.505594
572.648302,-2368.659014,-5921.647536,-2451.505594
572.648625,666.185348,-6883.915261,-2451.505594
572.648947,3552.988522,-10584.944971,-2834.553343
572.649270,5181.441594,-11991.336260,-153.219100
572.649592,4811.338623,-11177.109724,689.485948
572.649915,4737.318029,-10288.862594,0.000000
572.650237,4367.215058,-11547.212695,-1072.533697
572.650559,1332.370696,-11177.109724,-1915.238745
572.650882,-2516.700203,-8734.430116,-1685.410096
572.651204,-4145.153275,-7772.162391,-1302.362347
572.651527,-3108.864956,-7994.224174,-766.095498
572.651849,-2442.679609,-7772.162391,-1225.752797
572.652172,-1998.556043,-7772.162391,-1915.238745
572.652494,-1258.350101,-8364.327145,-689.485948
572.652817,-592.164754,-9548.656652,-689.485948
572.653139,-296.082377,-9548.656652,-919.314598
572.653461,-1332.370696,-9474.636058,-1915.238745
572.653784,-2590.720797,-8734.430116,-2834.553343
572.654106,-3256.906145,-8734.430116,-2987.772442
572.654429,-3182.885551,-9770.718434,-2757.943793
572.654751,-3923.091493,-10881.027347,-3294.210641
572.655074,-4293.194464,-10510.924376,-3217.601092
572.655396,-4219.173869,-9770.718434,-2145.067394
572.655719,-2072.576638,-10066.800811,-459.657299
572.656041,444.123565,-10214.842000,-1685.410096
572.656364,1924.535449,-9992.780217,-2221.676944
572.656686,2368.659014,-8808.450710,-1149.143247
572.657008,1776.494261,-7698.141797,1685.410096
572.657331,1184.329507,-7031.956449,1838.629195
572.657653,1554.432478,-6365.771101,-536.266849
572.657976,2294.638420,-7550.100608,-2374.896044
572.658298,2590.720797,-8956.491898,-1455.581446
572.658621,1998.556043,-9770.718434,-919.314598
572.658943,-296.082377,-10362.883188,-536.266849
572.659266,-1628.453072,-11103.089130,-459.657299
572.659588,-1998.556043,-11621.233289,-3064.381992
572.659910,-2294.638420,-10658.965565,-3983.696590
572.660233,-1480.411884,-9844.739029,-5056.230287
572.660555,-592.164754,-10584.944971,-4519.963438
572.660878,222.061783,-11547.212695,-2451.505594
572.661200,1628.453072,-11695.253884,0.000000
572.661523,2294.638420,-11029.068536,-995.924147
572.661845,3256.906145,-10510.924376,-2451.505594
572.662168,2812.782580,-8808.450710,-1608.800546
572.662490,2368.659014,-7920.203579,-612.876398
572.662813,814.226536,-7328.038826,-842.705048
572.663135,-2072.576638,-7994.224174,0.000000
572.663457,-3849.070898,-8512.368333,536.266849
572.663780,-4219.173869,-7920.203579,-842.705048
572.664102,-3552.988522,-7254.018232,-2604.724693
572.664425,-2590.720797,-8586.388927,-2221.676944
572.664747,-518.144159,-10288.862594,-1072.533697
572.665070,888.247130,-9474.636058,-153.219100
572.665392,1776.494261,-9030.512492,-306.438199
572.665715,1924.535449,-8290.306550,-1072.533697
572.666037,1776.494261,-8882.471304,-3524.039291
572.666360,1332.370696,-8882.471304,-4826.401637
572.666682,148.041188,-9622.677246,-2987.772442
572.667004,-962.267725,-11251.130318,-2221.676944
572.667327,-2442.679609,-12953.603985,-1991.848295
572.667649,-3849.070898,-11917.315666,-919.314598
572.667972,-4367.215058,-9474.636058,-2221.676944
572.668294,-3256.906145,-8882.471304,-3524.039291
572.668617,-518.144159,-7846.182985,-2451.505594
572.668939,1480.411884,-7031.956449,-1302.362347
572.669262,1998.556043,-6735.874072,-383.047749
572.669584,3330.926739,-8216.285956,2298.286494
572.669906,4959.379811,-9400.615463,1302.362347
572.670229,4737.318029,-9548.656652,-1762.019645
572.670551,3775.050304,-8660.409521,-1915.238745
572.670874,3182.885551,-9400.615463,-306.438199
572.671196,2220.617826,-9696.697840,306.438199
572.671519,-296.082377,-9992.780217,919.314598
572.671841,-4071.132681,-9474.636058,306.438199
572.672164,-6439.791695,-9622.677246,-3140.991542
572.672486,-7105.977043,-9252.574275,-4443.353888
572.672809,-7031.956449,-9252.574275,-4060.306139
572.673131,-7105.977043,-9622.677246,-2911.162892
572.673454,-5551.544565,-9918.759623,-2451.505594
572.673776,-4071.132681,-9622.677246,-2604.724693
572.674099,-2590.720797,-10288.862594,-3294.210641
572.674421,-1110.308913,-11769.274478,-4213.525239
572.674744,518.144159,-11547.212695,-3140.991542
572.675066,1480.411884,-10362.883188,-1915.238745
572.675389,2664.741391,-8586.388927,-1072.533697
572.675711,2368.659014,-9474.636058,-306.438199
572.676034,1480.411884,-10214.842000,229.828649
572.676356,0.000000,-8512.368333,0.000000
572.676679,-1036.288319,-7254.018232,-689.485948
572.677001,222.061783,-7476.080014,-1149.143247
572.677324,2072.576638,-8290.306550,-1608.800546
572.677646,2368.659014,-7920.203579,383.047749
572.677969,1702.473667,-7402.059420,2604.724693
572.678291,1332.370696,-7772.162391,536.266849
572.678614,1406.391290,-8290.306550,-919.314598
572.678936,666.185348,-8290.306550,-2681.334243
572.679259,-370.102971,-9474.636058,-2834.553343
572.679581,-2220.617826,-11029.068536,-2374.896044
572.679904,-4071.132681,-11473.192101,-2298.286494
572.680226,-4663.297435,-11029.068536,-2145.067394
572.680549,-4441.235652,-11399.171507,-3370.820191
572.680871,-4441.235652,-11029.068536,-4673.182538
572.681194,-2664.741391,-10732.986159,-4443.353888
572.681516,-814.226536,-8882.471304,-2834.553343
572.681839,814.226536,-9030.512492,-1915.238745
572.682161,740.205942,-8660.409521,1378.971896
572.682484,962.267725,-7254.018232,919.314598
572.682806,1702.473667,-6365.771101,-1991.848295
572.683129,3701.029710,-7476.080014,-3524.039291
572.683451,4737.318029,-9696.697840,-1149.143247
572.683774,3849.070898,-9474.636058,1532.190996
572.684096,1480.411884,-8808.450710,2298.286494
572.684419,0.000000,-10066.800811,1072.533697
572.684741,-2220.617826,-10955.047942,-842.705048
572.685064,-3701.029710,-10732.986159,-2451.505594
572.685386,-4589.276840,-10214.842000,-3907.087040
572.685709,-2516.700203,-9622.677246,-4443.353888
572.686031,370.102971,-9696.697840,-2681.334243
572.686354,2516.700203,-9326.594869,-995.924147
572.686676,4071.132681,-10214.842000,0.000000
572.686999,4959.379811,-11029.068536,-1378.971896
572.687321,5107.421000,-10214.842000,-3983.696590
572.687644,3182.885551,-9696.697840,-2604.724693
572.687966,592.164754,-10362.883188,-612.876398
572.688289,-2664.741391,-10214.842000,-842.705048
572.688611,-5181.441594,-9696.697840,-1838.629195
572.688934,-6217.729913,-8660.409521,-2298.286494
572.689256,-5033.400406,-7994.224174,-2451.505594
572.689579,-3478.967927,-7994.224174,-1149.143247
572.689901,-2960.823768,-7031.956449,0.000000
572.690224,-1480.411884,-8142.265362,0.000000
572.690546,296.082377,-7624.121203,-76.609550
572.690869,814.226536,-7179.997637,612.876398
572.691191,518.144159,-7772.162391,-1762.019645
572.691513,592.164754,-8068.244768,-3907.087040
572.691836,1258.350101,-8808.450710,-2834.553343
572.692158,1332.370696,-10436.903782,-229.828649
572.692481,74.020594,-11843.295072,229.828649
572.692803,-2146.597232,-12509.480420,-1532.190996
572.693126,-4145.153275,-11473.192101,-2145.067394
572.693448,-5403.503377,-9104.533087,-2068.457845
572.693771,-6291.750507,-8586.388927,-3064.381992
572.694093,-4959.379811,-9696.697840,-3524.039291
572.694416,-2812.782580,-7624.121203,-3064.381992
572.694738,148.041188,-7476.080014,-919.314598
572.695061,2738.761985,-8660.409521,0.000000
572.695383,4589.276840,-9400.615463,-383.047749
572.695706,4737.318029,-9030.512492,-383.047749
572.696028,4737.318029,-8882.471304,459.657299
572.696351,4885.359217,-9696.697840,0.000000
572.696673,4293.194464,-10436.903782,-1762.019645
572.696996,1184.329507,-9770.718434,-1532.190996
572.697318,-1628.453072,-9770.718434,766.095498
572.697641,-2960.823768,-8882.471304,-306.438199
572.697963,-2294.638420,-8882.471304,-2987.772442
572.698286,-888.247130,-10140.821405,-4673.182538
572.698608,-296.082377,-9326.594869,-2298.286494
572.698931,-740.205942,-9770.718434,0.000000
572.699253,-1258.350101,-9252.574275,229.828649
572.699576,-666.185348,-7179.997637,-1455.581446
572.699898,-1850.514855,-6661.853478,-5515.887586
572.700221,-2664.741391,-9474.636058,-5439.278036
572.700543,-3330.926739,-11769.274478,-2834.553343
572.700866,-3701.029710,-11769.274478,-2834.553343
572.701188,-3849.070898,-11769.274478,-3140.991542
572.701511,-2146.597232,-12879.583391,-2145.067394
572.701833,-592.164754,-11251.130318,-2374.896044
572.702156,148.041188,-9326.594869,-2528.115143
572.702478,1406.391290,-7994.224174,-1608.800546
572.702801,2516.700203,-6439.791695,-1225.752797
572.703123,3182.885551,-5921.647536,-1225.752797
572.703446,3256.906145,-7402.059420,612.876398
572.703768,3108.864956,-8586.388927,1302.362347
572.704091,3330.926739,-8660.409521,-306.438199
572.704413,3997.112087,-8216.285956,-995.924147
572.704736,3627.009116,-8660.409521,766.095498
572.705058,2072.576638,-9474.636058,1072.533697
572.705381,-1554.432478,-9548.656652,919.314598
572.705703,-4737.318029,-9992.780217,-766.095498
572.706026,-6217.729913,-9400.615463,-2757.943793
572.706348,-5329.482782,-8882.471304,-5132.839837
572.706671,-4515.256246,-10140.821405,-4979.620737
572.706993,-2368.659014,-11251.130318,-2757.943793
572.707316,0.000000,-11769.274478,-459.657299
572.707638,1480.411884,-10436.903782,766.095498
572.707961,2516.700203,-9770.718434,-919.314598
572.708283,2368.659014,-9252.574275,-3064.381992
572.708606,1628.453072,-8068.244768,-3217.601092
572.708928,-592.164754,-7328.038826,-1685.410096
572.709251,-2590.720797,-7105.977043,-766.095498
572.709573,-4441.235652,-9474.636058,-1455.581446
572.709896,-4441.235652,-10362.883188,-1302.362347
572.710218,-4515.256246,-10436.903782,-1838.629195
572.710541,-2738.761985,-9992.780217,-1991.848295
572.710863,-1406.391290,-8216.285956,-1225.752797
572.711186,296.082377,-8364.327145,229.828649
572.711508,666.185348,-8068.244768,995.924147
572.711831,740.205942,-7476.080014,383.047749
572.712153,814.226536,-7698.141797,-2374.896044
572.712476,1702.473667,-8734.430116,-4519.963438
572.712798,2368.659014,-10510.924376,-3907.087040
572.713121,2442.679609,-12139.377449,-1455.581446
572.713443,2220.617826,-12361.439231,-306.438199
572.713766,814.226536,-11103.089130,-1532.190996
572.714088,-666.185348,-11695.253884,-2451.505594
572.714411,-2072.576638,-11547.212695,-2757.943793
572.714733,-3182.885551,-10140.821405,-2451.505594
572.715056,-4367.215058,-7550.100608,-3064.381992
572.715378,-2368.659014,-7846.182985,-2451.505594
572.715701,-222.061783,-8882.471304,-1378.971896
572.716023,1406.391290,-8660.409521,0.000000
572.716346,2368.659014,-7994.224174,459.657299
572.716668,3256.906145,-8660.409521,-76.609550
572.716991,3108.864956,-9844.739029,229.828649
572.717313,1776.494261,-9548.656652,1915.238745
572.717636,-1110.308913,-8216.285956,612.876398
572.717958,-2368.659014,-7994.224174,-1838.629195
572.718281,-1480.411884,-8586.388927,-3447.429741
572.718603,-888.247130,-7476.080014,-4136.915689
572.718926,-740.205942,-8216.285956,-1915.238745
572.719248,-222.061783,-10288.862594,0.000000
572.719571,-1036.288319,-11029.068536,229.828649
572.719893,-1628.453072,-10584.944971,-1532.190996
572.720216,-2960.823768,-9918.759623,-4443.353888
572.720538,-2072.576638,-10066.800811,-5132.839837
572.720861,-444.123565,-10066.800811,-3677.258390
572.721183,1258.350101,-7846.182985,-995.924147
572.721506,2812.782580,-7846.182985,-306.438199
572.721828,2960.823768,-9918.759623,-2068.457845
572.722151,1776.494261,-11917.315666,-536.266849
572.722473,148.041188,-12287.418637,766.095498
572.722796,-1110.308913,-9770.718434,-1838.629195
572.723118,0.000000,-8808.450710,-3524.039291
572.723441,1258.350101,-9178.553681,-2221.676944
572.723763,1628.453072,-8882.471304,1225.752797
572.724086,1258.350101,-8216.285956,1378.971896
572.724408,888.247130,-6587.832884,153.219100
572.724731,1924.535449,-8068.244768,-2221.676944
572.725053,2220.617826,-9474.636058,-3830.477490
572.725376,0.000000,-9918.759623,-1991.848295
572.725698,-2442.679609,-10584.944971,459.657299
572.726021,-4219.173869,-10066.800811,153.219100
572.726343,-4737.318029,-9474.636058,-2834.553343
572.726666,-6661.853478,-9474.636058,-4443.353888
572.726988,-7920.203579,-9474.636058,-4673.182538
572.727311,-7179.997637,-10732.986159,-3753.867940
572.727633,-5329.482782,-10510.924376,-2528.115143
572.727956,-2516.700203,-10362.883188,-995.924147
572.728278,-1480.411884,-9104.533087,-2834.553343
572.728601,-962.267725,-9104.533087,-2911.162892
572.728923,-444.123565,-9918.759623,-842.705048
572.729246,518.144159,-7624.121203,-842.705048
572.729568,1258.350101,-6809.894666,-3370.820191
572.729891,2590.720797,-8364.327145,-2374.896044
572.730213,2442.679609,-9696.697840,1302.362347
572.730536,0.000000,-9178.553681,3447.429741
572.730858,-1924.535449,-10140.821405,1455.581446
572.731181,-2220.617826,-9622.677246,-2068.457845
572.731503,-1036.288319,-8364.327145,-3600.648841
572.731826,0.000000,-7550.100608,-2451.505594
572.732148,962.267725,-8734.430116,153.219100
572.732471,1036.288319,-8142.265362,766.095498
572.732793,2368.659014,-8142.265362,-612.876398
572.733116,2812.782580,-10214.842000,-2145.067394
572.733438,2072.576638,-11843.295072,-2451.505594
572.733761,888.247130,-11103.089130,-2298.286494
572.734083,370.102971,-9992.780217,-2681.334243
572.734406,0.000000,-9844.739029,-1762.019645
572.734728,-370.102971,-9770.718434,-1532.190996
572.735051,-3034.844362,-8882.471304,-2451.505594
572.735373,-4959.379811,-8068.244768,-2834.553343
572.735696,-3923.091493,-8956.491898,-2451.505594
572.736018,-1702.473667,-9474.636058,-4213.525239
572.736341,0.000000,-10140.821405,-3064.381992
572.736663,0.000000,-10214.842000,0.000000
572.736986,1258.350101,-10436.903782,1225.752797
572.737308,2738.761985,-9622.677246,0.000000
572.737631,3478.967927,-8290.306550,-1838.629195
572.737953,2516.700203,-7105.977043,-1072.533697
572.738276,1776.494261,-7105.977043,-1225.752797
572.738598,1036.288319,-8660.409521,-536.266849
572.738921,666.185348,-9770.718434,0.000000
572.739243,148.041188,-9770.718434,-995.924147
572.739566,74.020594,-9918.759623,-2681.334243
572.739888,222.061783,-9770.718434,-2145.067394
572.740211,518.144159,-9844.739029,-689.485948
572.740533,0.000000,-9844.739029,-1608.800546
572.740856,0.000000,-10362.883188,-2834.553343
572.741178,-666.185348,-9622.677246,-2987.772442
572.741501,-1258.350101,-9474.636058,-1991.848295
572.741823,-1702.473667,-9770.718434,-2528.115143
572.742146,-592.164754,-9770.718434,-3064.381992
572.742468,666.185348,-10362.883188,-2834.553343
572.742791,1406.391290,-11029.068536,-1072.533697
572.743113,222.061783,-10955.047942,842.705048
572.743436,-1480.411884,-9252.574275,383.047749
572.743758,-2812.782580,-7328.038826,-1838.629195
572.744081,-2294.638420,-7994.224174,-1762.019645
572.744403,-1406.391290,-8808.450710,-1072.533697
572.744726,-1110.308913,-8438.347739,-1225.752797
572.745048,-888.247130,-7994.224174,0.000000
572.745371,0.000000,-8734.430116,1532.190996
572.745693,1406.391290,-9474.636058,612.876398
572.746015,1406.391290,-9992.780217,-3064.381992
572.746338,1036.288319,-9104.533087,-3370.820191
572.746660,0.000000,-9252.574275,-2451.505594
572.746983,-1036.288319,-8808.450710,-1455.581446
572.747305,-3849.070898,-9030.512492,-2221.676944
572.747628,-5921.647536,-10658.965565,-3524.039291
572.747950,-5699.585753,-12435.459826,-4443.353888
572.748273,-3478.967927,-12953.603985,-3447.429741
572.748595,-3182.885551,-11251.130318,-1685.410096
572.748918,-2294.638420,-8956.491898,-536.266849
572.749240,-1184.329507,-8068.244768,-383.047749
572.749563,222.061783,-7624.121203,-919.314598
572.749885,962.267725,-7328.038826,-1302.362347
572.750208,1110.308913,-7550.100608,-2068.457845
572.750530,1776.494261,-7179.997637,-2451.505594
572.750853,2812.782580,-7698.141797,-1608.800546
572.751175,2738.761985,-9474.636058,612.876398
572.751498,1036.288319,-9622.677246,1838.629195
572.751820,0.000000,-10732.986159,-536.266849
572.752143,-1036.288319,-9918.759623,-2987.772442
572.752465,-2146.597232,-8216.285956,-3217.601092
572.752788,-2294.638420,-8216.285956,-2068.457845
572.753110,-2072.576638,-9400.615463,-2145.067394
572.753433,-222.061783,-10140.821405,-2298.286494
572.753755,592.164754,-9918.759623,-1532.190996
572.754078,1998.556043,-10288.862594,-1455.581446
572.754400,2368.659014,-10584.944971,-2604.724693
572.754723,2368.659014,-9918.759623,-1378.971896
572.755045,962.267725,-8438.347739,-995.924147
572.755368,296.082377,-7846.182985,-1532.190996
572.755690,-740.205942,-8364.327145,-2451.505594
572.756013,-2590.720797,-7846.182985,-2604.724693
572.756335,-3997.112087,-7920.203579,-2374.896044
572.756658,-2812.782580,-10436.903782,-2451.505594
572.756980,-1554.432478,-12509.480420,-1608.800546
572.757303,296.082377,-12731.542202,-1378.971896
572.757625,592.164754,-10732.986159,-1455.581446
572.757948,518.144159,-9622.677246,-1072.533697
572.758270,1628.453072,-9844.739029,-612.876398
572.758593,1924.535449,-8364.327145,-3064.381992
572.758915,1110.308913,-7179.997637,-2451.505594
572.759238,444.123565,-7179.997637,-306.438199
572.759560,666.185348,-9030.512492,76.609550
572.759883,740.205942,-10658.965565,-995.924147
572.760205,222.061783,-11547.212695,-1455.581446
572.760528,-1036.288319,-10584.944971,-689.485948
572.760850,-1406.391290,-10214.842000,-842.705048
572.761173,-1776.494261,-9252.574275,0.000000
572.761495,-2960.823768,-7254.018232,-612.876398
572.761818,-3034.844362,-6661.853478,-2374.896044
572.762140,-2368.659014,-7550.100608,-2221.676944
572.762463,-1924.535449,-8882.471304,-1915.238745
572.762785,-1554.432478,-9770.718434,-1685.410096
572.763108,-1258.350101,-10140.821405,-919.314598
572.763430,-1332.370696,-9326.594869,0.000000
572.763753,-1998.556043,-8956.491898,-995.924147
572.764075,-1850.514855,-9844.739029,-2451.505594
572.764398,-2072.576638,-10510.924376,-3524.039291
572.764720,-2294.638420,-9770.718434,-2757.943793
572.765043,-2072.576638,-9030.512492,-842.705048
572.765365,-1036.288319,-9178.553681,0.000000
572.765688,370.102971,-9992.780217,0.000000
572.766010,1924.535449,-9992.780217,-1685.410096
572.766333,2738.761985,-9474.636058,-1608.800546
572.766655,3330.926739,-9104.533087,0.000000
572.766978,3923.091493,-8734.430116,0.000000
572.767300,3552.988522,-7179.997637,-1302.362347
572.767623,2442.679609,-7402.059420,-1149.143247
572.767945,1184.329507,-8882.471304,-612.876398
572.768268,-518.144159,-9178.553681,-1915.238745
572.768590,-2664.741391,-9548.656652,-4366.744339
572.768913,-4441.235652,-11399.171507,-3907.087040
572.769235,-5107.421000,-12583.501014,-2451.505594
572.769558,-4515.256246,-12213.398043,-1608.800546
572.769880,-2738.761985,-10658.965565,-3370.820191
572.770203,-592.164754,-9696.697840,-4443.353888
572.770525,444.123565,-8068.244768,-3140.991542
572.770848,1628.453072,-7105.977043,-919.314598
572.771170,1184.329507,-7994.224174,-689.485948
572.771493,1406.391290,-9474.636058,-2604.724693
572.771815,1184.329507,-9548.656652,-2604.724693
572.772138,740.205942,-8882.471304,-1532.190996
572.772460,-222.061783,-8438.347739,-1762.019645
572.772783,-1036.288319,-9844.739029,-2145.067394
572.773105,-1628.453072,-11029.068536,-919.314598
572.773428,-2368.659014,-9918.759623,459.657299
572.773750,-1998.556043,-8142.265362,0.000000
572.774073,-1184.329507,-7698.141797,-2451.505594
572.774395,1110.308913,-8586.388927,-3753.867940
572.774718,1628.453072,-8512.368333,-2451.505594
572.775040,2812.782580,-9548.656652,0.000000
572.775363,4811.338623,-10510.924376,0.000000
572.775685,5625.565159,-9770.718434,-1532.190996
572.776008,5033.400406,-9474.636058,-2145.067394
572.776330,3330.926739,-9030.512492,229.828649
572.776653,-148.041188,-8882.471304,0.000000
572.776975,-3404.947333,-9252.574275,-2221.676944
572.777298,-4885.359217,-10214.842000,-2987.772442
572.777620,-5329.482782,-9770.718434,-1915.238745
572.777943,-4441.235652,-9252.574275,-919.314598
572.778265,-2590.720797,-9474.636058,-766.095498
572.778588,-1850.514855,-8882.471304,-995.924147
572.778910,-592.164754,-7920.203579,-1915.238745
572.779232,888.247130,-9622.677246,-1532.190996
572.779555,-444.123565,-9252.574275,-1302.362347
572.779877,-1406.391290,-7402.059420,-2221.676944
572.780200,-1628.453072,-6809.894666,-3217.601092
572.780522,-814.226536,-8438.347739,-2145.067394
572.780845,-888.247130,-10510.924376,-1608.800546
572.781167,-2294.638420,-12805.562797,-1072.533697
572.781490,-4145.153275,-12213.398043,-306.438199
572.781812,-2960.823768,-11103.089130,-1302.362347
572.782135,-1406.391290,-10732.986159,-2681.334243
572.782457,-592.164754,-10658.965565,-1378.971896
572.782780,0.000000,-7698.141797,0.000000
572.783102,1184.329507,-6809.894666,-1378.971896
572.783425,2220.617826,-6365.771101,0.000000
572.783747,1258.350101,-7772.162391,0.000000
572.784070,0.000000,-9178.553681,-1149.143247
572.784392,-814.226536,-9770.718434,-1685.410096
572.784715,-370.102971,-11103.089130,-2221.676944
572.785037,-296.082377,-11843.295072,-1149.143247
572.785360,-814.226536,-11251.130318,-536.266849
572.785682,-2220.617826,-9844.739029,-1225.752797
572.786005,-3034.844362,-8660.409521,-1685.410096
572.786327,-1332.370696,-9474.636058,-1149.143247
572.786650,-814.226536,-9474.636058,-1532.190996
572.786972,-296.082377,-9326.594869,-2374.896044
572.787295,0.000000,-8068.244768,-2221.676944
572.787617,1258.350101,-8882.471304,-383.047749
572.787939,2072.576638,-9326.594869,0.000000
572.788262,1184.329507,-7772.162391,-1762.019645
572.788584,-222.061783,-6661.853478,-2911.162892
572.788907,-370.102971,-7550.100608,-2221.676944
572.789229,-740.205942,-9030.512492,-1838.629195
572.789552,-3256.906145,-9844.739029,-1532.190996
572.789874,-4811.338623,-10658.965565,-1532.190996
572.790197,-4959.379811,-11399.171507,-1991.848295
572.790519,-3478.967927,-11547.212695,-1762.019645
572.790842,-2146.597232,-9030.512492,-1915.238745
572.791164,0.000000,-8956.491898,-3753.867940
572.791487,2368.659014,-9104.533087,-3217.601092
572.791809,4441.235652,-8660.409521,-612.876398
572.792132,5329.482782,-8438.347739,612.876398
572.792454,5181.441594,-8586.388927,-459.657299
572.792777,4367.215058,-8660.409521,-1532.190996
572.793099,4737.318029,-8956.491898,-1149.143247
572.793422,3256.906145,-9178.553681,-1455.581446
572.793744,0.000000,-10658.965565,-1072.533697
572.794067,-2590.720797,-10214.842000,76.609550
572.794389,-4293.194464,-8882.471304,-1378.971896
572.794712,-4589.276840,-8216.285956,-3370.820191
572.795034,-3701.029710,-9622.677246,-4366.744339
572.795357,-3182.885551,-10140.821405,-4060.306139
572.795679,-2220.617826,-10658.965565,-3447.429741
572.796002,-222.061783,-10214.842000,-2221.676944
572.796324,2590.720797,-10140.821405,-2451.505594
572.796646,4737.318029,-10807.006753,-3524.039291
572.796969,4219.173869,-10436.903782,-2451.505594
572.797291,2220.617826,-9178.553681,-383.047749
572.797614,296.082377,-8290.306550,-1225.752797
572.797936,-1332.370696,-10066.800811,-2987.772442
572.798259,-3701.029710,-11473.192101,-2451.505594
572.798581,-6069.688724,-10066.800811,-459.657299
572.798904,-5773.606348,-8216.285956,-766.095498
572.799226,-5107.421000,-7994.224174,-2834.553343
572.799549,-1628.453072,-8882.471304,-2374.896044
572.799871,-296.082377,-7624.121203,-689.485948
572.800194,0.000000,-7105.977043,766.095498
572.800516,1406.391290,-8068.244768,-153.219100
572.800839,2368.659014,-8956.491898,-1608.800546
572.801161,2368.659014,-9548.656652,-3140.991542
572.801484,1110.308913,-10214.842000,-2298.286494
572.801806,296.082377,-10955.047942,229.828649
572.802129,-740.205942,-11251.130318,-842.705048
572.802451,-1258.350101,-11251.130318,-1991.848295
572.802774,-1850.514855,-11177.109724,-1072.533697
572.803096,-2072.576638,-9992.780217,-459.657299
572.803419,-666.185348,-9474.636058,-612.876398
572.803741,296.082377,-7105.977043,-383.047749
572.804064,-444.123565,-5921.647536,0.000000
572.804386,-1258.350101,-6439.791695,-459.657299
572.804709,-666.185348,-7476.080014,-1378.971896
572.805031,592.164754,-8512.368333,-1991.848295
572.805353,1776.494261,-8956.491898,-2068.457845
572.805676,1776.494261,-9844.739029,-995.924147
572.805998,1406.391290,-10658.965565,0.000000
572.806321,444.123565,-11769.274478,-612.876398
572.806643,-1850.514855,-11991.336260,-1072.533697
572.806966,-3997.112087,-10288.862594,-1072.533697
572.807288,-4071.132681,-8734.430116,-2834.553343
572.807611,-2442.679609,-8068.244768,-4826.401637
572.807933,-814.226536,-8586.388927,-3140.991542
572.808256,74.020594,-9992.780217,-459.657299
572.808578,1110.308913,-9622.677246,1225.752797
572.808901,3404.947333,-8956.491898,0.000000
572.809223,3627.009116,-8734.430116,-1532.190996
572.809546,2590.720797,-8438.347739,-1991.848295
572.809868,592.164754,-8364.327145,-1302.362347
572.810191,-1258.350101,-8956.491898,-536.266849
572.810513,-2368.659014,-9326.594869,-1149.143247
572.810836,-3552.988522,-10140.821405,-2451.505594
572.811158,-3849.070898,-11251.130318,-2298.286494
572.811481,-3256.906145,-11177.109724,-1838.629195
572.811803,-1924.535449,-11621.233289,-1838.629195
572.812126,148.041188,-10510.924376,-1225.752797
572.812448,1554.432478,-9400.615463,-1455.581446
572.812771,1998.556043,-7846.182985,-1072.533697
572.813093,1924.535449,-6513.812290,-919.314598
572.813416,1036.288319,-6365.771101,-1915.238745
572.813738,148.041188,-7254.018232,-2987.772442
572.814060,222.061783,-9104.533087,-2298.286494
572.814383,-222.061783,-11325.150913,-1685.410096
572.814705,-518.144159,-12139.377449,-1225.752797
572.815028,-1702.473667,-12287.418637,-995.924147
572.815350,-2220.617826,-11325.150913,-1532.190996
572.815673,-2590.720797,-9548.656652,-2221.676944
572.815995,-2368.659014,-7698.141797,-2834.553343
572.816318,-2738.761985,-6809.894666,-2911.162892
572.816640,-2294.638420,-7402.059420,-4060.306139
572.816963,-814.226536,-8364.327145,-2604.724693
572.817285,592.164754,-9252.574275,-1225.752797
572.817608,2368.659014,-9770.718434,-229.828649
572.817930,4293.194464,-9918.759623,-1838.629195
572.818253,5329.482782,-10066.800811,-1378.971896
572.818575,5107.421000,-9252.574275,-536.266849
572.818898,2442.679609,-9178.553681,0.000000
572.819220,-1258.350101,-9622.677246,-612.876398
572.819543,-4071.132681,-8882.471304,-2145.067394
572.819865,-4811.338623,-8956.491898,-4060.306139
572.820188,-4293.194464,-9696.697840,-4213.525239
572.820510,-2516.700203,-11769.274478,-2221.676944
572.820833,-1628.453072,-10288.862594,-536.266849
572.821155,-296.082377,-8882.471304,-536.266849
572.821478,1110.308913,-9474.636058,-1302.362347
572.821800,1850.514855,-9844.739029,-1991.848295
572.822123,962.267725,-7772.162391,-2451.505594
572.822445,74.020594,-6143.709319,-3064.381992
572.822767,444.123565,-7476.080014,-3064.381992
572.823090,888.247130,-11547.212695,-1532.190996
572.823412,-518.144159,-13471.748144,0.000000
572.823735,-2738.761985,-12583.501014,459.657299
572.824057,-2664.741391,-10584.944971,-612.876398
572.824380,-370.102971,-9474.636058,-1685.410096
572.824702,296.082377,-8512.368333,-2987.772442
572.825025,-666.185348,-7179.997637,-1225.752797
572.825347,-1998.556043,-5921.647536,919.314598
572.825670,-1702.473667,-6143.709319,76.609550
572.825992,296.082377,-7920.203579,-2911.162892
572.826315,518.144159,-9622.677246,-3983.696590
572.826637,0.000000,-10214.842000,-2451.505594
572.826960,-518.144159,-10881.027347,0.000000
572.827282,0.000000,-11843.295072,919.314598
572.827605,-740.205942,-11251.130318,-612.876398
572.827927,-2146.597232,-9548.656652,-2145.067394
572.828250,-2294.638420,-8290.306550,-3294.210641
572.828572,-1184.329507,-8364.327145,-3294.210641
572.828895,888.247130,-9844.739029,-1991.848295
572.829217,1406.391290,-8882.471304,-689.485948
572.829540,1258.350101,-8586.388927,1072.533697
572.829862,1258.350101,-9770.718434,536.266849
572.830185,1332.370696,-9992.780217,-459.657299
572.830507,592.164754,-9474.636058,-2757.943793
572.830830,0.000000,-8290.306550,-2757.943793
572.831152,-444.123565,-7920.203579,-766.095498
572.831474,-1036.288319,-6883.915261,0.000000
572.831797,-2146.597232,-9770.718434,-689.485948
572.832119,-2664.741391,-11547.212695,-1302.362347
572.832442,-3256.906145,-9918.759623,-2145.067394
572.832764,-1924.535449,-9622.677246,-3064.381992
572.833087,-666.185348,-11843.295072,-3830.477490
572.833409,-592.164754,-10362.883188,-1072.533697
572.833732,-1110.308913,-8734.430116,-1302.362347
572.834054,0.000000,-8512.368333,-1915.238745
572.834377,1998.556043,-9622.677246,-2451.505594
572.834699,2516.700203,-8438.347739,-2451.505594
572.835022,1628.453072,-7105.977043,-2374.896044
572.835344,1110.308913,-8956.491898,-842.705048
572.835667,888.247130,-11547.212695,-766.095498
572.835989,-666.185348,-11917.315666,-306.438199
572.836312,-2886.803174,-9918.759623,-612.876398
572.836634,-3404.947333,-8734.430116,-2834.553343
572.836957,-1554.432478,-9252.574275,-3447.429741
572.837279,-666.185348,-9548.656652,-1991.848295
572.837602,-814.226536,-9252.574275,-229.828649
572.837924,-518.144159,-9474.636058,0.000000
572.838247,1554.432478,-9030.512492,-1838.629195
572.838569,3108.864956,-8290.306550,-2757.943793
572.838892,3256.906145,-8660.409521,-2681.334243
572.839214,2664.741391,-9252.574275,-1991.848295
572.839537,1554.432478,-9252.574275,-919.314598
572.839859,-444.123565,-8956.491898,0.000000
572.840181,-2442.679609,-9326.594869,-383.047749
572.840504,-4885.359217,-10214.842000,-2987.772442
572.840826,-6513.812290,-10510.924376,-3524.039291
572.841149,-6069.688724,-9992.780217,-2221.676944
572.841471,-4515.256246,-10140.821405,-1991.848295
572.841794,-1850.514855,-10140.821405,-1532.190996
572.842116,-1110.308913,-8068.244768,-612.876398
572.842439,-1110.308913,-7254.018232,-536.266849
572.842761,-740.205942,-9400.615463,-1608.800546
572.843084,-1480.411884,-9252.574275,-1991.848295
572.843406,-3627.009116,-7105.977043,-1991.848295
572.843729,-4959.379811,-7846.182985,-2834.553343
572.844051,-4293.194464,-9474.636058,-1532.190996
572.844374,-4145.153275,-10066.800811,-1762.019645
572.844696,-4219.173869,-10066.800811,-2911.162892
572.845019,-3034.844362,-11029.068536,-2757.943793
572.845341,-2368.659014,-9770.718434,-2145.067394
572.845664,-1036.288319,-9770.718434,-1149.143247
572.845986,-666.185348,-8956.491898,-1532.190996
572.846309,-592.164754,-9622.677246,-2374.896044
572.846631,0.000000,-10584.944971,-1302.362347
572.846954,148.041188,-9400.615463,-306.438199
572.847276,-1998.556043,-7402.059420,-689.485948
572.847599,-2960.823768,-6735.874072,-766.095498
572.847921,-2146.597232,-7105.977043,-1149.143247
572.848244,-1554.432478,-8142.265362,-2221.676944
572.848566,-2812.782580,-8808.450710,-1225.752797
572.848888,-4441.235652,-10436.903782,0.000000
572.849211,-5773.606348,-11399.171507,-536.266849
572.849533,-6735.874072,-10658.965565,-1838.629195
572.849856,-6957.935855,-9622.677246,-2068.457845
572.850178,-5625.565159,-9178.553681,-3370.820191
572.850501,-2516.700203,-9252.574275,-4213.525239
572.850823,-296.082377,-7994.224174,-2298.286494
572.851146,1110.308913,-7476.080014,0.000000
572.851468,1480.411884,-8808.450710,-536.266849
572.851791,1406.391290,-10955.047942,-1838.629195
572.852113,222.061783,-11177.109724,-1915.238745
572.852436,-1702.473667,-9400.615463,-2298.286494
572.852758,-2886.803174,-9178.553681,-2604.724693
572.853081,-3182.885551,-8734.430116,-2451.505594
572.853403,-4441.235652,-7550.100608,-1302.362347
572.853726,-5995.668130,-6587.832884,-689.485948
572.854048,-6735.874072,-8438.347739,-1532.190996
572.854371,-6957.935855,-10362.883188,-2451.505594
572.854693,-6661.853478,-10807.006753,-2681.334243
572.855016,-5033.400406,-9918.759623,-2757.943793
572.855338,-2294.638420,-10140.821405,-2145.067394
572.855661,1184.329507,-9844.739029,-689.485948
572.855983,4367.215058,-8512.368333,-1225.752797
572.856306,5255.462188,-6957.935855,-1608.800546
572.856628,4959.379811,-8216.285956,-1915.238745
572.856951,3182.885551,-10140.821405,-766.095498
572.857273,370.102971,-10658.965565,-612.876398
572.857595,-2220.617826,-10658.965565,-1915.238745
572.857918,-4515.256246,-10510.924376,-3524.039291
572.858240,-5847.626942,-9918.759623,-2834.553343
572.858563,-7105.977043,-9104.533087,-2604.724693
572.858885,-7624.121203,-9770.718434,-2834.553343
572.859208,-8438.347739,-9474.636058,-1532.190996
572.859530,-8956.491898,-10288.862594,-689.485948
572.859853,-6587.832884,-9770.718434,-842.705048
572.860175,-2738.761985,-10140.821405,-3294.210641
572.860498,740.205942,-10066.800811,-3064.381992
572.860820,2516.700203,-8438.347739,689.485948
572.861143,4737.318029,-6957.935855,2374.896044
572.861465,5329.482782,-6513.812290,76.609550
572.861788,5033.400406,-8364.327145,-2298.286494
572.862110,1776.494261,-9474.636058,-2451.505594
572.862433,-1480.411884,-9548.656652,-1225.752797
572.862755,-3182.885551,-9622.677246,-2374.896044
572.863078,-4219.173869,-10658.965565,-3907.087040
572.863400,-6587.832884,-9400.615463,-2451.505594
572.863723,-9326.594869,-7254.018232,-1378.971896
572.864045,-10362.883188,-9400.615463,-3447.429741
572.864368,-10214.842000,-12879.583391,-4903.011187
572.864690,-10584.944971,-13545.768739,-1915.238745
572.865013,-9252.574275,-11473.192101,-229.828649
572.865335,-4293.194464,-8882.471304,-1225.752797
572.865658,2442.679609,-7994.224174,-1838.629195
572.865980,6587.832884,-6513.812290,306.438199
572.866302,7772.162391,-4515.256246,1762.019645
572.866625,8216.285956,-5181.441594,1225.752797
572.866947,7994.224174,-7402.059420,76.609550
572.867270,4663.297435,-9252.574275,-383.047749
572.867592,-1850.514855,-8882.471304,-536.266849
572.867915,-6143.709319,-8734.430116,-1532.190996
572.868237,-6809.894666,-10584.944971,-4213.525239
572.868560,-5773.606348,-11843.295072,-6971.469032
572.868882,-7624.121203,-11399.171507,-5056.230287
572.869205,-10658.965565,-11547.212695,-1302.362347
572.869527,-10584.944971,-11103.089130,-459.657299
572.869850,-7920.203579,-11621.233289,-3370.820191
572.870172,-7179.997637,-12583.501014,-4903.011187
572.870495,-6217.729913,-12139.377449,-3140.991542
572.870817,-3330.926739,-9474.636058,-1225.752797
572.871140,740.205942,-6883.915261,0.000000
572.871462,4959.379811,-5773.606348,2681.334243
572.871785,7920.203579,-5255.462188,2068.457845
572.872107,9326.594869,-4811.338623,-1072.533697
572.872430,8660.409521,-6661.853478,76.609550
572.872752,5181.441594,-8660.409521,1455.581446
572.873075,-1110.308913,-9252.574275,-1149.143247
572.873397,-7994.224174,-9474.636058,-1608.800546
572.873720,-11843.295072,-9104.533087,-2221.676944
572.874042,-12509.480420,-8734.430116,-6741.640382
572.874364,-10955.047942,-10955.047942,-9806.022374
572.874687,-9918.759623,-13545.768739,-6358.592633
572.875009,-6365.771101,-13989.892304,-1532.190996
572.875336,-2442.679609,-12583.501014,1685.410096
572.875659,0.000000,-11769.274478,1455.581446
572.875981,148.041188,-10362.883188,-1685.410096
572.876303,-1110.308913,-8734.430116,-2604.724693
572.876626,-2368.659014,-7994.224174,-919.314598
572.876948,-1110.308913,-6291.750507,1762.019645
572.877270,1036.288319,-3923.091493,612.876398
572.877593,4441.235652,-5255.462188,-1149.143247
572.877915,6661.853478,-7105.977043,-229.828649
572.878237,5847.626942,-7402.059420,2221.676944
572.878560,3108.864956,-8068.244768,2145.067394
572.878882,148.041188,-9696.697840,-383.047749
572.879204,-1998.556043,-10362.883188,-3830.477490
572.879527,-5181.441594,-11029.068536,-7431.126331
572.879849,-8734.430116,-12805.562797,-6894.859482
572.880172,-10584.944971,-14211.954086,-3217.601092
572.880494,-9400.615463,-13915.871710,-2528.115143
572.880816,-5699.585753,-12435.459826,-3983.696590
572.881139,-2886.803174,-11029.068536,-3830.477490
572.881461,-2220.617826,-10510.924376,-842.705048
572.881783,-2442.679609,-8734.430116,1302.362347
572.882106,-1850.514855,-6587.832884,995.924147
572.882428,-962.267725,-3701.029710,-1532.190996
572.882750,-370.102971,-2664.741391,-3830.477490
572.883073,-1850.514855,-4959.379811,-2604.724693
572.883395,-4145.153275,-8586.388927,1608.800546
572.883717,-5625.565159,-11843.295072,3217.601092
572.884040,-5403.503377,-12139.377449,0.000000
572.884362,-3478.967927,-11621.233289,-4673.182538
572.884684,-1332.370696,-10955.047942,-5822.325785
572.885007,0.000000,-9770.718434,-3140.991542
572.885329,-222.061783,-7624.121203,-1225.752797
572.885652,-296.082377,-7328.038826,-1302.362347
572.885974,-222.061783,-9474.636058,-2451.505594
572.886296,-1850.514855,-10955.047942,-3140.991542
572.886619,-4515.256246,-11325.150913,-3830.477490
572.886941,-6217.729913,-11843.295072,-3907.087040
572.887263,-5181.441594,-11991.336260,-2451.505594
572.887586,-4367.215058,-9400.615463,-229.828649
572.887908,-3552.988522,-6735.874072,-459.657299
572.888230,-3849.070898,-5477.523971,-2221.676944
572.888553,-4515.256246,-5625.565159,-1685.410096
572.888875,-4219.173869,-5773.606348,-766.095498
572.889197,-4145.153275,-7402.059420,-2528.115143
572.889520,-3034.844362,-10584.944971,-3447.429741
572.889842,-1110.308913,-12435.459826,-2528.115143
572.890165,-370.102971,-12583.501014,-1838.629195
572.890487,0.000000,-11547.212695,0.000000
572.890809,222.061783,-10510.924376,995.924147
572.891132,1184.329507,-9030.512492,-2604.724693
572.891454,1036.288319,-9400.615463,-4136.915689
572.891776,-444.123565,-10362.883188,0.000000
572.892099,-2664.741391,-9696.697840,2068.457845
572.892421,-3923.091493,-9252.574275,-306.438199
572.892743,-3182.885551,-8068.244768,-536.266849
572.893066,-1776.494261,-6439.791695,-1225.752797
572.893388,-888.247130,-4441.235652,-2987.772442
572.893710,-888.247130,-4219.173869,-2604.724693
572.894033,-814.226536,-6143.709319,-1455.581446
572.894355,-666.185348,-9326.594869,-1838.629195
572.894677,-962.267725,-10955.047942,-2911.162892
572.895000,-2664.741391,-11917.315666,-4443.353888
572.895322,-4145.153275,-13471.748144,-4673.182538
572.895645,-3997.112087,-14359.995275,-4290.134789
572.895967,-4515.256246,-13915.871710,-2987.772442
572.896289,-5107.421000,-12287.418637,-1149.143247
572.896612,-5329.482782,-9770.718434,-153.219100
572.896934,-4737.318029,-6883.915261,-842.705048
572.897256,-2664.741391,-5625.565159,-1378.971896
572.897579,-888.247130,-7254.018232,-1685.410096
572.897901,222.061783,-8216.285956,0.000000
572.898223,740.205942,-7994.224174,2145.067394
572.898546,1850.514855,-7254.018232,2757.943793
572.898868,3404.947333,-6439.791695,1838.629195
572.899190,4737.318029,-7994.224174,-1685.410096
572.899513,4441.235652,-10658.965565,-2757.943793
572.899835,2516.700203,-11843.295072,-1608.800546
572.900158,-1184.329507,-11325.150913,-919.314598
572.900480,-5033.400406,-11843.295072,-1915.238745
572.900802,-7476.080014,-13693.809927,-2528.115143
572.901125,-10288.862594,-12287.418637,-3140.991542
572.901447,-13397.727550,-10436.903782,-4903.011187
572.901769,-14804.118840,-8734.430116,-4213.525239
572.902092,-13323.706956,-9474.636058,-2068.457845
572.902414,-10214.842000,-8808.450710,-1378.971896
572.902736,-6217.729913,-5995.668130,-1838.629195
572.903059,-2368.659014,-4293.194464,-1762.019645
572.903381,1332.370696,-4219.173869,-1762.019645
572.903703,3775.050304,-5625.565159,-1762.019645
572.904026,3997.112087,-7846.182985,-1455.581446
572.904348,3404.947333,-9696.697840,-1072.533697
572.904671,3108.864956,-12139.377449,-1838.629195
572.904993,2368.659014,-13693.809927,-2757.943793
572.905315,296.082377,-13397.727550,-2604.724693
572.905638,-2664.741391,-11843.295072,-2145.067394
572.905960,-4737.318029,-9844.739029,-1149.143247
572.906282,-5625.565159,-9326.594869,-306.438199
572.906605,-7402.059420,-8142.265362,-1302.362347
572.906927,-7772.162391,-7402.059420,-2528.115143
572.907249,-6661.853478,-7846.182985,-2757.943793
572.907572,-4589.276840,-9104.533087,-536.266849
572.907894,-2664.741391,-9696.697840,1915.238745
572.908216,-1110.308913,-7772.162391,2528.115143
572.908539,0.000000,-6587.832884,229.828649
572.908861,1776.494261,-7179.997637,-1762.019645
572.909183,2738.761985,-7550.100608,-2681.334243
572.909506,3478.967927,-6513.812290,-3753.867940
572.909828,3552.988522,-6883.915261,-5056.230287
572.910151,3256.906145,-10140.821405,-4749.792088
572.910473,2294.638420,-13175.665768,-2987.772442
572.910795,-962.267725,-13767.830521,-2068.457845
572.911118,-4959.379811,-14137.933492,-2298.286494
572.911440,-7328.038826,-15470.304188,-3064.381992
572.911762,-8438.347739,-13471.748144,-3447.429741
572.912085,-8882.471304,-9252.574275,-3447.429741
572.912407,-7772.162391,-6439.791695,-2145.067394
572.912729,-5847.626942,-5181.441594,536.266849
572.913052,-2664.741391,-4737.318029,-229.828649
572.913374,-518.144159,-4145.153275,-459.657299
572.913696,0.000000,-4737.318029,0.000000
572.914019,-1036.288319,-7476.080014,-153.219100
572.914341,-1480.411884,-9918.759623,-1302.362347
572.914664,-1702.473667,-11843.295072,-2757.943793
572.914986,-2590.720797,-11843.295072,-3064.381992
572.915308,-2664.741391,-12139.377449,-2374.896044
572.915631,-1554.432478,-11621.233289,-1455.581446
572.915953,-222.061783,-10140.821405,-1608.800546
572.916275,222.061783,-10288.862594,-1608.800546
572.916598,814.226536,-11547.212695,-842.705048
572.916920,0.000000,-10658.965565,383.047749
572.917242,-1776.494261,-8512.368333,-153.219100
572.917565,-3108.864956,-6809.894666,-995.924147
572.917887,-3552.988522,-5847.626942,-1302.362347
572.918209,-4145.153275,-4663.297435,-2221.676944
572.918532,-4885.359217,-4737.318029,-2145.067394
572.918854,-5403.503377,-6735.874072,-1991.848295
572.919176,-5107.421000,-8882.471304,-2451.505594
572.919499,-4959.379811,-10584.944971,-3907.087040
572.919821,-5551.544565,-11769.274478,-4443.353888
572.920144,-5477.523971,-13545.768739,-4749.792088
572.920466,-5329.482782,-13693.809927,-4366.744339
572.920788,-5107.421000,-12879.583391,-4213.525239
572.921111,-4219.173869,-12361.439231,-4366.744339
572.921433,-2960.823768,-11769.274478,-3370.820191
572.921755,-1998.556043,-10955.047942,-1915.238745
572.922078,-888.247130,-9252.574275,0.000000
572.922400,222.061783,-8290.306550,153.219100
572.922722,1406.391290,-7772.162391,536.266849
572.923045,2664.741391,-6439.791695,766.095498
572.923367,3849.070898,-5255.462188,689.485948
572.923689,2886.803174,-4885.359217,689.485948
572.924012,2220.617826,-6365.771101,842.705048
572.924334,1554.432478,-7994.224174,0.000000
572.924657,1406.391290,-9844.739029,-1072.533697
572.924979,592.164754,-11695.253884,-1455.581446
572.925301,-148.041188,-12953.603985,-1532.190996
572.925624,-1258.350101,-13397.727550,-1225.752797
572.925946,-2738.761985,-11769.274478,-919.314598
572.926268,-3775.050304,-10732.986159,-1455.581446
572.926591,-3923.091493,-9844.739029,-2068.457845
572.926913,-4515.256246,-9252.574275,-2451.505594
572.927235,-5403.503377,-8882.471304,-1838.629195
572.927558,-5625.565159,-8364.327145,-1149.143247
572.927880,-4737.318029,-8512.368333,0.000000
572.928202,-3923.091493,-8068.244768,-689.485948
572.928525,-4219.173869,-6809.894666,-919.314598
572.928847,-4441.235652,-5477.523971,-2068.457845
572.929169,-4663.297435,-6513.812290,-2528.115143
572.929492,-5107.421000,-7772.162391,-2298.286494
572.929814,-5847.626942,-8364.327145,-1762.019645
572.930137,-6143.709319,-9104.533087,-2528.115143
572.930459,-4219.173869,-11325.150913,-3294.210641
572.930781,-1924.535449,-12731.542202,-2757.943793
572.931104,-370.102971,-12583.501014,-1532.190996
572.931426,222.061783,-11103.089130,306.438199
572.931748,1036.288319,-9992.780217,229.828649
572.932071,888.247130,-8882.471304,76.609550
572.932393,-592.164754,-7624.121203,0.000000
572.932715,-2442.679609,-7624.121203,0.000000
572.933038,-4293.194464,-7179.997637,0.000000
572.933360,-4663.297435,-7105.977043,-612.876398
572.933682,-4663.297435,-7179.997637,-766.095498
572.934005,-3775.050304,-8438.347739,-459.657299
572.934327,-2664.741391,-9252.574275,-995.924147
572.934650,-2368.659014,-9030.512492,-1608.800546
572.934972,-1554.432478,-9104.533087,-2681.334243
572.935294,-962.267725,-10732.986159,-3600.648841
572.935617,-666.185348,-12287.418637,-3447.429741
572.935939,-814.226536,-12731.542202,-3600.648841
572.936261,-1258.350101,-12879.583391,-3677.258390
572.936584,-666.185348,-13545.768739,-2681.334243
572.936906,-222.061783,-13989.892304,-1685.410096
572.937228,-222.061783,-12361.439231,-919.314598
572.937551,-1110.308913,-10362.883188,612.876398
572.937873,-592.164754,-8956.491898,306.438199
572.938195,666.185348,-7254.018232,383.047749
572.938518,1332.370696,-5477.523971,1072.533697
572.938840,2146.597232,-5847.626942,1608.800546
572.939162,3256.906145,-7031.956449,1608.800546
572.939485,3182.885551,-7772.162391,2145.067394
572.939807,2738.761985,-8956.491898,1532.190996
572.940130,2738.761985,-10732.986159,459.657299
572.940452,2812.782580,-11991.336260,76.609550
572.940774,2960.823768,-11917.315666,-306.438199
572.941097,2516.700203,-11621.233289,536.266849
572.941419,2072.576638,-11103.089130,383.047749
572.941741,1702.473667,-10955.047942,689.485948
572.942064,814.226536,-10214.842000,1149.143247
572.942386,-74.020594,-9400.615463,1149.143247
572.942708,-1258.350101,-9548.656652,612.876398
572.943031,-1998.556043,-8882.471304,1149.143247
572.943353,-2220.617826,-8364.327145,2221.676944
572.943675,-2516.700203,-8068.244768,2911.162892
572.943998,-2516.700203,-7624.121203,3524.039291
572.944320,-2812.782580,-6957.935855,2604.724693
572.944643,-2664.741391,-7105.977043,2298.286494
572.944965,-2590.720797,-8290.306550,2681.334243
572.945287,-2442.679609,-8882.471304,2528.115143
572.945610,-2442.679609,-9622.677246,2681.334243
572.945932,-2886.803174,-10732.986159,2528.115143
572.946254,-3108.864956,-11473.192101,3217.601092
572.946577,-3701.029710,-11325.150913,2911.162892
572.946899,-3701.029710,-10732.986159,2374.896044
572.947221,-3034.844362,-10436.903782,1532.190996
572.947544,-1998.556043,-9992.780217,2374.896044
572.947866,-1184.329507,-8660.409521,3600.648841
572.948188,-518.144159,-8882.471304,3830.477490
572.948511,148.041188,-9178.553681,3830.477490
572.948833,0.000000,-9474.636058,3524.039291
572.949155,-740.205942,-8882.471304,2604.724693
572.949478,-1258.350101,-8808.450710,1991.848295
572.949800,-2220.617826,-9104.533087,1455.581446
572.950123,-2368.659014,-9104.533087,689.485948
572.950445,-2886.803174,-9030.512492,383.047749
572.950767,-2886.803174,-8882.471304,383.047749
572.951090,-2590.720797,-9326.594869,229.828649
572.951412,-2220.617826,-10066.800811,-995.924147
572.951734,-2664.741391,-9992.780217,0.000000
572.952057,-3034.844362,-9770.718434,-766.095498
572.952379,-2146.597232,-9770.718434,-1991.848295
572.952701,74.020594,-9992.780217,-1302.362347
572.953024,2442.679609,-9918.759623,-689.485948
572.953346,4515.256246,-9030.512492,0.000000
572.953668,5995.668130,-7698.141797,0.000000
572.953991,7031.956449,-7254.018232,0.000000
572.954313,7031.956449,-7698.141797,-919.314598
572.954636,6069.688724,-8512.368333,-2451.505594
572.954958,3182.885551,-8586.388927,-2528.115143
572.955280,370.102971,-8364.327145,-2451.505594
572.955603,-2220.617826,-9030.512492,-3217.601092
572.955925,-4071.132681,-11251.130318,-3447.429741
572.956247,-5625.565159,-11547.212695,-3524.039291
572.956570,-4885.359217,-11843.295072,-4060.306139
572.956892,-2516.700203,-11621.233289,-4213.525239
572.957214,740.205942,-13989.892304,-3217.601092
572.957537,3182.885551,-13989.892304,-766.095498
572.957859,4219.173869,-11473.192101,1302.362347
572.958181,5625.565159,-8956.491898,1915.238745
572.958504,7179.997637,-8660.409521,459.657299
572.958826,6957.935855,-7846.182985,0.000000
572.959149,4441.235652,-7031.956449,229.828649
572.959471,1184.329507,-5625.565159,1378.971896
572.959793,-2072.576638,-6143.709319,1762.019645
572.960116,-5181.441594,-6365.771101,-229.828649
572.960438,-7550.100608,-8068.244768,-3217.601092
572.960760,-9326.594869,-9844.739029,-4060.306139
572.961083,-9918.759623,-9918.759623,-4213.525239
572.961405,-8142.265362,-11547.212695,-4213.525239
572.961727,-6735.874072,-12583.501014,-4290.134789
572.962050,-3923.091493,-15026.180623,-2451.505594
572.962372,-2886.803174,-14434.015869,-1378.971896
572.962694,-1332.370696,-12509.480420,-2221.676944
572.963017,-222.061783,-10807.006753,-2757.943793
572.963339,222.061783,-9326.594869,-1915.238745
572.963661,-296.082377,-8068.244768,76.609550
572.963984,-1480.411884,-7402.059420,2221.676944
572.964306,-2220.617826,-7772.162391,3294.210641
572.964629,-2072.576638,-8734.430116,3140.991542
572.964951,-1850.514855,-8660.409521,3217.601092
572.965273,-1776.494261,-8364.327145,4213.525239
572.965596,-1628.453072,-8142.265362,5132.839837
572.965918,-1628.453072,-7698.141797,5286.058936
572.966240,-962.267725,-6661.853478,3830.477490
572.966563,74.020594,-5995.668130,2374.896044
572.966885,962.267725,-6661.853478,76.609550
572.967207,1924.535449,-8734.430116,0.000000
572.967530,2590.720797,-11251.130318,1455.581446
572.967852,3404.947333,-12213.398043,3370.820191
572.968174,3775.050304,-11917.315666,3370.820191
572.968497,3775.050304,-12361.439231,2145.067394
572.968819,2368.659014,-12361.439231,1991.848295
572.969142,444.123565,-10584.944971,2451.505594
572.969464,-2442.679609,-7920.203579,4136.915689
572.969786,-4515.256246,-6143.709319,4136.915689
572.970109,-5181.441594,-7105.977043,4136.915689
572.970431,-5033.400406,-8734.430116,3524.039291
572.970753,-3404.947333,-10436.903782,3447.429741
572.971076,-1332.370696,-11695.253884,3830.477490
572.971398,1850.514855,-11843.295072,5592.497135
572.971720,5255.462188,-10658.965565,5745.716235
572.972043,8290.306550,-8068.244768,3294.210641
572.972365,8512.368333,-6957.935855,2374.896044
572.972687,7476.080014,-7772.162391,4136.915689
572.973010,7402.059420,-7105.977043,5669.106685
572.973332,6809.894666,-6661.853478,1532.190996
572.973654,6291.750507,-10881.027347,-2604.724693
572.973977,5551.544565,-15692.365970,0.000000
572.974299,1406.391290,-12879.583391,2834.553343
572.974622,-5477.523971,-9622.677246,2757.943793
572.974944,-9178.553681,-11473.192101,2298.286494
572.975266,-10436.903782,-11103.089130,-689.485948
572.975588,-15026.180623,-10140.821405,-7124.688131
572.975911,-18727.210333,-10362.883188,-3983.696590
572.976233,-20429.683999,-9844.739029,3370.820191
572.976555,-16210.510130,-6439.791695,-383.047749
572.976878,-7994.224174,-6661.853478,-5745.716235
572.977200,888.247130,-7698.141797,-4749.792088
572.977522,6365.771101,-7624.121203,-3600.648841
572.977844,9474.636058,-8586.388927,-2221.676944
572.978167,11917.315666,-8290.306550,3907.087040
572.978489,11769.274478,-5995.668130,3370.820191
572.978811,10732.986159,-4885.359217,-6588.421283
572.979133,8512.368333,-10436.903782,-8044.002729
572.979456,4589.276840,-13767.830521,-1378.971896
572.979778,-2368.659014,-13619.789333,689.485948
572.980100,-8882.471304,-15100.201217,1762.019645
572.980422,-10955.047942,-13915.871710,3677.258390
572.980745,-12139.377449,-8660.409521,-1608.800546
572.981067,-10955.047942,-7254.018232,-7201.297681
572.981389,-6883.915261,-7105.977043,-5592.497135
572.981712,-2590.720797,-6735.874072,-229.828649
572.982034,1924.535449,-4293.194464,1072.533697
572.982356,7031.956449,-4737.318029,1378.971896
572.982678,9918.759623,-8068.244768,-383.047749
572.983001,9622.677246,-11325.150913,-4366.744339
572.983323,7328.038826,-13767.830521,-3677.258390
572.983645,4145.153275,-13545.768739,-1532.190996
572.983967,1702.473667,-13101.645173,-1991.848295
572.984290,-592.164754,-13323.706956,-4519.963438
572.984612,-2590.720797,-13027.624579,-3140.991542
572.984934,-5699.585753,-11991.336260,-2528.115143
572.985257,-5551.544565,-13989.892304,-3064.381992
572.985579,-5255.462188,-12583.501014,-1685.410096
572.985901,-3923.091493,-9474.636058,1302.362347
572.986223,-3923.091493,-4811.338623,2298.286494
572.986546,-2664.741391,-5181.441594,1072.533697
572.986868,0.000000,-6439.791695,536.266849
572.987190,1924.535449,-5625.565159,-766.095498
572.987512,1184.329507,-4737.318029,-306.438199
572.987835,592.164754,-7105.977043,3294.210641
572.988157,-444.123565,-9844.739029,5745.716235
572.988479,370.102971,-11473.192101,3294.210641
572.988802,2664.741391,-11917.315666,1072.533697
572.989124,3627.009116,-10214.842000,-459.657299
572.989446,3404.947333,-9104.533087,459.657299
572.989768,1702.473667,-8216.285956,3140.991542
572.990091,-222.061783,-9104.533087,5362.668486
572.990413,-1332.370696,-9770.718434,3217.601092
572.990735,-1850.514855,-10510.924376,842.705048
572.991057,-3182.885551,-10732.986159,1302.362347
572.991380,-5033.400406,-10881.027347,3907.087040
572.991702,-5551.544565,-10066.800811,6588.421283
572.992024,-3404.947333,-9030.512492,6205.373534
572.992346,-148.041188,-7254.018232,4060.306139
572.992669,2146.597232,-5033.400406,2528.115143
572.992991,2442.679609,-2812.782580,1991.848295
572.993313,2812.782580,-3701.029710,1149.143247
572.993636,2886.803174,-6883.915261,919.314598
572.993958,2368.659014,-11843.295072,1149.143247
572.994280,518.144159,-14434.015869,1608.800546
572.994602,-2960.823768,-14508.036463,842.705048
572.994925,-5921.647536,-14952.160028,-536.266849
572.995247,-6439.791695,-15840.407159,-1149.143247
572.995569,-6069.688724,-14804.118840,-229.828649
572.995891,-5477.523971,-12953.603985,2298.286494
572.996214,-5033.400406,-7772.162391,4213.525239
572.996536,-2664.741391,-6069.688724,2451.505594
572.996858,888.247130,-6809.894666,0.000000
572.997181,2812.782580,-8216.285956,-306.438199
572.997503,962.267725,-9474.636058,2451.505594
572.997825,-1036.288319,-8438.347739,5745.716235
572.998147,-222.061783,-7328.038826,4366.744339
572.998470,2146.597232,-6809.894666,306.438199
572.998792,3849.070898,-6735.874072,-1685.410096
572.999114,4441.235652,-7328.038826,76.609550
572.999436,4293.194464,-7476.080014,689.485948
572.999759,4737.318029,-8438.347739,-766.095498
573.000081,3627.009116,-11547.212695,-2221.676944
573.000403,148.041188,-14211.954086,-1225.752797
573.000726,-4737.318029,-14508.036463,153.219100
573.001048,-7550.100608,-12287.418637,-1685.410096
573.001370,-6143.709319,-11177.109724,-4673.182538
573.001692,-3701.029710,-10214.842000,-4060.306139
573.002015,-1036.288319,-9548.656652,306.438199
573.002337,370.102971,-7031.956449,4366.744339
573.002659,2368.659014,-5995.668130,3907.087040
573.002981,3849.070898,-7402.059420,919.314598
573.003304,2368.659014,-9104.533087,306.438199
573.003626,-1184.329507,-9104.533087,2221.676944
573.003948,-2294.638420,-7698.141797,1455.581446
573.004270,962.267725,-7105.977043,-1762.019645
573.004593,4811.338623,-7624.121203,-2834.553343
573.004915,5625.565159,-8586.388927,-1991.848295
573.005237,4589.276840,-10436.903782,-766.095498
573.005560,2368.659014,-13693.809927,0.000000
573.005882,-370.102971,-14804.118840,-612.876398
573.006204,-4737.318029,-13841.851115,-2528.115143
573.006526,-8142.265362,-12509.480420,-4213.525239
573.006849,-8364.327145,-11917.315666,-5975.544884
573.007171,-6883.915261,-10658.965565,-4136.915689
573.007493,-5403.503377,-9844.739029,153.219100
573.007815,-4441.235652,-9918.759623,2987.772442
573.008138,-3108.864956,-9548.656652,3064.381992
573.008460,-1776.494261,-8068.244768,2604.724693
573.008782,-814.226536,-6069.688724,2451.505594
573.009105,814.226536,-4737.318029,766.095498
573.009427,3182.885551,-3923.091493,-766.095498
573.009749,4441.235652,-3849.070898,1302.362347
573.010071,3404.947333,-5921.647536,4366.744339
573.010394,2146.597232,-8882.471304,4290.134789
573.010716,1998.556043,-12139.377449,-1225.752797
573.011038,370.102971,-13101.645173,-4213.525239
573.011360,-1924.535449,-12509.480420,-2757.943793
573.011683,-2368.659014,-11695.253884,-1149.143247
573.012005,-2664.741391,-11103.089130,-2451.505594
573.012327,-2664.741391,-10214.842000,-2145.067394
573.012650,-4515.256246,-9474.636058,0.000000
573.012972,-5773.606348,-10066.800811,459.657299
573.013294,-5477.523971,-11399.171507,-1302.362347
573.013616,-4737.318029,-11325.150913,-306.438199
573.013939,-4663.297435,-9844.739029,3677.258390
573.014261,-2368.659014,-8808.450710,4596.572988
573.014583,2294.638420,-7846.182985,3140.991542
573.014905,4959.379811,-4885.359217,2451.505594
573.015228,4367.215058,-1776.494261,1532.190996
573.015550,3256.906145,-3997.112087,459.657299
573.015872,2960.823768,-8882.471304,0.000000
573.016194,2368.659014,-11399.171507,383.047749
573.016517,740.205942,-13027.624579,-459.657299
573.016839,666.185348,-15692.365970,-2068.457845
573.017161,1554.432478,-16580.613101,-1608.800546
573.017484,296.082377,-13841.851115,0.000000
573.017806,-814.226536,-11251.130318,842.705048
573.018128,-1110.308913,-10955.047942,306.438199
573.018450,-962.267725,-9844.739029,229.828649
573.018773,-1702.473667,-7698.141797,76.609550
573.019095,-1850.514855,-9548.656652,1225.752797
573.019417,-740.205942,-12213.398043,4136.915689
573.019739,1998.556043,-9474.636058,6358.592633
573.020062,3923.091493,-3701.029710,4673.182538
573.020384,4293.194464,-1406.391290,1685.410096
573.020706,3256.906145,-1702.473667,2221.676944
573.021029,444.123565,-1924.535449,3524.039291
573.021351,-2146.597232,-4293.194464,306.438199
573.021673,-3182.885551,-9992.780217,-3524.039291
573.021995,-3923.091493,-13619.789333,-3064.381992
573.022318,-4367.215058,-14804.118840,-1225.752797
573.022640,-6217.729913,-17024.736666,-1302.362347
573.022962,-6365.771101,-18727.210333,-842.705048
573.023284,-5477.523971,-15174.221811,-153.219100
573.023607,-3701.029710,-10510.924376,-1378.971896
573.023929,-1702.473667,-8734.430116,-1991.848295
573.024251,592.164754,-5403.503377,995.924147
573.024574,3478.967927,-2146.597232,612.876398
573.024896,5403.503377,-3627.009116,-383.047749
573.025218,5921.647536,-8438.347739,2451.505594
573.025540,4589.276840,-12287.418637,4290.134789
573.025863,2812.782580,-12139.377449,1991.848295
573.026185,1406.391290,-11325.150913,-842.705048
573.026507,1480.411884,-9252.574275,-2451.505594
573.026829,1480.411884,-6809.894666,-3677.258390
573.027152,518.144159,-6587.832884,-3753.867940
573.027474,-2812.782580,-7772.162391,-2681.334243
573.027796,-4293.194464,-11991.336260,-1762.019645
573.028118,-5329.482782,-15840.407159,-3983.696590
573.028441,-6735.874072,-17912.983796,-4519.963438
573.028763,-7105.977043,-16062.468941,-3217.601092
573.029085,-3849.070898,-12361.439231,-3294.210641
573.029408,0.000000,-8438.347739,-3524.039291
573.029730,1776.494261,-4885.359217,-2298.286494
573.030052,1406.391290,-3182.885551,0.000000
573.030374,592.164754,-3108.864956,0.000000
573.030697,148.041188,-4737.318029,-2145.067394
573.031019,-814.226536,-6957.935855,-4749.792088
573.031341,-2812.782580,-9104.533087,-4290.134789
573.031663,-3849.070898,-11843.295072,-1915.238745
573.031986,-2516.700203,-13619.789333,459.657299
573.032308,-296.082377,-13619.789333,0.000000
573.032630,1110.308913,-11621.233289,-1225.752797
573.032953,1924.535449,-8808.450710,-1302.362347
573.033275,2072.576638,-5107.421000,-1378.971896
573.033597,2738.761985,-5033.400406,-1762.019645
573.033919,4219.173869,-6439.791695,-2068.457845
573.034242,4737.318029,-6735.874072,-1149.143247
573.034564,3923.091493,-7105.977043,-536.266849
573.034886,1924.535449,-9252.574275,1072.533697
573.035208,-222.061783,-9992.780217,689.485948
573.035531,-2886.803174,-9252.574275,-2221.676944
573.035853,-4959.379811,-8290.306550,-3524.039291
573.036175,-5255.462188,-7920.203579,-4443.353888
573.036498,-4145.153275,-9844.739029,-4673.182538
573.036820,-3775.050304,-9622.677246,-1685.410096
573.037142,-3849.070898,-9622.677246,0.000000
573.037464,-3108.864956,-9474.636058,-2528.115143
573.037787,-814.226536,-10288.862594,-5975.544884
573.038109,0.000000,-12065.356855,-6281.983084
573.038431,-148.041188,-11843.295072,-4136.915689
573.038753,222.061783,-11917.315666,-1225.752797
573.039076,1184.329507,-11917.315666,1149.143247
573.039398,1776.494261,-10510.924376,995.924147
573.039720,2072.576638,-9178.553681,-766.095498
573.040043,2812.782580,-8882.471304,-1991.848295
573.040365,3330.926739,-8734.430116,-1762.019645
573.040687,3849.070898,-10214.842000,-153.219100
573.041009,3330.926739,-12435.459826,4060.306139
573.041332,3182.885551,-10955.047942,5439.278036
573.041654,2590.720797,-9474.636058,1762.019645
573.041976,1998.556043,-10510.924376,-2757.943793
573.042298,-222.061783,-9252.574275,-1762.019645
573.042621,-2442.679609,-6069.688724,-766.095498
573.042943,-3034.844362,-5477.523971,-1455.581446
573.043265,-3034.844362,-8216.285956,-1149.143247
573.043587,-5107.421000,-9474.636058,76.609550
573.043910,-7624.121203,-10510.924376,-383.047749
573.044232,-8512.368333,-12435.459826,-2451.505594
573.044554,-7994.224174,-12287.418637,-3370.820191
573.044877,-5995.668130,-10732.986159,-3600.648841
573.045199,-3849.070898,-10066.800811,-1915.238745
573.045521,-1776.494261,-8438.347739,612.876398
573.045843,444.123565,-6291.750507,1302.362347
573.046166,1924.535449,-5477.523971,459.657299
573.046488,3108.864956,-3775.050304,-306.438199
573.046810,4367.215058,-2812.782580,-1685.410096
573.047132,4737.318029,-4441.235652,-2451.505594
573.047455,4663.297435,-8142.265362,0.000000
573.047777,3108.864956,-9844.739029,2298.286494
573.048099,962.267725,-11029.068536,1072.533697
573.048422,-518.144159,-12731.542202,-383.047749
573.048744,-592.164754,-12953.603985,-1302.362347
573.049066,518.144159,-11103.089130,-3600.648841
573.049388,2960.823768,-9326.594869,-4060.306139
573.049711,5107.421000,-7402.059420,-1991.848295
573.050033,6143.709319,-6661.853478,-1149.143247
573.050355,4737.318029,-8660.409521,-1915.238745
573.050677,1036.288319,-10584.944971,-1685.410096
573.051000,-2516.700203,-10881.027347,-3677.258390
573.051322,-4589.276840,-10658.965565,-6818.249932
573.051644,-4589.276840,-10214.842000,-6435.202183
573.051967,-4145.153275,-8660.409521,-4826.401637
573.052289,-4663.297435,-8438.347739,-3753.867940
573.052611,-6365.771101,-11547.212695,-2681.334243
573.052933,-7772.162391,-12583.501014,-2298.286494
573.053256,-7994.224174,-13323.706956,-5056.230287
573.053578,-7254.018232,-12509.480420,-6052.154434
573.053900,-4515.256246,-11399.171507,-4826.401637
573.054222,-666.185348,-8216.285956,-4749.792088
573.054545,3182.885551,-6291.750507,-3983.696590
573.054867,5403.503377,-6217.729913,-842.705048
573.055189,6365.771101,-6735.874072,1072.533697
573.055511,5699.585753,-8512.368333,-1149.143247
573.055834,3775.050304,-10436.903782,-2911.162892
573.056156,1850.514855,-9770.718434,-2528.115143
573.056478,370.102971,-9622.677246,-2298.286494
573.056801,888.247130,-10807.006753,-1225.752797
573.057123,1850.514855,-10214.842000,995.924147
573.057445,1184.329507,-9622.677246,229.828649
573.057767,444.123565,-9696.697840,995.924147
573.058090,444.123565,-9252.574275,536.266849
573.058412,1702.473667,-6513.812290,-1915.238745
573.058734,3478.967927,-5255.462188,-3983.696590
573.059056,3997.112087,-4811.338623,-2298.286494
573.059379,3108.864956,-4737.318029,-919.314598
573.059701,444.123565,-6217.729913,-153.219100
573.060023,-1998.556043,-8734.430116,306.438199
573.060346,-3997.112087,-10807.006753,-2298.286494
573.060668,-6661.853478,-11843.295072,-5822.325785
573.060990,-8586.388927,-13545.768739,-5439.278036
573.061312,-8290.306550,-12953.603985,-1762.019645
573.061635,-6365.771101,-11621.233289,-2068.457845
573.061957,-3034.844362,-12287.418637,-2528.115143
573.062279,-1998.556043,-10955.047942,-612.876398
573.062601,-2516.700203,-8586.388927,-919.314598
573.062924,-2738.761985,-8512.368333,-1991.848295
573.063246,-518.144159,-9622.677246,-2298.286494
573.063568,1406.391290,-8882.471304,-2681.334243
573.063891,2516.700203,-8290.306550,-1762.019645
573.064213,3108.864956,-9548.656652,2145.067394
573.064535,3552.988522,-9696.697840,2757.943793
573.064857,2368.659014,-9770.718434,306.438199
573.065180,148.041188,-10214.842000,-306.438199
573.065502,-518.144159,-9622.677246,0.000000
573.065824,444.123565,-8364.327145,-2145.067394
573.066146,1998.556043,-9844.739029,-2298.286494
573.066469,2442.679609,-11399.171507,995.924147
573.066791,1258.350101,-10140.821405,2145.067394
573.067113,0.000000,-10288.862594,229.828649
573.067435,-370.102971,-10584.944971,-919.314598
573.067758,0.000000,-8882.471304,-2145.067394
573.068080,-148.041188,-6513.812290,-4060.306139
573.068402,-740.205942,-5551.544565,-2451.505594
573.068725,-1776.494261,-6069.688724,842.705048
573.069047,-2960.823768,-7624.121203,612.876398
573.069369,-5255.462188,-9548.656652,-995.924147
573.069691,-6587.832884,-11621.233289,-1991.848295
573.070014,-5699.585753,-11621.233289,-2528.115143
573.070336,-2812.782580,-11695.253884,-2604.724693
573.070658,0.000000,-10436.903782,459.657299
573.070980,3182.885551,-7328.038826,1915.238745
573.071303,4959.379811,-4589.276840,76.609550
573.071625,5847.626942,-3849.070898,-1991.848295
573.071947,4885.359217,-5921.647536,-2834.553343
573.072270,3034.844362,-9030.512492,-2834.553343
573.072592,592.164754,-12139.377449,-842.705048
573.072914,-1332.370696,-13619.789333,612.876398
573.073236,-2738.761985,-14137.933492,-536.266849
573.073559,-3108.864956,-12583.501014,-1608.800546
573.073881,-1702.473667,-9474.636058,-1608.800546
573.074203,-666.185348,-6069.688724,-4060.306139
573.074525,222.061783,-6809.894666,-3907.087040
573.074848,-666.185348,-7772.162391,-1838.629195
573.075170,-888.247130,-9326.594869,-306.438199
573.075492,-888.247130,-11103.089130,-2068.457845
573.075815,0.000000,-11029.068536,-3447.429741
573.076137,1110.308913,-9178.553681,-3983.696590
573.076459,2294.638420,-7846.182985,-4519.963438
573.076782,2886.803174,-8438.347739,-2604.724693
573.077104,2146.597232,-9326.594869,-766.095498
573.077426,296.082377,-10288.862594,-1608.800546
573.077749,-2368.659014,-11917.315666,-2681.334243
573.078071,-4515.256246,-12213.398043,-2987.772442
573.078393,-4441.235652,-11843.295072,-4060.306139
573.078715,-2368.659014,-10955.047942,-3983.696590
573.079038,74.020594,-9030.512492,-919.314598
573.079360,2442.679609,-7105.977043,919.314598
573.079682,3182.885551,-6661.853478,-459.657299
573.080005,2886.803174,-6513.812290,-995.924147
573.080327,1036.288319,-6291.750507,-1608.800546
573.080649,-222.061783,-7402.059420,-3753.867940
573.080972,0.000000,-8364.327145,-3677.258390
573.081294,0.000000,-8734.430116,-2528.115143
573.081616,-2220.617826,-9548.656652,-1072.533697
573.081939,-3849.070898,-11251.130318,-612.876398
573.082261,-4663.297435,-12731.542202,-1072.533697
573.082583,-5403.503377,-11991.336260,-3983.696590
573.082906,-5107.421000,-12879.583391,-4290.134789
573.083228,-3627.009116,-11769.274478,-2221.676944
573.083550,-962.267725,-8956.491898,-1072.533697
573.083872,1184.329507,-6735.874072,-1915.238745
573.084195,2220.617826,-6439.791695,0.000000
573.084517,2590.720797,-6365.771101,612.876398
573.084839,2294.638420,-6291.750507,-1838.629195
573.085162,1332.370696,-8882.471304,-3524.039291
573.085484,444.123565,-10807.006753,-1225.752797
573.085806,-148.041188,-10288.862594,-459.657299
573.086129,-1258.350101,-9918.759623,0.000000
573.086451,-740.205942,-9622.677246,995.924147
573.086773,0.000000,-9474.636058,-919.314598
573.087096,0.000000,-9992.780217,-2834.553343
573.087418,-444.123565,-11399.171507,-919.314598
573.087740,-1184.329507,-10955.047942,0.000000
573.088063,0.000000,-9474.636058,-1685.410096
573.088385,1332.370696,-8364.327145,-2451.505594
573.088707,2590.720797,-7772.162391,-2298.286494
573.089030,2072.576638,-7105.977043,-2528.115143
573.089352,0.000000,-8364.327145,-1455.581446
573.089674,-1554.432478,-9252.574275,153.219100
573.089996,-1850.514855,-9548.656652,-2068.457845
573.090319,-3108.864956,-10584.944971,-4366.744339
573.090641,-4737.318029,-11399.171507,-2834.553343
573.090963,-4737.318029,-11473.192101,-612.876398
573.091286,-3404.947333,-10140.821405,-229.828649
573.091608,-1332.370696,-9992.780217,766.095498
573.091930,0.000000,-8068.244768,1072.533697
573.092253,1628.453072,-6291.750507,-1455.581446
573.092575,3108.864956,-6957.935855,-3064.381992
573.092897,3552.988522,-7328.038826,-2298.286494
573.093220,2886.803174,-7476.080014,-1532.190996
573.093542,2516.700203,-9474.636058,-842.705048
573.093864,1628.453072,-9844.739029,-383.047749
573.094187,0.000000,-10066.800811,-1378.971896
573.094509,-2368.659014,-11769.274478,-3983.696590
573.094831,-3775.050304,-13545.768739,-3524.039291
573.095153,-4811.338623,-12583.501014,-1915.238745
573.095476,-3701.029710,-12435.459826,-1915.238745
573.095798,-2664.741391,-11029.068536,-1532.190996
573.096120,-740.205942,-8882.471304,0.000000
573.096443,888.247130,-6217.729913,-689.485948
573.096765,2664.741391,-5921.647536,-1532.190996
573.097087,4071.132681,-5773.606348,-2145.067394
573.097410,3552.988522,-6587.832884,-1532.190996
573.097732,2294.638420,-8512.368333,536.266849
573.098054,814.226536,-9770.718434,1838.629195
573.098377,148.041188,-9992.780217,0.000000
573.098699,-740.205942,-10584.944971,-2451.505594
573.099021,-1332.370696,-10732.986159,-1072.533697
573.099344,-2146.597232,-9992.780217,0.000000
573.099666,-2146.597232,-9770.718434,-383.047749
573.099988,-1184.329507,-9992.780217,-459.657299
573.100311,-222.061783,-8882.471304,0.000000
573.100633,592.164754,-8364.327145,-842.705048
573.100955,148.041188,-8068.244768,-2451.505594
573.101277,444.123565,-7772.162391,-1991.848295
573.101600,1110.308913,-7994.224174,-2068.457845
573.101922,1628.453072,-9104.533087,-1991.848295
573.102244,222.061783,-10214.842000,-1225.752797
573.102567,-2368.659014,-10288.862594,-1225.752797
573.102889,-4885.359217,-11769.274478,-1685.410096
573.103211,-5625.565159,-11547.212695,-1225.752797
573.103534,-5773.606348,-9844.739029,-2451.505594
573.103856,-3330.926739,-9548.656652,-4213.525239
573.104178,-1702.473667,-9178.553681,-2374.896044
573.104501,-814.226536,-8882.471304,0.000000
573.104823,-666.185348,-8290.306550,-229.828649
573.105145,-296.082377,-8808.450710,-2298.286494
573.105468,296.082377,-8290.306550,-2834.553343
573.105790,1702.473667,-7994.224174,-3294.210641
573.106112,2886.803174,-9104.533087,-3370.820191
573.106434,3404.947333,-9696.697840,-1149.143247
573.106757,4071.132681,-9622.677246,76.609550
573.107079,3182.885551,-10362.883188,-1225.752797
573.107401,814.226536,-11103.089130,-1378.971896
573.107724,-148.041188,-12065.356855,-2068.457845
573.108046,-1184.329507,-12065.356855,-3370.820191
573.108368,-592.164754,-11621.233289,-2298.286494
573.108691,444.123565,-9770.718434,-919.314598
573.109013,1628.453072,-6365.771101,-1455.581446
573.109335,1998.556043,-5181.441594,-1378.971896
573.109658,1480.411884,-7179.997637,-229.828649
573.109980,-740.205942,-7994.224174,-995.924147
573.110302,-2812.782580,-8364.327145,-1991.848295
573.110625,-3182.885551,-7550.100608,-2451.505594
573.110947,-2294.638420,-7105.977043,-2987.772442
573.111269,-2664.741391,-8216.285956,-4060.306139
573.111591,-3923.091493,-10732.986159,-2145.067394
573.111914,-5699.585753,-11843.295072,-536.266849
573.112236,-4959.379811,-12879.583391,-2604.724693
573.112558,-3330.926739,-12583.501014,-4903.011187
573.112881,-1110.308913,-10066.800811,-4060.306139
573.113203,370.102971,-7105.977043,-3600.648841
573.113525,2368.659014,-6883.915261,-3370.820191
573.113848,2738.761985,-8438.347739,-1378.971896
573.114170,1776.494261,-9252.574275,-229.828649
573.114492,592.164754,-11029.068536,-689.485948
573.114815,-592.164754,-10881.027347,-1072.533697
573.115137,-296.082377,-9918.759623,-1608.800546
573.115459,370.102971,-9326.594869,-2528.115143
573.115782,2072.576638,-8734.430116,-689.485948
573.116104,3923.091493,-7994.224174,2068.457845
573.116426,3108.864956,-8364.327145,1762.019645
573.116749,888.247130,-9696.697840,1072.533697
573.117071,-1554.432478,-9326.594869,1455.581446
573.117393,-1998.556043,-8956.491898,-842.705048
573.117715,-888.247130,-8290.306550,-3370.820191
573.118038,222.061783,-8364.327145,-2298.286494
573.118360,444.123565,-8290.306550,612.876398
573.118682,370.102971,-9400.615463,1225.752797
573.119005,-814.226536,-9326.594869,76.609550
573.119327,-2368.659014,-10140.821405,-2528.115143
573.119649,-4219.173869,-10955.047942,-5515.887586
573.119972,-5995.668130,-11103.089130,-5132.839837
573.120294,-6069.688724,-11103.089130,-2221.676944
573.120616,-3478.967927,-10955.047942,76.609550
573.120939,-1332.370696,-11843.295072,459.657299
573.121261,-666.185348,-10066.800811,1608.800546
573.121583,-962.267725,-7254.018232,995.924147
573.121906,-148.041188,-7105.977043,-1455.581446
573.122228,1258.350101,-6883.915261,-1991.848295
573.122550,2738.761985,-5033.400406,-1149.143247
573.122872,3552.988522,-4737.318029,0.000000
573.123195,4515.256246,-7031.956449,0.000000
573.123517,3404.947333,-8808.450710,842.705048
573.123839,962.267725,-11843.295072,-536.266849
573.124162,-1554.432478,-14730.098246,-1072.533697
573.124484,-2146.597232,-13767.830521,-1532.190996
573.124806,-296.082377,-11843.295072,-2681.334243
573.125129,2072.576638,-10140.821405,-1991.848295
573.125451,4219.173869,-8068.244768,-306.438199
573.125773,3997.112087,-6069.688724,-995.924147
573.126096,2442.679609,-7105.977043,-2451.505594
573.126418,666.185348,-8808.450710,-3447.429741
573.126740,-1554.432478,-10214.842000,-4366.744339
573.127063,-3256.906145,-11399.171507,-4519.963438
573.127385,-3256.906145,-9918.759623,-2757.943793
573.127707,-2220.617826,-8068.244768,-1838.629195
573.128030,-1332.370696,-7846.182985,-1838.629195
573.128352,-3330.926739,-9326.594869,-1838.629195
573.128674,-5107.421000,-11103.089130,-1072.533697
573.128996,-6439.791695,-10658.965565,-2374.896044
573.129319,-3775.050304,-11325.150913,-3983.696590
573.129641,74.020594,-9918.759623,-3830.477490
573.129963,2442.679609,-7846.182985,-2987.772442
573.130286,3404.947333,-7698.141797,-1072.533697
573.130608,2886.803174,-7772.162391,383.047749
573.130930,1110.308913,-9326.594869,229.828649
573.131253,-222.061783,-11473.192101,-1455.581446
573.131575,-740.205942,-11325.150913,-2604.724693
573.131897,-592.164754,-8438.347739,-2221.676944
573.132220,222.061783,-6513.812290,-2068.457845
573.132542,888.247130,-6069.688724,-1991.848295
573.132864,814.226536,-6069.688724,-995.924147
573.133187,0.000000,-8956.491898,-842.705048
573.133509,-1628.453072,-12287.418637,-1991.848295
573.133831,-3627.009116,-13619.789333,-1838.629195
573.134153,-3923.091493,-11769.274478,-1838.629195
573.134476,-1628.453072,-9400.615463,-3600.648841
573.134798,740.205942,-5995.668130,-3983.696590
573.135120,1998.556043,-3478.967927,-1532.190996
573.135443,2442.679609,-3849.070898,-689.485948
573.135765,370.102971,-6735.874072,-1149.143247
573.136087,-2738.761985,-10362.883188,-1455.581446
573.136410,-6439.791695,-13989.892304,-2757.943793
573.136732,-7550.100608,-15840.407159,-3370.820191
573.137054,-5551.544565,-14952.160028,-2221.676944
573.137377,-1924.535449,-11843.295072,-1608.800546
573.137699,1406.391290,-8956.491898,-1378.971896
573.138021,3256.906145,-5773.606348,612.876398
573.138344,4293.194464,-3775.050304,1378.971896
573.138666,4515.256246,-6513.812290,-1685.410096
573.138988,3256.906145,-9844.739029,-3600.648841
573.139311,74.020594,-12139.377449,-1378.971896
573.139633,-814.226536,-13101.645173,1225.752797
573.139955,148.041188,-11991.336260,1072.533697
573.140277,1110.308913,-9474.636058,229.828649
573.140600,1110.308913,-8438.347739,-919.314598
573.140922,74.020594,-8142.265362,-306.438199
573.141244,-2072.576638,-7698.141797,-1455.581446
573.141567,-2294.638420,-10584.944971,-2221.676944
573.141889,-1924.535449,-12361.439231,-153.219100
573.142211,-1184.329507,-9918.759623,995.924147
573.142534,-296.082377,-7031.956449,-306.438199
573.142856,370.102971,-7179.997637,-1838.629195
573.143178,444.123565,-9400.615463,-766.095498
573.143501,222.061783,-8882.471304,-612.876398
573.143823,-592.164754,-8956.491898,-2298.286494
573.144145,-1628.453072,-9474.636058,-2834.553343
573.144468,-2220.617826,-9326.594869,-1608.800546
573.144790,-1776.494261,-7994.224174,-919.314598
573.145112,-1332.370696,-8586.388927,-2298.286494
573.145434,-1406.391290,-8956.491898,-2145.067394
573.145757,-222.061783,-10214.842000,-1378.971896
573.146079,-222.061783,-11843.295072,-306.438199
573.146401,-518.144159,-11695.253884,1455.581446
573.146724,-296.082377,-10214.842000,229.828649
573.147046,740.205942,-9474.636058,-2068.457845
573.147368,2368.659014,-7254.018232,-612.876398
573.147691,3256.906145,-5181.441594,-612.876398
573.148013,2072.576638,-5625.565159,-1225.752797
573.148335,888.247130,-7402.059420,-153.219100
573.148658,-518.144159,-8882.471304,0.000000
573.148980,-2220.617826,-10066.800811,-2834.553343
573.149302,-3849.070898,-11843.295072,-3830.477490
573.149625,-4589.276840,-12657.521608,-2145.067394
573.149947,-2812.782580,-12509.480420,-1532.190996
573.150269,-1480.411884,-11325.150913,-1685.410096
573.150592,-592.164754,-9474.636058,-153.219100
573.150914,0.000000,-6513.812290,-1225.752797
573.151236,74.020594,-5329.482782,-2911.162892
573.151558,962.267725,-5847.626942,-2681.334243
573.151881,1110.308913,-7624.121203,-2374.896044
573.152203,296.082377,-9474.636058,-2298.286494
573.152525,-592.164754,-11547.212695,-689.485948
573.152848,-592.164754,-11547.212695,76.609550
573.153170,-370.102971,-11029.068536,-1915.238745
573.153492,-814.226536,-10214.842000,-4213.525239
573.153815,-1924.535449,-8364.327145,-3064.381992
573.154137,-444.123565,-7105.977043,-842.705048
573.154459,2146.597232,-7698.141797,-2834.553343
573.154782,2294.638420,-8290.306550,-3370.820191
573.155104,1480.411884,-9770.718434,-2834.553343
573.155426,592.164754,-11621.233289,-2681.334243
573.155749,-740.205942,-12139.377449,-3370.820191
573.156071,-2072.576638,-12583.501014,-2987.772442
573.156393,-1628.453072,-11991.336260,-2604.724693
573.156715,-888.247130,-8882.471304,-3064.381992
573.157038,-370.102971,-5921.647536,-2987.772442
573.157360,-1554.432478,-6883.915261,-2221.676944
573.157682,-2738.761985,-8068.244768,-1302.362347
573.158005,-4145.153275,-8882.471304,-612.876398
573.158327,-3552.988522,-10362.883188,-2681.334243
573.158649,-1258.350101,-13175.665768,-4136.915689
573.158972,222.061783,-12361.439231,-2528.115143
573.159294,1850.514855,-8882.471304,229.828649
573.159616,3552.988522,-6883.915261,-153.219100
573.159939,4885.359217,-7105.977043,-2681.334243
573.160261,4145.153275,-7328.038826,-3524.039291
573.160583,1776.494261,-7920.203579,-3064.381992
573.160906,-370.102971,-9326.594869,-2834.553343
573.161228,-962.267725,-10807.006753,-2145.067394
573.161550,-1702.473667,-12879.583391,-3217.601092
573.161872,-3034.844362,-13767.830521,-1915.238745
573.162195,-4885.359217,-11917.315666,0.000000
573.162517,-4959.379811,-10510.924376,0.000000
573.162839,-3034.844362,-8956.491898,-1991.848295
573.163162,-740.205942,-6735.874072,-1608.800546
573.163484,518.144159,-4219.173869,-1072.533697
573.163806,1850.514855,-4293.194464,-1378.971896
573.164129,2368.659014,-6365.771101,-1225.752797
573.164451,2072.576638,-7105.977043,153.219100
573.164773,2294.638420,-8364.327145,0.000000
573.165096,1332.370696,-10807.006753,-2298.286494
573.165418,0.000000,-11843.295072,-1762.019645
573.165740,-1850.514855,-13101.645173,0.000000
573.166063,-2368.659014,-12879.583391,0.000000
573.166385,-2294.638420,-9622.677246,-1149.143247
573.166707,-1628.453072,-7994.224174,-1915.238745
573.167030,-444.123565,-7920.203579,-1838.629195
573.167352,444.123565,-7624.121203,76.609550
573.167674,888.247130,-6587.832884,1608.800546
573.167996,962.267725,-8586.388927,536.266849
573.168319,962.267725,-9696.697840,76.609550
573.168641,-592.164754,-9030.512492,229.828649
573.168963,-1554.432478,-9696.697840,-612.876398
573.169286,-2220.617826,-9696.697840,-1378.971896
573.169608,-2294.638420,-8068.244768,-1455.581446
573.169930,-1332.370696,-8216.285956,-1608.800546
573.170253,-1850.514855,-9622.677246,-3064.381992
573.170575,-3034.844362,-9696.697840,-2834.553343
573.170897,-3330.926739,-11399.171507,-1991.848295
573.171220,-1850.514855,-13027.624579,-1915.238745
573.171542,-518.144159,-11991.336260,-2374.896044
573.171864,740.205942,-10658.965565,-2221.676944
573.172187,1628.453072,-11473.192101,-306.438199
573.172509,2146.597232,-10510.924376,689.485948
573.172831,2590.720797,-8142.265362,383.047749
573.173153,3701.029710,-7031.956449,-1685.410096
573.173476,4441.235652,-7698.141797,-1225.752797
573.173798,4071.132681,-6069.688724,919.314598
573.174120,3330.926739,-5699.585753,1225.752797
573.174443,1258.350101,-8068.244768,-842.705048
573.174765,-1924.535449,-9770.718434,-1225.752797
573.175087,-4293.194464,-11177.109724,-1225.752797
573.175410,-5181.441594,-13471.748144,-2757.943793
573.175732,-5181.441594,-13693.809927,-2834.553343
573.176054,-3997.112087,-11103.089130,-1915.238745
573.176377,-888.247130,-7105.977043,-1532.190996
573.176699,1702.473667,-3923.091493,-2911.162892
573.177021,1554.432478,-3404.947333,-3753.867940
573.177344,0.000000,-5847.626942,-3600.648841
573.177666,-1924.535449,-8882.471304,-2757.943793
573.177988,-3775.050304,-11621.233289,-2298.286494
573.178311,-5477.523971,-12879.583391,-2528.115143
573.178633,-6735.874072,-12583.501014,-2221.676944
573.178955,-4885.359217,-10658.965565,-995.924147
573.179277,-1776.494261,-7254.018232,-1762.019645
573.179600,2220.617826,-6217.729913,-2987.772442
573.179922,3182.885551,-6069.688724,-1455.581446
573.180244,3627.009116,-6587.832884,1838.629195
573.180567,3182.885551,-6957.935855,-689.485948
573.180889,3108.864956,-8660.409521,-4366.744339
573.181211,3627.009116,-10955.047942,-4596.572988
573.181534,4145.153275,-11251.130318,-4596.572988
573.181856,4737.318029,-11325.150913,-2298.286494
573.182178,4071.132681,-11843.295072,-995.924147
573.182501,1924.535449,-12953.603985,-383.047749
573.182823,-740.205942,-13027.624579,-2604.724693
573.183145,-2812.782580,-11399.171507,-4060.306139
573.183467,-4293.194464,-8808.450710,-4596.572988
573.183790,-3478.967927,-7994.224174,-5439.278036
573.184112,-2294.638420,-8734.430116,-3907.087040
573.184434,-1776.494261,-8808.450710,0.000000
573.184757,-1702.473667,-9474.636058,0.000000
573.185079,-2146.597232,-10362.883188,-3140.991542
573.185401,-2738.761985,-10807.006753,-4136.915689
573.185724,-3404.947333,-10510.924376,-2911.162892
573.186046,-2664.741391,-9030.512492,-2911.162892
573.186368,-1110.308913,-7328.038826,-2528.115143
573.186691,222.061783,-5773.606348,-2068.457845
573.187013,-370.102971,-6439.791695,-1838.629195
573.187335,-2220.617826,-9696.697840,-919.314598
573.187658,-3701.029710,-13101.645173,-153.219100
573.187980,-3849.070898,-15840.407159,-1532.190996
573.188302,-2294.638420,-15470.304188,-995.924147
573.188624,444.123565,-11177.109724,1072.533697
573.188947,3997.112087,-4959.379811,689.485948
573.189269,6809.894666,-1998.556043,-459.657299
573.189591,6661.853478,-1554.432478,1072.533697
573.189914,4885.359217,-3330.926739,2528.115143
573.190236,2294.638420,-6661.853478,1149.143247
573.190558,-370.102971,-10584.944971,0.000000
573.190881,-2368.659014,-11917.315666,612.876398
573.191203,-2738.761985,-11769.274478,-383.047749
573.191525,-2072.576638,-10436.903782,-1149.143247
573.191848,-740.205942,-9400.615463,-1225.752797
573.192170,-666.185348,-9252.574275,-1302.362347
573.192492,-1480.411884,-9844.739029,0.000000
573.192815,-3478.967927,-9104.533087,-306.438199
573.193137,-3478.967927,-8808.450710,-3524.039291
573.193459,-1924.535449,-10288.862594,-5515.887586
573.193781,592.164754,-10658.965565,-2834.553343
573.194104,2590.720797,-9474.636058,0.000000
573.194426,2294.638420,-8364.327145,-306.438199
573.194748,1480.411884,-9992.780217,689.485948
573.195071,-222.061783,-10510.924376,306.438199
573.195393,-2220.617826,-10807.006753,-2221.676944
573.195715,-3701.029710,-11325.150913,-3370.820191
573.196038,-4293.194464,-10214.842000,-2221.676944
573.196360,-2220.617826,-9918.759623,-612.876398
573.196682,0.000000,-8660.409521,842.705048
573.197005,1702.473667,-7105.977043,689.485948
573.197327,2368.659014,-7624.121203,-1455.581446
573.197649,1628.453072,-9844.739029,-3524.039291
573.197972,0.000000,-11177.109724,-2834.553343
573.198294,-1184.329507,-10807.006753,-2834.553343
573.198616,-592.164754,-10881.027347,-3753.867940
573.198938,1332.370696,-10732.986159,-2757.943793
573.199261,2072.576638,-9030.512492,-1455.581446
573.199583,1036.288319,-7550.100608,-2221.676944
573.199905,-1554.432478,-8956.491898,-2757.943793
573.200228,-3923.091493,-10955.047942,-2145.067394
573.200550,-3627.009116,-13027.624579,-1302.362347
573.200872,-3701.029710,-12213.398043,-2451.505594
573.201195,-3034.844362,-9548.656652,-1455.581446
573.201517,-1554.432478,-6587.832884,-842.705048
573.201839,1480.411884,-3404.947333,-1608.800546
573.202162,3701.029710,-3034.844362,-2911.162892
573.202484,3404.947333,-4885.359217,-2451.505594
573.202806,1406.391290,-7550.100608,-1685.410096
573.203128,0.000000,-10214.842000,-1455.581446
573.203451,-1702.473667,-11547.212695,-1149.143247
573.203773,-1332.370696,-12657.521608,-2451.505594
573.204095,-962.267725,-11473.192101,-4596.572988
573.204418,-1184.329507,-9030.512492,-3753.867940
573.204740,296.082377,-9548.656652,-2145.067394
573.205062,444.123565,-10214.842000,-1915.238745
573.205385,296.082377,-10658.965565,-2221.676944
573.205707,-148.041188,-9992.780217,-1991.848295
573.206029,444.123565,-9104.533087,-3217.601092
573.206352,1184.329507,-7698.141797,-4749.792088
573.206674,1554.432478,-7254.018232,-3447.429741
573.206996,1850.514855,-8808.450710,-1455.581446
573.207319,592.164754,-9326.594869,-842.705048
573.207641,-1406.391290,-10362.883188,-1302.362347
573.207963,-3108.864956,-12361.439231,-2374.896044
573.208285,-4737.318029,-11621.233289,-3983.696590
573.208608,-4071.132681,-10881.027347,-3294.210641
573.208930,-1628.453072,-9252.574275,-2681.334243
573.209252,1258.350101,-9178.553681,-2068.457845
573.209575,1776.494261,-8956.491898,459.657299
573.209897,962.267725,-9474.636058,2221.676944
573.210219,-592.164754,-10881.027347,766.095498
573.210542,-888.247130,-10732.986159,-1685.410096
573.210864,-592.164754,-9474.636058,-1762.019645
573.211186,1554.432478,-7920.203579,-1455.581446
573.211509,2590.720797,-5699.585753,-612.876398
573.211831,2368.659014,-4737.318029,1608.800546
573.212153,592.164754,-6365.771101,2757.943793
573.212476,-2368.659014,-8438.347739,459.657299
573.212798,-5625.565159,-10658.965565,-2221.676944
573.213120,-6809.894666,-12657.521608,-2374.896044
573.213442,-5107.421000,-12139.377449,-2068.457845
573.213765,-2146.597232,-9622.677246,-229.828649
573.214087,1332.370696,-6883.915261,-306.438199
573.214409,2590.720797,-6587.832884,-383.047749
573.214732,1776.494261,-7328.038826,153.219100
573.215054,740.205942,-8734.430116,229.828649
573.215376,-518.144159,-9400.615463,-2221.676944
573.215699,-518.144159,-10955.047942,-4366.744339
573.216021,370.102971,-10362.883188,-1455.581446
573.216343,1332.370696,-9400.615463,1149.143247
573.216666,1184.329507,-8882.471304,1378.971896
573.216988,518.144159,-8882.471304,459.657299
573.217310,0.000000,-9696.697840,-919.314598
573.217633,0.000000,-10436.903782,-2374.896044
573.217955,-592.164754,-11029.068536,-2911.162892
573.218277,-592.164754,-10066.800811,-1762.019645
573.218599,1110.308913,-9474.636058,-689.485948
573.218922,2960.823768,-7772.162391,-612.876398
573.219244,2664.741391,-7179.997637,-1608.800546
573.219566,666.185348,-9030.512492,-2604.724693
573.219889,-2368.659014,-11325.150913,-2374.896044
573.220211,-4219.173869,-12065.356855,-2298.286494
573.220533,-4589.276840,-12139.377449,-3753.867940
573.220856,-3775.050304,-12509.480420,-4290.134789
573.221178,-3627.009116,-10510.924376,-2374.896044
573.221500,-2812.782580,-8956.491898,-459.657299
573.221823,-1110.308913,-9030.512492,-1302.362347
573.222145,-888.247130,-9696.697840,-1149.143247
573.222467,-962.267725,-8586.388927,-1225.752797
573.222789,-148.041188,-7179.997637,-2221.676944
573.223112,888.247130,-6809.894666,-2834.553343
573.223434,1702.473667,-7624.121203,-1532.190996
573.223756,2294.638420,-7846.182985,536.266849
573.224079,2294.638420,-7254.018232,76.609550
573.224401,2220.617826,-6587.832884,-1838.629195
573.224723,1036.288319,-8216.285956,-3447.429741
573.225046,-1184.329507,-11399.171507,-3140.991542
573.225368,-3256.906145,-12287.418637,-1532.190996
573.225690,-3256.906145,-12065.356855,-842.705048
573.226013,-444.123565,-12879.583391,-1149.143247
573.226335,1480.411884,-10658.965565,-1072.533697
573.226657,1554.432478,-6587.832884,-536.266849
573.226980,1110.308913,-5255.462188,-1302.362347
573.227302,1628.453072,-5847.626942,-1378.971896
573.227624,2294.638420,-7402.059420,-2911.162892
573.227946,1702.473667,-8364.327145,-2834.553343
573.228269,0.000000,-9474.636058,-1608.800546
573.228591,-1924.535449,-9770.718434,-459.657299
573.228913,-1480.411884,-10584.944971,-612.876398
573.229236,-1480.411884,-10807.006753,-1608.800546
573.229558,-2294.638420,-9622.677246,-2757.943793
573.229880,-3330.926739,-9104.533087,-3140.991542
573.230203,-2960.823768,-10510.924376,-2451.505594
573.230525,-1776.494261,-11843.295072,-995.924147
573.230847,-518.144159,-11251.130318,-1302.362347
573.231170,74.020594,-10288.862594,-2911.162892
573.231492,0.000000,-9474.636058,-2374.896044
573.231814,296.082377,-8586.388927,-1455.581446
573.232137,888.247130,-10140.821405,-1685.410096
573.232459,-370.102971,-11103.089130,-1302.362347
573.232781,-1628.453072,-9474.636058,-612.876398
573.233103,-2294.638420,-7476.080014,-1225.752797
573.233426,-1628.453072,-7772.162391,-2528.115143
573.233748,-962.267725,-8734.430116,-3064.381992
573.234070,-2368.659014,-8808.450710,-1991.848295
573.234393,-2886.803174,-11103.089130,0.000000
573.234715,-1480.411884,-11399.171507,842.705048
573.235037,518.144159,-9918.759623,-1608.800546
573.235360,1036.288319,-8882.471304,-4596.572988
573.235682,1480.411884,-8586.388927,-2374.896044
573.236004,2072.576638,-7994.224174,-612.876398
573.236327,2368.659014,-7254.018232,-153.219100
573.236649,2294.638420,-8512.368333,-1378.971896
573.236971,1332.370696,-9104.533087,-995.924147
573.237294,370.102971,-7772.162391,-995.924147
573.237616,-1036.288319,-8882.471304,-1838.629195
573.237938,-1776.494261,-11325.150913,-1302.362347
573.238260,-1184.329507,-12361.439231,-536.266849
573.238583,-666.185348,-10881.027347,-153.219100
573.238905,-296.082377,-9400.615463,919.314598
573.239227,592.164754,-7031.956449,1378.971896
573.239550,1776.494261,-4885.359217,-2221.676944
573.239872,2442.679609,-5107.421000,-3524.039291
573.240194,1332.370696,-5921.647536,-1608.800546
573.240517,0.000000,-8808.450710,-842.705048
573.240839,-1924.535449,-11695.253884,-612.876398
573.241161,-3478.967927,-12879.583391,76.609550
573.241484,-3849.070898,-12213.398043,-1762.019645
573.241806,-4293.194464,-10881.027347,-5132.839837
573.242128,-4219.173869,-10362.883188,-4903.011187
573.242450,-3108.864956,-9400.615463,-1608.800546
573.242773,-1628.453072,-9918.759623,-766.095498
573.243095,-1036.288319,-10214.842000,-1378.971896
573.243417,-1332.370696,-9992.780217,-1378.971896
573.243740,-962.267725,-9030.512492,-1608.800546
573.244062,370.102971,-7698.141797,-2374.896044
573.244384,2072.576638,-6587.832884,-2374.896044
573.244707,2886.803174,-7031.956449,-1455.581446
573.245029,2072.576638,-7105.977043,306.438199
573.245351,1332.370696,-8290.306550,612.876398
573.245674,740.205942,-9474.636058,-1149.143247
573.245996,0.000000,-10436.903782,-3447.429741
573.246318,-1628.453072,-10140.821405,-3447.429741
573.246641,-1184.329507,-10584.944971,-2221.676944
573.246963,222.061783,-11695.253884,-1608.800546
573.247285,1332.370696,-12139.377449,-2068.457845
573.247607,1998.556043,-10362.883188,-612.876398
573.247930,2590.720797,-8290.306550,-2528.115143
573.248252,2590.720797,-6883.915261,-5898.935335
573.248574,1036.288319,-7476.080014,-5439.278036
573.248897,0.000000,-7624.121203,-3064.381992
573.249219,-518.144159,-8142.265362,-3447.429741
573.249541,-1110.308913,-9474.636058,-3677.258390
573.249864,-2516.700203,-10881.027347,-3677.258390
573.250186,-4441.235652,-11621.233289,-3983.696590
573.250508,-5329.482782,-11399.171507,-4290.134789
573.250831,-5107.421000,-10362.883188,-4903.011187
573.251153,-3775.050304,-9770.718434,-6128.763984
573.251475,-1776.494261,-9844.739029,-5286.058936
573.251798,74.020594,-8734.430116,-2451.505594
573.252120,888.247130,-8364.327145,-2221.676944
573.252442,1776.494261,-8364.327145,-3983.696590
573.252764,2516.700203,-9622.677246,-4596.572988
573.253087,2738.761985,-8734.430116,-3983.696590
573.253409,1776.494261,-7105.977043,-3447.429741
573.253731,1924.535449,-7254.018232,-3753.867940
573.254054,1406.391290,-8216.285956,-3753.867940
573.254376,814.226536,-7772.162391,-3217.601092
573.254698,-740.205942,-8290.306550,-3294.210641
573.255021,-2812.782580,-9770.718434,-4443.353888
573.255343,-3627.009116,-11177.109724,-3907.087040
573.255665,-3404.947333,-9696.697840,-3600.648841
573.255988,-1554.432478,-9252.574275,-3370.820191
573.256310,1480.411884,-9474.636058,-3140.991542
573.256632,3182.885551,-6883.915261,-2987.772442
573.256955,3701.029710,-5181.441594,-2757.943793
573.257277,3108.864956,-6069.688724,-2987.772442
573.257599,1998.556043,-7772.162391,-3524.039291
573.257921,0.000000,-7698.141797,-3447.429741
573.258244,-1702.473667,-8586.388927,-4826.401637
573.258566,-1776.494261,-9992.780217,-4903.011187
573.258888,-1036.288319,-10584.944971,-3830.477490
573.259211,-2294.638420,-9474.636058,-2757.943793
573.259533,-2664.741391,-10436.903782,-3600.648841
573.259855,-3923.091493,-10881.027347,-5209.449386
573.260178,-3552.988522,-11473.192101,-4519.963438
573.260500,-2812.782580,-12065.356855,-4749.792088
573.260822,-1406.391290,-12509.480420,-5056.230287
573.261145,1332.370696,-11325.150913,-3983.696590
573.261467,4219.173869,-7698.141797,-2374.896044
573.261789,6439.791695,-6217.729913,-3064.381992
573.262111,6217.729913,-8956.491898,-3140.991542
573.262434,2664.741391,-10436.903782,383.047749
573.262756,-1850.514855,-10288.862594,1072.533697
573.263078,-3627.009116,-10436.903782,-2987.772442
573.263401,-2368.659014,-10584.944971,-6741.640382
573.263723,-1776.494261,-8216.285956,-5286.058936
573.264045,-1850.514855,-6217.729913,-2528.115143
573.264368,-2664.741391,-6661.853478,-842.705048
573.264690,-3478.967927,-10066.800811,-2068.457845
573.265012,-5181.441594,-13471.748144,-3064.381992
573.265335,-7254.018232,-14211.954086,-2221.676944
573.265657,-6365.771101,-13101.645173,-3447.429741
573.265979,-1554.432478,-9400.615463,-4673.182538
573.266302,4515.256246,-4663.297435,-4979.620737
573.266624,8290.306550,-3256.906145,-2298.286494
573.266946,9178.553681,-4737.318029,1838.629195
573.267268,7476.080014,-5921.647536,2451.505594
573.267591,2738.761985,-8068.244768,-536.266849
573.267913,-2886.803174,-10955.047942,-2604.724693
573.268235,-5107.421000,-11991.336260,-4519.963438
573.268558,-4071.132681,-9622.677246,-6128.763984
573.268880,-2072.576638,-7624.121203,-4213.525239
573.269202,592.164754,-6661.853478,76.609550
573.269525,1110.308913,-6513.812290,0.000000
573.269847,74.020594,-8142.265362,-2221.676944
573.270169,-1924.535449,-11325.150913,-3447.429741
573.270492,-4441.235652,-12657.521608,-3753.867940
573.270814,-3997.112087,-11103.089130,-5439.278036
573.271136,0.000000,-8364.327145,-5745.716235
573.271459,4811.338623,-5699.585753,-4749.792088
573.271781,8068.244768,-5921.647536,-2911.162892
573.272103,8882.471304,-8512.368333,-1762.019645
573.272425,7624.121203,-9696.697840,-1838.629195
573.272748,3552.988522,-8956.491898,-4290.134789
573.273070,-1776.494261,-9548.656652,-6435.202183
573.273392,-5699.585753,-11251.130318,-5056.230287
573.273715,-7328.038826,-9030.512492,-5362.668486
573.274037,-7402.059420,-6587.832884,-7890.783629
573.274359,-6661.853478,-7476.080014,-8273.831378
573.274682,-6217.729913,-11103.089130,-4519.963438
573.275004,-5329.482782,-13693.809927,-3140.991542
573.275326,-3182.885551,-14656.077652,-3830.477490
573.275649,-1480.411884,-14137.933492,-4213.525239
573.275971,666.185348,-12879.583391,-3907.087040
573.276293,3330.926739,-9770.718434,-3064.381992
573.276616,6069.688724,-6957.935855,-3907.087040
573.276938,7772.162391,-4441.235652,-4903.011187
573.277260,8290.306550,-4959.379811,-4060.306139
573.277583,7179.997637,-6069.688724,-1915.238745
573.277905,4737.318029,-6291.750507,-2145.067394
573.278227,1776.494261,-8364.327145,-4366.744339
573.278550,-1110.308913,-10955.047942,-5286.058936
573.278872,-4441.235652,-12139.377449,-4290.134789
573.279194,-7624.121203,-10584.944971,-3753.867940
573.279517,-10214.842000,-8068.244768,-5592.497135
573.279839,-10658.965565,-7328.038826,-7354.516781
573.280161,-8142.265362,-9992.780217,-8044.002729
573.280483,-5847.626942,-11769.274478,-4903.011187
573.280806,-4811.338623,-11473.192101,-766.095498
573.281128,-2886.803174,-9326.594869,459.657299
573.281450,888.247130,-8290.306550,-1991.848295
573.281773,4589.276840,-7624.121203,-4443.353888
573.282095,5847.626942,-6957.935855,-4979.620737
573.282417,4663.297435,-6735.874072,-2604.724693
573.282740,3404.947333,-6069.688724,76.609550
573.283062,3552.988522,-5181.441594,0.000000
573.283384,4367.215058,-6513.812290,-3064.381992
573.283707,4219.173869,-9474.636058,-3677.258390
573.284029,2886.803174,-10214.842000,-2757.943793
573.284351,1110.308913,-8512.368333,-2987.772442
573.284674,296.082377,-8438.347739,-4673.182538
573.284996,-518.144159,-10362.883188,-4903.011187
573.285318,-1406.391290,-12583.501014,-5669.106685
573.285641,-2368.659014,-14063.912898,-5439.278036
573.285963,-2812.782580,-13989.892304,-4366.744339
573.286285,-2960.823768,-13619.789333,-3447.429741
573.286608,-1850.514855,-13323.706956,-3600.648841
573.286930,-518.144159,-11917.315666,-2451.505594
573.287252,1184.329507,-9844.739029,-1302.362347
573.287575,2368.659014,-6069.688724,-1149.143247
573.287897,3256.906145,-3478.967927,-2221.676944
573.288219,3108.864956,-3627.009116,-2834.553343
573.288542,2812.782580,-5329.482782,-2145.067394
573.288864,2886.803174,-8290.306550,-2068.457845
573.289186,2146.597232,-10658.965565,-2451.505594
573.289509,-148.041188,-11917.315666,-2451.505594
573.289831,-3330.926739,-11917.315666,-2451.505594
573.290153,-5995.668130,-11399.171507,-2604.724693
573.290476,-5995.668130,-10955.047942,-3830.477490
573.290798,-5329.482782,-8956.491898,-5669.106685
573.291120,-3108.864956,-6883.915261,-5898.935335
573.291443,-1406.391290,-5773.606348,-5056.230287
573.291765,-370.102971,-6513.812290,-3064.381992
573.292087,74.020594,-9400.615463,-2757.943793
573.292410,0.000000,-9918.759623,-2987.772442
573.292732,-888.247130,-8734.430116,-4060.306139
573.293054,-1554.432478,-8216.285956,-4673.182538
573.293376,-1406.391290,-8142.265362,-5286.058936
573.293699,-1258.350101,-8956.491898,-3753.867940
573.294021,-888.247130,-9030.512492,-1455.581446
