#time,accel_x,accel_y,accel_z
395.621274,-148.041188,-9474.636058,-1225.752797
395.621596,-148.041188,-9252.574275,-1455.581446
395.621918,0.000000,-9400.615463,-1455.581446
395.622240,-148.041188,-9252.574275,-1685.410096
395.622562,0.000000,-9474.636058,-1532.190996
395.622884,0.000000,-9326.594869,-1532.190996
395.623206,-444.123565,-9474.636058,-1378.971896
395.623528,0.000000,-9178.553681,-1685.410096
395.623850,-222.061783,-9252.574275,-1762.019645
395.624171,-370.102971,-9326.594869,-1685.410096
395.624493,-148.041188,-9474.636058,-1608.800546
395.624815,-370.102971,-9474.636058,-1762.019645
395.625137,-222.061783,-9178.553681,-1685.410096
395.625459,-444.123565,-9178.553681,-1915.238745
395.625781,-370.102971,-9474.636058,-1685.410096
395.626103,-444.123565,-9400.615463,-1762.019645
395.626425,-518.144159,-9474.636058,-1762.019645
395.626747,-222.061783,-9622.677246,-1532.190996
395.627069,-592.164754,-9622.677246,-2298.286494
395.627390,-518.144159,-9548.656652,-1915.238745
395.627712,-666.185348,-9548.656652,-1838.629195
395.628034,-740.205942,-9474.636058,-1762.019645
395.628356,-666.185348,-9474.636058,-1532.190996
395.628678,-444.123565,-9030.512492,-919.314598
395.629000,-518.144159,-9474.636058,-1532.190996
395.629322,-666.185348,-9474.636058,-1608.800546
395.629644,-740.205942,-9474.636058,-1762.019645
395.629966,-740.205942,-9696.697840,-1532.190996
395.630288,-666.185348,-9474.636058,-1532.190996
395.630609,-222.061783,-9104.533087,-1685.410096
395.630931,-444.123565,-9252.574275,-1378.971896
395.631253,-296.082377,-9400.615463,-1532.190996
395.631575,-296.082377,-9400.615463,-1532.190996
395.631897,-296.082377,-9400.615463,-1838.629195
395.632219,-888.247130,-9104.533087,-1455.581446
395.632541,-370.102971,-9474.636058,-1225.752797
395.632863,-444.123565,-9474.636058,-1225.752797
395.633185,-592.164754,-9400.615463,-1225.752797
395.633507,-518.144159,-9474.636058,-1302.362347
395.633828,0.000000,-9252.574275,-919.314598
395.634150,-222.061783,-9178.553681,-1225.752797
395.634472,0.000000,-9252.574275,-1149.143247
395.634794,0.000000,-9030.512492,-1149.143247
395.635116,0.000000,-9252.574275,-1302.362347
395.635438,74.020594,-9104.533087,-1608.800546
395.635760,-148.041188,-9178.553681,-1302.362347
395.636082,-148.041188,-9400.615463,-919.314598
395.636404,-296.082377,-9474.636058,-842.705048
395.636726,0.000000,-9474.636058,-1149.143247
395.637047,0.000000,-9104.533087,-1302.362347
395.637369,-370.102971,-8734.430116,-1072.533697
395.637691,0.000000,-9326.594869,-1149.143247
395.638013,0.000000,-9252.574275,-1072.533697
395.638335,-222.061783,-9252.574275,-1302.362347
395.638657,-148.041188,-9400.615463,-1225.752797
395.638979,0.000000,-9474.636058,-1378.971896
395.639301,-740.205942,-9252.574275,-995.924147
395.639623,-444.123565,-9400.615463,-1225.752797
395.639945,-148.041188,-9252.574275,-1225.752797
395.640266,-222.061783,-9104.533087,-1302.362347
395.640588,296.082377,-9104.533087,-1072.533697
395.640910,1406.391290,-9252.574275,-1302.362347
395.641232,1406.391290,-9844.739029,-1455.581446
395.641554,592.164754,-9918.759623,-689.485948
395.641876,74.020594,-9400.615463,-536.266849
395.642198,0.000000,-9326.594869,-1532.190996
395.642520,-592.164754,-9474.636058,-2221.676944
395.642842,-1036.288319,-9252.574275,-1685.410096
395.643164,-1406.391290,-8512.368333,-1685.410096
395.643485,-444.123565,-8734.430116,-2221.676944
395.643807,148.041188,-9696.697840,-2221.676944
395.644129,148.041188,-10288.862594,-1532.190996
395.644451,-814.226536,-9992.780217,-1072.533697
395.644773,0.000000,-9548.656652,-1838.629195
395.645095,1184.329507,-10362.883188,-2451.505594
395.645417,1554.432478,-10584.944971,-1838.629195
395.645739,1036.288319,-9474.636058,-1072.533697
395.646061,1924.535449,-8512.368333,-536.266849
395.646383,3404.947333,-9474.636058,-1915.238745
395.646704,4145.153275,-9992.780217,-1225.752797
395.647026,3034.844362,-9252.574275,-306.438199
395.647348,2442.679609,-8438.347739,-306.438199
395.647670,3330.926739,-8660.409521,-766.095498
395.647992,2812.782580,-8956.491898,-1685.410096
395.648314,2516.700203,-9030.512492,-1149.143247
395.648636,2368.659014,-7994.224174,-1302.362347
395.648958,3552.988522,-8216.285956,-2374.896044
395.649280,4515.256246,-10066.800811,-2298.286494
395.649602,4441.235652,-10658.965565,-2068.457845
395.649923,3701.029710,-10510.924376,-1149.143247
395.650245,3552.988522,-10066.800811,-1685.410096
395.650567,4071.132681,-10881.027347,-1838.629195
395.650889,4145.153275,-10066.800811,-2068.457845
395.651211,3330.926739,-9326.594869,-2451.505594
395.651533,3256.906145,-8808.450710,-1685.410096
395.651855,3701.029710,-9178.553681,-1072.533697
395.652177,4663.297435,-9030.512492,-1455.581446
395.652499,4959.379811,-8660.409521,-1762.019645
395.652821,5699.585753,-9326.594869,-1225.752797
395.653142,5699.585753,-9030.512492,-459.657299
395.653464,5995.668130,-8438.347739,-1225.752797
395.653786,5625.565159,-8586.388927,-1302.362347
395.654108,4737.318029,-8808.450710,-1302.362347
395.654430,3034.844362,-9622.677246,-1991.848295
395.654752,1702.473667,-10955.047942,-2451.505594
395.655074,444.123565,-12139.377449,-1608.800546
395.655396,296.082377,-12731.542202,-995.924147
395.655718,222.061783,-12731.542202,-459.657299
395.656039,888.247130,-12583.501014,459.657299
395.656361,1184.329507,-11621.233289,1149.143247
395.656683,1332.370696,-9548.656652,1762.019645
395.657005,666.185348,-8290.306550,2145.067394
395.657327,0.000000,-6957.935855,1762.019645
395.657649,-740.205942,-5255.462188,612.876398
395.657971,-666.185348,-4737.318029,-689.485948
395.658293,222.061783,-4441.235652,-1685.410096
395.658615,2146.597232,-4663.297435,-2681.334243
395.658937,4293.194464,-5551.544565,-3677.258390
395.659258,5699.585753,-6809.894666,-4213.525239
395.659580,6809.894666,-9474.636058,-4060.306139
395.659902,6291.750507,-12139.377449,-3753.867940
395.660224,5255.462188,-14137.933492,-3447.429741
395.660546,4737.318029,-15248.242405,-2911.162892
395.660868,4515.256246,-14508.036463,-2221.676944
395.661190,3256.906145,-13397.727550,-612.876398
395.661512,1406.391290,-11473.192101,1685.410096
395.661834,1036.288319,-9918.759623,2298.286494
395.662156,1184.329507,-7402.059420,2604.724693
395.662477,814.226536,-5699.585753,2451.505594
395.662799,444.123565,-4737.318029,2451.505594
395.663121,-222.061783,-4367.215058,1915.238745
395.663443,-370.102971,-4811.338623,536.266849
395.663765,592.164754,-6143.709319,0.000000
395.664087,1184.329507,-6883.915261,-2221.676944
395.664409,1480.411884,-9622.677246,-4749.792088
395.664731,1702.473667,-12287.418637,-5056.230287
395.665053,2442.679609,-14582.057057,-5056.230287
395.665375,1998.556043,-16284.530724,-5286.058936
395.665696,1924.535449,-17468.860231,-4903.011187
395.666018,1628.453072,-15396.283594,-3447.429741
395.666340,1628.453072,-10955.047942,-3753.867940
395.666662,2590.720797,-8882.471304,-3983.696590
395.666984,4219.173869,-9400.615463,-2374.896044
395.667306,4885.359217,-9548.656652,229.828649
395.667628,4589.276840,-7624.121203,2451.505594
395.667950,5773.606348,-5625.565159,3983.696590
395.668272,7402.059420,-4663.297435,3217.601092
395.668594,8142.265362,-4071.132681,1378.971896
395.668915,5921.647536,-4145.153275,1455.581446
395.669237,2812.782580,-3775.050304,2987.772442
395.669559,1924.535449,-6069.688724,612.876398
395.669881,1480.411884,-10140.821405,-3370.820191
395.670203,222.061783,-10658.965565,-4060.306139
395.670525,-1776.494261,-10362.883188,-4366.744339
395.670847,-2442.679609,-14656.077652,-4366.744339
395.671169,-2886.803174,-17098.757260,-3370.820191
395.671491,-3552.988522,-13767.830521,-3907.087040
395.671813,-2146.597232,-9992.780217,-5362.668486
395.672134,1998.556043,-10214.842000,-5898.935335
395.672456,4515.256246,-11473.192101,-4673.182538
395.672778,5107.421000,-9474.636058,-2221.676944
395.673100,7105.977043,-8068.244768,612.876398
395.673422,9918.759623,-8660.409521,2221.676944
395.673744,10584.944971,-9400.615463,1915.238745
395.674066,8290.306550,-7698.141797,1762.019645
395.674388,5995.668130,-6291.750507,1455.581446
395.674710,5477.523971,-6957.935855,76.609550
395.675032,4441.235652,-8734.430116,0.000000
395.675353,1036.288319,-8882.471304,1455.581446
395.675675,-2072.576638,-8142.265362,2604.724693
395.675997,-3108.864956,-8882.471304,1149.143247
395.676319,-2886.803174,-10807.006753,-1838.629195
395.676641,-2442.679609,-10658.965565,-3753.867940
395.676963,-2368.659014,-9474.636058,-3447.429741
395.677285,-1184.329507,-9548.656652,-1838.629195
395.677607,666.185348,-9844.739029,-1915.238745
395.677929,3552.988522,-9992.780217,-3753.867940
395.678251,5107.421000,-10066.800811,-4366.744339
395.678572,5403.503377,-10140.821405,-2834.553343
395.678894,5255.462188,-9474.636058,-1455.581446
395.679216,4737.318029,-8734.430116,-842.705048
395.679538,3775.050304,-7994.224174,-1225.752797
395.679860,2886.803174,-7031.956449,-766.095498
395.680182,2590.720797,-7105.977043,-1608.800546
395.680504,2442.679609,-8956.491898,-2528.115143
395.680826,1406.391290,-10510.924376,-612.876398
395.681148,296.082377,-9178.553681,2681.334243
395.681470,592.164754,-8216.285956,2298.286494
395.681791,2294.638420,-9918.759623,-459.657299
395.682113,3849.070898,-11621.233289,-2451.505594
395.682435,3775.050304,-11769.274478,-1762.019645
395.682757,2516.700203,-12139.377449,0.000000
395.683079,2812.782580,-12805.562797,1225.752797
395.683401,3108.864956,-12435.459826,842.705048
395.683723,3923.091493,-9622.677246,-995.924147
395.684045,4441.235652,-7920.203579,-2374.896044
395.684367,6957.935855,-9326.594869,-4136.915689
395.684689,7994.224174,-10066.800811,-2757.943793
395.685010,7920.203579,-9400.615463,536.266849
395.685332,6365.771101,-6587.832884,2145.067394
395.685654,4811.338623,-5551.544565,919.314598
395.685976,3256.906145,-4959.379811,-1532.190996
395.686298,-444.123565,-4219.173869,-3983.696590
395.686620,-4589.276840,-5107.421000,-3677.258390
395.686942,-6217.729913,-7179.997637,-2528.115143
395.687264,-4737.318029,-10510.924376,-3677.258390
395.687586,-3552.988522,-12657.521608,-4826.401637
395.687908,-2516.700203,-13175.665768,-3294.210641
395.688229,-2812.782580,-12139.377449,-689.485948
395.688551,-2220.617826,-12065.356855,-1685.410096
395.688873,-592.164754,-12583.501014,-3524.039291
395.689195,1850.514855,-12509.480420,-3830.477490
395.689517,2738.761985,-12805.562797,-3217.601092
395.689839,3108.864956,-13693.809927,-1225.752797
395.690142,3923.091493,-11695.253884,1685.410096
395.690464,7031.956449,-7772.162391,2374.896044
395.690786,9622.677246,-5403.503377,0.000000
395.691108,10436.903782,-8142.265362,-612.876398
395.691430,10288.862594,-9030.512492,1072.533697
395.691752,8216.285956,-6587.832884,2451.505594
395.692073,5033.400406,-5773.606348,1838.629195
395.692395,1850.514855,-5995.668130,842.705048
395.692717,-2590.720797,-4811.338623,-1149.143247
395.693039,-7105.977043,-4515.256246,-5362.668486
395.693361,-10214.842000,-7476.080014,-5669.106685
395.693683,-10584.944971,-12213.398043,-4136.915689
395.694004,-11029.068536,-12213.398043,-4596.572988
395.694326,-10362.883188,-12731.542202,-5286.058936
395.694648,-8586.388927,-13397.727550,-4136.915689
395.694970,-8068.244768,-14359.995275,-4060.306139
395.695292,-8956.491898,-13545.768739,-3830.477490
395.695614,-8512.368333,-10955.047942,-3447.429741
395.695935,-5995.668130,-9548.656652,-3600.648841
395.696257,-1850.514855,-10288.862594,-2757.943793
395.696579,1850.514855,-9918.759623,-459.657299
395.696901,5847.626942,-7105.977043,1915.238745
395.697223,9770.718434,-3923.091493,2911.162892
395.697544,11991.336260,-4737.318029,3830.477490
395.697866,10510.924376,-5847.626942,4749.792088
395.698188,6809.894666,-5107.421000,3907.087040
395.698510,4663.297435,-5107.421000,383.047749
395.698832,4071.132681,-6957.935855,-3447.429741
395.699154,3330.926739,-9030.512492,-4213.525239
395.699475,1480.411884,-10288.862594,-1991.848295
395.699797,-370.102971,-9770.718434,0.000000
395.700119,-1776.494261,-10955.047942,-1225.752797
395.700441,-2812.782580,-13915.871710,-3830.477490
395.700763,-5921.647536,-15100.201217,-4979.620737
395.701085,-9696.697840,-13323.706956,-4903.011187
395.701406,-10881.027347,-11473.192101,-3983.696590
395.701728,-8586.388927,-11399.171507,-3830.477490
395.702050,-4885.359217,-11621.233289,-2528.115143
395.702372,-3256.906145,-10066.800811,-1378.971896
395.702694,-962.267725,-8512.368333,1225.752797
395.703016,1998.556043,-7179.997637,1762.019645
395.703337,5551.544565,-5551.544565,229.828649
395.703659,6957.935855,-4219.173869,0.000000
395.703981,6069.688724,-3256.906145,995.924147
395.704303,4737.318029,-3627.009116,766.095498
395.704625,4367.215058,-5699.585753,-1455.581446
395.704947,4737.318029,-9030.512492,-2681.334243
395.705268,4737.318029,-10955.047942,-3370.820191
395.705590,4219.173869,-13545.768739,-2834.553343
395.705912,2664.741391,-13841.851115,-1378.971896
395.706234,2072.576638,-13693.809927,-1149.143247
395.706556,518.144159,-13915.871710,-2068.457845
395.706878,-2072.576638,-12805.562797,-3140.991542
395.707199,-4959.379811,-12287.418637,-2681.334243
395.707521,-6513.812290,-12139.377449,-1838.629195
395.707843,-5255.462188,-12213.398043,-766.095498
395.708165,-3404.947333,-10955.047942,612.876398
395.708487,-1184.329507,-8438.347739,2221.676944
395.708808,962.267725,-5995.668130,1991.848295
395.709130,3182.885551,-4219.173869,-689.485948
395.709452,3701.029710,-4885.359217,-1072.533697
395.709774,1110.308913,-3997.112087,1072.533697
395.710096,-2146.597232,-3256.906145,0.000000
395.710418,-2738.761985,-5107.421000,-4290.134789
395.710739,-2368.659014,-9474.636058,-5822.325785
395.711061,-3478.967927,-10584.944971,-4826.401637
395.711383,-4885.359217,-10881.027347,-3524.039291
395.711705,-4293.194464,-12805.562797,-3064.381992
395.712027,-3330.926739,-14211.954086,-3370.820191
395.712349,-4515.256246,-14211.954086,-3217.601092
395.712670,-6661.853478,-12731.542202,-3064.381992
395.712992,-7105.977043,-11251.130318,-2528.115143
395.713314,-5181.441594,-10140.821405,-2911.162892
395.713636,-2294.638420,-10584.944971,-1915.238745
395.713958,1110.308913,-10362.883188,459.657299
395.714280,3256.906145,-8660.409521,3140.991542
395.714601,5995.668130,-6809.894666,3524.039291
395.714923,8882.471304,-5329.482782,2298.286494
395.715245,9918.759623,-5181.441594,689.485948
395.715567,7846.182985,-4589.276840,995.924147
395.715889,4441.235652,-4811.338623,153.219100
395.716211,3108.864956,-6513.812290,-3294.210641
395.716532,3108.864956,-8586.388927,-4903.011187
395.716854,888.247130,-10140.821405,-3753.867940
395.717176,-1850.514855,-10584.944971,-2681.334243
395.717498,-3923.091493,-10436.903782,-4136.915689
395.717820,-4663.297435,-12583.501014,-5209.449386
395.718142,-5995.668130,-13915.871710,-4979.620737
395.718463,-8438.347739,-13619.789333,-4673.182538
395.718785,-9696.697840,-13397.727550,-3830.477490
395.719107,-8438.347739,-13397.727550,-2987.772442
395.719429,-5699.585753,-13101.645173,-1532.190996
395.719751,-2442.679609,-10288.862594,0.000000
395.720072,814.226536,-7846.182985,689.485948
395.720394,3627.009116,-6735.874072,1991.848295
395.720716,6735.874072,-6661.853478,2528.115143
395.721038,7550.100608,-4367.215058,2451.505594
395.721360,7179.997637,-3108.864956,2298.286494
395.721682,5847.626942,-3627.009116,1149.143247
395.722003,4367.215058,-5403.503377,-1532.190996
395.722325,3849.070898,-8956.491898,-3217.601092
395.722647,3182.885551,-11325.150913,-2528.115143
395.722969,1628.453072,-11251.130318,-1608.800546
395.723291,0.000000,-10658.965565,-1838.629195
395.723613,-1776.494261,-12509.480420,-1915.238745
395.723934,-3775.050304,-14508.036463,-2681.334243
395.724256,-6513.812290,-13915.871710,-4519.963438
395.724578,-8364.327145,-11991.336260,-4519.963438
395.724900,-8216.285956,-11769.274478,-2298.286494
395.725222,-6217.729913,-11251.130318,-306.438199
395.725544,-3552.988522,-9474.636058,-459.657299
395.725865,-370.102971,-7994.224174,1072.533697
395.726187,1554.432478,-6291.750507,2145.067394
395.726509,3849.070898,-5625.565159,1149.143247
395.726831,3849.070898,-4885.359217,689.485948
395.727153,2220.617826,-4885.359217,1991.848295
395.727475,444.123565,-4885.359217,1532.190996
395.727796,518.144159,-4959.379811,-2068.457845
395.728118,2294.638420,-7476.080014,-3753.867940
395.728440,1702.473667,-8660.409521,-2834.553343
395.728762,0.000000,-9474.636058,-1378.971896
395.729084,-814.226536,-11695.253884,-1225.752797
395.729405,-1184.329507,-13841.851115,-2221.676944
395.729727,-2516.700203,-14211.954086,-4519.963438
395.730049,-5477.523971,-13619.789333,-5745.716235
395.730371,-7698.141797,-12435.459826,-3983.696590
395.730693,-7254.018232,-12805.562797,-2604.724693
395.731015,-4737.318029,-12583.501014,-2374.896044
395.731336,-1702.473667,-11695.253884,-689.485948
395.731658,1184.329507,-10807.006753,1302.362347
395.731980,3701.029710,-9252.574275,2068.457845
395.732302,6735.874072,-6587.832884,689.485948
395.732624,8438.347739,-4737.318029,-306.438199
395.732946,7105.977043,-4071.132681,919.314598
395.733267,3701.029710,-4959.379811,1378.971896
395.733589,814.226536,-5847.626942,-1149.143247
395.733911,222.061783,-8068.244768,-3907.087040
395.734233,0.000000,-10288.862594,-3907.087040
395.734555,-1110.308913,-10658.965565,-3064.381992
395.734877,-2368.659014,-10436.903782,-2298.286494
395.735198,-2738.761985,-11621.233289,-2681.334243
395.735520,-4663.297435,-11991.336260,-3140.991542
395.735842,-6513.812290,-11473.192101,-4519.963438
395.736164,-7846.182985,-12287.418637,-4903.011187
395.736486,-7772.162391,-13175.665768,-4136.915689
395.736808,-5847.626942,-13249.686362,-2681.334243
395.737129,-2886.803174,-11621.233289,229.828649
395.737451,1406.391290,-9474.636058,2451.505594
395.737773,4885.359217,-6809.894666,1915.238745
395.738095,7031.956449,-4293.194464,612.876398
395.738417,7624.121203,-3627.009116,689.485948
395.738739,5773.606348,-3627.009116,2374.896044
395.739060,3256.906145,-3775.050304,2374.896044
395.739382,1998.556043,-5255.462188,-689.485948
395.739704,2368.659014,-8734.430116,-3064.381992
395.740026,1258.350101,-9696.697840,-2834.553343
395.740348,-1480.411884,-9030.512492,-2298.286494
395.740669,-3256.906145,-8882.471304,-2221.676944
395.740991,-3849.070898,-11843.295072,-3524.039291
395.741313,-5329.482782,-14211.954086,-4673.182538
395.741635,-7624.121203,-13767.830521,-4826.401637
395.741957,-8586.388927,-13693.809927,-3370.820191
395.742279,-7179.997637,-13027.624579,-2451.505594
395.742600,-3923.091493,-12139.377449,-2528.115143
395.742922,-518.144159,-10732.986159,-2068.457845
395.743244,2368.659014,-9326.594869,612.876398
395.743566,3627.009116,-8290.306550,2221.676944
395.743888,5255.462188,-6587.832884,1378.971896
395.744210,6143.709319,-4959.379811,-153.219100
395.744531,5477.523971,-4219.173869,-306.438199
395.744853,2886.803174,-4145.153275,766.095498
395.745175,740.205942,-4959.379811,76.609550
395.745497,1628.453072,-7624.121203,-2374.896044
395.745819,1406.391290,-10140.821405,-3217.601092
395.746141,0.000000,-11177.109724,-1685.410096
395.746462,-2294.638420,-10140.821405,-1608.800546
395.746784,-3256.906145,-10807.006753,-3294.210641
395.747106,-3849.070898,-14211.954086,-6128.763984
395.747428,-5403.503377,-15322.262999,-5975.544884
395.747750,-6957.935855,-14211.954086,-4213.525239
395.748072,-6439.791695,-13175.665768,-2145.067394
395.748393,-3404.947333,-13767.830521,-1149.143247
395.748715,-148.041188,-11621.233289,-842.705048
395.749037,2368.659014,-9474.636058,153.219100
395.749359,4293.194464,-7328.038826,1762.019645
395.749681,5921.647536,-6365.771101,1915.238745
395.750003,5699.585753,-5773.606348,2068.457845
395.750324,3627.009116,-3775.050304,2451.505594
395.750646,888.247130,-3478.967927,1762.019645
395.750968,0.000000,-4737.318029,-689.485948
395.751290,-148.041188,-6587.832884,-1838.629195
395.751612,-666.185348,-8438.347739,-995.924147
395.751933,-888.247130,-9104.533087,-229.828649
395.752255,-1628.453072,-9770.718434,-1225.752797
395.752577,-2812.782580,-11399.171507,-1762.019645
395.752899,-4885.359217,-12953.603985,-3064.381992
395.753221,-7179.997637,-13101.645173,-4826.401637
395.753543,-8364.327145,-13175.665768,-5439.278036
395.753864,-7254.018232,-13101.645173,-4136.915689
395.754186,-3849.070898,-13323.706956,-1378.971896
395.754508,-370.102971,-11399.171507,306.438199
395.754830,2960.823768,-9104.533087,1532.190996
395.755152,5699.585753,-6439.791695,1225.752797
395.755474,7254.018232,-4367.215058,842.705048
395.755795,6661.853478,-3923.091493,995.924147
395.756117,4071.132681,-4367.215058,1915.238745
395.756439,1406.391290,-4737.318029,1378.971896
395.756761,444.123565,-5921.647536,-1378.971896
395.757083,1036.288319,-8216.285956,-2604.724693
395.757405,1406.391290,-9326.594869,-2451.505594
395.757726,444.123565,-9104.533087,-1915.238745
395.758048,-962.267725,-10140.821405,-1532.190996
395.758370,-2072.576638,-12657.521608,-2221.676944
395.758692,-4293.194464,-14730.098246,-3907.087040
395.759014,-6883.915261,-14285.974681,-5592.497135
395.759336,-8438.347739,-14508.036463,-5439.278036
395.759657,-7179.997637,-14137.933492,-4136.915689
395.759979,-3849.070898,-12879.583391,-3217.601092
395.760301,-296.082377,-11103.089130,-1762.019645
395.760623,2516.700203,-8660.409521,612.876398
395.760945,3997.112087,-6661.853478,1302.362347
395.761267,5181.441594,-5107.421000,383.047749
395.761588,5921.647536,-4737.318029,-1225.752797
395.761910,4071.132681,-5033.400406,-1225.752797
395.762232,1184.329507,-5921.647536,-306.438199
395.762554,-592.164754,-7031.956449,-459.657299
395.762876,0.000000,-9992.780217,-2374.896044
395.763197,888.247130,-11029.068536,-3447.429741
395.763519,444.123565,-9770.718434,-3217.601092
395.763841,-518.144159,-9474.636058,-2145.067394
395.764163,-1406.391290,-11621.233289,-766.095498
395.764485,-2516.700203,-13397.727550,-2757.943793
395.764807,-5551.544565,-12287.418637,-4290.134789
395.765128,-7105.977043,-11991.336260,-3064.381992
395.765450,-6587.832884,-12509.480420,-1915.238745
395.765772,-4737.318029,-11843.295072,-2145.067394
395.766094,-2220.617826,-9770.718434,-1378.971896
395.766416,444.123565,-7550.100608,1838.629195
395.766738,3775.050304,-5551.544565,2068.457845
395.767059,5847.626942,-3627.009116,0.000000
395.767381,5995.668130,-3923.091493,0.000000
395.767703,4219.173869,-4663.297435,1762.019645
395.768025,1850.514855,-5403.503377,1072.533697
395.768347,814.226536,-6513.812290,-1915.238745
395.768669,1258.350101,-10066.800811,-3677.258390
395.768990,666.185348,-11917.315666,-2451.505594
395.769312,-1110.308913,-10955.047942,-689.485948
395.769634,-2294.638420,-10436.903782,-995.924147
395.769956,-1924.535449,-11917.315666,-2145.067394
395.770278,-2960.823768,-11843.295072,-3447.429741
395.770600,-5551.544565,-11029.068536,-3677.258390
395.770921,-7402.059420,-11251.130318,-2451.505594
395.771243,-6957.935855,-11695.253884,-1838.629195
395.771565,-4663.297435,-11621.233289,-2528.115143
395.771887,-1924.535449,-10362.883188,-1762.019645
395.772209,1258.350101,-9326.594869,383.047749
395.772531,3923.091493,-7698.141797,766.095498
395.772852,6587.832884,-6883.915261,-383.047749
395.773174,6883.915261,-5921.647536,76.609550
395.773496,6069.688724,-6365.771101,229.828649
395.773818,3997.112087,-6587.832884,-919.314598
395.774140,2146.597232,-7920.203579,-3677.258390
395.774461,1332.370696,-10362.883188,-3907.087040
395.774783,1110.308913,-11695.253884,-3600.648841
395.775105,222.061783,-12139.377449,-2834.553343
395.775427,-962.267725,-11695.253884,-1915.238745
395.775749,-1258.350101,-11843.295072,-1378.971896
395.776071,-2368.659014,-11917.315666,-2834.553343
395.776392,-4441.235652,-11399.171507,-3830.477490
395.776714,-5995.668130,-11251.130318,-2221.676944
395.777036,-6587.832884,-11177.109724,-1302.362347
395.777358,-4737.318029,-11251.130318,-1072.533697
395.777680,-2368.659014,-10510.924376,0.000000
395.778002,-370.102971,-9104.533087,1455.581446
395.778323,2368.659014,-7254.018232,1915.238745
395.778645,5403.503377,-5477.523971,76.609550
395.778967,6883.915261,-5181.441594,-689.485948
395.779289,5625.565159,-5995.668130,229.828649
395.779611,2590.720797,-5773.606348,0.000000
395.779933,0.000000,-6735.874072,-2221.676944
395.780254,-1258.350101,-8364.327145,-3677.258390
395.780576,-2368.659014,-10214.842000,-3447.429741
395.780898,-2886.803174,-10881.027347,-3294.210641
395.781220,-2664.741391,-10288.862594,-2834.553343
395.781542,-2220.617826,-11325.150913,-1838.629195
395.781864,-2812.782580,-11695.253884,-919.314598
395.782185,-4811.338623,-10510.924376,-1838.629195
395.782507,-7031.956449,-9918.759623,-1991.848295
395.782829,-6883.915261,-10288.862594,-2451.505594
395.783151,-4367.215058,-9770.718434,-2911.162892
395.783473,-1332.370696,-8438.347739,-919.314598
395.783795,962.267725,-7772.162391,1838.629195
395.784116,3627.009116,-7179.997637,2604.724693
395.784438,6365.771101,-6143.709319,919.314598
395.784760,6809.894666,-6365.771101,-153.219100
395.785082,4737.318029,-6513.812290,-536.266849
395.785404,1406.391290,-5625.565159,-2068.457845
395.785725,592.164754,-7105.977043,-4826.401637
395.786047,592.164754,-9992.780217,-4749.792088
395.786369,-740.205942,-11843.295072,-3830.477490
395.786691,-2146.597232,-11103.089130,-3447.429741
395.787013,-3034.844362,-11177.109724,-3217.601092
395.787335,-2664.741391,-13175.665768,-4060.306139
395.787656,-3256.906145,-14508.036463,-4443.353888
395.787978,-4811.338623,-13323.706956,-3677.258390
395.788300,-6069.688724,-12065.356855,-2145.067394
395.788622,-5255.462188,-11621.233289,-1608.800546
395.788944,-2886.803174,-11029.068536,-1532.190996
395.789266,-592.164754,-9474.636058,-1608.800546
395.789587,2072.576638,-7994.224174,0.000000
395.789909,4737.318029,-7105.977043,1455.581446
395.790231,7179.997637,-6587.832884,1149.143247
395.790552,7772.162391,-5699.585753,1149.143247
395.790874,6439.791695,-6957.935855,459.657299
395.791196,3849.070898,-7402.059420,-1302.362347
395.791517,1776.494261,-7772.162391,-3983.696590
395.791839,814.226536,-9474.636058,-3983.696590
395.792160,-222.061783,-11325.150913,-3370.820191
395.792482,-1480.411884,-11843.295072,-2987.772442
395.792804,-2146.597232,-11103.089130,-2604.724693
395.793125,-2220.617826,-11621.233289,-2145.067394
395.793447,-2886.803174,-12435.459826,-2451.505594
395.793769,-4441.235652,-11917.315666,-2451.505594
395.794090,-7476.080014,-11695.253884,-536.266849
395.794412,-8290.306550,-10807.006753,383.047749
395.794734,-5551.544565,-9474.636058,0.000000
395.795055,-2072.576638,-7920.203579,76.609550
395.795377,1110.308913,-5847.626942,1378.971896
395.795698,3256.906145,-3701.029710,2221.676944
395.796020,5181.441594,-3256.906145,2528.115143
395.796342,6291.750507,-4737.318029,1915.238745
395.796663,4737.318029,-6291.750507,1149.143247
395.796985,1998.556043,-6439.791695,-1608.800546
395.797307,296.082377,-7031.956449,-3753.867940
395.797628,-296.082377,-9548.656652,-4749.792088
395.797950,-814.226536,-11843.295072,-4136.915689
395.798271,-2368.659014,-11917.315666,-3064.381992
395.798593,-3108.864956,-11177.109724,-2604.724693
395.798915,-2960.823768,-12213.398043,-2911.162892
395.799236,-2516.700203,-13767.830521,-3370.820191
395.799558,-4737.318029,-13249.686362,-2987.772442
395.799880,-6439.791695,-11029.068536,-995.924147
395.800201,-6143.709319,-9474.636058,459.657299
395.800523,-3330.926739,-9030.512492,76.609550
395.800845,-888.247130,-7624.121203,-1225.752797
395.801166,1998.556043,-6957.935855,-306.438199
395.801488,4219.173869,-6439.791695,1685.410096
395.801809,6957.935855,-7031.956449,2374.896044
395.802131,7254.018232,-7105.977043,1072.533697
395.802453,5921.647536,-6661.853478,-536.266849
395.802774,3997.112087,-7031.956449,-3370.820191
395.803096,2220.617826,-7031.956449,-5822.325785
395.803418,1110.308913,-9326.594869,-7201.297681
395.803739,-444.123565,-12213.398043,-5822.325785
395.804061,-1554.432478,-14137.933492,-4596.572988
395.804383,-2294.638420,-13915.871710,-3983.696590
395.804704,-1850.514855,-15396.283594,-4136.915689
395.805026,-2812.782580,-15692.365970,-3447.429741
395.805347,-5403.503377,-13249.686362,-2528.115143
395.805669,-7031.956449,-10436.903782,-842.705048
395.805991,-6365.771101,-9622.677246,229.828649
395.806312,-3849.070898,-9326.594869,153.219100
395.806634,-1332.370696,-7624.121203,0.000000
395.806956,1776.494261,-5551.544565,1762.019645
395.807277,5329.482782,-5033.400406,2757.943793
395.807599,8290.306550,-5773.606348,2298.286494
395.807920,7846.182985,-5773.606348,1991.848295
395.808242,4811.338623,-5329.482782,1608.800546
395.808564,1406.391290,-5995.668130,-2451.505594
395.808885,-148.041188,-8142.265362,-6588.421283
395.809207,-1184.329507,-10288.862594,-6665.030833
395.809529,-2886.803174,-12361.439231,-4596.572988
395.809850,-3552.988522,-12953.603985,-2911.162892
395.810172,-3034.844362,-13175.665768,-3217.601092
395.810494,-1998.556043,-14211.954086,-3830.477490
395.810815,-2442.679609,-14137.933492,-2451.505594
395.811137,-4589.276840,-10807.006753,-1532.190996
395.811458,-6735.874072,-7994.224174,-612.876398
395.811780,-5995.668130,-7772.162391,612.876398
395.812102,-3552.988522,-7846.182985,919.314598
395.812423,-1332.370696,-7105.977043,1072.533697
395.812745,888.247130,-5847.626942,3600.648841
395.813067,3404.947333,-5625.565159,5362.668486
395.813388,6291.750507,-4811.338623,3524.039291
395.813710,6439.791695,-4441.235652,1991.848295
395.814031,4589.276840,-4811.338623,919.314598
395.814353,1702.473667,-5921.647536,-2298.286494
395.814675,444.123565,-6809.894666,-6128.763984
395.814996,0.000000,-9622.677246,-6435.202183
395.815318,-962.267725,-13397.727550,-5286.058936
395.815640,-2738.761985,-15544.324782,-4596.572988
395.815961,-4367.215058,-15100.201217,-4213.525239
395.816283,-4441.235652,-14656.077652,-4903.011187
395.816605,-3997.112087,-14434.015869,-5209.449386
395.816926,-4737.318029,-13767.830521,-4060.306139
395.817248,-6143.709319,-10584.944971,-1608.800546
395.817569,-5625.565159,-9400.615463,995.924147
395.817891,-2516.700203,-8808.450710,1302.362347
395.818213,592.164754,-7624.121203,229.828649
395.818534,1776.494261,-5699.585753,1838.629195
395.818856,3552.988522,-4959.379811,2681.334243
395.819178,6513.812290,-5551.544565,1455.581446
395.819499,7105.977043,-7105.977043,1072.533697
395.819821,5625.565159,-6957.935855,0.000000
395.820143,3627.009116,-7476.080014,-2374.896044
395.820464,2368.659014,-8438.347739,-5209.449386
395.820786,1776.494261,-11177.109724,-5975.544884
395.821107,592.164754,-13841.851115,-5056.230287
395.821429,-1406.391290,-13619.789333,-4443.353888
395.821751,-1998.556043,-13323.706956,-4290.134789
395.822072,-2516.700203,-14063.912898,-4596.572988
395.822394,-3182.885551,-14211.954086,-3983.696590
395.822716,-5107.421000,-12287.418637,-2451.505594
395.823037,-6883.915261,-10140.821405,-306.438199
395.823359,-6661.853478,-8882.471304,995.924147
395.823680,-4737.318029,-7179.997637,1762.019645
395.824002,-3108.864956,-6365.771101,1532.190996
395.824324,-962.267725,-5107.421000,2528.115143
395.824645,2146.597232,-3997.112087,2604.724693
395.824967,5181.441594,-3478.967927,2451.505594
395.825289,5847.626942,-4441.235652,3294.210641
395.825610,4367.215058,-5403.503377,2298.286494
395.825932,2072.576638,-6587.832884,-1991.848295
395.826254,1110.308913,-7476.080014,-5362.668486
395.826575,1036.288319,-9104.533087,-6128.763984
395.826897,740.205942,-11547.212695,-6052.154434
395.827218,-518.144159,-13915.871710,-4443.353888
395.827540,-1480.411884,-14359.995275,-3294.210641
395.827862,-1628.453072,-14359.995275,-3447.429741
395.828183,-1924.535449,-14285.974681,-3907.087040
395.828505,-3108.864956,-12657.521608,-3294.210641
395.828827,-5625.565159,-9622.677246,-1225.752797
395.829148,-5625.565159,-8216.285956,383.047749
395.829470,-3034.844362,-7476.080014,1302.362347
395.829791,-1110.308913,-7254.018232,1378.971896
395.830113,296.082377,-6587.832884,2604.724693
395.830435,2294.638420,-5033.400406,3677.258390
395.830756,4071.132681,-5403.503377,1991.848295
395.831078,3849.070898,-6365.771101,1915.238745
395.831400,2664.741391,-5921.647536,0.000000
395.831721,1702.473667,-6735.874072,-4290.134789
395.832043,1554.432478,-7994.224174,-7354.516781
395.832365,1554.432478,-10807.006753,-6281.983084
395.832686,-444.123565,-12583.501014,-5822.325785
395.833008,-2146.597232,-14063.912898,-5745.716235
395.833329,-3182.885551,-15396.283594,-5439.278036
395.833651,-3701.029710,-16728.654289,-5669.106685
395.833973,-4737.318029,-16136.489536,-5975.544884
395.834294,-5847.626942,-13619.789333,-3830.477490
395.834616,-6291.750507,-12139.377449,-919.314598
395.834938,-5107.421000,-10807.006753,1149.143247
395.835259,-2590.720797,-8364.327145,2528.115143
395.835581,222.061783,-5699.585753,2145.067394
395.835903,2516.700203,-5107.421000,2298.286494
395.836224,4885.359217,-4589.276840,3524.039291
395.836546,6291.750507,-4293.194464,3217.601092
395.836867,6439.791695,-5551.544565,3600.648841
395.837189,5107.421000,-7179.997637,3447.429741
395.837511,3034.844362,-7179.997637,-1149.143247
395.837832,1406.391290,-8364.327145,-5209.449386
395.838154,962.267725,-10362.883188,-5209.449386
395.838476,-444.123565,-11695.253884,-4673.182538
395.838797,-2072.576638,-12287.418637,-4596.572988
395.839119,-3182.885551,-13027.624579,-3447.429741
395.839440,-3923.091493,-13323.706956,-4366.744339
395.839762,-5329.482782,-12731.542202,-5439.278036
395.840084,-6883.915261,-12065.356855,-3753.867940
395.840405,-8734.430116,-10214.842000,-383.047749
395.840727,-8660.409521,-7550.100608,1762.019645
395.841049,-5329.482782,-6883.915261,1455.581446
395.841370,-1480.411884,-6513.812290,1608.800546
395.841692,1776.494261,-5107.421000,1838.629195
395.842014,4367.215058,-4959.379811,3370.820191
395.842335,6587.832884,-4441.235652,4749.792088
395.842657,7179.997637,-4737.318029,5056.230287
395.842978,6513.812290,-4663.297435,2374.896044
395.843300,4589.276840,-6069.688724,-2528.115143
395.843622,3108.864956,-7179.997637,-5822.325785
395.843943,2442.679609,-9252.574275,-6128.763984
395.844265,1332.370696,-12361.439231,-4519.963438
395.844587,296.082377,-15174.221811,-4290.134789
395.844908,-888.247130,-15396.283594,-4519.963438
395.845230,-2072.576638,-15100.201217,-5209.449386
395.845551,-2886.803174,-15174.221811,-4903.011187
395.845873,-4885.359217,-13027.624579,-4443.353888
395.846195,-6439.791695,-11251.130318,-3294.210641
395.846516,-6883.915261,-9474.636058,-612.876398
395.846838,-4515.256246,-8956.491898,1302.362347
395.847160,-1850.514855,-7624.121203,76.609550
395.847481,1036.288319,-6291.750507,995.924147
395.847803,3552.988522,-6217.729913,2374.896044
395.848125,5773.606348,-5921.647536,2221.676944
395.848446,5625.565159,-6439.791695,2221.676944
395.848768,2960.823768,-6217.729913,1838.629195
395.849089,666.185348,-7105.977043,-1991.848295
395.849411,148.041188,-8808.450710,-7201.297681
395.849733,222.061783,-10658.965565,-7354.516781
395.850054,-888.247130,-11843.295072,-5669.106685
395.850376,-1406.391290,-13471.748144,-4136.915689
395.850698,-1332.370696,-14952.160028,-3064.381992
395.851019,-1628.453072,-15396.283594,-3983.696590
395.851341,-3108.864956,-15248.242405,-5209.449386
395.851663,-5477.523971,-13915.871710,-3524.039291
395.851984,-6883.915261,-11251.130318,-1302.362347
395.852306,-6587.832884,-9104.533087,612.876398
395.852627,-3701.029710,-7402.059420,2451.505594
395.852949,-444.123565,-5551.544565,2681.334243
395.853271,2220.617826,-4293.194464,2681.334243
395.853592,4367.215058,-3701.029710,3524.039291
395.853914,5995.668130,-4145.153275,4136.915689
395.854236,4737.318029,-5181.441594,4443.353888
395.854557,1776.494261,-5033.400406,3370.820191
395.854879,0.000000,-6661.853478,-1532.190996
395.855200,-444.123565,-8216.285956,-6052.154434
395.855522,-222.061783,-8808.450710,-6435.202183
395.855844,-1332.370696,-9770.718434,-4596.572988
395.856165,-2664.741391,-11473.192101,-3600.648841
395.856487,-2664.741391,-14211.954086,-3830.477490
395.856809,-4071.132681,-14878.139434,-4519.963438
395.857130,-5625.565159,-14730.098246,-4519.963438
395.857452,-6957.935855,-12509.480420,-3677.258390
395.857774,-7476.080014,-9770.718434,-2987.772442
395.858095,-5995.668130,-9474.636058,-1072.533697
395.858417,-3034.844362,-8216.285956,1685.410096
395.858738,74.020594,-5625.565159,2145.067394
395.859060,2960.823768,-4737.318029,1685.410096
395.859382,5773.606348,-5625.565159,2068.457845
395.859703,7550.100608,-6809.894666,2604.724693
395.860025,6735.874072,-6957.935855,3524.039291
395.860347,4885.359217,-6883.915261,2221.676944
395.860668,3849.070898,-7328.038826,-1991.848295
395.860990,3256.906145,-7550.100608,-6052.154434
395.861311,2220.617826,-9030.512492,-6511.811733
395.861633,888.247130,-11251.130318,-5898.935335
395.861955,0.000000,-13545.768739,-5362.668486
395.862276,0.000000,-15840.407159,-5362.668486
395.862598,-962.267725,-16728.654289,-5286.058936
395.862920,-2738.761985,-16358.551318,-4903.011187
395.863241,-4737.318029,-14211.954086,-3600.648841
395.863563,-6365.771101,-11769.274478,-2451.505594
395.863885,-6513.812290,-9770.718434,-612.876398
395.864206,-4441.235652,-7476.080014,766.095498
395.864528,-1628.453072,-6143.709319,766.095498
395.864849,1702.473667,-5403.503377,2221.676944
395.865171,4959.379811,-5033.400406,3753.867940
395.865493,7031.956449,-4441.235652,3064.381992
395.865814,7698.141797,-5625.565159,2221.676944
395.866136,5255.462188,-7254.018232,2374.896044
395.866458,1480.411884,-7179.997637,919.314598
395.866779,-740.205942,-7846.182985,-3983.696590
395.867101,0.000000,-10881.027347,-7201.297681
395.867422,-444.123565,-11843.295072,-6281.983084
395.867744,-1702.473667,-11695.253884,-4443.353888
395.868066,-2368.659014,-12953.603985,-2987.772442
395.868387,-2294.638420,-14582.057057,-2604.724693
395.868709,-4145.153275,-14211.954086,-2451.505594
395.869031,-5995.668130,-12657.521608,-3294.210641
395.869352,-7402.059420,-9992.780217,-2221.676944
395.869674,-6883.915261,-8512.368333,-1072.533697
395.869996,-4219.173869,-7476.080014,536.266849
395.870317,-814.226536,-5995.668130,1838.629195
395.870639,1776.494261,-4219.173869,3140.991542
395.870960,4811.338623,-4145.153275,3294.210641
395.871282,6143.709319,-5699.585753,3447.429741
395.871604,5181.441594,-6883.915261,3370.820191
395.871925,2590.720797,-6439.791695,2068.457845
395.872247,962.267725,-7402.059420,-1685.410096
395.872569,74.020594,-8364.327145,-3907.087040
395.872890,-296.082377,-8808.450710,-5898.935335
395.873212,-740.205942,-10584.944971,-5592.497135
395.873534,-888.247130,-13175.665768,-4213.525239
395.873855,-1332.370696,-13767.830521,-3753.867940
395.874177,-1850.514855,-13249.686362,-4213.525239
395.874498,-2516.700203,-13323.706956,-4366.744339
395.874820,-3997.112087,-13323.706956,-4290.134789
395.875142,-5921.647536,-11695.253884,-3753.867940
395.875463,-6439.791695,-9474.636058,-1225.752797
395.875785,-4885.359217,-8512.368333,919.314598
395.876107,-2072.576638,-7846.182985,229.828649
395.876428,518.144159,-6883.915261,-995.924147
395.876750,2738.761985,-6587.832884,0.000000
395.877071,4367.215058,-6883.915261,2145.067394
395.877393,5033.400406,-8290.306550,2604.724693
395.877715,3923.091493,-7550.100608,1378.971896
395.878036,2072.576638,-8512.368333,-1608.800546
395.878358,1258.350101,-8438.347739,-4596.572988
395.878680,962.267725,-9400.615463,-5362.668486
395.879001,814.226536,-11103.089130,-4443.353888
395.879323,444.123565,-12731.542202,-4060.306139
395.879645,296.082377,-13027.624579,-3217.601092
395.879966,148.041188,-13249.686362,-2681.334243
395.880288,-1036.288319,-13915.871710,-1991.848295
395.880609,-3034.844362,-12731.542202,-2681.334243
395.880931,-5625.565159,-9918.759623,-1915.238745
395.881253,-6069.688724,-8216.285956,-459.657299
395.881574,-4219.173869,-7772.162391,1149.143247
395.881896,-2368.659014,-6513.812290,1378.971896
395.882218,-148.041188,-4737.318029,1378.971896
395.882539,2738.761985,-4737.318029,1225.752797
395.882861,5477.523971,-5995.668130,2145.067394
395.883182,5921.647536,-6513.812290,2451.505594
395.883504,3775.050304,-6143.709319,2145.067394
395.883826,1628.453072,-7105.977043,0.000000
395.884147,444.123565,-7994.224174,-3217.601092
395.884469,0.000000,-8808.450710,-4443.353888
395.884791,-222.061783,-9918.759623,-4519.963438
395.885112,0.000000,-10584.944971,-4136.915689
395.885434,-296.082377,-11695.253884,-3294.210641
395.885756,-1110.308913,-12435.459826,-2987.772442
395.886077,-1924.535449,-13323.706956,-2911.162892
395.886399,-4219.173869,-12435.459826,-2451.505594
395.886720,-5995.668130,-11029.068536,-2298.286494
395.887042,-6143.709319,-9474.636058,-1762.019645
395.887364,-3923.091493,-8438.347739,-1225.752797
395.887685,-1332.370696,-7476.080014,-153.219100
395.888007,1110.308913,-7254.018232,1149.143247
395.888329,3997.112087,-7254.018232,2528.115143
395.888650,5847.626942,-7402.059420,1915.238745
395.888972,6217.729913,-8364.327145,766.095498
395.889294,4145.153275,-8956.491898,459.657299
395.889615,1998.556043,-7846.182985,-1455.581446
395.889937,296.082377,-7254.018232,-4443.353888
395.890259,1036.288319,-9474.636058,-6205.373534
395.890580,888.247130,-11917.315666,-5898.935335
395.890902,-814.226536,-12139.377449,-3753.867940
395.891224,-2368.659014,-12879.583391,-2528.115143
395.891545,-2812.782580,-13397.727550,-3217.601092
395.891867,-3108.864956,-14656.077652,-5362.668486
395.892189,-5477.523971,-13915.871710,-5515.887586
395.892511,-7920.203579,-11547.212695,-2145.067394
395.892832,-7846.182985,-8882.471304,0.000000
395.893154,-5181.441594,-7846.182985,-229.828649
395.893476,-2072.576638,-7402.059420,-153.219100
395.893797,518.144159,-6143.709319,919.314598
395.894119,3256.906145,-5477.523971,1838.629195
395.894441,5773.606348,-6587.832884,2221.676944
395.894763,5995.668130,-7624.121203,2604.724693
395.895084,4441.235652,-7624.121203,1225.752797
395.895406,2368.659014,-7550.100608,-995.924147
395.895728,1184.329507,-7698.141797,-3370.820191
395.896049,888.247130,-8882.471304,-3753.867940
395.896371,148.041188,-9030.512492,-4136.915689
395.896693,-814.226536,-9844.739029,-3524.039291
395.897015,-1332.370696,-11325.150913,-2528.115143
395.897336,-2146.597232,-12435.459826,-2451.505594
395.897658,-3552.988522,-13471.748144,-2528.115143
395.897980,-5847.626942,-12657.521608,-2834.553343
395.898301,-7179.997637,-10807.006753,-995.924147
395.898623,-7179.997637,-9474.636058,-459.657299
395.898945,-4885.359217,-7846.182985,76.609550
395.899267,-2220.617826,-6365.771101,612.876398
395.899588,1110.308913,-5551.544565,1225.752797
395.899910,3627.009116,-5255.462188,2298.286494
395.900232,5329.482782,-6365.771101,2221.676944
395.900553,5329.482782,-7254.018232,2528.115143
395.900875,3627.009116,-7920.203579,919.314598
395.901197,2146.597232,-8364.327145,-1378.971896
395.901519,1554.432478,-7994.224174,-3830.477490
395.901840,1184.329507,-8808.450710,-5745.716235
395.902162,1702.473667,-10658.965565,-5056.230287
395.902484,1332.370696,-11843.295072,-3753.867940
395.902805,962.267725,-12509.480420,-3600.648841
395.903127,592.164754,-13323.706956,-4213.525239
395.903449,-222.061783,-14434.015869,-2987.772442
395.903770,-2590.720797,-13915.871710,-3370.820191
395.904092,-5107.421000,-11695.253884,-2604.724693
395.904414,-5699.585753,-9844.739029,-1072.533697
395.904736,-3552.988522,-9178.553681,0.000000
395.905057,-1258.350101,-7846.182985,-306.438199
395.905379,1332.370696,-6365.771101,76.609550
395.905701,3034.844362,-6439.791695,1302.362347
395.906022,4959.379811,-7031.956449,1991.848295
395.906344,4959.379811,-7179.997637,1532.190996
395.906666,3478.967927,-7772.162391,229.828649
395.906988,1110.308913,-7698.141797,-1225.752797
395.907309,0.000000,-8734.430116,-3753.867940
395.907631,-222.061783,-9474.636058,-5669.106685
395.907953,-296.082377,-11547.212695,-5439.278036
395.908274,-148.041188,-13101.645173,-4213.525239
395.908596,74.020594,-13323.706956,-3217.601092
395.908918,-148.041188,-13101.645173,-3524.039291
395.909240,-1110.308913,-13175.665768,-2757.943793
395.909561,-3552.988522,-12213.398043,-2451.505594
395.909883,-5255.462188,-10436.903782,-2068.457845
395.910205,-6069.688724,-8734.430116,306.438199
395.910526,-4515.256246,-7846.182985,1378.971896
395.910848,-2590.720797,-6735.874072,1072.533697
395.911170,-370.102971,-4737.318029,1685.410096
395.911492,1924.535449,-4959.379811,2145.067394
395.911813,3552.988522,-5847.626942,2145.067394
395.912135,3330.926739,-6883.915261,2068.457845
395.912457,1110.308913,-6365.771101,1455.581446
395.912778,-1258.350101,-7328.038826,-306.438199
395.913100,-1850.514855,-8438.347739,-3677.258390
395.913422,-1406.391290,-8956.491898,-5898.935335
395.913744,-888.247130,-10214.842000,-5286.058936
395.914065,-888.247130,-11917.315666,-3447.429741
395.914387,-1184.329507,-12287.418637,-3217.601092
395.914709,-2072.576638,-12583.501014,-2911.162892
395.915030,-3182.885551,-13841.851115,-1915.238745
395.915352,-5181.441594,-12435.459826,-1991.848295
395.915674,-6291.750507,-9622.677246,-2068.457845
395.915995,-5847.626942,-7994.224174,-1302.362347
395.916317,-3330.926739,-7846.182985,0.000000
395.916639,-1480.411884,-7328.038826,766.095498
395.916961,518.144159,-6291.750507,1915.238745
395.917282,2886.803174,-6809.894666,3140.991542
395.917604,5181.441594,-7179.997637,2068.457845
395.917926,5921.647536,-7772.162391,153.219100
395.918247,4663.297435,-8290.306550,-995.924147
395.918569,2960.823768,-8660.409521,-1455.581446
395.918891,1554.432478,-9104.533087,-3064.381992
395.919213,1554.432478,-10807.006753,-5362.668486
395.919534,1332.370696,-12879.583391,-6052.154434
395.919856,1258.350101,-13619.789333,-5286.058936
395.920178,370.102971,-13619.789333,-4060.306139
395.920499,-222.061783,-13471.748144,-2987.772442
395.920821,-1332.370696,-13175.665768,-2221.676944
395.921143,-3256.906145,-12731.542202,-2757.943793
395.921465,-5625.565159,-11103.089130,-1532.190996
395.921786,-6587.832884,-8882.471304,229.828649
395.922108,-4885.359217,-7179.997637,689.485948
395.922430,-2146.597232,-7031.956449,153.219100
395.922751,518.144159,-5551.544565,689.485948
395.923073,3330.926739,-5551.544565,2298.286494
395.923395,5403.503377,-5699.585753,2298.286494
395.923717,5255.462188,-5995.668130,2681.334243
395.924038,3552.988522,-5625.565159,1915.238745
395.924360,1850.514855,-6217.729913,-995.924147
395.924682,1184.329507,-8290.306550,-4903.011187
395.925003,888.247130,-10955.047942,-5362.668486
395.925325,296.082377,-13027.624579,-4136.915689
395.925647,0.000000,-12731.542202,-2681.334243
395.925969,-888.247130,-11547.212695,-1915.238745
395.926290,-888.247130,-11177.109724,-2911.162892
395.926612,-2368.659014,-11177.109724,-3064.381992
395.926934,-4663.297435,-9770.718434,-3140.991542
395.927255,-6291.750507,-9474.636058,-1838.629195
395.927577,-6217.729913,-8956.491898,766.095498
395.927899,-4885.359217,-8586.388927,1608.800546
395.928220,-2886.803174,-7624.121203,1762.019645
395.928542,-962.267725,-6513.812290,1838.629195
395.928864,1406.391290,-6217.729913,1455.581446
395.929186,3552.988522,-5625.565159,536.266849
395.929507,4811.338623,-5255.462188,-229.828649
395.929829,3627.009116,-6661.853478,-153.219100
395.930151,1702.473667,-7772.162391,-1378.971896
395.930472,74.020594,-9474.636058,-4826.401637
395.930794,-296.082377,-11843.295072,-6665.030833
395.931116,-370.102971,-14508.036463,-5822.325785
395.931438,-888.247130,-15174.221811,-5669.106685
395.931759,-1406.391290,-13767.830521,-4443.353888
395.932081,-1554.432478,-12657.521608,-3524.039291
395.932403,-1998.556043,-12731.542202,-3140.991542
395.932724,-4219.173869,-10807.006753,-3447.429741
395.933046,-6513.812290,-8956.491898,-2528.115143
395.933368,-6809.894666,-9252.574275,-842.705048
395.933690,-5329.482782,-9178.553681,612.876398
395.934011,-2886.803174,-8216.285956,536.266849
395.934333,148.041188,-7402.059420,842.705048
395.934655,1628.453072,-6291.750507,2068.457845
395.934976,4737.318029,-5551.544565,1149.143247
395.935298,6291.750507,-6291.750507,-1072.533697
395.935620,5847.626942,-8142.265362,-1608.800546
395.935942,3701.029710,-8734.430116,-766.095498
395.936263,1110.308913,-9474.636058,-2681.334243
395.936585,1184.329507,-11769.274478,-4826.401637
395.936907,962.267725,-14211.954086,-4903.011187
395.937228,-222.061783,-12953.603985,-4060.306139
395.937550,-740.205942,-10584.944971,-3983.696590
395.937872,-666.185348,-10066.800811,-2681.334243
395.938194,-2072.576638,-11917.315666,-1455.581446
395.938515,-5107.421000,-11473.192101,-383.047749
395.938837,-7402.059420,-9400.615463,76.609550
395.939159,-7105.977043,-8956.491898,1149.143247
395.939480,-5033.400406,-9178.553681,1762.019645
395.939802,-2886.803174,-6587.832884,1991.848295
395.940124,-592.164754,-3849.070898,2528.115143
395.940445,3182.885551,-4441.235652,3294.210641
395.940767,5551.544565,-4885.359217,2528.115143
395.941089,6587.832884,-5255.462188,1149.143247
395.941411,5255.462188,-5995.668130,536.266849
395.941732,3182.885551,-7550.100608,-459.657299
395.942054,1184.329507,-8882.471304,-3064.381992
395.942376,666.185348,-10658.965565,-5362.668486
395.942697,518.144159,-12139.377449,-5669.106685
395.943019,-592.164754,-12805.562797,-4673.182538
395.943341,-1702.473667,-12805.562797,-3677.258390
395.943663,-2072.576638,-12065.356855,-2604.724693
395.943984,-2664.741391,-12139.377449,-2834.553343
395.944306,-4071.132681,-11769.274478,-3217.601092
395.944628,-5477.523971,-10658.965565,-1455.581446
395.944949,-6439.791695,-8882.471304,459.657299
395.945271,-4811.338623,-7920.203579,1302.362347
395.945593,-1924.535449,-7772.162391,76.609550
395.945915,1332.370696,-7254.018232,0.000000
395.946236,3627.009116,-7031.956449,1302.362347
395.946558,5625.565159,-6883.915261,2221.676944
395.946880,7105.977043,-6809.894666,842.705048
395.947201,6513.812290,-7402.059420,-1149.143247
395.947523,4145.153275,-8660.409521,-2145.067394
395.947845,1258.350101,-9326.594869,-4136.915689
395.948167,0.000000,-10732.986159,-6511.811733
395.948488,-222.061783,-13693.809927,-6894.859482
395.948810,-1776.494261,-15174.221811,-4979.620737
395.949132,-3256.906145,-14285.974681,-4366.744339
395.949453,-3404.947333,-12731.542202,-4290.134789
395.949775,-3330.926739,-13545.768739,-3524.039291
395.950097,-5033.400406,-12065.356855,-2911.162892
395.950419,-6957.935855,-9030.512492,-1378.971896
395.950740,-7698.141797,-7105.977043,-536.266849
395.951062,-5995.668130,-7624.121203,229.828649
395.951384,-3923.091493,-7402.059420,842.705048
395.951705,-2072.576638,-5847.626942,1149.143247
395.952027,740.205942,-5699.585753,1838.629195
395.952349,3701.029710,-6661.853478,2604.724693
395.952670,5773.606348,-6735.874072,1762.019645
395.952992,5329.482782,-6365.771101,229.828649
395.953314,4071.132681,-6809.894666,-766.095498
395.953636,2294.638420,-8142.265362,-2987.772442
395.953957,2072.576638,-10436.903782,-4213.525239
395.954279,962.267725,-11843.295072,-4519.963438
395.954601,148.041188,-11917.315666,-3753.867940
395.954922,-222.061783,-11917.315666,-3217.601092
395.955244,-370.102971,-12213.398043,-2451.505594
395.955566,-1406.391290,-12213.398043,-1608.800546
395.955888,-3404.947333,-11251.130318,-1225.752797
395.956209,-5033.400406,-9696.697840,-153.219100
395.956531,-5477.523971,-8882.471304,842.705048
395.956853,-4737.318029,-7402.059420,1072.533697
395.957174,-3330.926739,-6143.709319,229.828649
395.957496,-518.144159,-5403.503377,1225.752797
395.957818,2442.679609,-5255.462188,1991.848295
395.958140,4811.338623,-5477.523971,1762.019645
395.958461,5847.626942,-6735.874072,689.485948
395.958783,4293.194464,-8142.265362,-383.047749
395.959105,2368.659014,-8808.450710,-1302.362347
395.959426,370.102971,-9474.636058,-4213.525239
395.959748,518.144159,-11325.150913,-6358.592633
395.960070,666.185348,-13471.748144,-6665.030833
395.960392,148.041188,-13471.748144,-5515.887586
395.960713,74.020594,-13249.686362,-3677.258390
395.961035,444.123565,-13397.727550,-3217.601092
395.961357,222.061783,-13323.706956,-2987.772442
395.961678,-2294.638420,-12139.377449,-2681.334243
395.962000,-4367.215058,-9548.656652,-995.924147
395.962322,-4737.318029,-8364.327145,766.095498
395.962644,-3923.091493,-7402.059420,919.314598
395.962965,-2368.659014,-7179.997637,766.095498
395.963287,-518.144159,-5477.523971,1532.190996
395.963609,1924.535449,-5477.523971,1991.848295
395.963930,4071.132681,-6365.771101,1455.581446
395.964252,4959.379811,-6883.915261,0.000000
395.964574,4071.132681,-7254.018232,-1608.800546
395.964895,1776.494261,-8734.430116,-3217.601092
395.965217,0.000000,-9918.759623,-4596.572988
395.965539,-2294.638420,-11325.150913,-5898.935335
395.965861,-3330.926739,-12509.480420,-6205.373534
395.966182,-3108.864956,-14211.954086,-6128.763984
395.966504,-2516.700203,-14137.933492,-5975.544884
395.966826,-2294.638420,-12583.501014,-4366.744339
395.967147,-2960.823768,-12139.377449,-1991.848295
395.967469,-4663.297435,-11399.171507,-1532.190996
395.967791,-6143.709319,-9030.512492,-1072.533697
395.968113,-6957.935855,-8142.265362,229.828649
395.968434,-5181.441594,-7402.059420,1838.629195
395.968756,-2738.761985,-6883.915261,1838.629195
395.969078,0.000000,-5255.462188,2834.553343
395.969399,2886.803174,-5255.462188,4136.915689
395.969721,5181.441594,-5033.400406,3830.477490
395.970043,6439.791695,-5107.421000,1991.848295
395.970365,5699.585753,-5625.565159,383.047749
395.970686,3552.988522,-6957.935855,-2221.676944
395.971008,1702.473667,-7698.141797,-4903.011187
395.971330,1036.288319,-9992.780217,-5132.839837
395.971651,740.205942,-12657.521608,-4903.011187
395.971973,-666.185348,-13693.809927,-4366.744339
395.972295,-1998.556043,-12657.521608,-4290.134789
395.972617,-3404.947333,-12805.562797,-3524.039291
395.972938,-4293.194464,-13471.748144,-3370.820191
395.973260,-6143.709319,-12213.398043,-3140.991542
395.973582,-6957.935855,-9326.594869,-2068.457845
395.973903,-6069.688724,-7846.182985,-306.438199
395.974225,-3849.070898,-7179.997637,1915.238745
395.974547,-1628.453072,-6439.791695,1455.581446
395.974869,888.247130,-6143.709319,1838.629195
395.975190,3552.988522,-7031.956449,3447.429741
395.975512,6069.688724,-7550.100608,3217.601092
395.975834,7179.997637,-7105.977043,919.314598
395.976155,6735.874072,-7179.997637,-229.828649
395.976477,5699.585753,-7846.182985,-1838.629195
395.976799,4885.359217,-8956.491898,-4596.572988
395.977120,4293.194464,-11251.130318,-6358.592633
395.977442,2960.823768,-13175.665768,-5669.106685
395.977764,1702.473667,-14359.995275,-4673.182538
395.978086,0.000000,-14508.036463,-4443.353888
395.978407,-1406.391290,-14211.954086,-4213.525239
395.978729,-2516.700203,-13767.830521,-4213.525239
395.979051,-5033.400406,-11843.295072,-4213.525239
395.979372,-6587.832884,-10214.842000,-2451.505594
395.979694,-7402.059420,-9696.697840,0.000000
395.980016,-7476.080014,-9030.512492,1685.410096
395.980338,-6069.688724,-7846.182985,1532.190996
395.980659,-2590.720797,-6217.729913,1378.971896
395.980981,888.247130,-5773.606348,1915.238745
395.981303,3182.885551,-4885.359217,2451.505594
395.981624,4959.379811,-4663.297435,2221.676944
395.981946,5773.606348,-5921.647536,1149.143247
395.982268,4589.276840,-7476.080014,-536.266849
395.982590,1924.535449,-7846.182985,-2757.943793
395.982911,444.123565,-9030.512492,-5669.106685
395.983233,666.185348,-12509.480420,-5822.325785
395.983555,0.000000,-13471.748144,-5056.230287
395.983876,-962.267725,-12361.439231,-4060.306139
395.984198,-1480.411884,-11547.212695,-2987.772442
395.984520,-2146.597232,-11991.336260,-2068.457845
395.984842,-4515.256246,-11325.150913,-2451.505594
395.985163,-7254.018232,-9474.636058,-2298.286494
395.985485,-8438.347739,-8512.368333,0.000000
395.985807,-7105.977043,-7772.162391,1608.800546
395.986128,-4959.379811,-6587.832884,1685.410096
395.986450,-1998.556043,-4811.338623,1685.410096
395.986772,740.205942,-4811.338623,2451.505594
395.987094,2664.741391,-5181.441594,2834.553343
395.987415,4515.256246,-5329.482782,2834.553343
395.987737,4663.297435,-6069.688724,-153.219100
395.988059,3552.988522,-7550.100608,-2834.553343
395.988380,1628.453072,-8956.491898,-4136.915689
395.988702,666.185348,-9992.780217,-5515.887586
395.989024,1036.288319,-12953.603985,-6511.811733
395.989345,1110.308913,-14359.995275,-6281.983084
395.989667,148.041188,-14211.954086,-5592.497135
395.989989,-148.041188,-14063.912898,-3983.696590
395.990310,-740.205942,-13915.871710,-2834.553343
395.990632,-2664.741391,-12953.603985,-3294.210641
395.990954,-4293.194464,-11399.171507,-2757.943793
395.991275,-4737.318029,-10066.800811,-612.876398
395.991597,-3849.070898,-8660.409521,612.876398
395.991919,-2146.597232,-7476.080014,1532.190996
395.992240,0.000000,-6217.729913,2451.505594
395.992562,2960.823768,-5403.503377,2757.943793
395.992884,5847.626942,-5477.523971,2145.067394
395.993205,6735.874072,-6809.894666,1838.629195
395.993527,5329.482782,-7550.100608,1991.848295
395.993849,3849.070898,-8808.450710,-689.485948
395.994170,2146.597232,-10066.800811,-4366.744339
395.994492,1850.514855,-11399.171507,-5132.839837
395.994814,1628.453072,-12657.521608,-5669.106685
395.995135,814.226536,-13619.789333,-4979.620737
395.995457,296.082377,-13471.748144,-4136.915689
395.995779,-444.123565,-12361.439231,-4136.915689
395.996100,-1332.370696,-11843.295072,-3370.820191
395.996422,-3701.029710,-11251.130318,-1991.848295
395.996744,-6661.853478,-10288.862594,-1072.533697
395.997065,-8660.409521,-7994.224174,-153.219100
395.997387,-7550.100608,-7328.038826,1378.971896
395.997709,-5477.523971,-7846.182985,2068.457845
395.998030,-3330.926739,-7105.977043,3064.381992
395.998352,-296.082377,-5329.482782,4213.525239
395.998674,3182.885551,-4441.235652,2834.553343
395.998995,5995.668130,-5255.462188,2221.676944
395.999317,5255.462188,-5699.585753,2757.943793
395.999639,3256.906145,-5255.462188,1225.752797
395.999960,1406.391290,-6735.874072,-3064.381992
396.000282,888.247130,-9844.739029,-5898.935335
396.000604,0.000000,-13175.665768,-4903.011187
396.000925,-962.267725,-14582.057057,-3677.258390
396.001247,-1924.535449,-12805.562797,-3600.648841
396.001569,-962.267725,-11621.233289,-4213.525239
396.001890,-888.247130,-12139.377449,-4060.306139
396.002212,-3923.091493,-10584.944971,-2145.067394
396.002534,-7920.203579,-8734.430116,-1685.410096
396.002855,-9474.636058,-7846.182985,-1608.800546
396.003177,-7476.080014,-8438.347739,-1915.238745
396.003499,-4737.318029,-9178.553681,-1302.362347
396.003820,-2812.782580,-7846.182985,995.924147
396.004142,74.020594,-6957.935855,2834.553343
396.004464,3627.009116,-7105.977043,3064.381992
396.004785,6513.812290,-6735.874072,766.095498
396.005107,6587.832884,-6809.894666,-612.876398
396.005429,4959.379811,-6883.915261,-1685.410096
396.005750,3775.050304,-7698.141797,-3140.991542
396.006072,2960.823768,-9474.636058,-4979.620737
396.006394,3256.906145,-12435.459826,-5592.497135
396.006715,2220.617826,-14137.933492,-5592.497135
396.007037,1554.432478,-14582.057057,-4826.401637
396.007359,444.123565,-14137.933492,-4136.915689
396.007680,-296.082377,-14211.954086,-4519.963438
396.008002,-2886.803174,-12953.603985,-4903.011187
396.008324,-5625.565159,-11399.171507,-3370.820191
396.008646,-6883.915261,-9844.739029,-612.876398
396.008967,-6365.771101,-8660.409521,229.828649
396.009289,-4071.132681,-7698.141797,0.000000
396.009611,-1332.370696,-7550.100608,76.609550
396.009932,1998.556043,-7624.121203,1608.800546
396.010254,5033.400406,-7105.977043,2145.067394
396.010576,6735.874072,-6957.935855,2451.505594
396.010897,6365.771101,-6439.791695,2757.943793
396.011219,4145.153275,-5699.585753,229.828649
396.011541,1776.494261,-7105.977043,-2757.943793
396.011862,74.020594,-8956.491898,-4903.011187
396.012184,-592.164754,-11547.212695,-4519.963438
396.012506,-1480.411884,-12287.418637,-3753.867940
396.012827,-1036.288319,-12583.501014,-2451.505594
396.013149,-1110.308913,-11325.150913,-2221.676944
396.013471,-1184.329507,-11325.150913,-2528.115143
396.013792,-2664.741391,-10658.965565,-3677.258390
396.014114,-5329.482782,-9474.636058,-2834.553343
396.014436,-7254.018232,-8734.430116,-766.095498
396.014757,-6957.935855,-8364.327145,0.000000
396.015079,-4959.379811,-7328.038826,1149.143247
396.015401,-2220.617826,-6513.812290,1455.581446
396.015722,1110.308913,-6587.832884,2451.505594
396.016044,3478.967927,-6439.791695,3064.381992
396.016366,5033.400406,-5847.626942,2604.724693
396.016687,5699.585753,-6143.709319,2298.286494
396.017009,4145.153275,-6883.915261,383.047749
396.017331,2368.659014,-7698.141797,-2681.334243
396.017652,1406.391290,-8586.388927,-5515.887586
396.017974,1036.288319,-11251.130318,-4979.620737
396.018296,0.000000,-13397.727550,-4213.525239
396.018617,-1184.329507,-13693.809927,-3370.820191
396.018939,-1776.494261,-12805.562797,-3140.991542
396.019261,-2294.638420,-13471.748144,-3217.601092
396.019582,-4367.215058,-13767.830521,-3753.867940
396.019904,-6735.874072,-11103.089130,-3677.258390
396.020226,-7476.080014,-9326.594869,-2681.334243
396.020547,-6217.729913,-9400.615463,-1225.752797
396.020869,-3923.091493,-9104.533087,0.000000
396.021191,-1850.514855,-7254.018232,1149.143247
396.021512,518.144159,-6439.791695,2145.067394
396.021834,3404.947333,-7105.977043,1532.190996
396.022156,5403.503377,-7402.059420,766.095498
396.022477,5403.503377,-7179.997637,0.000000
396.022799,3997.112087,-7179.997637,-689.485948
396.023121,2146.597232,-8068.244768,-2221.676944
396.023442,1554.432478,-9474.636058,-4443.353888
396.023764,1480.411884,-11843.295072,-4903.011187
396.024086,814.226536,-13619.789333,-4136.915689
396.024407,0.000000,-13249.686362,-3524.039291
396.024729,-888.247130,-12361.439231,-3294.210641
396.025051,-1332.370696,-12361.439231,-2604.724693
396.025372,-3775.050304,-11103.089130,-2298.286494
396.025694,-6735.874072,-9400.615463,-2528.115143
396.026016,-7920.203579,-8438.347739,-2298.286494
396.026337,-6735.874072,-8364.327145,-1302.362347
396.026659,-4737.318029,-8660.409521,842.705048
396.026981,-1702.473667,-7920.203579,2221.676944
396.027302,1628.453072,-7476.080014,3983.696590
396.027624,4885.359217,-6587.832884,3600.648841
396.027946,6957.935855,-5625.565159,2528.115143
396.028267,6069.688724,-3997.112087,2145.067394
396.028589,3849.070898,-3997.112087,766.095498
396.028911,1628.453072,-6291.750507,-2451.505594
396.029232,592.164754,-9030.512492,-4826.401637
396.029554,370.102971,-12287.418637,-4443.353888
396.029876,74.020594,-13767.830521,-2911.162892
396.030197,148.041188,-12879.583391,-1762.019645
396.030519,148.041188,-11177.109724,-2604.724693
396.030841,-296.082377,-11621.233289,-3447.429741
396.031162,-3034.844362,-11029.068536,-3677.258390
396.031484,-6217.729913,-9696.697840,-2987.772442
396.031806,-7846.182985,-9252.574275,-2451.505594
396.032127,-7031.956449,-9104.533087,-2298.286494
396.032449,-5255.462188,-8956.491898,-766.095498
396.032771,-2664.741391,-8142.265362,766.095498
396.033092,444.123565,-8290.306550,1991.848295
396.033414,4663.297435,-7994.224174,1608.800546
396.033736,7846.182985,-7105.977043,76.609550
396.034057,7550.100608,-6439.791695,-766.095498
396.034379,6143.709319,-7105.977043,-306.438199
396.034701,3997.112087,-8142.265362,-1378.971896
396.035022,2368.659014,-9474.636058,-4213.525239
396.035344,1480.411884,-11547.212695,-5362.668486
396.035666,814.226536,-13915.871710,-4443.353888
396.035987,-222.061783,-14211.954086,-3753.867940
396.036309,-518.144159,-12879.583391,-3370.820191
396.036631,-444.123565,-13175.665768,-3140.991542
396.036952,-2146.597232,-12435.459826,-1915.238745
396.037274,-5255.462188,-10584.944971,-1072.533697
396.037596,-8660.409521,-8586.388927,-612.876398
396.037917,-8512.368333,-7846.182985,-995.924147
396.038239,-6143.709319,-8438.347739,-1685.410096
396.038561,-3478.967927,-8438.347739,-229.828649
396.038882,-666.185348,-7920.203579,2604.724693
396.039204,2738.761985,-7476.080014,3677.258390
396.039526,5033.400406,-7179.997637,2451.505594
396.039847,5477.523971,-7254.018232,1762.019645
396.040169,3997.112087,-6809.894666,-229.828649
396.040491,1702.473667,-6957.935855,-3677.258390
396.040812,1110.308913,-8734.430116,-4979.620737
396.041134,0.000000,-10955.047942,-3524.039291
396.041456,-740.205942,-11769.274478,-2987.772442
396.041777,-740.205942,-11251.130318,-2681.334243
396.042099,-1110.308913,-11399.171507,-2374.896044
396.042421,-1554.432478,-12583.501014,-2298.286494
396.042742,-4441.235652,-11843.295072,-2068.457845
396.043064,-7105.977043,-9326.594869,-1378.971896
396.043386,-8586.388927,-7624.121203,-459.657299
396.043707,-7476.080014,-7105.977043,0.000000
396.044029,-5181.441594,-6513.812290,-1072.533697
396.044351,-1776.494261,-6217.729913,-383.047749
396.044672,1184.329507,-7105.977043,2374.896044
396.044994,3997.112087,-7105.977043,3907.087040
396.045316,6439.791695,-6735.874072,2757.943793
396.045637,6957.935855,-6291.750507,766.095498
396.045959,5403.503377,-6513.812290,-1762.019645
396.046281,2368.659014,-7402.059420,-3753.867940
396.046602,370.102971,-8956.491898,-5439.278036
396.046924,0.000000,-11695.253884,-5362.668486
396.047246,0.000000,-13915.871710,-4826.401637
396.047567,-444.123565,-14804.118840,-3447.429741
396.047889,-1406.391290,-14434.015869,-2528.115143
396.048211,-1776.494261,-13767.830521,-2604.724693
396.048532,-3478.967927,-12583.501014,-4213.525239
396.048854,-6439.791695,-10955.047942,-3064.381992
396.049176,-8512.368333,-8734.430116,-459.657299
396.049497,-6957.935855,-7105.977043,-1149.143247
396.049819,-3701.029710,-6809.894666,-2451.505594
396.050141,666.185348,-7402.059420,-1532.190996
396.050462,3923.091493,-8364.327145,1302.362347
396.050784,5773.606348,-8216.285956,2911.162892
396.051106,7105.977043,-7402.059420,2987.772442
396.051427,7328.038826,-8216.285956,689.485948
396.051749,6069.688724,-7994.224174,-2681.334243
396.052071,3182.885551,-7920.203579,-4826.401637
396.052392,888.247130,-8956.491898,-5132.839837
396.052714,148.041188,-12139.377449,-3907.087040
396.053036,0.000000,-13767.830521,-3447.429741
396.053357,-148.041188,-13471.748144,-3140.991542
396.053679,-148.041188,-13027.624579,-2911.162892
396.054001,-592.164754,-12879.583391,-2834.553343
396.054322,-2664.741391,-10732.986159,-1762.019645
396.054644,-6069.688724,-9178.553681,0.000000
396.054966,-7994.224174,-7179.997637,919.314598
396.055287,-7772.162391,-5995.668130,0.000000
396.055609,-5773.606348,-6365.771101,-995.924147
396.055931,-2738.761985,-6957.935855,0.000000
396.056252,0.000000,-7402.059420,2451.505594
396.056574,3182.885551,-7550.100608,2987.772442
396.056896,6217.729913,-7402.059420,2528.115143
396.057217,7105.977043,-7105.977043,1455.581446
396.057539,4589.276840,-5551.544565,-1225.752797
396.057861,1628.453072,-5995.668130,-3064.381992
396.058182,-222.061783,-8882.471304,-5439.278036
396.058504,-1036.288319,-12657.521608,-5132.839837
396.058826,-1332.370696,-14211.954086,-3600.648841
396.059147,-888.247130,-13397.727550,-2068.457845
396.059469,222.061783,-11843.295072,-919.314598
396.059791,740.205942,-11621.233289,-689.485948
396.060112,-1406.391290,-10436.903782,-1762.019645
396.060434,-4441.235652,-8512.368333,-1378.971896
396.060756,-6587.832884,-7328.038826,0.000000
396.061077,-7031.956449,-7254.018232,-153.219100
396.061399,-5773.606348,-7031.956449,-153.219100
396.061721,-2960.823768,-7105.977043,-153.219100
396.062042,-666.185348,-7698.141797,1225.752797
396.062364,2220.617826,-9104.533087,1455.581446
396.062686,5033.400406,-8882.471304,0.000000
396.063007,6217.729913,-8290.306550,-1608.800546
396.063329,4663.297435,-8364.327145,-2374.896044
396.063651,2368.659014,-9252.574275,-3217.601092
396.063972,962.267725,-9548.656652,-5132.839837
396.064294,592.164754,-11843.295072,-6894.859482
396.064616,0.000000,-13915.871710,-6205.373534
396.064937,-666.185348,-13915.871710,-4826.401637
396.065259,-592.164754,-13249.686362,-3217.601092
396.065581,-814.226536,-13101.645173,-2451.505594
396.065902,-2072.576638,-11991.336260,-1762.019645
396.066224,-3849.070898,-9622.677246,-919.314598
396.066546,-5773.606348,-8068.244768,-536.266849
396.066867,-5995.668130,-7105.977043,229.828649
396.067189,-4885.359217,-7179.997637,229.828649
396.067511,-2368.659014,-6291.750507,842.705048
396.067832,1480.411884,-6439.791695,1762.019645
396.068154,4885.359217,-7105.977043,1838.629195
396.068476,7402.059420,-7328.038826,1991.848295
396.068797,7402.059420,-7031.956449,842.705048
396.069119,5255.462188,-7698.141797,-689.485948
396.069441,2664.741391,-8734.430116,-3600.648841
396.069762,1184.329507,-9696.697840,-6128.763984
396.070084,814.226536,-11769.274478,-6358.592633
396.070406,0.000000,-12509.480420,-4903.011187
396.070727,-592.164754,-12065.356855,-2911.162892
396.071049,-962.267725,-11917.315666,-1915.238745
396.071371,-1406.391290,-11991.336260,-1838.629195
396.071692,-3034.844362,-11621.233289,-2298.286494
396.072014,-6143.709319,-10066.800811,-1149.143247
396.072336,-8364.327145,-8216.285956,1455.581446
396.072657,-8734.430116,-5477.523971,1302.362347
396.072979,-5995.668130,-4737.318029,0.000000
396.073301,-1924.535449,-5921.647536,0.000000
396.073622,1184.329507,-7105.977043,1762.019645
396.073944,3182.885551,-7105.977043,3140.991542
396.074266,5551.544565,-6439.791695,3753.867940
396.074587,6587.832884,-6883.915261,1762.019645
396.074909,5181.441594,-7402.059420,-2145.067394
396.075231,2812.782580,-7846.182985,-5132.839837
396.075552,666.185348,-9992.780217,-6818.249932
396.075874,222.061783,-13841.851115,-6741.640382
396.076196,-962.267725,-15766.386565,-5209.449386
396.076517,-2516.700203,-15174.221811,-2681.334243
396.076839,-3478.967927,-13397.727550,-2145.067394
396.077161,-4293.194464,-12287.418637,-2834.553343
396.077482,-4589.276840,-12361.439231,-3753.867940
396.077804,-6217.729913,-9844.739029,-2528.115143
396.078126,-7772.162391,-7254.018232,306.438199
396.078447,-8068.244768,-6587.832884,1608.800546
396.078769,-6069.688724,-6735.874072,1072.533697
396.079091,-4367.215058,-6809.894666,229.828649
396.079412,-2294.638420,-7179.997637,842.705048
396.079734,148.041188,-7698.141797,1991.848295
396.080056,3108.864956,-7550.100608,229.828649
396.080377,4441.235652,-7846.182985,-1225.752797
396.080699,2886.803174,-7772.162391,-2374.896044
396.081021,0.000000,-8364.327145,-2987.772442
396.081342,-2220.617826,-9474.636058,-5822.325785
396.081664,-3330.926739,-12361.439231,-7814.174080
396.081986,-4811.338623,-14508.036463,-6971.469032
396.082307,-6069.688724,-14508.036463,-4596.572988
396.082629,-6291.750507,-13693.809927,-2987.772442
396.082951,-5699.585753,-11917.315666,-2145.067394
396.083272,-5773.606348,-9696.697840,-2451.505594
396.083594,-6661.853478,-7402.059420,-2145.067394
396.083916,-8734.430116,-6883.915261,-383.047749
396.084237,-9622.677246,-7328.038826,1685.410096
396.084559,-9770.718434,-6587.832884,2145.067394
396.084881,-7624.121203,-5921.647536,1455.581446
396.085202,-4219.173869,-6735.874072,383.047749
396.085524,-1628.453072,-7402.059420,306.438199
396.085846,962.267725,-7179.997637,1072.533697
396.086167,3108.864956,-6587.832884,919.314598
396.086489,3775.050304,-6291.750507,-153.219100
396.086811,2368.659014,-7624.121203,-1455.581446
396.087132,0.000000,-9178.553681,-3370.820191
396.087454,-2294.638420,-10140.821405,-5592.497135
396.087776,-3627.009116,-12139.377449,-6971.469032
396.088097,-5625.565159,-13323.706956,-5209.449386
396.088419,-7105.977043,-12805.562797,-2604.724693
396.088741,-7994.224174,-10510.924376,-2451.505594
396.089062,-7698.141797,-9326.594869,-3830.477490
396.089384,-6661.853478,-9474.636058,-3140.991542
396.089706,-6217.729913,-9400.615463,-2528.115143
396.090027,-5699.585753,-8068.244768,-1685.410096
396.090349,-4145.153275,-7920.203579,-383.047749
396.090671,-2664.741391,-8882.471304,1225.752797
396.090992,-2516.700203,-9992.780217,2681.334243
396.091314,-3404.947333,-9844.739029,2604.724693
396.091636,-3182.885551,-8586.388927,842.705048
396.091957,-1258.350101,-7846.182985,-995.924147
396.092279,444.123565,-7698.141797,-1685.410096
396.092601,2590.720797,-8068.244768,-1455.581446
396.092923,3404.947333,-9474.636058,-2068.457845
396.093245,3701.029710,-10214.842000,-1991.848295
396.093567,3182.885551,-10881.027347,-2681.334243
396.093888,1850.514855,-11325.150913,-3524.039291
396.094210,0.000000,-11547.212695,-3753.867940
396.094532,-2072.576638,-10732.986159,-4673.182538
396.094854,-4441.235652,-10658.965565,-5132.839837
396.095176,-5477.523971,-11473.192101,-3370.820191
396.095498,-6069.688724,-11177.109724,-1455.581446
396.095820,-7105.977043,-8660.409521,-1225.752797
396.096141,-6809.894666,-7105.977043,-1149.143247
396.096463,-6069.688724,-8068.244768,-1915.238745
396.096785,-5921.647536,-9918.759623,-2451.505594
396.097107,-6069.688724,-9844.739029,-459.657299
396.097429,-5773.606348,-8290.306550,1378.971896
396.097751,-4145.153275,-7550.100608,919.314598
396.098072,-1554.432478,-7920.203579,-612.876398
396.098394,-888.247130,-7846.182985,-1225.752797
396.098716,0.000000,-7254.018232,-1149.143247
396.099038,1998.556043,-7105.977043,-1838.629195
396.099360,4441.235652,-9030.512492,-3983.696590
396.099682,5477.523971,-12731.542202,-3370.820191
396.100003,2590.720797,-13471.748144,-459.657299
396.100325,-2294.638420,-12731.542202,1302.362347
396.100647,-5625.565159,-12361.439231,76.609550
396.100969,-7846.182985,-11177.109724,-1915.238745
396.101291,-9844.739029,-8290.306550,-3907.087040
396.101613,-11177.109724,-5551.544565,-4290.134789
396.101934,-11843.295072,-5329.482782,-2145.067394
396.102256,-10732.986159,-6069.688724,-229.828649
396.102578,-8956.491898,-6661.853478,-766.095498
396.102900,-6883.915261,-7994.224174,-1608.800546
396.103222,-5033.400406,-9770.718434,-1378.971896
396.103544,-4293.194464,-10510.924376,-1762.019645
396.103865,-3775.050304,-9474.636058,-2374.896044
396.104187,-2368.659014,-8956.491898,-2528.115143
396.104509,-962.267725,-9030.512492,-2681.334243
396.104831,-1110.308913,-8734.430116,-3524.039291
396.105153,-2220.617826,-8586.388927,-4903.011187
396.105475,-2442.679609,-10362.883188,-4443.353888
396.105797,-2664.741391,-12509.480420,-2681.334243
396.106118,-3552.988522,-13841.851115,-1149.143247
396.106440,-4293.194464,-12953.603985,459.657299
396.106762,-4737.318029,-11103.089130,689.485948
396.107084,-5255.462188,-9252.574275,76.609550
396.107406,-5329.482782,-7402.059420,-612.876398
396.107728,-4737.318029,-5329.482782,-1455.581446
396.108049,-3256.906145,-4737.318029,-1149.143247
396.108371,-888.247130,-4811.338623,-459.657299
396.108693,592.164754,-5403.503377,-153.219100
396.109015,1036.288319,-7105.977043,-1302.362347
396.109337,962.267725,-10436.903782,-2757.943793
396.109659,-444.123565,-12805.562797,-3064.381992
396.109980,-1924.535449,-14211.954086,-2451.505594
396.110302,-3404.947333,-13693.809927,-2987.772442
396.110624,-3923.091493,-13249.686362,-3677.258390
396.110946,-3849.070898,-13323.706956,-3830.477490
396.111268,-4589.276840,-11917.315666,-1915.238745
396.111590,-5699.585753,-9770.718434,0.000000
396.111911,-6661.853478,-7254.018232,-229.828649
396.112233,-5699.585753,-6365.771101,-1149.143247
396.112555,-4589.276840,-6365.771101,-2987.772442
396.112877,-3701.029710,-6735.874072,-3677.258390
396.113199,-3108.864956,-7105.977043,-995.924147
396.113521,-2738.761985,-7105.977043,1532.190996
396.113843,-2368.659014,-6883.915261,459.657299
396.114164,-1776.494261,-7476.080014,-1991.848295
396.114486,-1702.473667,-9326.594869,-3753.867940
396.114808,-2442.679609,-12435.459826,-3907.087040
396.115130,-2442.679609,-15840.407159,-1072.533697
396.115452,-2072.576638,-16210.510130,2145.067394
396.115774,-1258.350101,-13323.706956,3140.991542
396.116095,370.102971,-10732.986159,2451.505594
396.116417,2072.576638,-9474.636058,919.314598
396.116739,2368.659014,-8808.450710,383.047749
396.117061,1554.432478,-8068.244768,1991.848295
396.117383,0.000000,-7550.100608,4596.572988
396.117705,-1776.494261,-5403.503377,5439.278036
396.118026,-4737.318029,-4441.235652,3217.601092
396.118348,-7846.182985,-3404.947333,919.314598
396.118670,-9770.718434,-2220.617826,-1991.848295
396.118992,-9770.718434,-3849.070898,-6511.811733
396.119314,-9252.574275,-7031.956449,-6894.859482
396.119636,-8438.347739,-8734.430116,-4060.306139
396.119957,-7698.141797,-11473.192101,-3524.039291
396.120279,-6957.935855,-16210.510130,-3830.477490
396.120601,-6735.874072,-18949.272115,-3140.991542
396.120923,-6291.750507,-17987.004391,-3907.087040
396.121245,-4589.276840,-14508.036463,-3370.820191
396.121567,-2368.659014,-12065.356855,0.000000
396.121888,-1776.494261,-8586.388927,2068.457845
396.122210,-1406.391290,-5033.400406,3600.648841
396.122532,-592.164754,-2590.720797,3983.696590
396.122854,0.000000,-3034.844362,3524.039291
396.123176,296.082377,-4737.318029,1532.190996
396.123498,-666.185348,-7254.018232,1302.362347
396.123820,-1184.329507,-9844.739029,3600.648841
396.124141,-740.205942,-11251.130318,3140.991542
396.124463,1628.453072,-12509.480420,-306.438199
396.124785,3404.947333,-10807.006753,-2757.943793
396.125107,2442.679609,-9696.697840,-3677.258390
396.125429,518.144159,-12065.356855,-2987.772442
396.125751,-592.164754,-15766.386565,-1378.971896
396.126072,-296.082377,-16580.613101,-2298.286494
396.126394,74.020594,-15544.324782,-2757.943793
396.126716,1110.308913,-13693.809927,-689.485948
396.127038,962.267725,-11029.068536,2221.676944
396.127360,-222.061783,-7105.977043,3217.601092
396.127682,-888.247130,-3478.967927,3524.039291
396.128003,0.000000,-2146.597232,3600.648841
396.128325,1406.391290,-962.267725,1225.752797
396.128647,1628.453072,-1924.535449,229.828649
396.128969,888.247130,-4589.276840,2757.943793
396.129291,666.185348,-6587.832884,3830.477490
396.129613,2368.659014,-8586.388927,689.485948
396.129934,3775.050304,-11177.109724,-3294.210641
396.130256,3108.864956,-12139.377449,-4443.353888
396.130578,1480.411884,-13249.686362,-3064.381992
396.130900,74.020594,-16432.571912,-536.266849
396.131222,-1036.288319,-17838.963202,536.266849
396.131544,-2368.659014,-15544.324782,-689.485948
396.131865,-2664.741391,-12879.583391,-995.924147
396.132187,-2294.638420,-11769.274478,1915.238745
396.132509,-2294.638420,-10955.047942,4749.792088
396.132831,-2738.761985,-9104.533087,5975.544884
396.133153,-3849.070898,-7476.080014,7814.174080
396.133475,-3997.112087,-6587.832884,7967.393179
396.133797,-4145.153275,-7105.977043,4290.134789
396.134118,-4441.235652,-7254.018232,2987.772442
396.134440,-2812.782580,-6439.791695,4749.792088
396.134762,-148.041188,-5995.668130,3983.696590
396.135084,2960.823768,-5699.585753,1762.019645
396.135406,4071.132681,-3182.885551,1455.581446
396.135728,3182.885551,-2812.782580,-995.924147
396.136049,1924.535449,-9030.512492,-5132.839837
396.136371,518.144159,-16580.613101,-4673.182538
396.136693,-3552.988522,-16950.716072,-3447.429741
396.137015,-9030.512492,-16358.551318,-1762.019645
396.137337,-10955.047942,-18949.272115,2528.115143
396.137659,-10881.027347,-17024.736666,4136.915689
396.137980,-11177.109724,-11325.150913,1225.752797
396.138302,-10140.821405,-8660.409521,2145.067394
396.138624,-6735.874072,-9252.574275,6358.592633
396.138946,-3108.864956,-7846.182985,7584.345430
396.139268,-1110.308913,-4145.153275,8503.660028
396.139590,1332.370696,-1110.308913,12334.137518
396.139911,4959.379811,666.185348,10418.898773
396.140233,7772.162391,-1184.329507,2757.943793
396.140555,8956.491898,-3627.009116,-612.876398
396.140877,7105.977043,-7031.956449,995.924147
396.141199,4367.215058,-11991.336260,3140.991542
396.141521,2442.679609,-17542.880825,3294.210641
396.141842,444.123565,-19393.395680,76.609550
396.142164,-2516.700203,-18061.024985,-2834.553343
396.142486,-4663.297435,-17690.922014,-2528.115143
396.142808,-5329.482782,-14878.139434,-383.047749
396.143130,-5181.441594,-8216.285956,0.000000
396.143452,-4441.235652,-2960.823768,-689.485948
396.143774,-2368.659014,-4071.132681,1762.019645
396.144095,-2294.638420,-5995.668130,4136.915689
396.144417,-3478.967927,-6217.729913,3830.477490
396.144739,-2220.617826,-6957.935855,2987.772442
396.145061,1110.308913,-10288.862594,4826.401637
396.145383,3034.844362,-11695.253884,7737.564530
396.145705,3108.864956,-7031.956449,7967.393179
396.146026,7402.059420,-3330.926739,2374.896044
396.146348,12805.562797,-3701.029710,-4136.915689
396.146670,12435.459826,-3404.947333,-4596.572988
396.146992,6365.771101,-6291.750507,-1608.800546
396.147314,0.000000,-13249.686362,536.266849
396.147636,-4145.153275,-19911.539840,-383.047749
396.147957,-6587.832884,-22354.219448,-4519.963438
396.148279,-6661.853478,-20577.725188,-7507.735880
396.148601,-4367.215058,-15248.242405,-5898.935335
396.148923,-1702.473667,-10955.047942,-3064.381992
396.149245,-666.185348,-7772.162391,1225.752797
396.149567,1036.288319,-5255.462188,5056.230287
396.149888,2072.576638,-4737.318029,2604.724693
396.150210,1628.453072,-7328.038826,-2145.067394
396.150532,0.000000,-9770.718434,1378.971896
396.150854,740.205942,-7402.059420,3907.087040
396.151176,3108.864956,-7624.121203,-689.485948
396.151498,5477.523971,-11325.150913,-153.219100
396.151819,4737.318029,-11325.150913,3064.381992
396.152141,-1924.535449,-9548.656652,2374.896044
396.152463,-8142.265362,-8586.388927,1225.752797
396.152785,-9548.656652,-8882.471304,-1762.019645
396.153107,-10066.800811,-8216.285956,-9499.584175
396.153429,-11325.150913,-8956.491898,-11414.822920
396.153751,-11325.150913,-12953.603985,-3983.696590
396.154072,-8808.450710,-15692.365970,689.485948
396.154394,-5181.441594,-15396.283594,-459.657299
396.154716,-2072.576638,-14804.118840,76.609550
396.155038,-1036.288319,-13471.748144,2374.896044
396.155360,0.000000,-8808.450710,2757.943793
396.155682,3256.906145,-2590.720797,1149.143247
396.156003,7105.977043,666.185348,153.219100
396.156325,10436.903782,-518.144159,3600.648841
396.156647,9474.636058,-3552.988522,7507.735880
396.156969,5847.626942,-6439.791695,8197.221829
396.157291,2812.782580,-9844.739029,7201.297681
396.157613,370.102971,-13323.706956,4060.306139
396.157934,-2146.597232,-14359.995275,1072.533697
396.158256,-3627.009116,-12435.459826,536.266849
396.158578,-3552.988522,-9030.512492,1762.019645
396.158900,-2664.741391,-7624.121203,1455.581446
396.159222,-2368.659014,-7476.080014,2374.896044
396.159544,-3923.091493,-8586.388927,1608.800546
396.159865,-5847.626942,-9770.718434,-1149.143247
396.160187,-6809.894666,-12731.542202,-995.924147
396.160509,-6291.750507,-14285.974681,1455.581446
396.160831,-4589.276840,-11769.274478,2757.943793
396.161153,-2368.659014,-9844.739029,2451.505594
396.161475,0.000000,-9770.718434,3140.991542
396.161797,1554.432478,-9918.759623,4673.182538
396.162118,2664.741391,-8734.430116,4366.744339
396.162440,3552.988522,-6661.853478,4060.306139
396.162762,6143.709319,-5921.647536,3370.820191
396.163084,7402.059420,-5773.606348,3217.601092
396.163406,6513.812290,-7550.100608,3753.867940
396.163728,3627.009116,-10140.821405,3983.696590
396.164049,296.082377,-11547.212695,3217.601092
396.164371,-1924.535449,-12731.542202,689.485948
396.164693,-2294.638420,-14508.036463,0.000000
396.165015,-1998.556043,-14359.995275,76.609550
396.165337,-592.164754,-11991.336260,229.828649
396.165659,1258.350101,-11177.109724,1762.019645
396.165980,2368.659014,-10955.047942,3600.648841
396.166302,962.267725,-9918.759623,3447.429741
396.166624,-1924.535449,-8068.244768,2374.896044
396.166946,-4071.132681,-6957.935855,1455.581446
396.167268,-4219.173869,-5477.523971,842.705048
396.167590,-2294.638420,-6069.688724,-1225.752797
396.167911,-518.144159,-6957.935855,-459.657299
396.168233,814.226536,-8438.347739,1838.629195
396.168555,1480.411884,-9548.656652,2681.334243
396.168877,2072.576638,-10288.862594,1991.848295
396.169199,1332.370696,-8808.450710,-919.314598
396.169521,-296.082377,-7105.977043,-3600.648841
396.169842,-2294.638420,-6587.832884,-4903.011187
396.170164,-3552.988522,-7550.100608,-4903.011187
396.170486,-3923.091493,-9104.533087,-4903.011187
396.170808,-4367.215058,-11029.068536,-4443.353888
396.171130,-3404.947333,-13841.851115,-2451.505594
396.171452,-2960.823768,-15766.386565,-2068.457845
396.171774,-1924.535449,-14582.057057,-1532.190996
396.172095,-296.082377,-11843.295072,0.000000
396.172417,1702.473667,-7772.162391,76.609550
396.172739,2738.761985,-3997.112087,-1532.190996
396.173061,1628.453072,-2960.823768,-2221.676944
396.173383,444.123565,-5551.544565,-1532.190996
396.173705,-148.041188,-8734.430116,-1225.752797
396.174026,-370.102971,-10955.047942,-1838.629195
396.174348,222.061783,-12213.398043,-1991.848295
396.174670,740.205942,-11399.171507,-2604.724693
396.174992,740.205942,-9474.636058,-3370.820191
396.175314,0.000000,-7105.977043,-4903.011187
396.175636,-1628.453072,-6143.709319,-7507.735880
396.175957,-4515.256246,-7105.977043,-9499.584175
396.176279,-6809.894666,-9474.636058,-9039.926876
396.176601,-7846.182985,-12731.542202,-7124.688131
396.176923,-6365.771101,-14285.974681,-6358.592633
396.177245,-3182.885551,-15026.180623,-5592.497135
396.177567,148.041188,-15248.242405,-4673.182538
396.177888,2072.576638,-14434.015869,-1685.410096
396.178210,1332.370696,-11029.068536,995.924147
396.178532,1480.411884,-7328.038826,1762.019645
396.178854,2442.679609,-4737.318029,536.266849
396.179176,3997.112087,-3182.885551,-1072.533697
396.179498,5403.503377,-2960.823768,-689.485948
396.179819,6661.853478,-5181.441594,306.438199
396.180141,7698.141797,-8734.430116,2374.896044
396.180463,7179.997637,-11251.130318,3370.820191
396.180785,4885.359217,-12435.459826,3140.991542
396.181107,1850.514855,-11029.068536,1532.190996
396.181429,-518.144159,-7550.100608,-2451.505594
396.181751,-2368.659014,-5477.523971,-6894.859482
396.182072,-3330.926739,-5773.606348,-7890.783629
396.182394,-4959.379811,-7550.100608,-6128.763984
396.182716,-6513.812290,-10066.800811,-3983.696590
396.183038,-6957.935855,-14508.036463,-2451.505594
396.183360,-6661.853478,-18061.024985,-919.314598
396.183682,-6735.874072,-17320.819043,-383.047749
396.184003,-6143.709319,-12805.562797,0.000000
396.184325,-4737.318029,-9030.512492,612.876398
396.184647,-2886.803174,-6291.750507,1302.362347
396.184969,-1332.370696,-3256.906145,2528.115143
396.185291,74.020594,-2220.617826,3447.429741
396.185613,2294.638420,-3404.947333,4060.306139
396.185934,5181.441594,-6439.791695,4290.134789
396.186256,7179.997637,-8438.347739,3447.429741
396.186578,8438.347739,-9918.759623,2374.896044
396.186900,8882.471304,-11103.089130,1685.410096
396.187222,7994.224174,-10955.047942,536.266849
396.187544,5551.544565,-10584.944971,-459.657299
396.187865,1850.514855,-9474.636058,-1608.800546
396.188187,-1554.432478,-9844.739029,-2911.162892
396.188509,-3034.844362,-11991.336260,-4519.963438
396.188831,-3849.070898,-13471.748144,-3447.429741
396.189153,-4737.318029,-13841.851115,-1838.629195
396.189475,-5181.441594,-13101.645173,1072.533697
396.189796,-5551.544565,-11695.253884,2757.943793
396.190118,-5477.523971,-8734.430116,2987.772442
396.190440,-5847.626942,-5625.565159,919.314598
396.190762,-5403.503377,-4737.318029,-536.266849
396.191084,-4515.256246,-5255.462188,229.828649
396.191406,-2812.782580,-5921.647536,1685.410096
396.191728,0.000000,-7179.997637,2221.676944
396.192049,3108.864956,-8068.244768,1762.019645
396.192371,5255.462188,-8586.388927,536.266849
396.192693,4885.359217,-9178.553681,-995.924147
396.193015,3404.947333,-10658.965565,-1991.848295
396.193336,1850.514855,-11103.089130,-2604.724693
396.193658,74.020594,-10510.924376,-4060.306139
396.193980,-1184.329507,-9992.780217,-5209.449386
396.194302,-1258.350101,-10510.924376,-4443.353888
396.194624,-666.185348,-10288.862594,-4366.744339
396.194945,-740.205942,-10066.800811,-3983.696590
396.195267,-888.247130,-11177.109724,-1378.971896
396.195589,-2146.597232,-10955.047942,995.924147
396.195911,-3256.906145,-10658.965565,1149.143247
396.196233,-4663.297435,-9104.533087,153.219100
396.196554,-4515.256246,-6365.771101,-995.924147
396.196876,-2220.617826,-4145.153275,-2681.334243
396.197198,1036.288319,-4219.173869,-3447.429741
396.197520,3330.926739,-7328.038826,-2374.896044
396.197842,4737.318029,-9548.656652,-612.876398
396.198163,4885.359217,-10881.027347,536.266849
396.198485,3923.091493,-10807.006753,-842.705048
396.198807,2368.659014,-8660.409521,-3524.039291
396.199129,222.061783,-7031.956449,-7890.783629
396.199450,-1110.308913,-6587.832884,-10418.898773
396.199772,-2368.659014,-9548.656652,-8886.707777
396.200094,-3404.947333,-12435.459826,-6665.030833
396.200416,-4219.173869,-14656.077652,-4443.353888
396.200738,-4367.215058,-16580.613101,-2757.943793
396.201059,-3627.009116,-16432.571912,-2834.553343
396.201381,-2516.700203,-12583.501014,-3447.429741
396.201703,-1702.473667,-7994.224174,-3753.867940
396.202025,-740.205942,-4811.338623,-2451.505594
396.202347,74.020594,-3034.844362,-536.266849
396.202668,1406.391290,-4441.235652,459.657299
396.202990,1702.473667,-6587.832884,76.609550
396.203312,2812.782580,-9030.512492,-383.047749
396.203634,4589.276840,-10881.027347,-612.876398
396.203956,6291.750507,-11177.109724,229.828649
396.204277,6587.832884,-9474.636058,-153.219100
396.204599,5329.482782,-7179.997637,-1915.238745
396.204921,3330.926739,-5921.647536,-3983.696590
396.205243,0.000000,-6883.915261,-6205.373534
396.205564,-3034.844362,-9474.636058,-6971.469032
396.205886,-5477.523971,-12213.398043,-5975.544884
396.206208,-6587.832884,-14582.057057,-4519.963438
396.206530,-5551.544565,-15618.345376,-1838.629195
396.206852,-3849.070898,-14211.954086,-153.219100
396.207173,-2664.741391,-11177.109724,0.000000
396.207495,-2146.597232,-7846.182985,1149.143247
396.207817,-2516.700203,-5995.668130,995.924147
396.208139,-2812.782580,-4811.338623,1302.362347
396.208461,-2294.638420,-5107.421000,1302.362347
396.208782,74.020594,-6143.709319,2145.067394
396.209104,3701.029710,-7846.182985,2834.553343
396.209426,7105.977043,-9030.512492,2987.772442
396.209748,9104.533087,-10140.821405,2987.772442
396.210070,9400.615463,-9252.574275,2987.772442
396.210391,7105.977043,-7920.203579,1225.752797
396.210713,3330.926739,-7920.203579,-995.924147
396.211035,148.041188,-8512.368333,-3370.820191
396.211357,-3256.906145,-9696.697840,-4903.011187
396.211679,-5773.606348,-12361.439231,-4673.182538
396.212000,-6883.915261,-14878.139434,-1685.410096
396.212322,-6957.935855,-14952.160028,306.438199
396.212644,-5773.606348,-13693.809927,459.657299
396.212966,-4589.276840,-12805.562797,0.000000
396.213287,-4293.194464,-11473.192101,1072.533697
396.213609,-5255.462188,-8512.368333,2681.334243
396.213931,-6143.709319,-5625.565159,2757.943793
396.214253,-4737.318029,-3923.091493,1685.410096
396.214575,-1554.432478,-3997.112087,1455.581446
396.214896,1776.494261,-4811.338623,1685.410096
396.215218,4737.318029,-6217.729913,1838.629195
396.215540,7624.121203,-8660.409521,1838.629195
396.215862,8438.347739,-11325.150913,1762.019645
396.216184,6661.853478,-11251.130318,2068.457845
396.216505,3330.926739,-9844.739029,383.047749
396.216827,888.247130,-7402.059420,-2834.553343
396.217149,-148.041188,-6957.935855,-6052.154434
396.217471,-1258.350101,-7994.224174,-7431.126331
396.217793,-2294.638420,-10584.944971,-4826.401637
396.218114,-3182.885551,-13989.892304,-1532.190996
396.218436,-3552.988522,-15692.365970,1378.971896
396.218758,-3701.029710,-15248.242405,1991.848295
396.219080,-3034.844362,-12139.377449,383.047749
396.219401,-2960.823768,-8438.347739,-1072.533697
396.219723,-2368.659014,-4737.318029,-2451.505594
396.220045,-1850.514855,-2294.638420,-612.876398
396.220367,592.164754,-2886.803174,76.609550
396.220689,3627.009116,-6365.771101,306.438199
396.221010,4737.318029,-9548.656652,-536.266849
396.221332,5847.626942,-10140.821405,-842.705048
396.221654,6439.791695,-10066.800811,-2451.505594
396.221976,4811.338623,-9770.718434,-4213.525239
396.222298,2368.659014,-9400.615463,-6281.983084
396.222619,-1184.329507,-8808.450710,-8197.221829
396.222941,-4293.194464,-10066.800811,-8963.317327
396.223263,-6883.915261,-13471.748144,-8656.879127
396.223585,-7105.977043,-15988.448347,-7048.078582
396.223907,-6957.935855,-15766.386565,-5286.058936
396.224228,-4885.359217,-14508.036463,-4060.306139
396.224550,-2664.741391,-12731.542202,-2221.676944
396.224872,-1924.535449,-9844.739029,-1149.143247
396.225194,-2072.576638,-6809.894666,0.000000
396.225515,-2072.576638,-3923.091493,0.000000
396.225837,0.000000,-3997.112087,-919.314598
396.226159,2590.720797,-4737.318029,-1762.019645
396.226481,5699.585753,-6217.729913,-1838.629195
396.226803,6957.935855,-7254.018232,76.609550
396.227124,8586.388927,-9548.656652,842.705048
396.227446,7254.018232,-11029.068536,306.438199
396.227768,3775.050304,-10066.800811,-1302.362347
396.228090,-444.123565,-7846.182985,-4903.011187
396.228412,-3108.864956,-6661.853478,-9346.365076
396.228733,-3775.050304,-9622.677246,-10572.117872
396.229055,-5033.400406,-11769.274478,-7890.783629
396.229377,-6069.688724,-13693.809927,-3217.601092
396.229699,-5847.626942,-15100.201217,-229.828649
396.230021,-4293.194464,-16284.530724,919.314598
396.230342,-3330.926739,-13915.871710,-536.266849
396.230664,-3627.009116,-8956.491898,0.000000
396.230986,-3034.844362,-4663.297435,919.314598
396.231308,-1332.370696,-2590.720797,1762.019645
396.231629,1036.288319,-3256.906145,3140.991542
396.231951,3034.844362,-3552.988522,4290.134789
396.232273,4885.359217,-5403.503377,4136.915689
396.232595,6809.894666,-7698.141797,3140.991542
396.232917,8142.265362,-10140.821405,1149.143247
396.233238,7772.162391,-10362.883188,-306.438199
396.233560,6735.874072,-8734.430116,-153.219100
396.233882,3701.029710,-8364.327145,-1532.190996
396.234204,74.020594,-9548.656652,-3140.991542
396.234526,-3552.988522,-11103.089130,-4903.011187
396.234847,-6513.812290,-12435.459826,-5822.325785
396.235169,-7031.956449,-15100.201217,-4903.011187
396.235491,-6661.853478,-16432.571912,-1608.800546
396.235813,-5181.441594,-14878.139434,689.485948
396.236135,-3849.070898,-11325.150913,2145.067394
396.236456,-2442.679609,-8808.450710,2604.724693
396.236778,-2294.638420,-7402.059420,2757.943793
396.237100,-2368.659014,-5477.523971,2221.676944
396.237422,-2664.741391,-3775.050304,1532.190996
396.237743,-148.041188,-3701.029710,2528.115143
396.238065,3997.112087,-6217.729913,2604.724693
396.238387,7254.018232,-9104.533087,919.314598
396.238709,8512.368333,-10732.986159,919.314598
396.239031,7179.997637,-10214.842000,1455.581446
396.239352,4515.256246,-10362.883188,383.047749
396.239674,1924.535449,-10362.883188,-2681.334243
396.239996,-888.247130,-9400.615463,-7048.078582
396.240318,-3849.070898,-9474.636058,-9193.145976
396.240640,-5477.523971,-11917.315666,-6741.640382
396.240961,-6291.750507,-14952.160028,-3140.991542
396.241283,-6809.894666,-15470.304188,-536.266849
396.241605,-6587.832884,-14582.057057,0.000000
396.241927,-5551.544565,-12583.501014,612.876398
396.242249,-4219.173869,-9696.697840,612.876398
396.242570,-4071.132681,-7105.977043,306.438199
396.242892,-3997.112087,-3330.926739,536.266849
396.243214,-2072.576638,-2146.597232,1378.971896
396.243536,1184.329507,-3108.864956,2374.896044
396.243858,3701.029710,-5625.565159,2145.067394
396.244179,5255.462188,-7994.224174,919.314598
396.244501,7105.977043,-9252.574275,-842.705048
396.244823,7179.997637,-9474.636058,-1915.238745
396.245145,5181.441594,-9400.615463,-2451.505594
396.245466,1924.535449,-8660.409521,-2834.553343
396.245788,-1110.308913,-6809.894666,-5745.716235
396.246110,-3108.864956,-8142.265362,-8963.317327
396.246432,-4293.194464,-10288.862594,-9269.755526
396.246754,-4219.173869,-12213.398043,-6665.030833
396.247075,-4441.235652,-13619.789333,-4443.353888
396.247397,-3552.988522,-14730.098246,-1532.190996
396.247719,-3034.844362,-15174.221811,153.219100
396.248041,-3627.009116,-11843.295072,766.095498
396.248363,-3923.091493,-7846.182985,76.609550
396.248684,-3256.906145,-4071.132681,-995.924147
396.249006,-1110.308913,-2072.576638,-1378.971896
396.249328,1258.350101,-1776.494261,-842.705048
396.249650,4737.318029,-3923.091493,76.609550
396.249972,7105.977043,-7772.162391,383.047749
396.250293,8068.244768,-11399.171507,-612.876398
396.250615,7328.038826,-13767.830521,-1762.019645
396.250937,5107.421000,-11769.274478,-3370.820191
396.251259,2812.782580,-9400.615463,-6281.983084
396.251580,1258.350101,-8438.347739,-8427.050478
396.251902,-296.082377,-10288.862594,-9729.412825
396.252224,-3627.009116,-11991.336260,-9193.145976
396.252546,-5403.503377,-14878.139434,-5515.887586
396.252868,-6217.729913,-18061.024985,-2451.505594
396.253189,-5995.668130,-17320.819043,-1378.971896
396.253511,-5403.503377,-13323.706956,-1838.629195
396.253833,-3923.091493,-9992.780217,-1608.800546
396.254155,-3034.844362,-7402.059420,459.657299
396.254477,-3330.926739,-4589.276840,2298.286494
396.254798,-2368.659014,-3849.070898,2987.772442
396.255120,-1036.288319,-3775.050304,2451.505594
396.255442,1998.556043,-6217.729913,1225.752797
396.255764,3775.050304,-8660.409521,459.657299
396.256086,5107.421000,-9622.677246,1225.752797
396.256407,5329.482782,-8734.430116,1608.800546
396.256729,4885.359217,-8586.388927,-766.095498
396.257051,2590.720797,-8142.265362,-2528.115143
396.257373,-370.102971,-7031.956449,-4826.401637
396.257694,-3034.844362,-8142.265362,-7737.564530
396.258016,-4589.276840,-11029.068536,-8120.612279
396.258338,-4959.379811,-15248.242405,-4673.182538
396.258660,-5995.668130,-16210.510130,-612.876398
396.258982,-5551.544565,-15100.201217,2145.067394
396.259303,-3775.050304,-12805.562797,2987.772442
396.259625,-2146.597232,-9400.615463,1762.019645
396.259947,-2368.659014,-6143.709319,1149.143247
396.260269,-1998.556043,-2442.679609,2451.505594
396.260591,0.000000,-1332.370696,3370.820191
396.260912,2146.597232,-2590.720797,4136.915689
396.261234,3478.967927,-5921.647536,4979.620737
396.261556,3775.050304,-7254.018232,4749.792088
396.261878,6143.709319,-8882.471304,1838.629195
396.262200,8290.306550,-9326.594869,-1991.848295
396.262521,8142.265362,-9326.594869,-3064.381992
396.262843,5625.565159,-8660.409521,-2068.457845
396.263165,1924.535449,-8142.265362,-2068.457845
396.263487,-666.185348,-10510.924376,-4826.401637
396.263808,-3330.926739,-13101.645173,-7507.735880
396.264130,-5625.565159,-14878.139434,-8273.831378
396.264452,-7698.141797,-15840.407159,-5898.935335
396.264774,-7550.100608,-15766.386565,-2604.724693
396.265096,-6291.750507,-13841.851115,153.219100
396.265417,-5551.544565,-11177.109724,1838.629195
396.265739,-5329.482782,-8290.306550,1225.752797
396.266061,-5995.668130,-5921.647536,0.000000
396.266383,-4663.297435,-4885.359217,-306.438199
396.266705,-2738.761985,-3923.091493,612.876398
396.267026,0.000000,-5033.400406,1685.410096
396.267348,3404.947333,-6439.791695,2221.676944
396.267670,7179.997637,-9400.615463,0.000000
396.267992,8734.430116,-11325.150913,-2221.676944
396.268314,8068.244768,-10436.903782,-3140.991542
396.268635,5625.565159,-10658.965565,-3907.087040
396.268957,3108.864956,-10807.006753,-4826.401637
396.269279,666.185348,-11177.109724,-6665.030833
396.269601,-1480.411884,-11621.233289,-8810.098227
396.269923,-2812.782580,-13545.768739,-7431.126331
396.270244,-4293.194464,-15988.448347,-3064.381992
396.270566,-5551.544565,-14804.118840,-612.876398
396.270888,-5625.565159,-12287.418637,459.657299
396.271210,-4219.173869,-9918.759623,1302.362347
396.271531,-3923.091493,-8438.347739,842.705048
396.271853,-4663.297435,-5107.421000,76.609550
396.272175,-3923.091493,-2886.803174,1225.752797
396.272497,-1776.494261,-2220.617826,2221.676944
396.272819,814.226536,-3775.050304,2834.553343
396.273140,2368.659014,-5551.544565,2451.505594
396.273462,3997.112087,-7105.977043,306.438199
396.273784,5403.503377,-7846.182985,-2068.457845
396.274106,5551.544565,-8586.388927,-3830.477490
396.274428,3108.864956,-7920.203579,-3524.039291
396.274749,74.020594,-7402.059420,-3983.696590
396.275071,-1998.556043,-9252.574275,-5822.325785
396.275393,-3108.864956,-11621.233289,-7737.564530
396.275715,-3923.091493,-14359.995275,-8963.317327
396.276037,-5107.421000,-16062.468941,-4903.011187
396.276358,-5181.441594,-15840.407159,-306.438199
396.276680,-3997.112087,-12657.521608,1532.190996
396.277002,-1332.370696,-9104.533087,1991.848295
396.277324,0.000000,-6143.709319,306.438199
396.277645,518.144159,-4071.132681,76.609550
396.277967,296.082377,-3997.112087,689.485948
396.278289,1110.308913,-4737.318029,2911.162892
396.278611,3404.947333,-6513.812290,3830.477490
396.278933,5625.565159,-7698.141797,2221.676944
396.279254,7624.121203,-10066.800811,383.047749
396.279576,7698.141797,-9622.677246,-1149.143247
396.279898,5847.626942,-9252.574275,-3524.039291
396.280220,3330.926739,-9696.697840,-4290.134789
396.280542,296.082377,-9770.718434,-5286.058936
396.280863,-2516.700203,-10955.047942,-7814.174080
396.281185,-5995.668130,-13619.789333,-9269.755526
396.281507,-7105.977043,-16506.592507,-7660.954980
396.281829,-7402.059420,-17024.736666,-5592.497135
396.282151,-6883.915261,-15766.386565,-2451.505594
396.282472,-5551.544565,-13471.748144,-536.266849
396.282794,-4959.379811,-10658.965565,536.266849
396.283116,-4885.359217,-8142.265362,612.876398
396.283438,-4663.297435,-5773.606348,76.609550
396.283759,-3330.926739,-4293.194464,153.219100
396.284081,-888.247130,-4663.297435,1302.362347
396.284403,1406.391290,-6217.729913,2834.553343
396.284725,3552.988522,-7920.203579,3753.867940
396.285047,5699.585753,-8586.388927,3677.258390
396.285368,7105.977043,-8364.327145,689.485948
396.285690,6217.729913,-8068.244768,-3600.648841
396.286012,3923.091493,-7254.018232,-4366.744339
396.286334,1110.308913,-6883.915261,-4213.525239
396.286656,-666.185348,-9030.512492,-5056.230287
396.286977,-2072.576638,-11399.171507,-5975.544884
396.287299,-2664.741391,-13323.706956,-5209.449386
396.287621,-3701.029710,-14508.036463,-4673.182538
396.287943,-4071.132681,-14804.118840,-1991.848295
396.288265,-3627.009116,-13397.727550,459.657299
396.288586,-2812.782580,-9622.677246,1225.752797
396.288908,-2516.700203,-7328.038826,919.314598
396.289230,-2516.700203,-4737.318029,1762.019645
396.289552,-2664.741391,-4071.132681,1991.848295
396.289873,-1332.370696,-3923.091493,1532.190996
396.290195,962.267725,-4737.318029,2528.115143
396.290517,3034.844362,-6883.915261,3370.820191
396.290839,4737.318029,-8586.388927,3447.429741
396.291161,5329.482782,-8586.388927,1455.581446
396.291482,5329.482782,-8586.388927,-1302.362347
396.291804,4811.338623,-7846.182985,-3294.210641
396.292126,3330.926739,-7550.100608,-4903.011187
396.292448,1406.391290,-8734.430116,-5822.325785
396.292770,-888.247130,-10955.047942,-6588.421283
396.293091,-2590.720797,-14211.954086,-6281.983084
396.293413,-3552.988522,-17246.798449,-4826.401637
396.293735,-4293.194464,-17542.880825,-2068.457845
396.294057,-4885.359217,-15174.221811,-919.314598
396.294379,-5255.462188,-10807.006753,-689.485948
396.294700,-5181.441594,-7402.059420,306.438199
396.295022,-4441.235652,-4219.173869,-229.828649
396.295344,-3256.906145,-3404.947333,-1225.752797
396.295666,-1850.514855,-4737.318029,-689.485948
396.295988,-592.164754,-7402.059420,1762.019645
396.296309,0.000000,-10881.027347,2604.724693
396.296631,1628.453072,-12213.398043,2911.162892
396.296953,4515.256246,-10881.027347,0.000000
396.297275,6217.729913,-8586.388927,-4290.134789
396.297596,6143.709319,-6291.750507,-6052.154434
396.297918,3923.091493,-6883.915261,-5669.106685
396.298240,1554.432478,-9622.677246,-5439.278036
396.298562,-592.164754,-12361.439231,-5898.935335
396.298884,-1850.514855,-15692.365970,-5745.716235
396.299205,-3182.885551,-17838.963202,-4366.744339
396.299527,-4145.153275,-16432.571912,-1991.848295
396.299849,-3997.112087,-12509.480420,-306.438199
396.300171,-2738.761985,-8808.450710,-153.219100
396.300493,-2072.576638,-6143.709319,1072.533697
396.300814,-3034.844362,-3849.070898,1378.971896
396.301136,-3923.091493,-4219.173869,842.705048
396.301458,-3775.050304,-5995.668130,842.705048
396.301780,-2146.597232,-7994.224174,1378.971896
396.302102,-518.144159,-8438.347739,2528.115143
396.302423,1924.535449,-7402.059420,2987.772442
396.302745,3404.947333,-6365.771101,1225.752797
396.303067,3552.988522,-4811.338623,-1608.800546
396.303389,1850.514855,-4145.153275,-3140.991542
396.303711,-222.061783,-4441.235652,-5745.716235
396.304032,-1554.432478,-7179.997637,-7124.688131
396.304354,-2590.720797,-10214.842000,-7277.907231
396.304676,-3404.947333,-13545.768739,-4749.792088
396.304998,-3701.029710,-16210.510130,-2834.553343
396.305320,-3330.926739,-16432.571912,-1762.019645
396.305641,-2442.679609,-13471.748144,-2374.896044
396.305963,-1406.391290,-9844.739029,-2451.505594
396.306285,0.000000,-7476.080014,-689.485948
396.306607,0.000000,-5995.668130,536.266849
396.306928,296.082377,-5625.565159,995.924147
396.307250,1776.494261,-6143.709319,1762.019645
396.307572,3997.112087,-7846.182985,2068.457845
396.307894,5995.668130,-9474.636058,1762.019645
396.308216,7328.038826,-11103.089130,1302.362347
396.308537,7772.162391,-10214.842000,536.266849
396.308859,7920.203579,-7994.224174,-1149.143247
396.309181,6661.853478,-7328.038826,-3370.820191
396.309503,3849.070898,-8068.244768,-5745.716235
396.309825,-296.082377,-9770.718434,-7660.954980
396.310146,-3849.070898,-11991.336260,-8350.440928
396.310468,-6439.791695,-15544.324782,-7048.078582
396.310790,-7328.038826,-18431.127956,-5515.887586
396.311112,-7624.121203,-16876.695478,-4136.915689
396.311434,-7328.038826,-14211.954086,-3140.991542
396.311755,-5995.668130,-11695.253884,-1455.581446
396.312077,-5699.585753,-9474.636058,-229.828649
396.312399,-6439.791695,-6809.894666,842.705048
396.312721,-6217.729913,-4811.338623,229.828649
396.313043,-4589.276840,-4589.276840,0.000000
396.313364,-1184.329507,-5625.565159,1378.971896
396.313686,1628.453072,-7402.059420,2221.676944
396.314008,4589.276840,-9474.636058,3064.381992
396.314330,6439.791695,-8956.491898,3600.648841
396.314652,6957.935855,-7476.080014,1455.581446
396.314973,5921.647536,-6735.874072,-1532.190996
396.315295,4145.153275,-5773.606348,-3983.696590
396.315617,2442.679609,-6217.729913,-4979.620737
396.315939,814.226536,-8882.471304,-6281.983084
396.316260,-592.164754,-11769.274478,-4826.401637
396.316582,-1554.432478,-14656.077652,-1915.238745
396.316904,-2294.638420,-15766.386565,-612.876398
396.317226,-2738.761985,-13989.892304,0.000000
396.317548,-2590.720797,-10732.986159,0.000000
396.317869,-2812.782580,-7476.080014,0.000000
396.318191,-3404.947333,-4515.256246,459.657299
396.318513,-3701.029710,-2886.803174,1532.190996
396.318835,-2516.700203,-2664.741391,1302.362347
396.319157,-1258.350101,-4737.318029,1302.362347
396.319478,-222.061783,-7476.080014,2451.505594
396.319800,962.267725,-8808.450710,1915.238745
396.320122,2368.659014,-10140.821405,153.219100
396.320444,2738.761985,-9844.739029,-1838.629195
396.320766,2664.741391,-8882.471304,-2374.896044
396.321087,1628.453072,-8364.327145,-4213.525239
396.321409,592.164754,-9030.512492,-6588.421283
396.321731,-814.226536,-10288.862594,-7814.174080
396.322053,-1332.370696,-11917.315666,-7507.735880
396.322375,-1110.308913,-15470.304188,-5669.106685
396.322696,-1258.350101,-17987.004391,-2528.115143
396.323018,-2368.659014,-16654.633695,-995.924147
396.323340,-2886.803174,-12879.583391,-1455.581446
396.323662,-2368.659014,-10288.862594,-536.266849
396.323984,-2368.659014,-7846.182985,-689.485948
396.324305,-2664.741391,-4737.318029,-1532.190996
396.324627,-1776.494261,-3404.947333,-1532.190996
396.324949,1110.308913,-4737.318029,306.438199
396.325271,3404.947333,-7624.121203,1455.581446
396.325592,3923.091493,-9844.739029,1762.019645
396.325914,3997.112087,-9918.759623,842.705048
396.326236,3256.906145,-9918.759623,-1838.629195
396.326558,2664.741391,-9622.677246,-4290.134789
396.326880,592.164754,-8734.430116,-5592.497135
396.327201,-1036.288319,-9104.533087,-6205.373534
396.327523,-2368.659014,-9696.697840,-6588.421283
396.327845,-2664.741391,-11695.253884,-5515.887586
396.328167,-2664.741391,-13545.768739,-3907.087040
396.328489,-2664.741391,-14137.933492,-2298.286494
396.328810,-2960.823768,-13101.645173,-919.314598
396.329132,-3182.885551,-10658.965565,153.219100
396.329454,-3034.844362,-8438.347739,689.485948
396.329776,-3034.844362,-6143.709319,1455.581446
396.330098,-2442.679609,-4293.194464,1225.752797
396.330419,-888.247130,-3997.112087,459.657299
396.330741,2220.617826,-4589.276840,842.705048
396.331063,4145.153275,-6143.709319,1532.190996
396.331385,5033.400406,-8364.327145,2374.896044
396.331707,4959.379811,-9400.615463,1991.848295
396.332028,3478.967927,-9918.759623,-229.828649
396.332350,962.267725,-9844.739029,-2298.286494
396.332672,-1628.453072,-9178.553681,-3983.696590
396.332994,-2886.803174,-9030.512492,-5669.106685
396.333316,-2738.761985,-9992.780217,-6435.202183
396.333637,-2664.741391,-11695.253884,-5132.839837
396.333959,-2886.803174,-13323.706956,-2757.943793
396.334281,-2960.823768,-13323.706956,-153.219100
396.334603,-2220.617826,-12139.377449,1685.410096
396.334924,-1998.556043,-9770.718434,-229.828649
396.335246,-2294.638420,-7698.141797,-766.095498
396.335568,-3108.864956,-5699.585753,459.657299
396.335890,-2960.823768,-5255.462188,1072.533697
396.336212,-1480.411884,-6069.688724,1378.971896
396.336533,740.205942,-7624.121203,1915.238745
396.336855,3256.906145,-8956.491898,1991.848295
396.337177,4885.359217,-9178.553681,536.266849
396.337499,6439.791695,-9696.697840,-766.095498
396.337821,6587.832884,-9622.677246,-1455.581446
396.338142,3997.112087,-9400.615463,-2298.286494
396.338464,740.205942,-8956.491898,-4290.134789
396.338786,-1110.308913,-10288.862594,-6281.983084
396.339108,-2886.803174,-12139.377449,-7277.907231
396.339430,-3404.947333,-14508.036463,-5515.887586
396.339751,-3330.926739,-14952.160028,-2911.162892
396.340073,-1628.453072,-13397.727550,-2374.896044
396.340395,-222.061783,-11325.150913,-1685.410096
396.340717,222.061783,-9992.780217,0.000000
396.341039,-962.267725,-8068.244768,995.924147
396.341360,-2960.823768,-5921.647536,842.705048
396.341682,-3627.009116,-5329.482782,153.219100
396.342004,-2368.659014,-5921.647536,153.219100
396.342326,222.061783,-7254.018232,0.000000
396.342647,2516.700203,-8734.430116,689.485948
396.342969,4145.153275,-10140.821405,1991.848295
396.343291,4219.173869,-9696.697840,2145.067394
396.343613,2960.823768,-8586.388927,383.047749
396.343935,1110.308913,-8068.244768,-2528.115143
396.344256,-1850.514855,-7328.038826,-5822.325785
396.344578,-4293.194464,-7920.203579,-7048.078582
396.344900,-5107.421000,-8956.491898,-5439.278036
396.345222,-4589.276840,-11843.295072,-3983.696590
396.345544,-3849.070898,-13693.809927,-2451.505594
396.345865,-3701.029710,-13545.768739,-842.705048
396.346187,-3627.009116,-12583.501014,76.609550
396.346509,-2368.659014,-9770.718434,-459.657299
396.346831,-1702.473667,-6957.935855,-995.924147
396.347153,-1776.494261,-3849.070898,-1149.143247
396.347474,-1480.411884,-2368.659014,0.000000
396.347796,518.144159,-4145.153275,995.924147
396.348118,2960.823768,-7179.997637,1838.629195
396.348440,4811.338623,-9992.780217,459.657299
396.348762,6365.771101,-11325.150913,153.219100
396.349083,7476.080014,-11103.089130,459.657299
396.349405,6883.915261,-9770.718434,-766.095498
396.349727,4885.359217,-8438.347739,-2221.676944
396.350049,1776.494261,-6513.812290,-4903.011187
396.350371,-1184.329507,-7920.203579,-7737.564530
396.350692,-3330.926739,-11177.109724,-7354.516781
396.351014,-4737.318029,-14285.974681,-4903.011187
396.351336,-5921.647536,-15766.386565,-3524.039291
396.351658,-4737.318029,-14878.139434,-2374.896044
396.351979,-2664.741391,-14137.933492,-1302.362347
396.352301,-1480.411884,-11325.150913,-1608.800546
396.352623,-2220.617826,-8216.285956,-1915.238745
396.352945,-3923.091493,-6291.750507,-766.095498
396.353267,-4441.235652,-6587.832884,689.485948
396.353588,-3108.864956,-7105.977043,536.266849
396.353910,-962.267725,-8068.244768,229.828649
396.354232,2294.638420,-8512.368333,383.047749
396.354554,5551.544565,-8882.471304,0.000000
396.354876,7550.100608,-9622.677246,459.657299
396.355197,6957.935855,-9252.574275,919.314598
396.355519,4293.194464,-8956.491898,-459.657299
396.355841,-444.123565,-8068.244768,-2604.724693
396.356163,-3034.844362,-8364.327145,-4596.572988
396.356485,-4441.235652,-8956.491898,-6358.592633
396.356806,-4293.194464,-9844.739029,-6358.592633
396.357128,-4515.256246,-11843.295072,-2911.162892
396.357450,-3627.009116,-13619.789333,919.314598
396.357772,-2886.803174,-13619.789333,2068.457845
396.358094,-2442.679609,-12213.398043,689.485948
396.358415,-2664.741391,-9770.718434,842.705048
396.358737,-3849.070898,-5329.482782,995.924147
396.359059,-2812.782580,-2368.659014,919.314598
396.359381,-148.041188,-888.247130,306.438199
396.359703,3478.967927,-3552.988522,919.314598
396.360024,5921.647536,-7254.018232,1915.238745
396.360346,6957.935855,-10510.924376,2145.067394
396.360668,7105.977043,-12953.603985,2298.286494
396.360990,6365.771101,-12435.459826,1838.629195
396.361311,3923.091493,-10066.800811,-689.485948
396.361633,1406.391290,-6809.894666,-3294.210641
396.361955,-74.020594,-5625.565159,-5515.887586
396.362277,-2294.638420,-7402.059420,-7277.907231
396.362599,-4293.194464,-10436.903782,-5592.497135
396.362920,-5995.668130,-14434.015869,-2374.896044
396.363242,-6291.750507,-16876.695478,306.438199
396.363564,-5773.606348,-17024.736666,76.609550
396.363886,-4885.359217,-14359.995275,-842.705048
396.364208,-4293.194464,-10362.883188,-842.705048
396.364529,-4737.318029,-6069.688724,0.000000
396.364851,-3923.091493,-3404.947333,383.047749
396.365173,-2368.659014,-2442.679609,229.828649
396.365495,888.247130,-4885.359217,153.219100
396.365817,2886.803174,-8290.306550,153.219100
396.366138,5551.544565,-10436.903782,536.266849
396.366460,7624.121203,-11177.109724,0.000000
396.366782,8364.327145,-11473.192101,-1532.190996
396.367104,7179.997637,-10732.986159,-1149.143247
396.367426,4145.153275,-8216.285956,-2145.067394
396.367747,740.205942,-7328.038826,-4673.182538
396.368069,-2368.659014,-8956.491898,-6511.811733
396.368391,-3552.988522,-11103.089130,-5975.544884
396.368713,-4737.318029,-13249.686362,-4213.525239
396.369035,-4441.235652,-15174.221811,-306.438199
396.369356,-4589.276840,-14211.954086,1532.190996
396.369678,-3552.988522,-10955.047942,1302.362347
396.370000,-2442.679609,-8660.409521,-536.266849
396.370322,-2146.597232,-6217.729913,-1378.971896
396.370643,-2590.720797,-4145.153275,-229.828649
396.370965,-1628.453072,-2146.597232,689.485948
396.371287,1110.308913,-4293.194464,306.438199
396.371609,4367.215058,-7994.224174,-995.924147
396.371931,6069.688724,-10066.800811,-1762.019645
396.372252,5995.668130,-10955.047942,-1302.362347
396.372574,3478.967927,-11399.171507,-1225.752797
396.372896,1406.391290,-11399.171507,-1915.238745
396.373218,-1628.453072,-9622.677246,-4596.572988
396.373540,-3701.029710,-8660.409521,-8120.612279
396.373861,-5403.503377,-8956.491898,-8580.269578
396.374183,-5329.482782,-11103.089130,-5898.935335
396.374505,-5181.441594,-12139.377449,-3294.210641
396.374827,-4441.235652,-12805.562797,-1149.143247
396.375149,-3108.864956,-13619.789333,766.095498
396.375470,-2146.597232,-12583.501014,766.095498
396.375792,-2664.741391,-10807.006753,766.095498
396.376114,-3478.967927,-7254.018232,1302.362347
396.376436,-2442.679609,-4589.276840,612.876398
396.376758,1110.308913,-3034.844362,0.000000
396.377079,5403.503377,-3034.844362,-1072.533697
396.377401,8512.368333,-5995.668130,-1685.410096
396.377723,9622.677246,-9252.574275,-229.828649
396.378045,8586.388927,-11621.233289,766.095498
396.378366,5329.482782,-12435.459826,-306.438199
396.378688,1998.556043,-11843.295072,-2221.676944
396.379010,-1480.411884,-9474.636058,-5209.449386
396.379332,-3775.050304,-7772.162391,-7507.735880
396.379654,-4959.379811,-8882.471304,-7660.954980
396.379975,-5329.482782,-10584.944971,-4903.011187
396.380297,-5329.482782,-11547.212695,-2145.067394
396.380619,-4367.215058,-12361.439231,-153.219100
396.380941,-3552.988522,-13397.727550,842.705048
396.381263,-3404.947333,-11991.336260,766.095498
396.381584,-3775.050304,-9696.697840,459.657299
396.381906,-4219.173869,-7105.977043,1225.752797
396.382228,-3108.864956,-4811.338623,1608.800546
396.382550,-740.205942,-3701.029710,1378.971896
396.382872,2146.597232,-4959.379811,842.705048
396.383193,4737.318029,-6735.874072,1455.581446
396.383515,7328.038826,-8290.306550,766.095498
396.383837,8734.430116,-10362.883188,-459.657299
396.384159,7624.121203,-12287.418637,-1378.971896
396.384481,4737.318029,-11991.336260,-1302.362347
396.384802,814.226536,-10510.924376,-1991.848295
396.385124,-1850.514855,-10140.821405,-4366.744339
396.385446,-3849.070898,-10510.924376,-5745.716235
396.385768,-4811.338623,-10658.965565,-6052.154434
396.386090,-5329.482782,-11991.336260,-3830.477490
396.386411,-5107.421000,-13323.706956,612.876398
396.386733,-4293.194464,-13027.624579,2834.553343
396.387055,-3627.009116,-10658.965565,2604.724693
396.387377,-3256.906145,-9326.594869,1762.019645
396.387698,-3775.050304,-7846.182985,766.095498
396.388020,-4441.235652,-5625.565159,1225.752797
396.388342,-3108.864956,-4145.153275,1915.238745
396.388664,-222.061783,-5329.482782,2068.457845
396.388986,4145.153275,-6809.894666,1072.533697
396.389307,7179.997637,-8438.347739,-689.485948
396.389629,7846.182985,-10584.944971,-612.876398
396.389951,6439.791695,-10807.006753,0.000000
396.390273,4219.173869,-9844.739029,-842.705048
396.390595,1628.453072,-9474.636058,-3294.210641
396.390916,-296.082377,-9030.512492,-5592.497135
396.391238,-2664.741391,-9178.553681,-7048.078582
396.391560,-3552.988522,-10140.821405,-6128.763984
396.391882,-3256.906145,-13397.727550,-3294.210641
396.392204,-3478.967927,-13915.871710,76.609550
396.392525,-3478.967927,-13841.851115,1225.752797
396.392847,-3034.844362,-12213.398043,1608.800546
396.393169,-3108.864956,-9474.636058,1455.581446
396.393491,-3552.988522,-5033.400406,1149.143247
396.393813,-2886.803174,-2072.576638,0.000000
396.394134,-962.267725,-1702.473667,-306.438199
396.394456,1554.432478,-4219.173869,0.000000
396.394778,2886.803174,-7994.224174,383.047749
396.395100,4515.256246,-10732.986159,766.095498
396.395421,6439.791695,-13027.624579,-1149.143247
396.395743,6513.812290,-13323.706956,-3907.087040
396.396065,5107.421000,-10955.047942,-4366.744339
396.396387,2664.741391,-8290.306550,-5056.230287
396.396709,296.082377,-7698.141797,-6435.202183
396.397030,-2220.617826,-9622.677246,-7124.688131
396.397352,-4293.194464,-11843.295072,-7048.078582
396.397674,-6143.709319,-13619.789333,-4903.011187
396.397996,-6217.729913,-14804.118840,-1225.752797
396.398317,-5033.400406,-13989.892304,612.876398
396.398639,-3997.112087,-9918.759623,0.000000
396.398961,-2442.679609,-7846.182985,-383.047749
396.399283,-3034.844362,-6883.915261,76.609550
396.399604,-3923.091493,-5699.585753,919.314598
396.399926,-3923.091493,-4589.276840,1225.752797
396.400248,-1406.391290,-5329.482782,1149.143247
396.400570,2812.782580,-6439.791695,229.828649
396.400891,6069.688724,-8364.327145,-2911.162892
396.401213,7031.956449,-9844.739029,-2757.943793
396.401535,6291.750507,-10214.842000,-1378.971896
396.401857,4441.235652,-10658.965565,-1838.629195
396.402179,1998.556043,-10066.800811,-4979.620737
396.402500,-222.061783,-9326.594869,-7660.954980
396.402822,-3478.967927,-9548.656652,-8810.098227
396.403144,-4515.256246,-11621.233289,-7124.688131
396.403466,-4367.215058,-14434.015869,-3753.867940
396.403787,-3701.029710,-13841.851115,-612.876398
396.404109,-3330.926739,-12509.480420,1149.143247
396.404431,-2368.659014,-11991.336260,1915.238745
396.404753,-1924.535449,-10881.027347,2145.067394
396.405074,-2590.720797,-8068.244768,1991.848295
396.405396,-2442.679609,-4441.235652,1762.019645
396.405718,-148.041188,-1924.535449,2221.676944
396.406040,2886.803174,-2590.720797,2221.676944
396.406362,5033.400406,-5329.482782,2451.505594
396.406683,5699.585753,-7328.038826,1991.848295
396.407005,6143.709319,-9252.574275,-306.438199
396.407327,5847.626942,-10881.027347,-1991.848295
396.407649,3849.070898,-10955.047942,-2451.505594
396.407970,296.082377,-8734.430116,-3830.477490
396.408292,-1850.514855,-7920.203579,-5669.106685
396.408614,-3330.926739,-9770.718434,-7660.954980
