#time,accel_x,accel_y,accel_z
133.348100,-222.061783,-9622.677246,-1455.581446
133.348421,-148.041188,-9474.636058,-1302.362347
133.348743,0.000000,-9400.615463,-1149.143247
133.349065,-518.144159,-9474.636058,-1532.190996
133.349387,-444.123565,-9474.636058,-1455.581446
133.349709,-518.144159,-9474.636058,-1608.800546
133.350031,-370.102971,-9400.615463,-1302.362347
133.350352,-148.041188,-9326.594869,-1608.800546
133.350674,-370.102971,-9178.553681,-1455.581446
133.350996,-222.061783,-9178.553681,-1608.800546
133.351318,-370.102971,-9474.636058,-1838.629195
133.351640,-148.041188,-9474.636058,-1455.581446
133.351961,-296.082377,-9474.636058,-2068.457845
133.352283,0.000000,-9770.718434,-1532.190996
133.352605,-370.102971,-9474.636058,-1378.971896
133.352927,-370.102971,-9400.615463,-1225.752797
133.353249,-148.041188,-9252.574275,-1455.581446
133.353570,-222.061783,-8882.471304,-1225.752797
133.353892,-592.164754,-8808.450710,-1532.190996
133.354214,-148.041188,-9474.636058,-1455.581446
133.354536,-370.102971,-9622.677246,-1685.410096
133.354858,-518.144159,-9474.636058,-1455.581446
133.355180,-370.102971,-9548.656652,-1455.581446
133.355501,-74.020594,-9326.594869,-612.876398
133.355823,0.000000,-9400.615463,-1378.971896
133.356145,-148.041188,-9178.553681,-1378.971896
133.356467,-148.041188,-9178.553681,-1455.581446
133.356789,-222.061783,-9252.574275,-1762.019645
133.357110,-148.041188,-9178.553681,-1838.629195
133.357432,-370.102971,-9252.574275,-1685.410096
133.357754,-518.144159,-9474.636058,-1608.800546
133.358076,-444.123565,-9548.656652,-1455.581446
133.358398,-444.123565,-9474.636058,-1378.971896
133.358719,-222.061783,-9030.512492,-1302.362347
133.359041,-814.226536,-9030.512492,-995.924147
133.359363,-444.123565,-9400.615463,-1532.190996
133.359685,-444.123565,-9326.594869,-1608.800546
133.360007,-518.144159,-9474.636058,-1378.971896
133.360329,-222.061783,-9474.636058,-1302.362347
133.360650,0.000000,-9548.656652,-1762.019645
133.360972,-296.082377,-9326.594869,-1455.581446
133.361294,-370.102971,-9474.636058,-1378.971896
133.361616,-592.164754,-9474.636058,-1302.362347
133.361938,-518.144159,-9400.615463,-1532.190996
133.362259,-518.144159,-9178.553681,-1455.581446
133.362581,-296.082377,-9252.574275,-1149.143247
133.362903,-592.164754,-9030.512492,-1608.800546
133.363225,-518.144159,-9400.615463,-1378.971896
133.363547,-444.123565,-9474.636058,-1302.362347
133.363868,-370.102971,-9474.636058,-1608.800546
133.364190,-666.185348,-9400.615463,-1302.362347
133.364512,-296.082377,-9622.677246,-1532.190996
133.364834,-296.082377,-9548.656652,-1608.800546
133.365156,-444.123565,-9326.594869,-1608.800546
133.365478,-370.102971,-9178.553681,-1302.362347
133.365799,-666.185348,-9178.553681,-1838.629195
133.366121,-296.082377,-8956.491898,-2298.286494
133.366443,-444.123565,-9326.594869,-1455.581446
133.366765,-296.082377,-9474.636058,-1455.581446
133.367087,-148.041188,-9400.615463,-1532.190996
133.367408,-296.082377,-9474.636058,-1378.971896
133.367730,-444.123565,-9326.594869,-842.705048
133.368052,-444.123565,-9252.574275,-1532.190996
133.368374,-222.061783,-9252.574275,-1608.800546
133.368696,-444.123565,-9030.512492,-1225.752797
133.369017,-370.102971,-9178.553681,-1302.362347
133.369339,-518.144159,-9326.594869,-842.705048
133.369661,-592.164754,-9326.594869,-1532.190996
133.369983,-666.185348,-9474.636058,-1149.143247
133.370305,-296.082377,-9474.636058,-1455.581446
133.370627,0.000000,-9400.615463,-1762.019645
133.370948,888.247130,-9474.636058,-1991.848295
133.371270,1036.288319,-9474.636058,-1532.190996
133.371592,962.267725,-9474.636058,-842.705048
133.371914,666.185348,-9104.533087,-459.657299
133.372236,296.082377,-8660.409521,-1072.533697
133.372557,0.000000,-8956.491898,-1685.410096
133.372879,-444.123565,-8808.450710,-1685.410096
133.373201,-1184.329507,-8808.450710,-1455.581446
133.373523,-592.164754,-9326.594869,-1838.629195
133.373845,0.000000,-10140.821405,-1685.410096
133.374166,0.000000,-10807.006753,-1072.533697
133.374488,0.000000,-10214.842000,-689.485948
133.374810,518.144159,-9474.636058,-1532.190996
133.375132,1850.514855,-9696.697840,-2451.505594
133.375454,1998.556043,-9844.739029,-1762.019645
133.375775,1406.391290,-9326.594869,-766.095498
133.376097,1480.411884,-8438.347739,-689.485948
133.376419,2664.741391,-9400.615463,-766.095498
133.376741,3108.864956,-10140.821405,-919.314598
133.377063,2294.638420,-9178.553681,0.000000
133.377385,1850.514855,-7994.224174,-536.266849
133.377706,2368.659014,-8068.244768,-1225.752797
133.378028,2590.720797,-8586.388927,-1149.143247
133.378350,1924.535449,-9030.512492,-766.095498
133.378672,1036.288319,-8216.285956,-1302.362347
133.378994,1554.432478,-8512.368333,-2451.505594
133.379315,2072.576638,-10288.862594,-2374.896044
133.379637,2368.659014,-11177.109724,-1838.629195
133.379959,2294.638420,-10584.944971,-1225.752797
133.380281,2738.761985,-10066.800811,-2145.067394
133.380603,3849.070898,-10807.006753,-2068.457845
133.380924,3997.112087,-10288.862594,-1991.848295
133.381246,3478.967927,-9474.636058,-1915.238745
133.381568,3478.967927,-9474.636058,-1762.019645
133.381890,3478.967927,-9474.636058,-1072.533697
133.382212,3256.906145,-9252.574275,-842.705048
133.382534,2590.720797,-8956.491898,-766.095498
133.382855,2294.638420,-8216.285956,-1072.533697
133.383177,2516.700203,-8216.285956,-1455.581446
133.383499,2664.741391,-8142.265362,-2145.067394
133.383821,3034.844362,-8882.471304,-1915.238745
133.384143,3034.844362,-9474.636058,-1532.190996
133.384464,2590.720797,-9252.574275,-1915.238745
133.384786,2812.782580,-9474.636058,-1608.800546
133.385108,2442.679609,-9548.656652,-2068.457845
133.385430,1554.432478,-9770.718434,-2834.553343
133.385752,-518.144159,-10436.903782,-2757.943793
133.386073,-2664.741391,-10732.986159,-1915.238745
133.386395,-4293.194464,-11991.336260,-1455.581446
133.386717,-5181.441594,-12361.439231,-1455.581446
133.387039,-5033.400406,-12509.480420,-842.705048
133.387361,-4737.318029,-11843.295072,-383.047749
133.387683,-2960.823768,-10658.965565,306.438199
133.388004,-1184.329507,-9548.656652,1225.752797
133.388326,518.144159,-8068.244768,1915.238745
133.388648,1628.453072,-6587.832884,1838.629195
133.388970,2886.803174,-6069.688724,919.314598
133.389292,3108.864956,-5995.668130,306.438199
133.389613,2960.823768,-6365.771101,-383.047749
133.389935,2368.659014,-7105.977043,-842.705048
133.390257,1776.494261,-7698.141797,-919.314598
133.390579,518.144159,-7624.121203,-2298.286494
133.390901,-370.102971,-7698.141797,-3064.381992
133.391222,-1554.432478,-7772.162391,-3830.477490
133.391544,-2516.700203,-7846.182985,-4213.525239
133.391866,-3108.864956,-8364.327145,-4903.011187
133.392188,-3256.906145,-9252.574275,-3830.477490
133.392510,-4145.153275,-9992.780217,-3217.601092
133.392832,-4959.379811,-10658.965565,-2757.943793
133.393153,-5181.441594,-11251.130318,-2298.286494
133.393475,-5033.400406,-11547.212695,-2068.457845
133.393797,-4737.318029,-11621.233289,-1378.971896
133.394119,-4959.379811,-10732.986159,-459.657299
133.394441,-4663.297435,-9696.697840,-229.828649
133.394762,-4219.173869,-9474.636058,-153.219100
133.395084,-3627.009116,-9918.759623,76.609550
133.395406,-3330.926739,-9622.677246,153.219100
133.395728,-2516.700203,-9696.697840,153.219100
133.396050,-1110.308913,-9474.636058,-689.485948
133.396371,148.041188,-9770.718434,-536.266849
133.396693,1110.308913,-10066.800811,-459.657299
133.397015,2368.659014,-9178.553681,-1072.533697
133.397337,3775.050304,-8586.388927,-2221.676944
133.397659,4071.132681,-8956.491898,-3753.867940
133.397980,3997.112087,-9844.739029,-3524.039291
133.398302,3256.906145,-9696.697840,-3370.820191
133.398624,2812.782580,-9104.533087,-4060.306139
133.398946,2590.720797,-10436.903782,-3370.820191
133.399268,1998.556043,-10436.903782,-2987.772442
133.399590,1184.329507,-10288.862594,-3140.991542
133.399911,1258.350101,-9622.677246,-2681.334243
133.400233,1702.473667,-9326.594869,-1455.581446
133.400555,2220.617826,-8364.327145,-536.266849
133.400877,2294.638420,-7624.121203,0.000000
133.401199,1332.370696,-7994.224174,459.657299
133.401520,74.020594,-8660.409521,1072.533697
133.401842,-962.267725,-9178.553681,995.924147
133.402164,-1702.473667,-9844.739029,1072.533697
133.402486,-1998.556043,-10140.821405,1302.362347
133.402808,-1628.453072,-10140.821405,1225.752797
133.403129,-1036.288319,-9400.615463,1685.410096
133.403451,148.041188,-8586.388927,1762.019645
133.403773,1406.391290,-7846.182985,153.219100
133.404095,1924.535449,-7476.080014,-766.095498
133.404417,1406.391290,-7402.059420,-919.314598
133.404739,74.020594,-7846.182985,-1225.752797
133.405060,-740.205942,-8290.306550,-2911.162892
133.405382,-1702.473667,-9548.656652,-3907.087040
133.405704,-2812.782580,-10362.883188,-4596.572988
133.406026,-3404.947333,-9992.780217,-3830.477490
133.406348,-3108.864956,-10066.800811,-4519.963438
133.406669,-2146.597232,-9770.718434,-4903.011187
133.406991,-814.226536,-9918.759623,-4213.525239
133.407313,148.041188,-9770.718434,-3524.039291
133.407635,888.247130,-9326.594869,-2604.724693
133.407957,1998.556043,-9770.718434,-2451.505594
133.408278,2220.617826,-10066.800811,-1378.971896
133.408600,1998.556043,-10214.842000,-536.266849
133.408922,1184.329507,-10214.842000,0.000000
133.409244,518.144159,-10658.965565,0.000000
133.409566,-666.185348,-10362.883188,306.438199
133.409888,-2220.617826,-9992.780217,0.000000
133.410209,-3552.988522,-9326.594869,76.609550
133.410531,-4663.297435,-9474.636058,-306.438199
133.410853,-5329.482782,-9474.636058,-383.047749
133.411175,-5773.606348,-9474.636058,-919.314598
133.411497,-5255.462188,-9474.636058,-1762.019645
133.411818,-4293.194464,-9474.636058,-2298.286494
133.412140,-3034.844362,-9844.739029,-1838.629195
133.412462,-1184.329507,-9622.677246,-2374.896044
133.412784,666.185348,-9400.615463,-3217.601092
133.413106,1554.432478,-9030.512492,-3447.429741
133.413427,2146.597232,-9104.533087,-3600.648841
133.413749,2590.720797,-8956.491898,-2757.943793
133.414071,2664.741391,-8438.347739,-2987.772442
133.414393,3552.988522,-8660.409521,-3370.820191
133.414715,4885.359217,-9400.615463,-3294.210641
133.415037,5181.441594,-8586.388927,-1838.629195
133.415358,5625.565159,-8364.327145,-383.047749
133.415680,5847.626942,-8216.285956,383.047749
133.416002,5551.544565,-8068.244768,459.657299
133.416324,4293.194464,-8068.244768,229.828649
133.416646,2368.659014,-8068.244768,536.266849
133.416967,518.144159,-8808.450710,383.047749
133.417289,-1258.350101,-9326.594869,0.000000
133.417611,-2664.741391,-10807.006753,0.000000
133.417933,-3627.009116,-12213.398043,229.828649
133.418254,-4737.318029,-12953.603985,612.876398
133.418576,-4515.256246,-12731.542202,536.266849
133.418898,-3701.029710,-11621.233289,229.828649
133.419219,-2368.659014,-9918.759623,-689.485948
133.419541,-888.247130,-8068.244768,-1532.190996
133.419862,-888.247130,-7031.956449,-1302.362347
133.420184,-1850.514855,-6217.729913,-689.485948
133.420506,-3108.864956,-6587.832884,-1991.848295
133.420827,-4441.235652,-7254.018232,-3600.648841
133.421149,-5255.462188,-8438.347739,-4903.011187
133.421471,-5033.400406,-9030.512492,-4903.011187
133.421792,-3478.967927,-9844.739029,-4979.620737
133.422114,-1480.411884,-10066.800811,-4213.525239
133.422435,444.123565,-10214.842000,-3447.429741
133.422757,1924.535449,-10732.986159,-2834.553343
133.423079,3108.864956,-11177.109724,-2681.334243
133.423400,3552.988522,-10584.944971,-2834.553343
133.423722,3923.091493,-10436.903782,-2298.286494
133.424043,3404.947333,-10288.862594,-1225.752797
133.424365,2516.700203,-10214.842000,383.047749
133.424687,962.267725,-10584.944971,1149.143247
133.425008,-1554.432478,-10584.944971,1072.533697
133.425330,-2960.823768,-10658.965565,689.485948
133.425652,-4219.173869,-9104.533087,229.828649
133.425973,-4515.256246,-9030.512492,-459.657299
133.426295,-4885.359217,-8142.265362,306.438199
133.426616,-5699.585753,-6809.894666,1762.019645
133.426938,-4885.359217,-7550.100608,0.000000
133.427260,-4071.132681,-8808.450710,-2298.286494
133.427581,-3256.906145,-8068.244768,-2834.553343
133.427903,-2664.741391,-6809.894666,-2757.943793
133.428224,-1628.453072,-8438.347739,-2528.115143
133.428546,-296.082377,-9844.739029,-1991.848295
133.428868,-888.247130,-9548.656652,-3447.429741
133.429189,-666.185348,-9178.553681,-4060.306139
133.429511,666.185348,-9696.697840,-3753.867940
133.429832,1850.514855,-9622.677246,-3907.087040
133.430154,2960.823768,-9104.533087,-3217.601092
133.430476,4589.276840,-8290.306550,-383.047749
133.430797,6069.688724,-7698.141797,306.438199
133.431119,6883.915261,-8068.244768,153.219100
133.431441,6365.771101,-9474.636058,76.609550
133.431762,5033.400406,-9474.636058,229.828649
133.432084,3552.988522,-9548.656652,536.266849
133.432405,2368.659014,-10362.883188,842.705048
133.432727,1332.370696,-11103.089130,842.705048
133.433049,518.144159,-11547.212695,689.485948
133.433370,-444.123565,-11325.150913,536.266849
133.433692,-962.267725,-11843.295072,766.095498
133.434013,-1258.350101,-10658.965565,766.095498
133.434335,-962.267725,-9770.718434,-306.438199
133.434657,-1036.288319,-8586.388927,-995.924147
133.434978,-1036.288319,-7698.141797,-1378.971896
133.435300,-1776.494261,-6957.935855,-1915.238745
133.435621,-2812.782580,-7254.018232,-2834.553343
133.435943,-4737.318029,-8290.306550,-3140.991542
133.436265,-7105.977043,-9252.574275,-3830.477490
133.436586,-7994.224174,-9844.739029,-5132.839837
133.436908,-7254.018232,-9844.739029,-5898.935335
133.437230,-5181.441594,-9548.656652,-5209.449386
133.437551,-2812.782580,-9400.615463,-4903.011187
133.437873,-444.123565,-9474.636058,-3370.820191
133.438194,1628.453072,-9548.656652,-2145.067394
133.438516,3701.029710,-10436.903782,-1991.848295
133.438838,5329.482782,-10214.842000,-1915.238745
133.439159,6587.832884,-9918.759623,-1455.581446
133.439481,6365.771101,-10362.883188,-459.657299
133.439802,5255.462188,-10288.862594,1685.410096
133.440124,3552.988522,-9770.718434,2451.505594
133.440446,1406.391290,-9770.718434,1991.848295
133.440767,-444.123565,-9178.553681,842.705048
133.441089,-1924.535449,-7994.224174,-153.219100
133.441410,-3404.947333,-8290.306550,-536.266849
133.441732,-4885.359217,-8586.388927,1072.533697
133.442054,-6069.688724,-7920.203579,1378.971896
133.442375,-5699.585753,-9548.656652,-842.705048
133.442697,-5329.482782,-10510.924376,-2604.724693
133.443019,-4515.256246,-10288.862594,-2834.553343
133.443340,-4071.132681,-8512.368333,-3447.429741
133.443662,-2368.659014,-8882.471304,-3600.648841
133.443983,-1036.288319,-9326.594869,-3447.429741
133.444305,-1110.308913,-9030.512492,-4290.134789
133.444627,-518.144159,-8216.285956,-4213.525239
133.444948,592.164754,-8956.491898,-4060.306139
133.445270,1998.556043,-9622.677246,-4136.915689
133.445591,3627.009116,-9326.594869,-2528.115143
133.445913,5033.400406,-8364.327145,-1225.752797
133.446235,6587.832884,-7624.121203,229.828649
133.446556,7624.121203,-7920.203579,842.705048
133.446878,7105.977043,-8438.347739,536.266849
133.447199,5255.462188,-8512.368333,536.266849
133.447521,3775.050304,-9178.553681,919.314598
133.447843,2294.638420,-9474.636058,459.657299
133.448164,518.144159,-10807.006753,459.657299
133.448486,-1036.288319,-11843.295072,612.876398
133.448808,-2368.659014,-12805.562797,536.266849
133.449129,-3330.926739,-13619.789333,1072.533697
133.449451,-3701.029710,-13249.686362,229.828649
133.449772,-3627.009116,-11103.089130,-306.438199
133.450094,-2664.741391,-8956.491898,-1302.362347
133.450416,-1702.473667,-7476.080014,-2221.676944
133.450737,-1628.453072,-6513.812290,-2451.505594
133.451059,-2738.761985,-6143.709319,-2451.505594
133.451380,-4959.379811,-7328.038826,-2604.724693
133.451702,-5847.626942,-9030.512492,-3600.648841
133.452024,-6513.812290,-9548.656652,-4749.792088
133.452345,-5699.585753,-9474.636058,-5286.058936
133.452667,-3701.029710,-9030.512492,-5439.278036
133.452989,-1258.350101,-9252.574275,-3907.087040
133.453310,888.247130,-8808.450710,-3294.210641
133.453632,2516.700203,-8660.409521,-2681.334243
133.453953,4293.194464,-9622.677246,-2451.505594
133.454275,5255.462188,-10362.883188,-1991.848295
133.454597,4737.318029,-10214.842000,-1149.143247
133.454918,3997.112087,-10732.986159,459.657299
133.455240,2738.761985,-10584.944971,2145.067394
133.455561,1110.308913,-10658.965565,1991.848295
133.455883,-1406.391290,-10288.862594,1225.752797
133.456205,-2738.761985,-9030.512492,1302.362347
133.456526,-3552.988522,-7402.059420,0.000000
133.456848,-4293.194464,-8290.306550,-306.438199
133.457169,-5181.441594,-8290.306550,766.095498
133.457491,-5773.606348,-7920.203579,766.095498
133.457813,-5255.462188,-9918.759623,-919.314598
133.458134,-3997.112087,-10584.944971,-1762.019645
133.458456,-2886.803174,-9030.512492,-2757.943793
133.458778,-1924.535449,-7179.997637,-3983.696590
133.459099,-444.123565,-8364.327145,-3600.648841
133.459421,74.020594,-9400.615463,-3294.210641
133.459742,0.000000,-8512.368333,-3524.039291
133.460064,518.144159,-8586.388927,-4903.011187
133.460386,1406.391290,-10214.842000,-3983.696590
133.460707,2220.617826,-10955.047942,-2681.334243
133.461029,2738.761985,-9696.697840,-1532.190996
133.461350,4441.235652,-7772.162391,0.000000
133.461672,6513.812290,-7031.956449,76.609550
133.461994,6735.874072,-7402.059420,76.609550
133.462315,5477.523971,-8438.347739,76.609550
133.462637,3627.009116,-9400.615463,766.095498
133.462958,2294.638420,-10436.903782,1455.581446
133.463280,1332.370696,-11695.253884,2068.457845
133.463602,518.144159,-12361.439231,842.705048
133.463923,-740.205942,-11991.336260,612.876398
133.464245,-1554.432478,-11843.295072,689.485948
133.464567,-1998.556043,-11325.150913,689.485948
133.464888,-2442.679609,-9918.759623,-306.438199
133.465210,-1332.370696,-8734.430116,-1532.190996
133.465531,-1184.329507,-8142.265362,-1838.629195
133.465853,-1406.391290,-8290.306550,-2068.457845
133.466175,-2516.700203,-7920.203579,-1991.848295
133.466496,-3923.091493,-7846.182985,-2298.286494
133.466818,-5551.544565,-8438.347739,-3524.039291
133.467139,-6883.915261,-9178.553681,-4060.306139
133.467461,-7105.977043,-9252.574275,-5132.839837
133.467783,-6217.729913,-9178.553681,-5669.106685
133.468104,-4071.132681,-9400.615463,-4903.011187
133.468426,-1480.411884,-9030.512492,-3370.820191
133.468747,518.144159,-8882.471304,-1915.238745
133.469069,2738.761985,-9326.594869,-1915.238745
133.469391,4737.318029,-9844.739029,-1991.848295
133.469712,5847.626942,-10140.821405,-1532.190996
133.470034,5921.647536,-9622.677246,-842.705048
133.470356,5033.400406,-10066.800811,459.657299
133.470677,3849.070898,-9770.718434,2068.457845
133.470999,2072.576638,-9548.656652,1762.019645
133.471320,148.041188,-10658.965565,766.095498
133.471642,-1332.370696,-9548.656652,0.000000
133.471964,-2294.638420,-8734.430116,-383.047749
133.472285,-3997.112087,-8290.306550,76.609550
133.472607,-4959.379811,-8068.244768,1302.362347
133.472928,-5699.585753,-7550.100608,0.000000
133.473250,-5477.523971,-9622.677246,-2681.334243
133.473572,-4885.359217,-10955.047942,-2681.334243
133.473893,-3923.091493,-9918.759623,-2451.505594
133.474215,-3330.926739,-8512.368333,-3677.258390
133.474536,-1480.411884,-9474.636058,-3140.991542
133.474858,-370.102971,-9844.739029,-3983.696590
133.475180,-148.041188,-8512.368333,-4903.011187
133.475501,814.226536,-7920.203579,-4826.401637
133.475823,1924.535449,-9252.574275,-4213.525239
133.476145,3404.947333,-9622.677246,-3983.696590
133.476466,4885.359217,-9326.594869,-2681.334243
133.476788,6217.729913,-8808.450710,-995.924147
133.477109,7624.121203,-8586.388927,-306.438199
133.477431,8216.285956,-8808.450710,229.828649
133.477753,6661.853478,-8586.388927,0.000000
133.478074,5181.441594,-9030.512492,383.047749
133.478396,3552.988522,-9474.636058,689.485948
133.478717,1776.494261,-10214.842000,383.047749
133.479039,148.041188,-11473.192101,383.047749
133.479361,-1554.432478,-11843.295072,842.705048
133.479682,-2590.720797,-12213.398043,536.266849
133.480004,-3404.947333,-12509.480420,229.828649
133.480326,-3849.070898,-11991.336260,-306.438199
133.480647,-3404.947333,-10510.924376,-1072.533697
133.480969,-3034.844362,-8882.471304,-1532.190996
133.481290,-2442.679609,-8216.285956,-1762.019645
133.481612,-2368.659014,-7328.038826,-2145.067394
133.481934,-3256.906145,-6809.894666,-2451.505594
133.482255,-4589.276840,-7254.018232,-2757.943793
133.482577,-5403.503377,-8364.327145,-3830.477490
133.482898,-5403.503377,-8882.471304,-5362.668486
133.483220,-4515.256246,-8586.388927,-5592.497135
133.483542,-2812.782580,-8734.430116,-4136.915689
133.483863,-740.205942,-9030.512492,-2987.772442
133.484185,1184.329507,-9770.718434,-2374.896044
133.484506,2442.679609,-10288.862594,-2451.505594
133.484828,3701.029710,-10658.965565,-1532.190996
133.485150,4441.235652,-10362.883188,-1149.143247
133.485471,4145.153275,-9474.636058,-459.657299
133.485793,3627.009116,-9326.594869,612.876398
133.486115,2072.576638,-8956.491898,1532.190996
133.486436,0.000000,-9696.697840,1608.800546
133.486758,-2146.597232,-10732.986159,995.924147
133.487079,-3849.070898,-9918.759623,1149.143247
133.487401,-4367.215058,-9400.615463,919.314598
133.487723,-4293.194464,-8882.471304,689.485948
133.488044,-4515.256246,-8364.327145,612.876398
133.488366,-5329.482782,-7254.018232,153.219100
133.488687,-5107.421000,-8660.409521,-1762.019645
133.489009,-3997.112087,-10436.903782,-2221.676944
133.489331,-3330.926739,-8882.471304,-1991.848295
133.489652,-2220.617826,-7550.100608,-3753.867940
133.489974,-592.164754,-8586.388927,-3524.039291
133.490295,148.041188,-9770.718434,-3064.381992
133.490617,0.000000,-8882.471304,-4213.525239
133.490939,444.123565,-8216.285956,-4979.620737
133.491260,1776.494261,-9548.656652,-3830.477490
133.491582,2516.700203,-10510.924376,-3370.820191
133.491904,3034.844362,-10066.800811,-1685.410096
133.492225,4145.153275,-8438.347739,0.000000
133.492547,5699.585753,-7105.977043,229.828649
133.492868,6439.791695,-7698.141797,229.828649
133.493190,5847.626942,-9104.533087,229.828649
133.493512,3627.009116,-9844.739029,842.705048
133.493833,2146.597232,-10881.027347,842.705048
133.494155,1258.350101,-12139.377449,919.314598
133.494476,518.144159,-12657.521608,689.485948
133.494798,-888.247130,-11843.295072,459.657299
133.495120,-1554.432478,-11251.130318,536.266849
133.495441,-1776.494261,-10436.903782,766.095498
133.495763,-1406.391290,-9622.677246,-842.705048
133.496084,-1850.514855,-8290.306550,-2145.067394
133.496406,-1332.370696,-7994.224174,-1838.629195
133.496728,-2220.617826,-7846.182985,-1685.410096
133.497049,-2812.782580,-8068.244768,-2451.505594
133.497371,-4293.194464,-8068.244768,-2911.162892
133.497693,-6143.709319,-8142.265362,-3677.258390
133.498014,-7550.100608,-8808.450710,-4519.963438
133.498336,-7550.100608,-9696.697840,-5592.497135
133.498657,-5921.647536,-9696.697840,-5898.935335
133.498979,-3627.009116,-9326.594869,-5362.668486
133.499301,-1184.329507,-9104.533087,-3140.991542
133.499622,814.226536,-9696.697840,-1378.971896
133.499944,2738.761985,-9474.636058,-689.485948
133.500265,4737.318029,-9474.636058,-2145.067394
133.500587,6365.771101,-9548.656652,-2068.457845
133.500909,6809.894666,-9770.718434,-842.705048
133.501230,5255.462188,-10066.800811,842.705048
133.501552,4293.194464,-9918.759623,2604.724693
133.501874,2368.659014,-9622.677246,2068.457845
133.502195,888.247130,-9992.780217,766.095498
133.502517,-666.185348,-9400.615463,-229.828649
133.502838,-2516.700203,-8438.347739,-383.047749
133.503160,-4293.194464,-7846.182985,229.828649
133.503482,-4811.338623,-7328.038826,1378.971896
133.503803,-5107.421000,-8290.306550,-1149.143247
133.504125,-4737.318029,-9992.780217,-2834.553343
133.504446,-4737.318029,-10584.944971,-2681.334243
133.504768,-4441.235652,-9326.594869,-2374.896044
133.505090,-3034.844362,-8956.491898,-3447.429741
133.505411,-1480.411884,-9474.636058,-3447.429741
133.505733,-1036.288319,-9474.636058,-4519.963438
133.506054,-444.123565,-8290.306550,-4519.963438
133.506376,814.226536,-8068.244768,-4213.525239
133.506698,2516.700203,-8364.327145,-4136.915689
133.507019,3701.029710,-9400.615463,-3600.648841
133.507341,5255.462188,-9400.615463,-1685.410096
133.507663,6143.709319,-8882.471304,0.000000
133.507984,7328.038826,-8586.388927,689.485948
133.508306,7550.100608,-8956.491898,306.438199
133.508627,5847.626942,-8290.306550,229.828649
133.508949,4145.153275,-8660.409521,459.657299
133.509271,2368.659014,-9844.739029,612.876398
133.509592,1258.350101,-11029.068536,919.314598
133.509914,370.102971,-11769.274478,1072.533697
133.510235,-1628.453072,-12065.356855,995.924147
133.510557,-2368.659014,-12879.583391,1149.143247
133.510879,-3330.926739,-12435.459826,306.438199
133.511200,-3923.091493,-11325.150913,-536.266849
133.511522,-3627.009116,-9770.718434,-1225.752797
133.511843,-2220.617826,-8808.450710,-1762.019645
133.512165,-1998.556043,-7846.182985,-1762.019645
133.512487,-2516.700203,-7105.977043,-2145.067394
133.512808,-3775.050304,-7105.977043,-2374.896044
133.513130,-5107.421000,-7920.203579,-3064.381992
133.513452,-5403.503377,-8882.471304,-4060.306139
133.513773,-5921.647536,-7994.224174,-4979.620737
133.514095,-4811.338623,-8216.285956,-5056.230287
133.514416,-2960.823768,-8734.430116,-3983.696590
133.514738,-1184.329507,-9400.615463,-3064.381992
133.515060,592.164754,-9474.636058,-2221.676944
133.515381,1850.514855,-9474.636058,-2145.067394
133.515703,3552.988522,-10066.800811,-1532.190996
133.516024,4071.132681,-10436.903782,-1302.362347
133.516346,3627.009116,-10214.842000,-536.266849
133.516668,2368.659014,-9474.636058,612.876398
133.516989,518.144159,-9400.615463,2145.067394
133.517311,-814.226536,-9696.697840,1685.410096
133.517632,-2146.597232,-11251.130318,459.657299
133.517954,-3108.864956,-10807.006753,306.438199
133.518276,-3627.009116,-9104.533087,459.657299
133.518597,-2960.823768,-8956.491898,459.657299
133.518919,-2886.803174,-7550.100608,919.314598
133.519241,-3552.988522,-7402.059420,0.000000
133.519562,-3627.009116,-8586.388927,-1991.848295
133.519884,-2960.823768,-9696.697840,-2298.286494
133.520205,-2368.659014,-8142.265362,-2528.115143
133.520527,-1258.350101,-7179.997637,-4596.572988
133.520849,74.020594,-8956.491898,-3370.820191
133.521171,0.000000,-9326.594869,-3064.381992
133.521493,-1554.432478,-8512.368333,-4366.744339
133.521814,-1332.370696,-8586.388927,-4903.011187
133.522136,296.082377,-9548.656652,-5515.887586
133.522458,1332.370696,-9992.780217,-4979.620737
133.522780,2220.617826,-9992.780217,-3217.601092
133.523101,3552.988522,-8956.491898,-153.219100
133.523423,5625.565159,-7846.182985,153.219100
133.523745,6439.791695,-8364.327145,-689.485948
133.524066,4737.318029,-9622.677246,-153.219100
133.524388,2738.761985,-10658.965565,1072.533697
133.524710,1480.411884,-10658.965565,689.485948
133.525032,1406.391290,-11547.212695,612.876398
133.525353,1480.411884,-12287.418637,919.314598
133.525675,444.123565,-11473.192101,842.705048
133.525997,-444.123565,-10658.965565,1608.800546
133.526319,-444.123565,-9918.759623,1762.019645
133.526640,0.000000,-9400.615463,-612.876398
133.526962,296.082377,-8290.306550,-2451.505594
133.527284,0.000000,-7476.080014,-1838.629195
133.527606,-1184.329507,-7550.100608,-995.924147
133.527927,-2516.700203,-7698.141797,-1685.410096
133.528249,-4219.173869,-8290.306550,-3370.820191
133.528571,-6883.915261,-8956.491898,-4213.525239
133.528893,-8956.491898,-9622.677246,-5132.839837
133.529214,-9548.656652,-10140.821405,-5515.887586
133.529536,-7550.100608,-10066.800811,-5898.935335
133.529858,-4515.256246,-8734.430116,-5056.230287
133.530180,-1332.370696,-8512.368333,-3600.648841
133.530501,888.247130,-8956.491898,-1991.848295
133.530823,2516.700203,-9104.533087,-919.314598
133.531145,4441.235652,-8734.430116,-1608.800546
133.531467,6069.688724,-9770.718434,-1991.848295
133.531788,6513.812290,-10807.006753,-766.095498
133.532110,4737.318029,-10658.965565,1302.362347
133.532432,2368.659014,-9104.533087,3677.258390
133.532754,1850.514855,-8142.265362,3294.210641
133.533075,1406.391290,-9622.677246,306.438199
133.533397,370.102971,-9992.780217,-995.924147
133.533719,-2368.659014,-8956.491898,766.095498
133.534041,-4515.256246,-8364.327145,2451.505594
133.534362,-3923.091493,-7772.162391,1991.848295
133.534684,-4219.173869,-7920.203579,-1608.800546
133.535006,-4145.153275,-9326.594869,-2757.943793
133.535327,-4737.318029,-10288.862594,-2451.505594
133.535649,-3923.091493,-10658.965565,-2604.724693
133.535971,-2220.617826,-9474.636058,-3447.429741
133.536293,-814.226536,-9252.574275,-3447.429741
133.536614,296.082377,-9474.636058,-3830.477490
133.536936,444.123565,-9252.574275,-4290.134789
133.537258,666.185348,-9178.553681,-4673.182538
133.537580,1776.494261,-9474.636058,-4366.744339
133.537901,3404.947333,-9178.553681,-2451.505594
133.538223,4959.379811,-9178.553681,-1302.362347
133.538545,5773.606348,-8290.306550,-536.266849
133.538867,6365.771101,-7920.203579,842.705048
133.539188,6883.915261,-7846.182985,919.314598
133.539510,5847.626942,-8660.409521,536.266849
133.539832,4145.153275,-9474.636058,383.047749
133.540154,1924.535449,-9844.739029,842.705048
133.540475,518.144159,-11103.089130,842.705048
133.540797,-814.226536,-12287.418637,612.876398
133.541119,-2072.576638,-11991.336260,459.657299
133.541441,-3182.885551,-11769.274478,-383.047749
133.541762,-3997.112087,-11695.253884,-536.266849
133.542084,-3627.009116,-11547.212695,-1225.752797
133.542406,-2516.700203,-10436.903782,-1532.190996
133.542728,-1406.391290,-8660.409521,-1991.848295
133.543049,-740.205942,-7402.059420,-1991.848295
133.543371,-1628.453072,-6957.935855,-1762.019645
133.543693,-3701.029710,-6587.832884,-2451.505594
133.544015,-5995.668130,-6883.915261,-3907.087040
133.544336,-6661.853478,-8364.327145,-5669.106685
133.544658,-5699.585753,-9104.533087,-6894.859482
133.544980,-4219.173869,-8808.450710,-5592.497135
133.545301,-2294.638420,-9104.533087,-3677.258390
133.545623,148.041188,-9770.718434,-2068.457845
133.545945,1998.556043,-9696.697840,-2221.676944
133.546267,2812.782580,-9622.677246,-2298.286494
133.546588,3552.988522,-10066.800811,-2681.334243
133.546910,2960.823768,-9696.697840,-2145.067394
133.547232,1924.535449,-9696.697840,-919.314598
133.547554,740.205942,-8956.491898,1762.019645
133.547875,74.020594,-10436.903782,1685.410096
133.548197,-814.226536,-11547.212695,306.438199
133.548519,-2294.638420,-10436.903782,995.924147
133.548841,-4145.153275,-8660.409521,1225.752797
133.549162,-3849.070898,-8364.327145,612.876398
133.549484,-3404.947333,-7476.080014,0.000000
133.549806,-4219.173869,-7402.059420,-383.047749
133.550128,-4885.359217,-8808.450710,-612.876398
133.550449,-4515.256246,-10658.965565,-1378.971896
133.550771,-2738.761985,-9178.553681,-2374.896044
133.551093,-962.267725,-7031.956449,-3753.867940
133.551415,666.185348,-7920.203579,-3600.648841
133.551736,222.061783,-9622.677246,-3140.991542
133.552058,-1036.288319,-9178.553681,-2834.553343
133.552380,-666.185348,-8364.327145,-4826.401637
133.552702,1184.329507,-8956.491898,-4903.011187
133.553023,2294.638420,-10955.047942,-4060.306139
133.553345,2072.576638,-11547.212695,-2528.115143
133.553667,3034.844362,-9696.697840,842.705048
133.553989,5477.523971,-7476.080014,1302.362347
133.554310,7550.100608,-7476.080014,0.000000
133.554632,7105.977043,-8956.491898,-689.485948
133.554954,4071.132681,-9548.656652,1302.362347
133.555276,1554.432478,-10214.842000,1991.848295
133.555597,444.123565,-10955.047942,1762.019645
133.555919,592.164754,-11621.233289,383.047749
133.556241,-370.102971,-11473.192101,-459.657299
133.556562,-2146.597232,-11399.171507,76.609550
133.556884,-2812.782580,-11103.089130,1455.581446
133.557206,-2368.659014,-10436.903782,995.924147
133.557528,-814.226536,-9770.718434,-1072.533697
133.557849,-888.247130,-8438.347739,-2374.896044
133.558171,-1184.329507,-7698.141797,-2298.286494
133.558493,-1850.514855,-7846.182985,-2068.457845
133.558815,-2812.782580,-7920.203579,-2757.943793
133.559136,-4589.276840,-8290.306550,-4060.306139
133.559458,-6217.729913,-9326.594869,-4443.353888
133.559780,-6587.832884,-10510.924376,-4673.182538
133.560102,-5625.565159,-10584.944971,-4749.792088
133.560423,-3108.864956,-9548.656652,-4136.915689
133.560745,-888.247130,-8290.306550,-2757.943793
133.561067,1332.370696,-8068.244768,-1455.581446
133.561389,2812.782580,-8142.265362,-766.095498
133.561710,3775.050304,-9104.533087,-1378.971896
133.562032,4885.359217,-10066.800811,-1762.019645
133.562354,4293.194464,-9918.759623,-612.876398
133.562676,3627.009116,-10140.821405,1072.533697
133.562997,2664.741391,-8956.491898,2221.676944
133.563319,1924.535449,-10214.842000,995.924147
133.563641,888.247130,-10658.965565,306.438199
133.563963,-1406.391290,-8956.491898,229.828649
133.564284,-3701.029710,-7772.162391,0.000000
133.564606,-4663.297435,-8290.306550,459.657299
133.564928,-5329.482782,-7254.018232,-229.828649
133.565250,-6069.688724,-7920.203579,-2451.505594
133.565571,-5477.523971,-10362.883188,-2757.943793
133.565893,-5107.421000,-11177.109724,-1302.362347
133.566215,-4293.194464,-9844.739029,-2911.162892
133.566536,-2738.761985,-9104.533087,-3524.039291
133.566858,-740.205942,-9326.594869,-3830.477490
133.567180,-444.123565,-9178.553681,-5209.449386
133.567502,444.123565,-8660.409521,-4519.963438
133.567823,1702.473667,-8216.285956,-4060.306139
133.568145,3404.947333,-8290.306550,-4826.401637
133.568467,5255.462188,-9474.636058,-3830.477490
133.568789,6217.729913,-9844.739029,-1532.190996
133.569110,6957.935855,-8586.388927,153.219100
133.569432,8068.244768,-7698.141797,76.609550
133.569754,8290.306550,-8734.430116,229.828649
133.570076,6587.832884,-8882.471304,0.000000
133.570397,3849.070898,-8882.471304,153.219100
133.570719,1332.370696,-9474.636058,766.095498
133.571041,-296.082377,-10807.006753,766.095498
133.571363,-2146.597232,-11177.109724,0.000000
133.571684,-3849.070898,-11325.150913,-383.047749
133.572006,-4663.297435,-11843.295072,-229.828649
133.572328,-4441.235652,-12361.439231,0.000000
133.572650,-4515.256246,-11695.253884,-306.438199
133.572971,-3627.009116,-10584.944971,-1072.533697
133.573293,-2590.720797,-8882.471304,-1378.971896
133.573615,-1776.494261,-8512.368333,-1991.848295
133.573937,-2368.659014,-7846.182985,-2451.505594
133.574258,-3997.112087,-7254.018232,-2451.505594
133.574580,-5477.523971,-7624.121203,-2987.772442
133.574902,-4959.379811,-8882.471304,-4826.401637
133.575224,-3627.009116,-8956.491898,-5362.668486
133.575545,-2368.659014,-8364.327145,-4366.744339
133.575867,-518.144159,-8586.388927,-2681.334243
133.576189,1258.350101,-9622.677246,-1532.190996
133.576511,2220.617826,-9474.636058,-1302.362347
133.576832,2812.782580,-9474.636058,-1532.190996
133.577154,3775.050304,-10140.821405,-1608.800546
133.577476,3701.029710,-10584.944971,-1072.533697
133.577797,2812.782580,-9400.615463,0.000000
133.578119,1628.453072,-8586.388927,2604.724693
133.578441,740.205942,-9178.553681,2221.676944
133.578763,-518.144159,-10955.047942,842.705048
133.579084,-2442.679609,-10881.027347,0.000000
133.579406,-4145.153275,-9474.636058,689.485948
133.579728,-4663.297435,-9252.574275,153.219100
133.580050,-4589.276840,-9030.512492,536.266849
133.580371,-5477.523971,-7846.182985,766.095498
133.580693,-6143.709319,-7846.182985,-1149.143247
133.581015,-5181.441594,-10436.903782,-2528.115143
133.581337,-3627.009116,-9918.759623,-2068.457845
133.581658,-2294.638420,-7920.203579,-2681.334243
133.581980,-370.102971,-7920.203579,-2604.724693
133.582302,1480.411884,-9104.533087,-2374.896044
133.582624,1184.329507,-8438.347739,-3140.991542
133.582945,1036.288319,-7254.018232,-4290.134789
133.583267,2072.576638,-8290.306550,-4596.572988
133.583589,3108.864956,-9844.739029,-4060.306139
133.583911,3404.947333,-10436.903782,-2528.115143
133.584232,3923.091493,-9548.656652,-536.266849
133.584554,5329.482782,-8142.265362,536.266849
133.584876,6809.894666,-7846.182985,-229.828649
133.585198,6513.812290,-9400.615463,-689.485948
133.585519,4293.194464,-9400.615463,229.828649
133.585841,2146.597232,-9622.677246,919.314598
133.586163,592.164754,-11029.068536,842.705048
133.586485,0.000000,-12065.356855,0.000000
133.586806,-1776.494261,-11547.212695,-1149.143247
133.587128,-2738.761985,-11621.233289,-612.876398
133.587450,-2960.823768,-11473.192101,76.609550
133.587771,-2590.720797,-11029.068536,0.000000
133.588093,-1850.514855,-9844.739029,-995.924147
133.588415,-1332.370696,-8364.327145,-1608.800546
133.588737,-1110.308913,-7550.100608,-2068.457845
133.589058,-1258.350101,-7698.141797,-2604.724693
133.589380,-2738.761985,-7772.162391,-3217.601092
133.589702,-4885.359217,-8216.285956,-3677.258390
133.590024,-5995.668130,-9252.574275,-4366.744339
133.590345,-7105.977043,-10288.862594,-5822.325785
133.590667,-6143.709319,-10955.047942,-5975.544884
133.590989,-3701.029710,-9992.780217,-5515.887586
133.591311,-1036.288319,-9104.533087,-4136.915689
133.591632,962.267725,-9400.615463,-2451.505594
133.591954,2516.700203,-8734.430116,-1302.362347
133.592276,3701.029710,-8364.327145,-1838.629195
133.592598,5181.441594,-8586.388927,-2987.772442
133.592919,5773.606348,-9918.759623,-2374.896044
133.593241,4515.256246,-10658.965565,229.828649
133.593563,2516.700203,-8956.491898,2604.724693
133.593885,1776.494261,-9992.780217,2604.724693
133.594206,1036.288319,-10807.006753,1149.143247
133.594528,-222.061783,-9474.636058,-306.438199
133.594850,-2368.659014,-7772.162391,-536.266849
133.595172,-4071.132681,-8216.285956,612.876398
133.595493,-4737.318029,-7179.997637,1991.848295
133.595815,-5773.606348,-7031.956449,229.828649
133.596137,-5995.668130,-9548.656652,-2145.067394
133.596459,-5699.585753,-11473.192101,-1915.238745
133.596780,-5181.441594,-10436.903782,-2221.676944
133.597102,-3256.906145,-9474.636058,-2834.553343
133.597424,-740.205942,-9178.553681,-2374.896044
133.597746,222.061783,-9252.574275,-2757.943793
133.598067,444.123565,-8734.430116,-3524.039291
133.598389,1332.370696,-8142.265362,-2987.772442
133.598711,2516.700203,-8438.347739,-3600.648841
133.599032,4145.153275,-9030.512492,-3370.820191
133.599354,5255.462188,-9400.615463,-1532.190996
133.599676,6587.832884,-8364.327145,536.266849
133.599998,7698.141797,-7402.059420,1455.581446
133.600319,8438.347739,-8586.388927,1072.533697
133.600641,7179.997637,-9030.512492,612.876398
133.600963,4589.276840,-9252.574275,383.047749
133.601285,2072.576638,-9326.594869,689.485948
133.601606,296.082377,-10140.821405,536.266849
133.601928,-888.247130,-10732.986159,306.438199
133.602250,-2442.679609,-11547.212695,229.828649
133.602572,-3923.091493,-12213.398043,0.000000
133.602893,-4737.318029,-13027.624579,153.219100
133.603215,-4885.359217,-12879.583391,-612.876398
133.603537,-4737.318029,-11621.233289,-1149.143247
133.603859,-3552.988522,-9622.677246,-2604.724693
133.604180,-2368.659014,-8660.409521,-2145.067394
133.604502,-2368.659014,-7550.100608,-2068.457845
133.604824,-3108.864956,-7402.059420,-2528.115143
133.605146,-3627.009116,-7994.224174,-3600.648841
133.605467,-3849.070898,-8660.409521,-4136.915689
133.605789,-3627.009116,-8956.491898,-4596.572988
133.606111,-2738.761985,-8956.491898,-4060.306139
133.606433,-1110.308913,-8216.285956,-3447.429741
133.606754,518.144159,-7920.203579,-2987.772442
133.607076,2072.576638,-7920.203579,-2528.115143
133.607398,3552.988522,-8438.347739,-1915.238745
133.607720,4293.194464,-9030.512492,-2757.943793
133.608041,4145.153275,-9548.656652,-2374.896044
133.608363,3256.906145,-9918.759623,-1225.752797
133.608685,1924.535449,-9548.656652,689.485948
133.609006,1110.308913,-10140.821405,995.924147
133.609328,-740.205942,-11695.253884,612.876398
133.609650,-2812.782580,-11103.089130,-229.828649
133.609972,-5033.400406,-9474.636058,0.000000
133.610293,-5625.565159,-8734.430116,-306.438199
133.610615,-5107.421000,-8290.306550,-612.876398
133.610937,-4885.359217,-7772.162391,-842.705048
133.611259,-5995.668130,-8364.327145,-689.485948
133.611580,-5699.585753,-10732.986159,-383.047749
133.611902,-4293.194464,-10732.986159,-1072.533697
133.612224,-2442.679609,-8142.265362,-2604.724693
133.612546,-518.144159,-6513.812290,-3064.381992
133.612867,444.123565,-6735.874072,-3830.477490
133.613189,0.000000,-8438.347739,-3983.696590
133.613511,0.000000,-8586.388927,-4060.306139
133.613833,1184.329507,-9104.533087,-4903.011187
133.614154,2960.823768,-11103.089130,-4826.401637
133.614476,4441.235652,-11769.274478,-3447.429741
133.614798,4219.173869,-10732.986159,-1149.143247
133.615120,5477.523971,-8216.285956,-383.047749
133.615441,7328.038826,-7624.121203,-689.485948
133.615763,7254.018232,-8290.306550,-842.705048
133.616085,5551.544565,-8660.409521,0.000000
133.616407,2590.720797,-8734.430116,766.095498
133.616728,1554.432478,-10510.924376,1225.752797
133.617050,666.185348,-11917.315666,1225.752797
133.617372,-666.185348,-11843.295072,766.095498
133.617694,-2590.720797,-11029.068536,536.266849
133.618015,-2738.761985,-10881.027347,919.314598
133.618337,-3108.864956,-10955.047942,766.095498
133.618659,-2960.823768,-10140.821405,-459.657299
133.618981,-2738.761985,-8734.430116,-1455.581446
133.619302,-2146.597232,-8660.409521,-1915.238745
133.619624,-1998.556043,-8216.285956,-2298.286494
133.619946,-2442.679609,-8290.306550,-2528.115143
133.620267,-3330.926739,-8586.388927,-3370.820191
133.620589,-3923.091493,-9696.697840,-3907.087040
133.620911,-4515.256246,-10658.965565,-3983.696590
133.621233,-4737.318029,-10288.862594,-4519.963438
133.621554,-3478.967927,-9548.656652,-3217.601092
133.621876,-1628.453072,-8660.409521,-2834.553343
133.622198,0.000000,-7846.182985,-2451.505594
133.622520,1406.391290,-7698.141797,-1685.410096
133.622841,2516.700203,-7846.182985,-995.924147
133.623163,4367.215058,-8512.368333,-612.876398
133.623485,4811.338623,-9474.636058,-612.876398
133.623807,4589.276840,-9104.533087,536.266849
133.624128,3627.009116,-9252.574275,1838.629195
133.624450,2442.679609,-9326.594869,1378.971896
133.624772,1480.411884,-10436.903782,0.000000
133.625093,-296.082377,-9992.780217,-306.438199
133.625415,-2664.741391,-9844.739029,0.000000
133.625737,-4663.297435,-8956.491898,306.438199
133.626059,-5329.482782,-8956.491898,306.438199
133.626380,-6069.688724,-7698.141797,-766.095498
133.626702,-6365.771101,-7920.203579,-2528.115143
133.627024,-6217.729913,-9770.718434,-1915.238745
133.627346,-5995.668130,-11251.130318,-1762.019645
133.627667,-4441.235652,-10066.800811,-2221.676944
133.627989,-2294.638420,-8586.388927,-3294.210641
133.628311,296.082377,-8142.265362,-3064.381992
133.628633,1332.370696,-8882.471304,-3983.696590
133.628954,1628.453072,-8660.409521,-3140.991542
133.629276,2516.700203,-8734.430116,-3447.429741
133.629598,4145.153275,-9030.512492,-3600.648841
133.629919,6291.750507,-9178.553681,-2221.676944
133.630241,7254.018232,-8734.430116,-1915.238745
133.630563,7624.121203,-7920.203579,-995.924147
133.630885,8438.347739,-8364.327145,0.000000
133.631206,7624.121203,-8882.471304,-229.828649
133.631528,5477.523971,-9178.553681,0.000000
133.631850,3330.926739,-9474.636058,689.485948
133.632172,814.226536,-9696.697840,0.000000
133.632493,-962.267725,-10732.986159,-612.876398
133.632815,-2812.782580,-11103.089130,-536.266849
133.633137,-4367.215058,-11251.130318,-536.266849
133.633459,-4663.297435,-11621.233289,-1225.752797
133.633780,-5033.400406,-11991.336260,-1532.190996
133.634102,-4811.338623,-12213.398043,-1685.410096
133.634424,-3997.112087,-11103.089130,-2221.676944
133.634745,-2886.803174,-9844.739029,-2834.553343
133.635067,-2072.576638,-8808.450710,-2298.286494
133.635389,-2812.782580,-7994.224174,-1608.800546
133.635711,-2738.761985,-8290.306550,-2757.943793
133.636032,-2886.803174,-8512.368333,-4213.525239
133.636354,-2294.638420,-8586.388927,-4826.401637
133.636676,-1110.308913,-8364.327145,-4366.744339
133.636998,148.041188,-8142.265362,-3294.210641
133.637319,814.226536,-8068.244768,-2221.676944
133.637641,1628.453072,-8660.409521,-1991.848295
133.637963,2072.576638,-8808.450710,-2451.505594
133.638285,2812.782580,-9474.636058,-2298.286494
133.638606,3701.029710,-10214.842000,-2528.115143
133.638928,3034.844362,-9696.697840,-1532.190996
133.639250,1702.473667,-8660.409521,306.438199
133.639571,740.205942,-8882.471304,1838.629195
133.639893,-296.082377,-10066.800811,1072.533697
133.640215,-2072.576638,-11103.089130,-536.266849
133.640537,-4219.173869,-10436.903782,-306.438199
133.640858,-5477.523971,-9844.739029,842.705048
133.641180,-5699.585753,-9104.533087,766.095498
133.641502,-5255.462188,-8438.347739,153.219100
133.641824,-5921.647536,-7920.203579,-153.219100
133.642145,-6069.688724,-8882.471304,-459.657299
133.642467,-5847.626942,-10362.883188,-995.924147
133.642789,-4737.318029,-10288.862594,-1302.362347
133.643111,-2664.741391,-8808.450710,-1838.629195
133.643432,0.000000,-8068.244768,-2221.676944
133.643754,1850.514855,-8512.368333,-1302.362347
133.644076,2738.761985,-7846.182985,-536.266849
133.644397,2516.700203,-7105.977043,-2374.896044
133.644719,2664.741391,-7476.080014,-3294.210641
133.645041,3108.864956,-8956.491898,-2987.772442
133.645363,3034.844362,-9844.739029,-2068.457845
133.645684,3256.906145,-9252.574275,-612.876398
133.646006,4737.318029,-8882.471304,0.000000
133.646328,6217.729913,-9104.533087,0.000000
133.646650,5921.647536,-9326.594869,-459.657299
133.646971,4367.215058,-9326.594869,-153.219100
133.647293,2294.638420,-9918.759623,306.438199
133.647615,592.164754,-10881.027347,383.047749
133.647936,-1184.329507,-11103.089130,0.000000
133.648258,-2738.761985,-11251.130318,-383.047749
133.648580,-3923.091493,-11399.171507,-306.438199
133.648902,-4293.194464,-11399.171507,0.000000
133.649223,-4219.173869,-11177.109724,-383.047749
133.649545,-3478.967927,-9918.759623,-995.924147
133.649867,-2072.576638,-9104.533087,-1838.629195
133.650189,-1036.288319,-8290.306550,-1991.848295
133.650510,-740.205942,-7772.162391,-1915.238745
133.650832,-1480.411884,-7402.059420,-1915.238745
133.651154,-2516.700203,-7624.121203,-2528.115143
133.651476,-3701.029710,-8734.430116,-3983.696590
133.651797,-4663.297435,-9918.759623,-5209.449386
133.652119,-4071.132681,-10732.986159,-5209.449386
133.652441,-2664.741391,-10807.006753,-4979.620737
133.652762,-592.164754,-9400.615463,-4903.011187
133.653084,1406.391290,-9030.512492,-2834.553343
133.653406,2664.741391,-8660.409521,-2145.067394
133.653728,4071.132681,-8660.409521,-2221.676944
133.654049,4885.359217,-8956.491898,-2451.505594
133.654371,5551.544565,-9918.759623,-2221.676944
133.654693,4367.215058,-9844.739029,-689.485948
133.655015,2368.659014,-10140.821405,1225.752797
133.655336,592.164754,-9104.533087,1685.410096
133.655658,0.000000,-10214.842000,229.828649
133.655980,-1036.288319,-10881.027347,-153.219100
133.656302,-2590.720797,-8956.491898,-536.266849
133.656623,-4367.215058,-8290.306550,0.000000
133.656945,-4737.318029,-7920.203579,842.705048
133.657267,-5181.441594,-6957.935855,383.047749
133.657588,-5551.544565,-7698.141797,-2374.896044
133.657910,-5847.626942,-9474.636058,-2757.943793
133.658232,-5625.565159,-10881.027347,-1838.629195
133.658554,-5329.482782,-10066.800811,-1838.629195
133.658875,-3404.947333,-9252.574275,-2911.162892
133.659197,-518.144159,-9252.574275,-3907.087040
133.659519,888.247130,-9400.615463,-4903.011187
133.659841,1480.411884,-7994.224174,-3677.258390
133.660162,2368.659014,-8142.265362,-2987.772442
133.660484,4145.153275,-8808.450710,-3524.039291
133.660806,5625.565159,-9696.697840,-2834.553343
133.661128,6957.935855,-9326.594869,-766.095498
133.661449,7179.997637,-7476.080014,153.219100
133.661771,8142.265362,-7994.224174,689.485948
133.662093,7550.100608,-8956.491898,919.314598
133.662414,5477.523971,-9548.656652,919.314598
133.662736,2812.782580,-9400.615463,1225.752797
133.663058,814.226536,-9696.697840,612.876398
133.663380,-296.082377,-10658.965565,153.219100
133.663701,-1998.556043,-11029.068536,-612.876398
133.664023,-3552.988522,-11029.068536,306.438199
133.664345,-4515.256246,-11399.171507,766.095498
133.664667,-4737.318029,-11695.253884,0.000000
133.664988,-4737.318029,-11029.068536,-1072.533697
133.665310,-4367.215058,-10214.842000,-2221.676944
133.665632,-3552.988522,-9474.636058,-2451.505594
133.665954,-3330.926739,-8956.491898,-1532.190996
133.666275,-3404.947333,-8290.306550,-1455.581446
133.666597,-3108.864956,-7624.121203,-2911.162892
133.666919,-3478.967927,-7846.182985,-4060.306139
133.667240,-2960.823768,-8586.388927,-4443.353888
133.667562,-2368.659014,-8512.368333,-4136.915689
133.667884,-1332.370696,-8586.388927,-3217.601092
133.668206,370.102971,-8808.450710,-2145.067394
133.668527,1850.514855,-8142.265362,-2145.067394
133.668849,2886.803174,-8882.471304,-1762.019645
133.669171,3775.050304,-9178.553681,-2221.676944
133.669493,4441.235652,-9622.677246,-2068.457845
133.669814,4145.153275,-9992.780217,-842.705048
133.670136,3108.864956,-9992.780217,612.876398
133.670458,1258.350101,-10288.862594,1378.971896
133.670780,-296.082377,-10510.924376,1072.533697
133.671101,-1554.432478,-11473.192101,-459.657299
133.671423,-2960.823768,-11473.192101,-919.314598
133.671745,-4145.153275,-10066.800811,0.000000
133.672066,-4293.194464,-8586.388927,689.485948
133.672388,-4515.256246,-8142.265362,306.438199
133.672710,-4441.235652,-7920.203579,-306.438199
133.673032,-5255.462188,-8660.409521,-1762.019645
133.673353,-5033.400406,-9696.697840,-1991.848295
133.673675,-4219.173869,-9474.636058,-1685.410096
133.673997,-2738.761985,-7698.141797,-1991.848295
133.674319,-1110.308913,-7328.038826,-2681.334243
133.674640,0.000000,-7698.141797,-3370.820191
133.674962,-222.061783,-7624.121203,-4366.744339
133.675284,-518.144159,-7698.141797,-5822.325785
133.675605,888.247130,-9326.594869,-4826.401637
133.675927,2368.659014,-10955.047942,-4290.134789
133.676249,3182.885551,-10807.006753,-3524.039291
133.676571,4441.235652,-10214.842000,-1762.019645
133.676892,6513.812290,-9326.594869,-612.876398
133.677214,7994.224174,-8068.244768,-1072.533697
133.677536,7328.038826,-8216.285956,-1532.190996
133.677858,5403.503377,-9474.636058,-383.047749
133.678179,3034.844362,-10732.986159,1378.971896
133.678501,666.185348,-11325.150913,1608.800546
133.678823,-1036.288319,-10881.027347,1455.581446
133.679145,-1480.411884,-11177.109724,229.828649
133.679466,-2220.617826,-10658.965565,0.000000
133.679788,-3256.906145,-10658.965565,459.657299
133.680110,-2960.823768,-10436.903782,766.095498
133.680431,-2590.720797,-9400.615463,229.828649
133.680753,-1776.494261,-8882.471304,-1685.410096
133.681075,-1036.288319,-8068.244768,-2221.676944
133.681397,-1184.329507,-7846.182985,-2451.505594
133.681718,-2812.782580,-7846.182985,-2834.553343
133.682040,-4737.318029,-8734.430116,-2911.162892
133.682362,-6291.750507,-10140.821405,-4366.744339
133.682684,-7254.018232,-10584.944971,-5898.935335
133.683005,-6661.853478,-10732.986159,-6128.763984
133.683327,-4737.318029,-10288.862594,-5209.449386
133.683649,-2368.659014,-8882.471304,-4060.306139
133.683971,-148.041188,-8068.244768,-2757.943793
133.684292,1850.514855,-7920.203579,-995.924147
133.684614,3552.988522,-7920.203579,-1072.533697
133.684936,5255.462188,-8142.265362,-2298.286494
133.685257,5921.647536,-9844.739029,-1838.629195
133.685579,4663.297435,-10807.006753,1149.143247
133.685901,3034.844362,-10288.862594,2987.772442
133.686223,1332.370696,-9474.636058,3447.429741
133.686544,1036.288319,-9918.759623,1225.752797
133.686866,592.164754,-10510.924376,-766.095498
133.687188,-592.164754,-9474.636058,-689.485948
133.687510,-2590.720797,-8512.368333,1455.581446
133.687831,-3701.029710,-7698.141797,2681.334243
133.688153,-3849.070898,-7105.977043,919.314598
133.688475,-4589.276840,-8068.244768,-2068.457845
133.688797,-5477.523971,-9696.697840,-3064.381992
133.689118,-5921.647536,-10436.903782,-2374.896044
133.689440,-4663.297435,-10362.883188,-2221.676944
133.689762,-2072.576638,-9474.636058,-3064.381992
133.690083,0.000000,-8808.450710,-3524.039291
133.690405,296.082377,-8438.347739,-3677.258390
133.690727,148.041188,-8364.327145,-3830.477490
133.691049,888.247130,-8734.430116,-3983.696590
133.691370,2368.659014,-9178.553681,-4979.620737
133.691692,4219.173869,-9696.697840,-3217.601092
133.692014,5625.565159,-8956.491898,-612.876398
133.692336,6217.729913,-7698.141797,383.047749
133.692657,7994.224174,-7772.162391,689.485948
133.692979,8290.306550,-8808.450710,0.000000
133.693301,6513.812290,-9326.594869,0.000000
133.693623,3849.070898,-9844.739029,1149.143247
133.693944,1850.514855,-10584.944971,1455.581446
133.694266,518.144159,-10881.027347,306.438199
133.694588,-740.205942,-11621.233289,0.000000
133.694909,-2368.659014,-12065.356855,0.000000
133.695231,-3404.947333,-11695.253884,153.219100
133.695553,-3627.009116,-11917.315666,-612.876398
133.695875,-3034.844362,-11843.295072,-1225.752797
133.696196,-2072.576638,-10732.986159,-1532.190996
133.696518,-1258.350101,-8956.491898,-2451.505594
133.696840,-888.247130,-8068.244768,-2834.553343
133.697162,-1776.494261,-7698.141797,-2757.943793
133.697483,-4145.153275,-7550.100608,-3064.381992
133.697805,-5921.647536,-8142.265362,-3830.477490
133.698127,-6513.812290,-9474.636058,-5515.887586
133.698449,-5625.565159,-9252.574275,-6052.154434
133.698770,-4145.153275,-8364.327145,-5515.887586
133.699092,-1850.514855,-8068.244768,-3753.867940
133.699414,444.123565,-7772.162391,-2528.115143
133.699735,1924.535449,-8586.388927,-2604.724693
133.700057,2960.823768,-9474.636058,-2528.115143
133.700379,3701.029710,-10436.903782,-2451.505594
133.700701,3775.050304,-10881.027347,-2298.286494
133.701022,2812.782580,-10436.903782,-689.485948
133.701344,1998.556043,-9844.739029,1762.019645
133.701666,1184.329507,-10362.883188,2145.067394
133.701988,148.041188,-11399.171507,995.924147
133.702309,-1184.329507,-11103.089130,229.828649
133.702631,-2590.720797,-9548.656652,1072.533697
133.702953,-3330.926739,-7698.141797,1455.581446
133.703275,-2886.803174,-7698.141797,459.657299
133.703596,-4293.194464,-6957.935855,306.438199
133.703918,-5773.606348,-7624.121203,0.000000
133.704240,-6587.832884,-9474.636058,-1225.752797
133.704561,-5477.523971,-9992.780217,-2374.896044
133.704883,-3627.009116,-7402.059420,-3294.210641
133.705205,-1110.308913,-7179.997637,-3524.039291
133.705527,518.144159,-9178.553681,-2757.943793
133.705848,296.082377,-9400.615463,-2298.286494
133.706170,-518.144159,-7476.080014,-3140.991542
133.706492,0.000000,-7328.038826,-4519.963438
133.706814,1036.288319,-9104.533087,-4519.963438
133.707135,1258.350101,-11103.089130,-3983.696590
133.707457,1702.473667,-10436.903782,-1685.410096
133.707779,3775.050304,-8882.471304,1149.143247
133.708100,6143.709319,-7550.100608,1608.800546
133.708422,6587.832884,-7624.121203,229.828649
133.708744,5181.441594,-8956.491898,76.609550
133.709066,2072.576638,-9844.739029,1608.800546
133.709387,148.041188,-10288.862594,2068.457845
133.709709,-148.041188,-11399.171507,1072.533697
133.710031,222.061783,-11843.295072,76.609550
133.710353,-1184.329507,-11769.274478,306.438199
133.710674,-1628.453072,-11621.233289,1225.752797
133.710996,-1036.288319,-11103.089130,1149.143247
133.711318,444.123565,-9844.739029,-612.876398
133.711640,74.020594,-8586.388927,-2145.067394
133.711961,74.020594,-7698.141797,-2451.505594
133.712283,-962.267725,-7476.080014,-1838.629195
133.712605,-1924.535449,-8364.327145,-2757.943793
133.712926,-3404.947333,-8956.491898,-3983.696590
133.713248,-5181.441594,-9400.615463,-4749.792088
133.713570,-6143.709319,-9844.739029,-4903.011187
133.713892,-6439.791695,-10214.842000,-4903.011187
133.714213,-5477.523971,-10140.821405,-5362.668486
133.714535,-3552.988522,-9400.615463,-4979.620737
133.714857,-1258.350101,-8808.450710,-3447.429741
133.715179,666.185348,-9030.512492,-2068.457845
133.715500,2072.576638,-9326.594869,-1915.238745
133.715822,3627.009116,-9548.656652,-1685.410096
133.716144,4811.338623,-9844.739029,-1838.629195
133.716466,5181.441594,-10436.903782,-1072.533697
133.716787,4071.132681,-10584.944971,459.657299
133.717109,2220.617826,-10140.821405,2145.067394
133.717431,444.123565,-9696.697840,2221.676944
133.717752,0.000000,-10214.842000,76.609550
133.718074,-222.061783,-10436.903782,-919.314598
133.718396,-962.267725,-8734.430116,-306.438199
133.718718,-2516.700203,-7328.038826,612.876398
133.719039,-2886.803174,-7328.038826,612.876398
133.719361,-2960.823768,-7179.997637,0.000000
133.719683,-3627.009116,-8956.491898,-2681.334243
133.720005,-4071.132681,-10140.821405,-2911.162892
133.720326,-3627.009116,-9992.780217,-2221.676944
133.720648,-2590.720797,-8956.491898,-2987.772442
133.720970,-1332.370696,-8734.430116,-3447.429741
133.721292,-592.164754,-7624.121203,-3140.991542
133.721613,-740.205942,-7550.100608,-4443.353888
133.721935,0.000000,-8438.347739,-5286.058936
133.722257,1406.391290,-9252.574275,-4826.401637
133.722578,2146.597232,-10214.842000,-3753.867940
133.722900,3775.050304,-9992.780217,-1991.848295
133.723222,5255.462188,-8660.409521,153.219100
133.723544,6439.791695,-7624.121203,0.000000
133.723865,7179.997637,-7920.203579,-536.266849
133.724187,6069.688724,-8882.471304,536.266849
133.724509,3182.885551,-9844.739029,919.314598
133.724831,1554.432478,-10510.924376,1532.190996
133.725152,444.123565,-11029.068536,1532.190996
133.725474,0.000000,-11473.192101,536.266849
133.725796,-1036.288319,-11029.068536,689.485948
133.726118,-2368.659014,-10732.986159,1225.752797
133.726439,-2516.700203,-11325.150913,1072.533697
133.726761,-2294.638420,-10955.047942,-383.047749
133.727083,-1924.535449,-10436.903782,-1378.971896
133.727404,-1702.473667,-8586.388927,-919.314598
133.727726,-592.164754,-7402.059420,-1532.190996
133.728048,-1110.308913,-7254.018232,-2528.115143
133.728370,-2738.761985,-7846.182985,-3830.477490
133.728691,-5181.441594,-8068.244768,-3677.258390
133.729013,-6735.874072,-8586.388927,-4749.792088
133.729335,-6439.791695,-9918.759623,-5745.716235
133.729657,-5329.482782,-9770.718434,-5745.716235
133.729978,-3330.926739,-9326.594869,-4979.620737
133.730300,-962.267725,-9474.636058,-3217.601092
133.730622,888.247130,-9844.739029,-1225.752797
133.730944,2220.617826,-9622.677246,-229.828649
133.731265,3034.844362,-9252.574275,-1685.410096
133.731587,3775.050304,-9474.636058,-2221.676944
133.731909,2738.761985,-10140.821405,-689.485948
133.732231,962.267725,-9548.656652,1915.238745
133.732552,-296.082377,-8660.409521,2298.286494
133.732874,-814.226536,-10214.842000,1838.629195
133.733196,-518.144159,-11843.295072,383.047749
133.733517,-1554.432478,-10140.821405,766.095498
133.733839,-2664.741391,-8956.491898,1149.143247
133.734161,-2738.761985,-8216.285956,1685.410096
133.734483,-3330.926739,-6735.874072,1225.752797
133.734804,-3849.070898,-7254.018232,-2374.896044
133.735126,-4515.256246,-9622.677246,-3064.381992
133.735448,-4071.132681,-9844.739029,-1915.238745
133.735770,-2886.803174,-7550.100608,-3140.991542
133.736091,-814.226536,-8734.430116,-3830.477490
133.736413,444.123565,-10288.862594,-3217.601092
133.736735,-1184.329507,-8586.388927,-3753.867940
133.737057,-2368.659014,-7402.059420,-4749.792088
133.737378,-888.247130,-8364.327145,-5132.839837
133.737700,1036.288319,-9474.636058,-5592.497135
133.738022,1406.391290,-10288.862594,-5132.839837
133.738343,2072.576638,-11103.089130,-1302.362347
133.738665,3701.029710,-9622.677246,2221.676944
133.738987,5995.668130,-7994.224174,842.705048
133.739309,6735.874072,-8512.368333,-1378.971896
133.739630,5699.585753,-10436.903782,306.438199
133.739952,2590.720797,-10288.862594,1149.143247
133.740274,518.144159,-10436.903782,1532.190996
133.740596,296.082377,-11103.089130,1302.362347
133.740917,74.020594,-11029.068536,842.705048
133.741239,-592.164754,-10807.006753,383.047749
133.741561,-1406.391290,-11843.295072,536.266849
133.741883,-962.267725,-10955.047942,842.705048
133.742204,518.144159,-8956.491898,-229.828649
133.742526,888.247130,-7698.141797,-1685.410096
133.742848,296.082377,-7031.956449,-1532.190996
133.743170,-740.205942,-6365.771101,-2451.505594
133.743491,-2664.741391,-8364.327145,-5209.449386
133.743813,-5551.544565,-10288.862594,-4903.011187
133.744135,-8142.265362,-10288.862594,-3907.087040
133.744456,-8660.409521,-10436.903782,-5132.839837
133.744778,-6217.729913,-11769.274478,-5592.497135
133.745100,-3256.906145,-10140.821405,-5056.230287
133.745422,-1998.556043,-8586.388927,-4290.134789
133.745743,0.000000,-7476.080014,-1762.019645
133.746065,1998.556043,-7476.080014,-306.438199
133.746387,3775.050304,-7476.080014,-2145.067394
133.746709,4885.359217,-9252.574275,-2681.334243
133.747030,5403.503377,-11399.171507,-306.438199
133.747352,3627.009116,-11251.130318,1991.848295
133.747674,2294.638420,-8734.430116,3983.696590
133.747996,2294.638420,-9326.594869,2298.286494
133.748317,2368.659014,-10955.047942,-995.924147
133.748639,1258.350101,-10362.883188,-995.924147
133.748961,-2146.597232,-8512.368333,766.095498
133.749282,-3627.009116,-8068.244768,2221.676944
133.749604,-3108.864956,-7402.059420,995.924147
133.749926,-4071.132681,-7994.224174,-2451.505594
133.750248,-5625.565159,-9622.677246,-2987.772442
133.750569,-5773.606348,-11251.130318,-1532.190996
133.750891,-4367.215058,-10955.047942,-2528.115143
133.751213,-2072.576638,-9622.677246,-3524.039291
133.751535,74.020594,-8216.285956,-2834.553343
133.751856,296.082377,-7550.100608,-3370.820191
133.752178,-222.061783,-8068.244768,-4213.525239
133.752500,0.000000,-7994.224174,-3983.696590
133.752822,1184.329507,-8290.306550,-5056.230287
133.753143,3478.967927,-9474.636058,-4213.525239
133.753465,4959.379811,-9992.780217,-1072.533697
133.753787,5477.523971,-9104.533087,689.485948
133.754108,6883.915261,-7698.141797,1149.143247
133.754430,7772.162391,-8290.306550,689.485948
133.754752,6661.853478,-9030.512492,-383.047749
133.755074,3552.988522,-9104.533087,153.219100
133.755395,888.247130,-9474.636058,536.266849
133.755717,-814.226536,-10584.944971,995.924147
133.756039,-1924.535449,-11917.315666,76.609550
133.756361,-3256.906145,-12213.398043,383.047749
133.756682,-4367.215058,-12065.356855,536.266849
133.757004,-3701.029710,-12065.356855,-306.438199
133.757326,-3256.906145,-11695.253884,-842.705048
133.757648,-2072.576638,-10510.924376,-1455.581446
133.757969,-814.226536,-8586.388927,-1685.410096
133.758291,-444.123565,-7920.203579,-1838.629195
133.758613,-1332.370696,-8290.306550,-1685.410096
133.758935,-3108.864956,-8068.244768,-3370.820191
133.759256,-5033.400406,-8438.347739,-3983.696590
133.759578,-5477.523971,-8956.491898,-4673.182538
133.759900,-4737.318029,-9030.512492,-4979.620737
133.760221,-2738.761985,-8882.471304,-4903.011187
133.760543,-1184.329507,-8438.347739,-3370.820191
133.760865,444.123565,-7846.182985,-2451.505594
133.761187,1924.535449,-8290.306550,-1991.848295
133.761508,2886.803174,-8882.471304,-2374.896044
133.761830,3404.947333,-9474.636058,-2757.943793
133.762152,3256.906145,-10658.965565,-1762.019645
133.762474,2368.659014,-11029.068536,-153.219100
133.762795,1036.288319,-10288.862594,1762.019645
133.763117,-222.061783,-9548.656652,2068.457845
133.763439,-740.205942,-11695.253884,-153.219100
133.763761,-1554.432478,-11917.315666,-536.266849
133.764082,-2812.782580,-9696.697840,459.657299
133.764404,-4219.173869,-8364.327145,1302.362347
133.764726,-3923.091493,-7920.203579,1149.143247
133.765047,-4367.215058,-6587.832884,612.876398
133.765369,-5181.441594,-7328.038826,-1762.019645
133.765691,-5255.462188,-10140.821405,-2374.896044
133.766013,-5181.441594,-10066.800811,-1072.533697
133.766334,-3997.112087,-7179.997637,-2145.067394
133.766656,-1480.411884,-6957.935855,-3217.601092
133.766978,1110.308913,-8734.430116,-3370.820191
133.767300,296.082377,-8438.347739,-4213.525239
133.767621,-592.164754,-7328.038826,-4673.182538
133.767943,1406.391290,-8512.368333,-4060.306139
133.768265,2886.803174,-10658.965565,-4673.182538
133.768587,3849.070898,-12213.398043,-3830.477490
133.768908,4515.256246,-11325.150913,-842.705048
133.769230,6291.750507,-8586.388927,1149.143247
133.769552,8068.244768,-7105.977043,306.438199
133.769873,8290.306550,-8068.244768,0.000000
133.770195,5921.647536,-8660.409521,689.485948
133.770517,2368.659014,-8660.409521,1915.238745
133.770839,518.144159,-9770.718434,1991.848295
133.771160,0.000000,-10955.047942,842.705048
133.771482,-592.164754,-11547.212695,0.000000
133.771804,-2368.659014,-11325.150913,459.657299
133.772126,-3849.070898,-11177.109724,2451.505594
133.772447,-3330.926739,-10584.944971,1302.362347
133.772769,-1998.556043,-9104.533087,-1225.752797
133.773091,-1332.370696,-7994.224174,-3677.258390
133.773413,-1628.453072,-7179.997637,-3677.258390
133.773734,-2738.761985,-7698.141797,-3140.991542
133.774056,-3997.112087,-9252.574275,-3370.820191
133.774378,-5107.421000,-9992.780217,-4443.353888
133.774700,-5551.544565,-11621.233289,-5592.497135
133.775021,-4885.359217,-12213.398043,-5592.497135
133.775343,-4367.215058,-11325.150913,-4903.011187
133.775665,-2664.741391,-9474.636058,-3907.087040
133.775986,-148.041188,-7550.100608,-2834.553343
133.776308,1480.411884,-7254.018232,-1915.238745
133.776630,2442.679609,-7994.224174,-1915.238745
133.776952,3034.844362,-9178.553681,-1455.581446
133.777273,4293.194464,-9770.718434,-766.095498
133.777595,4959.379811,-9474.636058,76.609550
133.777917,4589.276840,-9326.594869,1455.581446
133.778239,3330.926739,-8882.471304,2298.286494
133.778560,1702.473667,-9696.697840,1378.971896
133.778882,0.000000,-10658.965565,306.438199
133.779204,-1998.556043,-10362.883188,-459.657299
133.779526,-4515.256246,-9548.656652,-229.828649
133.779847,-5329.482782,-9326.594869,459.657299
133.780169,-6069.688724,-8512.368333,76.609550
133.780491,-6069.688724,-8808.450710,-1608.800546
133.780812,-6069.688724,-9030.512492,-2604.724693
133.781134,-5847.626942,-10436.903782,-2911.162892
133.781456,-5625.565159,-9400.615463,-3140.991542
133.781778,-4737.318029,-9252.574275,-3447.429741
133.782099,-1998.556043,-9474.636058,-3447.429741
133.782421,518.144159,-9992.780217,-4060.306139
133.782743,2072.576638,-9622.677246,-3294.210641
133.783065,3034.844362,-8364.327145,-1685.410096
133.783386,4515.256246,-7698.141797,-2221.676944
133.783708,6513.812290,-7254.018232,-2681.334243
133.784030,7772.162391,-7994.224174,-2221.676944
133.784352,8438.347739,-8142.265362,-306.438199
133.784673,8438.347739,-7624.121203,1455.581446
133.784995,7920.203579,-8068.244768,1149.143247
133.785317,6365.771101,-9030.512492,1072.533697
133.785639,4071.132681,-9474.636058,842.705048
133.785960,1628.453072,-9252.574275,383.047749
133.786282,-740.205942,-9622.677246,0.000000
133.786604,-2072.576638,-10436.903782,0.000000
133.786925,-3330.926739,-10955.047942,-153.219100
133.787247,-4885.359217,-11695.253884,-766.095498
133.787569,-5773.606348,-12139.377449,-1149.143247
133.787891,-5403.503377,-12361.439231,-1532.190996
133.788212,-4441.235652,-11029.068536,-2681.334243
133.788534,-3256.906145,-10436.903782,-2911.162892
133.788856,-2664.741391,-9474.636058,-2451.505594
133.789178,-2368.659014,-8808.450710,-1685.410096
133.789499,-2516.700203,-8364.327145,-2374.896044
133.789821,-2368.659014,-8438.347739,-3294.210641
133.790143,-1702.473667,-8216.285956,-4213.525239
133.790465,-592.164754,-7846.182985,-4136.915689
133.790786,0.000000,-7550.100608,-2681.334243
133.791108,1184.329507,-8068.244768,-1762.019645
133.791430,1998.556043,-8216.285956,-1608.800546
133.791751,2368.659014,-8512.368333,-2528.115143
133.792073,3034.844362,-9178.553681,-2221.676944
133.792395,3552.988522,-10066.800811,-2374.896044
133.792717,3552.988522,-9992.780217,-1532.190996
133.793038,2738.761985,-9696.697840,-306.438199
133.793360,1480.411884,-9844.739029,1302.362347
133.793682,-592.164754,-9474.636058,1685.410096
133.794004,-2590.720797,-11251.130318,-689.485948
133.794325,-4589.276840,-11547.212695,-1685.410096
133.794647,-5995.668130,-10584.944971,-995.924147
133.794969,-6809.894666,-9474.636058,0.000000
133.795291,-6365.771101,-9104.533087,0.000000
133.795612,-5773.606348,-7920.203579,229.828649
133.795934,-5921.647536,-7624.121203,-766.095498
133.796256,-5625.565159,-9474.636058,-1915.238745
133.796577,-4885.359217,-10658.965565,-1991.848295
133.796899,-3923.091493,-8364.327145,-2451.505594
133.797221,-2294.638420,-6587.832884,-2604.724693
133.797543,296.082377,-8586.388927,-2604.724693
133.797864,2368.659014,-9400.615463,-3217.601092
133.798186,3108.864956,-8660.409521,-4136.915689
133.798508,3775.050304,-9178.553681,-2757.943793
133.798830,4885.359217,-10214.842000,-1378.971896
133.799151,5699.585753,-9696.697840,-1302.362347
133.799473,5921.647536,-8734.430116,-2451.505594
133.799795,6513.812290,-8068.244768,-1838.629195
133.800117,6513.812290,-7994.224174,-306.438199
133.800438,5181.441594,-8734.430116,919.314598
133.800760,3478.967927,-8808.450710,919.314598
133.801082,1332.370696,-9844.739029,919.314598
133.801404,-148.041188,-10658.965565,459.657299
133.801725,-1850.514855,-11177.109724,229.828649
133.802047,-3404.947333,-10584.944971,306.438199
133.802369,-3404.947333,-10436.903782,0.000000
133.802690,-4219.173869,-10807.006753,0.000000
133.803012,-4811.338623,-10955.047942,229.828649
133.803334,-4589.276840,-10288.862594,-612.876398
133.803656,-3478.967927,-8734.430116,-2451.505594
133.803977,-2146.597232,-8290.306550,-2987.772442
133.804299,-1554.432478,-8660.409521,-2681.334243
133.804621,-1776.494261,-8956.491898,-2298.286494
133.804943,-1850.514855,-9104.533087,-2834.553343
133.805264,-1628.453072,-9548.656652,-3753.867940
133.805586,-1258.350101,-10288.862594,-3447.429741
133.805908,-1332.370696,-9770.718434,-3140.991542
133.806230,-962.267725,-9252.574275,-3907.087040
133.806551,74.020594,-8956.491898,-2757.943793
133.806873,1258.350101,-8660.409521,-2374.896044
133.807195,2368.659014,-8734.430116,-2451.505594
133.807516,3849.070898,-9104.533087,-2298.286494
133.807838,3997.112087,-9326.594869,-1532.190996
133.808160,4663.297435,-9326.594869,-536.266849
133.808482,3849.070898,-9104.533087,153.219100
133.808803,2220.617826,-9178.553681,1072.533697
133.809125,740.205942,-8660.409521,995.924147
133.809447,-1480.411884,-10362.883188,-689.485948
133.809769,-3034.844362,-11103.089130,-1072.533697
133.810090,-4515.256246,-10436.903782,-612.876398
133.810412,-6069.688724,-9104.533087,-383.047749
133.810734,-6513.812290,-8216.285956,689.485948
133.811056,-6143.709319,-7254.018232,-229.828649
133.811377,-5773.606348,-7698.141797,-2681.334243
133.811699,-5625.565159,-9030.512492,-3217.601092
133.812021,-5847.626942,-10732.986159,-2221.676944
133.812343,-5107.421000,-9992.780217,-1991.848295
133.812664,-2368.659014,-9548.656652,-2681.334243
133.812986,592.164754,-9918.759623,-3830.477490
133.813308,2886.803174,-9770.718434,-3677.258390
133.813629,3923.091493,-9326.594869,-2757.943793
133.813951,4885.359217,-8438.347739,-1685.410096
133.814273,6513.812290,-7920.203579,-1378.971896
133.814595,8142.265362,-7624.121203,-1991.848295
133.814916,8142.265362,-8438.347739,-1608.800546
133.815238,7402.059420,-8512.368333,0.000000
133.815560,6661.853478,-8290.306550,842.705048
133.815882,5847.626942,-8956.491898,383.047749
133.816203,4737.318029,-9770.718434,1302.362347
133.816525,2072.576638,-9548.656652,383.047749
133.816847,-592.164754,-9474.636058,0.000000
133.817169,-2368.659014,-10214.842000,-383.047749
133.817490,-3627.009116,-11177.109724,0.000000
133.817812,-5255.462188,-11251.130318,-153.219100
133.818134,-6217.729913,-11621.233289,-919.314598
133.818455,-6957.935855,-11769.274478,-995.924147
133.818777,-6291.750507,-11177.109724,-1608.800546
133.819099,-4663.297435,-10140.821405,-2604.724693
133.819421,-3330.926739,-9252.574275,-2374.896044
133.819742,-2590.720797,-9252.574275,-1302.362347
133.820064,-2368.659014,-8882.471304,-1532.190996
133.820386,-2146.597232,-8882.471304,-2451.505594
133.820708,-1406.391290,-8660.409521,-3524.039291
133.821029,-296.082377,-8216.285956,-3677.258390
133.821351,296.082377,-7846.182985,-3064.381992
133.821673,1554.432478,-7994.224174,-2374.896044
133.821995,2146.597232,-8216.285956,-1991.848295
133.822316,2960.823768,-8734.430116,-1762.019645
133.822638,3552.988522,-9400.615463,-1915.238745
133.822960,3701.029710,-9770.718434,-1915.238745
133.823281,4515.256246,-9696.697840,-2145.067394
133.823603,3997.112087,-9992.780217,-995.924147
133.823925,2886.803174,-10140.821405,-306.438199
133.824247,962.267725,-10732.986159,612.876398
133.824569,-1998.556043,-10214.842000,612.876398
133.824890,-4219.173869,-10658.965565,-153.219100
133.825212,-5477.523971,-11399.171507,-1455.581446
133.825534,-5921.647536,-10436.903782,-1072.533697
133.825856,-6439.791695,-9030.512492,-229.828649
133.826177,-6587.832884,-8142.265362,459.657299
133.826499,-6365.771101,-7179.997637,612.876398
133.826821,-5995.668130,-7476.080014,-919.314598
133.827143,-5477.523971,-9104.533087,-2451.505594
133.827465,-4885.359217,-9918.759623,-2681.334243
133.827786,-3775.050304,-7994.224174,-1838.629195
133.828108,-1998.556043,-6513.812290,-1838.629195
133.828430,1258.350101,-7920.203579,-2987.772442
133.828752,3404.947333,-8734.430116,-4213.525239
133.829073,3552.988522,-8586.388927,-4749.792088
133.829395,3849.070898,-9844.739029,-3370.820191
133.829717,4811.338623,-11029.068536,-1532.190996
133.830039,5921.647536,-9770.718434,-2911.162892
133.830361,6365.771101,-9178.553681,-2987.772442
133.830682,6587.832884,-9252.574275,-1762.019645
133.831004,6217.729913,-8512.368333,0.000000
133.831326,4959.379811,-8290.306550,0.000000
133.831648,3256.906145,-9030.512492,612.876398
133.831969,1702.473667,-10140.821405,842.705048
133.832291,-666.185348,-10881.027347,689.485948
133.832613,-2812.782580,-10955.047942,229.828649
133.832935,-3478.967927,-10955.047942,0.000000
133.833257,-3997.112087,-10732.986159,-383.047749
133.833578,-4663.297435,-10732.986159,306.438199
133.833900,-5403.503377,-10214.842000,0.000000
133.834222,-4663.297435,-9252.574275,-842.705048
133.834544,-3182.885551,-8142.265362,-2528.115143
133.834865,-2294.638420,-7772.162391,-3294.210641
133.835187,-2664.741391,-7920.203579,-2757.943793
133.835509,-3849.070898,-9030.512492,-2451.505594
133.835831,-3923.091493,-9844.739029,-3370.820191
133.836153,-3552.988522,-10881.027347,-4519.963438
133.836474,-2442.679609,-11325.150913,-4443.353888
133.836796,-1702.473667,-10140.821405,-3983.696590
133.837118,-740.205942,-9104.533087,-3907.087040
133.837440,666.185348,-8364.327145,-2451.505594
133.837761,2664.741391,-8216.285956,-1225.752797
133.838083,3923.091493,-8438.347739,-1225.752797
133.838405,4811.338623,-8808.450710,-1378.971896
133.838727,5329.482782,-9030.512492,-459.657299
133.839049,5551.544565,-9474.636058,459.657299
133.839370,4737.318029,-8956.491898,1149.143247
133.839692,2812.782580,-8956.491898,1072.533697
133.840014,518.144159,-8882.471304,919.314598
133.840336,-1776.494261,-9696.697840,459.657299
133.840657,-4293.194464,-10955.047942,0.000000
133.840979,-5329.482782,-10807.006753,-153.219100
133.841301,-5995.668130,-9474.636058,-229.828649
133.841623,-6143.709319,-8364.327145,306.438199
133.841945,-6217.729913,-7476.080014,153.219100
133.842266,-5625.565159,-7624.121203,-2145.067394
133.842588,-5403.503377,-9474.636058,-3370.820191
133.842910,-5699.585753,-10140.821405,-2911.162892
133.843232,-5181.441594,-10658.965565,-2374.896044
133.843553,-2516.700203,-10436.903782,-2834.553343
133.843875,1776.494261,-9696.697840,-3524.039291
133.844197,3923.091493,-9918.759623,-4290.134789
133.844519,5255.462188,-9252.574275,-2374.896044
133.844841,6439.791695,-7920.203579,-689.485948
133.845162,7328.038826,-7031.956449,-1455.581446
133.845484,8586.388927,-7698.141797,-2068.457845
133.845806,8142.265362,-8734.430116,-766.095498
133.846128,7179.997637,-8586.388927,229.828649
133.846449,6217.729913,-8290.306550,612.876398
133.846771,5995.668130,-9030.512492,306.438199
133.847093,4737.318029,-9474.636058,0.000000
133.847415,1850.514855,-9474.636058,0.000000
133.847737,-592.164754,-10140.821405,306.438199
133.848058,-2886.803174,-10584.944971,0.000000
133.848380,-4145.153275,-11251.130318,-766.095498
133.848702,-5477.523971,-11621.233289,-1532.190996
133.849024,-6291.750507,-11621.233289,-1532.190996
133.849345,-6587.832884,-11029.068536,-1532.190996
133.849667,-5551.544565,-10658.965565,-1915.238745
133.849989,-4219.173869,-10140.821405,-2451.505594
133.850311,-3256.906145,-9178.553681,-2604.724693
133.850633,-2812.782580,-8364.327145,-2298.286494
133.850954,-2960.823768,-8068.244768,-2911.162892
133.851276,-2664.741391,-7920.203579,-3600.648841
133.851598,-2368.659014,-7698.141797,-4443.353888
133.851920,-1258.350101,-7698.141797,-4519.963438
133.852241,-370.102971,-7994.224174,-3753.867940
133.852563,296.082377,-8586.388927,-2451.505594
133.852885,962.267725,-9474.636058,-2528.115143
133.853207,1998.556043,-9622.677246,-2528.115143
133.853528,3182.885551,-9622.677246,-2604.724693
133.853850,4145.153275,-9548.656652,-2528.115143
133.854172,4959.379811,-9548.656652,-1685.410096
133.854494,4663.297435,-9770.718434,-1378.971896
133.854816,2590.720797,-10140.821405,229.828649
133.855137,148.041188,-10436.903782,306.438199
133.855459,-2812.782580,-10955.047942,0.000000
133.855781,-4737.318029,-11399.171507,-536.266849
133.856103,-5181.441594,-11103.089130,-766.095498
133.856424,-5477.523971,-9992.780217,-919.314598
133.856746,-5403.503377,-8734.430116,-306.438199
133.857068,-5329.482782,-7698.141797,536.266849
133.857390,-5551.544565,-7550.100608,459.657299
133.857712,-5773.606348,-8364.327145,-1838.629195
133.858033,-5107.421000,-10140.821405,-2911.162892
133.858355,-4737.318029,-9400.615463,-2451.505594
133.858677,-3701.029710,-7476.080014,-2298.286494
133.858999,-1332.370696,-7772.162391,-2374.896044
133.859320,1332.370696,-8956.491898,-3064.381992
133.859642,2442.679609,-8808.450710,-4136.915689
133.859964,3034.844362,-9104.533087,-3753.867940
133.860286,4145.153275,-10436.903782,-1685.410096
133.860608,4885.359217,-10288.862594,-689.485948
133.860929,6143.709319,-9252.574275,-1762.019645
133.861251,7105.977043,-7698.141797,-1915.238745
133.861573,7550.100608,-7698.141797,0.000000
133.861895,7179.997637,-8216.285956,1225.752797
133.862216,5773.606348,-8438.347739,1685.410096
133.862538,3997.112087,-9474.636058,1608.800546
133.862860,2220.617826,-10584.944971,1685.410096
133.863182,0.000000,-10955.047942,1072.533697
133.863504,-2146.597232,-10584.944971,842.705048
133.863825,-3256.906145,-10584.944971,689.485948
133.864147,-4145.153275,-10140.821405,536.266849
133.864469,-4885.359217,-10436.903782,153.219100
133.864791,-4959.379811,-10066.800811,-766.095498
133.865112,-4663.297435,-8438.347739,-1608.800546
133.865434,-3552.988522,-8364.327145,-2604.724693
133.865756,-2664.741391,-9252.574275,-2757.943793
133.866078,-2812.782580,-9252.574275,-2221.676944
133.866400,-3108.864956,-8734.430116,-2451.505594
133.866721,-2886.803174,-9474.636058,-3217.601092
133.867043,-2442.679609,-10288.862594,-3907.087040
133.867365,-2220.617826,-9696.697840,-4519.963438
133.867687,-1406.391290,-8956.491898,-4443.353888
133.868008,-222.061783,-9030.512492,-2987.772442
133.868330,1628.453072,-8882.471304,-1378.971896
133.868652,2368.659014,-8512.368333,-1532.190996
133.868974,3701.029710,-8734.430116,-1608.800546
133.869296,4737.318029,-9326.594869,-1455.581446
133.869617,5625.565159,-9548.656652,-919.314598
133.869939,5181.441594,-9252.574275,229.828649
133.870261,3849.070898,-9030.512492,919.314598
133.870583,1702.473667,-9252.574275,919.314598
133.870904,-888.247130,-9622.677246,153.219100
133.871226,-3330.926739,-11103.089130,-766.095498
133.871548,-4441.235652,-11769.274478,-1991.848295
133.871870,-4885.359217,-10584.944971,-1532.190996
133.872192,-6217.729913,-9252.574275,-229.828649
133.872513,-6587.832884,-7920.203579,153.219100
133.872835,-5847.626942,-7402.059420,-1225.752797
133.873157,-5847.626942,-8438.347739,-3830.477490
133.873479,-6439.791695,-9622.677246,-3753.867940
133.873800,-6217.729913,-9992.780217,-2757.943793
133.874122,-5699.585753,-9548.656652,-2987.772442
133.874444,-2664.741391,-9548.656652,-3983.696590
133.874766,962.267725,-9696.697840,-4443.353888
133.875088,2590.720797,-8956.491898,-4903.011187
133.875409,3627.009116,-8586.388927,-2681.334243
133.875731,5107.421000,-8438.347739,-1991.848295
133.876053,6735.874072,-8364.327145,-2451.505594
133.876375,7920.203579,-8586.388927,-2604.724693
133.876696,8216.285956,-9252.574275,-1608.800546
133.877018,7328.038826,-8808.450710,459.657299
133.877340,6735.874072,-8364.327145,842.705048
133.877662,5995.668130,-9104.533087,766.095498
133.877984,4515.256246,-9622.677246,612.876398
133.878305,1998.556043,-9770.718434,153.219100
133.878627,-370.102971,-10066.800811,-153.219100
133.878949,-2220.617826,-10362.883188,153.219100
133.879271,-2960.823768,-11029.068536,76.609550
133.879592,-4441.235652,-10955.047942,-536.266849
133.879914,-5625.565159,-11177.109724,-689.485948
133.880236,-5847.626942,-11103.089130,-1149.143247
133.880558,-4663.297435,-10732.986159,-2298.286494
133.880880,-3701.029710,-9548.656652,-2451.505594
133.881201,-3108.864956,-8956.491898,-2374.896044
133.881523,-2590.720797,-8512.368333,-2068.457845
133.881845,-2590.720797,-8142.265362,-2221.676944
133.882167,-3108.864956,-7846.182985,-3064.381992
133.882488,-2516.700203,-8586.388927,-4213.525239
133.882810,-1924.535449,-8734.430116,-4443.353888
133.883132,-1258.350101,-8660.409521,-3600.648841
133.883454,-370.102971,-9104.533087,-2298.286494
133.883775,888.247130,-9252.574275,-1685.410096
133.884097,2368.659014,-9548.656652,-1378.971896
133.884419,3627.009116,-9622.677246,-1532.190996
133.884741,4663.297435,-9474.636058,-1378.971896
133.885063,4959.379811,-9474.636058,-459.657299
133.885384,4737.318029,-9548.656652,229.828649
133.885706,3701.029710,-10807.006753,1149.143247
133.886028,518.144159,-10214.842000,1915.238745
133.886350,-2368.659014,-10362.883188,1149.143247
133.886671,-4071.132681,-10658.965565,-536.266849
133.886993,-4293.194464,-10807.006753,-1685.410096
133.887315,-4219.173869,-9918.759623,-1378.971896
133.887637,-4737.318029,-8660.409521,306.438199
133.887959,-5033.400406,-7624.121203,1762.019645
133.888280,-4885.359217,-7698.141797,76.609550
133.888602,-4737.318029,-8438.347739,-2145.067394
133.888924,-4885.359217,-8808.450710,-2298.286494
133.889246,-5181.441594,-8882.471304,-2681.334243
133.889567,-4145.153275,-8364.327145,-1991.848295
133.889889,-1776.494261,-7920.203579,-2298.286494
133.890211,148.041188,-7254.018232,-3447.429741
133.890533,1332.370696,-7476.080014,-4290.134789
133.890855,1628.453072,-8956.491898,-4673.182538
133.891176,1850.514855,-9622.677246,-3753.867940
133.891498,2442.679609,-9770.718434,-3064.381992
133.891820,3775.050304,-9696.697840,-2451.505594
133.892142,5033.400406,-9474.636058,-1455.581446
133.892463,5551.544565,-9252.574275,-842.705048
133.892785,5107.421000,-8586.388927,0.000000
133.893107,4441.235652,-9030.512492,459.657299
133.893429,3849.070898,-9844.739029,306.438199
133.893751,2368.659014,-10807.006753,76.609550
133.894072,814.226536,-11769.274478,612.876398
133.894394,-296.082377,-11399.171507,1532.190996
133.894716,-592.164754,-11621.233289,919.314598
133.895038,-814.226536,-11325.150913,766.095498
133.895359,-1554.432478,-10214.842000,689.485948
133.895681,-1850.514855,-9030.512492,-153.219100
133.896003,-1258.350101,-8068.244768,-1378.971896
133.896325,-962.267725,-7254.018232,-1608.800546
133.896647,-1036.288319,-7698.141797,-2451.505594
133.896968,-1998.556043,-7846.182985,-2604.724693
133.897290,-3627.009116,-9030.512492,-3064.381992
133.897612,-5477.523971,-9992.780217,-3524.039291
133.897934,-6883.915261,-10288.862594,-4903.011187
133.898255,-6809.894666,-10066.800811,-5669.106685
133.898577,-6069.688724,-9622.677246,-5745.716235
133.898899,-4811.338623,-9030.512492,-5209.449386
133.899221,-2664.741391,-8660.409521,-4213.525239
133.899543,0.000000,-9178.553681,-2681.334243
133.899864,1924.535449,-9400.615463,-2604.724693
133.900186,3552.988522,-9770.718434,-1991.848295
133.900508,4737.318029,-9844.739029,-766.095498
133.900830,5551.544565,-9770.718434,0.000000
133.901151,5921.647536,-10066.800811,612.876398
133.901473,4885.359217,-9696.697840,1455.581446
133.901795,3701.029710,-10807.006753,995.924147
133.902117,1406.391290,-10214.842000,1455.581446
133.902439,0.000000,-9696.697840,1149.143247
133.902760,-962.267725,-9622.677246,766.095498
133.903082,-1554.432478,-8956.491898,306.438199
133.903404,-2664.741391,-8142.265362,229.828649
133.903726,-3256.906145,-7550.100608,76.609550
133.904047,-3775.050304,-8512.368333,-383.047749
133.904369,-4071.132681,-8512.368333,-1149.143247
133.904691,-3923.091493,-8290.306550,-2757.943793
133.905013,-3775.050304,-8956.491898,-3064.381992
133.905335,-2664.741391,-9844.739029,-3140.991542
133.905656,-2368.659014,-9104.533087,-2987.772442
133.905978,-1628.453072,-8438.347739,-2911.162892
133.906300,-740.205942,-8142.265362,-3064.381992
133.906622,296.082377,-8364.327145,-4826.401637
133.906943,444.123565,-8808.450710,-4213.525239
133.907265,962.267725,-9252.574275,-2681.334243
133.907587,2590.720797,-9178.553681,-1455.581446
133.907909,4145.153275,-8734.430116,-995.924147
133.908231,4737.318029,-8956.491898,0.000000
133.908552,4811.338623,-8882.471304,919.314598
133.908874,3775.050304,-9104.533087,1302.362347
133.909196,2368.659014,-9474.636058,766.095498
133.909518,962.267725,-10362.883188,689.485948
133.909839,148.041188,-11399.171507,842.705048
133.910161,0.000000,-12509.480420,995.924147
133.910483,0.000000,-12731.542202,1149.143247
133.910805,518.144159,-11695.253884,1072.533697
133.911127,1406.391290,-10955.047942,0.000000
133.911448,1702.473667,-10288.862594,-612.876398
133.911770,1332.370696,-9400.615463,-612.876398
133.912092,370.102971,-7994.224174,-1225.752797
133.912414,-444.123565,-7031.956449,-2374.896044
133.912735,-1702.473667,-7105.977043,-3217.601092
133.913057,-3627.009116,-7624.121203,-3677.258390
133.913379,-5773.606348,-8438.347739,-4136.915689
133.913701,-6957.935855,-8734.430116,-4060.306139
133.914023,-8068.244768,-9104.533087,-4903.011187
133.914344,-7402.059420,-8808.450710,-5515.887586
133.914666,-5921.647536,-8808.450710,-5362.668486
133.914988,-3997.112087,-9326.594869,-4826.401637
133.915310,-1998.556043,-9844.739029,-3753.867940
133.915631,370.102971,-9992.780217,-3064.381992
133.915953,2368.659014,-10362.883188,-2374.896044
133.916275,3478.967927,-10658.965565,-1838.629195
133.916597,4145.153275,-11621.233289,-919.314598
133.916918,3849.070898,-11325.150913,-689.485948
133.917240,2368.659014,-10732.986159,919.314598
133.917562,1480.411884,-10362.883188,1532.190996
133.917884,148.041188,-9622.677246,1532.190996
133.918206,-592.164754,-9474.636058,1532.190996
133.918527,-666.185348,-8734.430116,1378.971896
133.918849,0.000000,-8068.244768,229.828649
133.919171,370.102971,-8586.388927,383.047749
133.919493,444.123565,-8068.244768,1915.238745
133.919814,74.020594,-6957.935855,1072.533697
133.920136,740.205942,-6957.935855,-1608.800546
133.920458,518.144159,-7328.038826,-3370.820191
133.920780,-888.247130,-8660.409521,-4596.572988
133.921102,-2590.720797,-10066.800811,-4366.744339
133.921423,-3923.091493,-10658.965565,-3370.820191
133.921745,-4145.153275,-10214.842000,-3907.087040
133.922067,-3552.988522,-9992.780217,-4903.011187
133.922389,-2072.576638,-9918.759623,-4673.182538
133.922710,-888.247130,-9474.636058,-3753.867940
133.923032,0.000000,-8882.471304,-2528.115143
133.923354,1406.391290,-7624.121203,-766.095498
133.923676,2590.720797,-7031.956449,76.609550
133.923997,3034.844362,-8142.265362,306.438199
133.924319,1776.494261,-9696.697840,536.266849
133.924641,592.164754,-10807.006753,1762.019645
133.924962,666.185348,-10955.047942,1915.238745
133.925284,1924.535449,-11695.253884,1532.190996
133.925606,3478.967927,-11843.295072,1532.190996
133.925927,3701.029710,-11325.150913,2298.286494
133.926249,2738.761985,-9770.718434,2528.115143
133.926571,2590.720797,-8734.430116,1838.629195
133.926892,2664.741391,-8734.430116,-306.438199
133.927214,2072.576638,-7994.224174,-1762.019645
133.927536,296.082377,-8068.244768,-1915.238745
133.927857,-666.185348,-8438.347739,-1762.019645
133.928179,-2072.576638,-9030.512492,-2145.067394
133.928501,-4071.132681,-9400.615463,-3370.820191
133.928822,-6735.874072,-9326.594869,-4519.963438
133.929144,-9326.594869,-8734.430116,-4060.306139
133.929466,-10362.883188,-9474.636058,-5286.058936
133.929787,-9696.697840,-9844.739029,-6205.373534
133.930109,-7179.997637,-8956.491898,-6052.154434
133.930431,-4219.173869,-8660.409521,-4290.134789
133.930752,-740.205942,-8956.491898,-2528.115143
133.931074,1628.453072,-9252.574275,-766.095498
133.931396,3478.967927,-9474.636058,-919.314598
133.931718,5033.400406,-9918.759623,-1378.971896
133.932039,5699.585753,-11103.089130,-536.266849
133.932361,4441.235652,-10881.027347,536.266849
133.932683,1776.494261,-8142.265362,2298.286494
133.933004,888.247130,-8068.244768,2145.067394
133.933326,888.247130,-8660.409521,1072.533697
133.933648,1036.288319,-10510.924376,0.000000
133.933969,0.000000,-10362.883188,0.000000
133.934291,-1258.350101,-8882.471304,1532.190996
133.934613,-1184.329507,-8290.306550,1991.848295
133.934934,-888.247130,-8512.368333,0.000000
133.935256,-1258.350101,-8068.244768,-2451.505594
133.935578,-1924.535449,-8512.368333,-3830.477490
133.935899,-2220.617826,-9474.636058,-4903.011187
133.936221,-2220.617826,-9696.697840,-4136.915689
133.936543,-2294.638420,-9252.574275,-3677.258390
133.936864,-2368.659014,-9400.615463,-4519.963438
133.937186,-1702.473667,-10214.842000,-5209.449386
133.937508,-1406.391290,-10881.027347,-5898.935335
133.937829,-1036.288319,-10732.986159,-5515.887586
133.938151,1036.288319,-10436.903782,-3447.429741
133.938473,2886.803174,-8364.327145,-2221.676944
133.938794,4293.194464,-7105.977043,-1991.848295
133.939116,4737.318029,-7402.059420,-995.924147
133.939438,4737.318029,-7994.224174,689.485948
133.939759,4071.132681,-8660.409521,766.095498
133.940081,2442.679609,-10140.821405,612.876398
133.940403,1850.514855,-11621.233289,1455.581446
133.940724,1998.556043,-12139.377449,1378.971896
133.941046,1554.432478,-11843.295072,1149.143247
133.941368,1480.411884,-10955.047942,1838.629195
133.941690,888.247130,-9992.780217,1838.629195
133.942011,222.061783,-9474.636058,229.828649
133.942333,-296.082377,-10066.800811,-1149.143247
133.942655,-222.061783,-9548.656652,-842.705048
133.942976,296.082377,-8364.327145,-1378.971896
133.943298,148.041188,-7328.038826,-1762.019645
133.943620,-962.267725,-7550.100608,-2145.067394
133.943941,-3701.029710,-7105.977043,-2681.334243
133.944263,-6809.894666,-7105.977043,-4136.915689
133.944585,-8586.388927,-8586.388927,-5439.278036
133.944906,-8734.430116,-9844.739029,-5745.716235
133.945228,-7920.203579,-9622.677246,-5822.325785
133.945550,-5625.565159,-9992.780217,-3983.696590
133.945871,-2812.782580,-10362.883188,-1991.848295
133.946193,0.000000,-9918.759623,-689.485948
133.946515,2072.576638,-8586.388927,0.000000
133.946836,3478.967927,-8734.430116,-1302.362347
133.947158,4737.318029,-9104.533087,-1378.971896
133.947480,4515.256246,-9992.780217,0.000000
133.947801,2368.659014,-10362.883188,1762.019645
133.948123,296.082377,-9474.636058,3677.258390
133.948445,-370.102971,-9770.718434,2528.115143
133.948766,-592.164754,-9918.759623,995.924147
133.949088,-296.082377,-10807.006753,0.000000
133.949410,-592.164754,-10436.903782,612.876398
133.949731,-740.205942,-8956.491898,2681.334243
133.950053,-814.226536,-7920.203579,2604.724693
133.950375,-962.267725,-7550.100608,0.000000
133.950696,-1554.432478,-7105.977043,-2451.505594
133.951018,-2812.782580,-7402.059420,-3677.258390
133.951340,-3330.926739,-9030.512492,-3907.087040
133.951662,-2886.803174,-10510.924376,-3677.258390
133.951983,-1924.535449,-9622.677246,-3524.039291
133.952305,-2368.659014,-8364.327145,-3753.867940
133.952627,-2294.638420,-9178.553681,-4519.963438
133.952948,-2590.720797,-9696.697840,-5515.887586
133.953270,-2146.597232,-9844.739029,-5745.716235
133.953592,-814.226536,-9844.739029,-4826.401637
133.953913,1036.288319,-10140.821405,-1532.190996
133.954235,2368.659014,-8586.388927,76.609550
133.954557,3552.988522,-7328.038826,-229.828649
133.954878,4367.215058,-7846.182985,-153.219100
133.955200,4145.153275,-9400.615463,-153.219100
133.955522,2516.700203,-10955.047942,536.266849
133.955843,1924.535449,-11843.295072,842.705048
133.956165,2442.679609,-12435.459826,1608.800546
133.956487,3108.864956,-11991.336260,1991.848295
133.956808,2294.638420,-10436.903782,2145.067394
133.957130,1924.535449,-9178.553681,2451.505594
133.957452,1702.473667,-8364.327145,306.438199
133.957773,1924.535449,-8660.409521,-2221.676944
133.958095,1036.288319,-8808.450710,-2528.115143
133.958417,148.041188,-8290.306550,-1838.629195
133.958738,-222.061783,-7476.080014,-1149.143247
133.959060,-1998.556043,-8512.368333,-3370.820191
133.959382,-5699.585753,-9844.739029,-4673.182538
133.959703,-9844.739029,-9474.636058,-5056.230287
133.960025,-12435.459826,-8956.491898,-6511.811733
133.960347,-10955.047942,-10807.006753,-7967.393179
133.960668,-7105.977043,-10807.006753,-7201.297681
133.960990,-3923.091493,-9992.780217,-5822.325785
133.961312,-1258.350101,-9326.594869,-2221.676944
133.961633,1036.288319,-9400.615463,766.095498
133.961955,3478.967927,-7698.141797,0.000000
133.962277,5181.441594,-7105.977043,-3217.601092
133.962599,6513.812290,-9548.656652,-2911.162892
133.962920,6513.812290,-11917.315666,-383.047749
133.963242,4367.215058,-10881.027347,3140.991542
133.963564,2368.659014,-7846.182985,5439.278036
133.963885,1850.514855,-7328.038826,3907.087040
133.964207,2294.638420,-9178.553681,153.219100
133.964529,888.247130,-10140.821405,-1915.238745
133.964850,-1628.453072,-9252.574275,76.609550
133.965172,-2664.741391,-8586.388927,2911.162892
133.965494,-2072.576638,-8216.285956,2987.772442
133.965815,-1332.370696,-8586.388927,-383.047749
133.966137,-2368.659014,-8216.285956,-2681.334243
133.966459,-3034.844362,-9104.533087,-4366.744339
133.966780,-3182.885551,-10140.821405,-4749.792088
133.967102,-3034.844362,-9696.697840,-3600.648841
133.967424,-2886.803174,-8142.265362,-2451.505594
133.967745,-1924.535449,-8660.409521,-3907.087040
133.968067,-1406.391290,-9918.759623,-4979.620737
133.968389,-1332.370696,-10881.027347,-4979.620737
133.968710,-888.247130,-10140.821405,-3677.258390
133.969032,1406.391290,-8956.491898,-1532.190996
133.969354,3627.009116,-7179.997637,-459.657299
133.969675,4811.338623,-7476.080014,-153.219100
133.969997,5329.482782,-7772.162391,995.924147
133.970319,4885.359217,-7772.162391,1302.362347
133.970640,3330.926739,-8734.430116,612.876398
133.970962,2442.679609,-10732.986159,1225.752797
133.971284,1776.494261,-12361.439231,1225.752797
133.971605,1184.329507,-13027.624579,1378.971896
133.971927,1036.288319,-13027.624579,1455.581446
133.972249,666.185348,-11547.212695,2145.067394
133.972571,592.164754,-10584.944971,842.705048
133.972892,-370.102971,-9548.656652,-459.657299
133.973214,-1258.350101,-9918.759623,-1991.848295
133.973536,-1184.329507,-9104.533087,-2068.457845
133.973857,-1110.308913,-7550.100608,-2068.457845
133.974179,-1036.288319,-7328.038826,-2145.067394
133.974501,-2442.679609,-7031.956449,-2834.553343
133.974822,-5033.400406,-7476.080014,-3524.039291
133.975144,-8438.347739,-7624.121203,-4519.963438
133.975466,-9844.739029,-9400.615463,-6205.373534
133.975787,-8808.450710,-10436.903782,-7431.126331
133.976109,-6143.709319,-10288.862594,-7354.516781
133.976431,-3404.947333,-10436.903782,-4903.011187
133.976752,-592.164754,-10584.944971,-1838.629195
133.977074,1998.556043,-10510.924376,-995.924147
133.977396,3404.947333,-9622.677246,-1915.238745
133.977717,4663.297435,-9844.739029,-2987.772442
133.978039,4959.379811,-10510.924376,-1991.848295
133.978361,4071.132681,-10807.006753,-153.219100
133.978682,2294.638420,-9622.677246,2451.505594
133.979004,592.164754,-8216.285956,3753.867940
133.979326,296.082377,-9326.594869,1838.629195
133.979647,222.061783,-10955.047942,842.705048
133.979969,-740.205942,-9474.636058,0.000000
133.980291,-1924.535449,-8438.347739,842.705048
133.980612,-1924.535449,-8438.347739,2145.067394
133.980934,-1628.453072,-7179.997637,1378.971896
133.981256,-1850.514855,-6883.915261,-2451.505594
133.981577,-2146.597232,-8142.265362,-3907.087040
133.981899,-1924.535449,-8734.430116,-4136.915689
133.982221,-2220.617826,-9030.512492,-5056.230287
133.982542,-2812.782580,-9252.574275,-4519.963438
133.982864,-3108.864956,-10066.800811,-3217.601092
133.983186,-3256.906145,-10955.047942,-4749.792088
133.983508,-2516.700203,-10510.924376,-5822.325785
133.983829,-1406.391290,-9548.656652,-5056.230287
133.984151,74.020594,-9548.656652,-4366.744339
133.984473,1924.535449,-9178.553681,-2145.067394
133.984794,3404.947333,-7550.100608,1072.533697
133.985116,4959.379811,-6587.832884,612.876398
133.985438,6439.791695,-7105.977043,842.705048
133.985759,5477.523971,-9104.533087,1149.143247
133.986081,3256.906145,-10807.006753,1685.410096
133.986403,2368.659014,-11843.295072,2221.676944
133.986724,2220.617826,-11991.336260,2451.505594
133.987046,2442.679609,-12583.501014,1685.410096
133.987368,1628.453072,-11473.192101,1915.238745
133.987689,222.061783,-9474.636058,2451.505594
133.988011,74.020594,-9474.636058,1225.752797
133.988333,370.102971,-9622.677246,-1149.143247
133.988654,0.000000,-9400.615463,-2221.676944
133.988976,-1184.329507,-7920.203579,-1072.533697
133.989298,-2294.638420,-7254.018232,-536.266849
133.989619,-2738.761985,-8216.285956,-2528.115143
133.989941,-4663.297435,-8882.471304,-4443.353888
133.990263,-7105.977043,-8882.471304,-5056.230287
133.990584,-10288.862594,-9178.553681,-4749.792088
133.990906,-9992.780217,-10140.821405,-4903.011187
133.991228,-7550.100608,-9844.739029,-6128.763984
133.991549,-4737.318029,-9178.553681,-5822.325785
133.991871,-1998.556043,-8956.491898,-2911.162892
133.992193,518.144159,-8956.491898,-153.219100
133.992514,2886.803174,-7994.224174,0.000000
133.992836,5181.441594,-7846.182985,-1532.190996
133.993158,7179.997637,-9474.636058,-2298.286494
133.993480,7846.182985,-11103.089130,-995.924147
133.993801,4885.359217,-10436.903782,1608.800546
133.994123,2590.720797,-9696.697840,3600.648841
133.994445,1406.391290,-8956.491898,3447.429741
133.994766,888.247130,-10140.821405,229.828649
133.995088,296.082377,-11399.171507,-1608.800546
133.995410,-2368.659014,-9474.636058,0.000000
133.995731,-4071.132681,-7550.100608,1302.362347
133.996053,-3552.988522,-7994.224174,689.485948
133.996375,-3182.885551,-8438.347739,-1532.190996
133.996696,-3923.091493,-8808.450710,-2528.115143
133.997018,-4441.235652,-9400.615463,-3524.039291
133.997340,-3478.967927,-10658.965565,-4290.134789
133.997661,-2368.659014,-9844.739029,-4749.792088
133.997983,-1924.535449,-8068.244768,-4443.353888
133.998305,-1110.308913,-8734.430116,-4290.134789
133.998626,-370.102971,-9474.636058,-5209.449386
133.998948,-296.082377,-9844.739029,-5362.668486
133.999270,666.185348,-10584.944971,-5362.668486
133.999591,2442.679609,-10288.862594,-3370.820191
133.999913,4589.276840,-8882.471304,-1915.238745
134.000235,5773.606348,-7698.141797,-1762.019645
134.000556,6661.853478,-7254.018232,153.219100
134.000878,6513.812290,-7550.100608,919.314598
134.001200,4737.318029,-8364.327145,612.876398
134.001521,3034.844362,-9992.780217,842.705048
134.001843,1850.514855,-11621.233289,1072.533697
134.002165,1110.308913,-11917.315666,995.924147
134.002486,740.205942,-12657.521608,1072.533697
134.002808,74.020594,-12065.356855,1608.800546
134.003130,-296.082377,-10362.883188,1685.410096
134.003451,-962.267725,-9178.553681,153.219100
134.003773,-1554.432478,-9770.718434,-1149.143247
134.004095,-1110.308913,-9400.615463,-2145.067394
134.004417,-1184.329507,-7550.100608,-2298.286494
134.004738,-1628.453072,-6587.832884,-1915.238745
134.005060,-2072.576638,-7179.997637,-1838.629195
134.005382,-3701.029710,-7402.059420,-2757.943793
134.005703,-6069.688724,-7772.162391,-4290.134789
134.006025,-8290.306550,-8660.409521,-5056.230287
134.006347,-8586.388927,-9400.615463,-5362.668486
134.006668,-7402.059420,-9474.636058,-5669.106685
134.006990,-4959.379811,-9178.553681,-4979.620737
134.007312,-1924.535449,-9548.656652,-2911.162892
134.007633,0.000000,-9844.739029,-1838.629195
134.007955,2294.638420,-9992.780217,-612.876398
134.008277,3701.029710,-9326.594869,-689.485948
134.008598,5181.441594,-9030.512492,-1072.533697
134.008920,5329.482782,-9844.739029,0.000000
134.009242,3478.967927,-10066.800811,1685.410096
134.009563,740.205942,-9622.677246,3370.820191
134.009885,-370.102971,-9252.574275,2987.772442
134.010207,-814.226536,-9844.739029,1455.581446
134.010528,-444.123565,-11177.109724,229.828649
134.010850,-1258.350101,-9992.780217,1072.533697
134.011172,-2220.617826,-8216.285956,2221.676944
134.011493,-2960.823768,-7698.141797,2451.505594
134.011815,-2590.720797,-7402.059420,153.219100
134.012137,-3478.967927,-7105.977043,-2604.724693
134.012458,-4441.235652,-6883.915261,-3294.210641
134.012780,-4663.297435,-7994.224174,-3064.381992
134.013102,-3552.988522,-9992.780217,-3524.039291
134.013423,-1924.535449,-9844.739029,-3907.087040
134.013745,-1184.329507,-9104.533087,-3600.648841
134.014067,-1184.329507,-8734.430116,-3983.696590
134.014389,-592.164754,-9030.512492,-4673.182538
134.014710,-370.102971,-9474.636058,-4903.011187
134.015032,740.205942,-10362.883188,-4290.134789
134.015354,2220.617826,-10807.006753,-2451.505594
134.015675,4293.194464,-9400.615463,0.000000
134.015997,5551.544565,-8290.306550,842.705048
134.016319,6217.729913,-7698.141797,919.314598
134.016640,6217.729913,-9548.656652,1072.533697
134.016962,3849.070898,-10881.027347,1225.752797
134.017284,1998.556043,-11621.233289,1608.800546
134.017605,1258.350101,-11843.295072,1838.629195
134.017927,1776.494261,-12583.501014,1838.629195
134.018249,1332.370696,-11621.233289,842.705048
134.018570,518.144159,-9918.759623,1302.362347
134.018892,74.020594,-8734.430116,842.705048
134.019214,296.082377,-8660.409521,-995.924147
134.019535,0.000000,-9252.574275,-2911.162892
134.019857,-592.164754,-7402.059420,-3140.991542
134.020179,-1406.391290,-7105.977043,-2987.772442
134.020500,-2738.761985,-8364.327145,-3753.867940
134.020822,-5403.503377,-9252.574275,-4213.525239
134.021144,-7920.203579,-9252.574275,-5286.058936
134.021465,-9326.594869,-9252.574275,-6128.763984
134.021787,-8512.368333,-11473.192101,-6971.469032
134.022109,-6661.853478,-11399.171507,-6205.373534
134.022430,-4145.153275,-9622.677246,-5056.230287
134.022752,-1110.308913,-8438.347739,-2681.334243
134.023074,3034.844362,-7772.162391,-1378.971896
134.023395,4515.256246,-7476.080014,-1915.238745
134.023717,5699.585753,-8364.327145,-2068.457845
134.024039,5995.668130,-9992.780217,-1225.752797
134.024360,5625.565159,-11695.253884,306.438199
134.024682,4219.173869,-11251.130318,1532.190996
134.025004,2590.720797,-9474.636058,3140.991542
134.025325,1258.350101,-8734.430116,2374.896044
134.025647,814.226536,-9918.759623,459.657299
134.025969,-296.082377,-9844.739029,-229.828649
134.026290,-2146.597232,-8290.306550,383.047749
134.026612,-3627.009116,-7550.100608,1302.362347
134.026934,-3849.070898,-8290.306550,689.485948
134.027255,-4219.173869,-8512.368333,-1072.533697
134.027577,-4737.318029,-9104.533087,-2604.724693
134.027899,-4811.338623,-9326.594869,-2834.553343
134.028220,-3701.029710,-9474.636058,-3447.429741
134.028542,-2590.720797,-9474.636058,-4366.744339
134.028864,-1998.556043,-8512.368333,-3370.820191
134.029185,-1776.494261,-8068.244768,-3753.867940
134.029507,-1480.411884,-8438.347739,-4596.572988
134.029829,-592.164754,-8586.388927,-4060.306139
134.030150,444.123565,-9844.739029,-4136.915689
134.030472,2146.597232,-10288.862594,-3294.210641
134.030793,4145.153275,-9844.739029,-919.314598
134.031115,5625.565159,-8290.306550,842.705048
134.031437,6883.915261,-7698.141797,1762.019645
134.031758,7254.018232,-7550.100608,1378.971896
134.032080,5403.503377,-8660.409521,612.876398
134.032402,2812.782580,-10584.944971,689.485948
134.032723,814.226536,-11177.109724,1838.629195
134.033045,296.082377,-11843.295072,1149.143247
134.033367,0.000000,-11917.315666,612.876398
134.033688,-296.082377,-12065.356855,1149.143247
134.034010,-1480.411884,-11103.089130,1685.410096
134.034332,-2072.576638,-10436.903782,536.266849
134.034653,-2146.597232,-10362.883188,-995.924147
134.034975,-2146.597232,-9548.656652,-1838.629195
134.035297,-1924.535449,-7698.141797,-2068.457845
134.035618,-2590.720797,-6291.750507,-2451.505594
134.035940,-2960.823768,-6883.915261,-2681.334243
134.036262,-4367.215058,-7698.141797,-3753.867940
134.036583,-6217.729913,-8586.388927,-4443.353888
134.036905,-7402.059420,-9178.553681,-4903.011187
134.037227,-6587.832884,-10140.821405,-5515.887586
134.037548,-4737.318029,-10732.986159,-5515.887586
134.037870,-2368.659014,-10140.821405,-4826.401637
134.038192,222.061783,-9918.759623,-3217.601092
134.038513,2368.659014,-9696.697840,-842.705048
134.038835,4219.173869,-9548.656652,-919.314598
134.039157,4737.318029,-9474.636058,-1225.752797
134.039478,5255.462188,-9622.677246,-995.924147
134.039800,5033.400406,-10066.800811,0.000000
134.040122,3478.967927,-10510.924376,1302.362347
134.040443,1184.329507,-9992.780217,2298.286494
134.040765,-592.164754,-9178.553681,2451.505594
134.041086,-1480.411884,-9622.677246,1378.971896
134.041408,-1554.432478,-10807.006753,-306.438199
134.041730,-2442.679609,-9844.739029,-306.438199
134.042051,-3108.864956,-8068.244768,1072.533697
134.042373,-3182.885551,-6883.915261,1455.581446
134.042695,-2220.617826,-7031.956449,-536.266849
134.043016,-2368.659014,-5921.647536,-2604.724693
134.043338,-3330.926739,-6143.709319,-4136.915689
134.043660,-3404.947333,-8216.285956,-4903.011187
134.043981,-2960.823768,-10436.903782,-4903.011187
134.044303,-2886.803174,-10288.862594,-4826.401637
134.044625,-2664.741391,-9548.656652,-4290.134789
134.044946,-1850.514855,-9770.718434,-4443.353888
134.045268,-740.205942,-10214.842000,-5515.887586
134.045590,370.102971,-9770.718434,-5745.716235
134.045911,1702.473667,-10066.800811,-3294.210641
134.046233,3478.967927,-9474.636058,-1149.143247
134.046555,4737.318029,-8142.265362,0.000000
134.046876,5551.544565,-7920.203579,0.000000
134.047198,5477.523971,-8438.347739,612.876398
134.047520,4737.318029,-9696.697840,842.705048
134.047841,3108.864956,-11473.192101,1378.971896
134.048163,1924.535449,-12139.377449,2374.896044
134.048485,1702.473667,-11843.295072,1991.848295
134.048806,1480.411884,-11251.130318,1378.971896
134.049128,962.267725,-9918.759623,1915.238745
134.049450,666.185348,-8956.491898,1455.581446
134.049771,222.061783,-8068.244768,0.000000
134.050093,74.020594,-8660.409521,-1762.019645
134.050414,-962.267725,-8660.409521,-2068.457845
134.050736,-2516.700203,-7920.203579,-1608.800546
134.051058,-3256.906145,-7920.203579,-2757.943793
134.051379,-4885.359217,-9178.553681,-3983.696590
134.051701,-7328.038826,-9770.718434,-4903.011187
134.052023,-9548.656652,-9548.656652,-5286.058936
134.052344,-10066.800811,-9548.656652,-5515.887586
134.052666,-8216.285956,-9844.739029,-5975.544884
134.052988,-5477.523971,-9474.636058,-5669.106685
134.053309,-2664.741391,-8882.471304,-3830.477490
134.053631,-444.123565,-8290.306550,-1225.752797
134.053953,2294.638420,-8290.306550,0.000000
134.054274,4441.235652,-8438.347739,-766.095498
134.054596,5995.668130,-9252.574275,-1072.533697
134.054918,6587.832884,-10807.006753,-383.047749
134.055239,5773.606348,-11103.089130,1149.143247
134.055561,3997.112087,-10214.842000,2834.553343
134.055883,2368.659014,-9030.512492,3370.820191
134.056204,1554.432478,-9474.636058,1838.629195
134.056526,296.082377,-10214.842000,383.047749
134.056848,-1110.308913,-10584.944971,459.657299
134.057169,-2442.679609,-9030.512492,1532.190996
134.057491,-2886.803174,-7994.224174,1225.752797
134.057813,-2442.679609,-7772.162391,76.609550
134.058134,-3330.926739,-7994.224174,-1149.143247
134.058456,-3923.091493,-8586.388927,-2757.943793
134.058778,-3627.009116,-9252.574275,-4366.744339
134.059099,-2960.823768,-9400.615463,-4596.572988
134.059421,-2220.617826,-8956.491898,-3983.696590
134.059742,-1776.494261,-8734.430116,-4213.525239
134.060064,-1554.432478,-8956.491898,-3983.696590
134.060386,-1036.288319,-9474.636058,-5515.887586
134.060707,222.061783,-10436.903782,-5592.497135
134.061029,1850.514855,-10362.883188,-3753.867940
134.061351,2960.823768,-8660.409521,-2374.896044
134.061672,4737.318029,-8290.306550,-1225.752797
134.061994,6143.709319,-8364.327145,153.219100
134.062316,6587.832884,-7920.203579,459.657299
134.062637,5625.565159,-8290.306550,689.485948
134.062959,4145.153275,-9474.636058,1225.752797
134.063281,2516.700203,-10807.006753,1378.971896
134.063602,1480.411884,-12065.356855,1149.143247
134.063924,888.247130,-12657.521608,1455.581446
134.064246,666.185348,-12361.439231,1915.238745
134.064567,0.000000,-10955.047942,1685.410096
134.064889,-296.082377,-10066.800811,842.705048
134.065211,-1184.329507,-9474.636058,-689.485948
134.065532,-888.247130,-9178.553681,-1838.629195
134.065854,-962.267725,-8364.327145,-2068.457845
134.066176,-1184.329507,-7402.059420,-1915.238745
134.066497,-2368.659014,-6735.874072,-2145.067394
134.066819,-3256.906145,-7254.018232,-3140.991542
134.067141,-5329.482782,-7698.141797,-4519.963438
134.067462,-7772.162391,-8216.285956,-5439.278036
134.067784,-9252.574275,-8808.450710,-6052.154434
134.068106,-8660.409521,-8956.491898,-6281.983084
134.068427,-6661.853478,-8882.471304,-6358.592633
134.068749,-3627.009116,-9548.656652,-4979.620737
134.069070,-888.247130,-9918.759623,-3140.991542
134.069392,1036.288319,-9844.739029,-1608.800546
134.069714,2812.782580,-9770.718434,-1455.581446
134.070035,4293.194464,-9918.759623,-1072.533697
134.070357,4737.318029,-10955.047942,-1225.752797
134.070679,3552.988522,-11473.192101,76.609550
134.071000,1110.308913,-11029.068536,2757.943793
134.071322,74.020594,-9178.553681,3600.648841
134.071644,814.226536,-9622.677246,1915.238745
134.071965,1036.288319,-10510.924376,459.657299
134.072287,148.041188,-9326.594869,842.705048
134.072609,-1628.453072,-7994.224174,1838.629195
134.072930,-2442.679609,-7772.162391,2681.334243
134.073252,-2590.720797,-6291.750507,766.095498
134.073574,-2812.782580,-6587.832884,-3140.991542
134.073895,-3923.091493,-7550.100608,-4443.353888
134.074217,-4145.153275,-7698.141797,-3294.210641
134.074539,-3108.864956,-8660.409521,-4213.525239
134.074860,-1998.556043,-10732.986159,-5132.839837
134.075182,-1110.308913,-11251.130318,-4136.915689
134.075504,-3330.926739,-9992.780217,-4596.572988
134.075825,-3404.947333,-9918.759623,-4979.620737
134.076147,-1850.514855,-9400.615463,-4749.792088
134.076469,0.000000,-9178.553681,-5669.106685
134.076790,1850.514855,-9622.677246,-3524.039291
134.077112,3404.947333,-9400.615463,1378.971896
134.077434,5181.441594,-8068.244768,2451.505594
134.077755,6587.832884,-7476.080014,1991.848295
134.078077,7031.956449,-9252.574275,1762.019645
134.078399,5181.441594,-10288.862594,2451.505594
134.078720,3034.844362,-10214.842000,2987.772442
134.079042,2590.720797,-10214.842000,2681.334243
134.079363,3923.091493,-11547.212695,2068.457845
134.079685,3997.112087,-11843.295072,1608.800546
134.080007,2590.720797,-11769.274478,2374.896044
134.080328,1480.411884,-10807.006753,2451.505594
134.080650,1850.514855,-10214.842000,229.828649
134.080972,1628.453072,-8734.430116,-1685.410096
134.081293,296.082377,-7920.203579,-2834.553343
134.081615,-1258.350101,-7254.018232,-3370.820191
134.081937,-3108.864956,-7550.100608,-3983.696590
134.082258,-5921.647536,-8734.430116,-4060.306139
134.082580,-8290.306550,-10214.842000,-4136.915689
134.082902,-9918.759623,-10140.821405,-4979.620737
134.083223,-10510.924376,-10510.924376,-6511.811733
134.083545,-9474.636058,-10288.862594,-6128.763984
134.083867,-7105.977043,-9030.512492,-4519.963438
134.084188,-3701.029710,-7772.162391,-3217.601092
134.084510,-888.247130,-6957.935855,-2374.896044
134.084832,1554.432478,-7328.038826,-1991.848295
134.085153,3404.947333,-8808.450710,-1302.362347
134.085475,5329.482782,-9770.718434,-383.047749
134.085797,6661.853478,-10807.006753,0.000000
134.086118,7031.956449,-10955.047942,229.828649
134.086440,6069.688724,-11547.212695,1685.410096
134.086762,4367.215058,-11325.150913,2834.553343
134.087083,2664.741391,-10436.903782,2221.676944
134.087405,2368.659014,-10140.821405,612.876398
134.087727,666.185348,-9474.636058,-459.657299
134.088048,-1628.453072,-8512.368333,76.609550
134.088370,-3404.947333,-7920.203579,612.876398
134.088691,-3849.070898,-8068.244768,0.000000
134.089013,-4071.132681,-7624.121203,-1455.581446
134.089335,-4367.215058,-7254.018232,-1915.238745
134.089656,-4367.215058,-7550.100608,-3064.381992
134.089978,-3775.050304,-8660.409521,-4290.134789
134.090300,-2738.761985,-8586.388927,-5132.839837
134.090621,-2812.782580,-8290.306550,-5056.230287
134.090943,-2886.803174,-9030.512492,-4443.353888
134.091265,-3627.009116,-8882.471304,-4826.401637
134.091586,-3182.885551,-9548.656652,-5975.544884
134.091908,-2072.576638,-10140.821405,-6358.592633
134.092230,370.102971,-10436.903782,-4519.963438
134.092551,2442.679609,-9474.636058,-1378.971896
134.092873,3997.112087,-8660.409521,-229.828649
134.093195,5773.606348,-8882.471304,919.314598
134.093516,6365.771101,-9252.574275,842.705048
134.093838,4367.215058,-9918.759623,306.438199
134.094160,2294.638420,-10066.800811,1608.800546
134.094481,1480.411884,-10510.924376,2451.505594
134.094803,1036.288319,-10807.006753,1762.019645
134.095125,2368.659014,-11621.233289,1685.410096
134.095446,3701.029710,-11621.233289,2068.457845
134.095768,4515.256246,-11251.130318,1991.848295
134.096090,4811.338623,-10214.842000,2221.676944
134.096411,3552.988522,-9178.553681,766.095498
134.096733,2886.803174,-8290.306550,-612.876398
134.097055,1184.329507,-6957.935855,-2604.724693
134.097376,-1406.391290,-6957.935855,-3677.258390
134.097698,-4441.235652,-7105.977043,-3677.258390
134.098019,-6513.812290,-8364.327145,-3753.867940
134.098341,-8438.347739,-8660.409521,-4519.963438
134.098663,-9400.615463,-9474.636058,-5056.230287
134.098984,-9400.615463,-10510.924376,-5592.497135
134.099306,-8586.388927,-10436.903782,-4903.011187
134.099628,-7105.977043,-9474.636058,-4290.134789
134.099949,-4515.256246,-8882.471304,-3524.039291
134.100271,-2072.576638,-8808.450710,-2145.067394
134.100593,-592.164754,-9326.594869,-1225.752797
134.100914,518.144159,-9770.718434,-153.219100
134.101236,2072.576638,-9844.739029,229.828649
134.101558,3552.988522,-9918.759623,689.485948
134.101879,3701.029710,-10807.006753,1149.143247
134.102201,3552.988522,-11251.130318,2374.896044
134.102523,2960.823768,-10510.924376,3294.210641
134.102844,2738.761985,-10214.842000,2298.286494
134.103166,2960.823768,-10288.862594,1149.143247
134.103488,2368.659014,-9400.615463,919.314598
134.103809,1850.514855,-9622.677246,383.047749
134.104131,1406.391290,-9252.574275,766.095498
134.104453,1258.350101,-7550.100608,995.924147
134.104774,296.082377,-5551.544565,-612.876398
134.105096,-296.082377,-5847.626942,-2451.505594
134.105418,-1702.473667,-7105.977043,-3677.258390
134.105739,-3256.906145,-8808.450710,-4903.011187
134.106061,-4885.359217,-9104.533087,-4213.525239
134.106383,-5551.544565,-9400.615463,-3447.429741
134.106704,-5625.565159,-9400.615463,-4596.572988
134.107026,-5033.400406,-9992.780217,-5592.497135
134.107347,-4367.215058,-9474.636058,-4979.620737
134.107669,-3404.947333,-9252.574275,-3830.477490
134.107991,-2146.597232,-9252.574275,-2757.943793
134.108312,-1184.329507,-8882.471304,-1225.752797
134.108634,0.000000,-8734.430116,-1149.143247
134.108956,1036.288319,-9770.718434,-153.219100
134.109277,1110.308913,-10658.965565,842.705048
134.109599,1480.411884,-10436.903782,1685.410096
134.109921,2368.659014,-10362.883188,1302.362347
134.110242,3108.864956,-10881.027347,1991.848295
134.110564,4441.235652,-11029.068536,2221.676944
134.110886,5403.503377,-10066.800811,1378.971896
134.111207,6735.874072,-8882.471304,612.876398
134.111529,7105.977043,-8586.388927,536.266849
134.111851,5847.626942,-8438.347739,1072.533697
134.112172,4219.173869,-8808.450710,-536.266849
134.112494,2368.659014,-8586.388927,-2068.457845
134.112816,518.144159,-8808.450710,-3447.429741
134.113137,-2442.679609,-9252.574275,-4596.572988
134.113459,-5773.606348,-9474.636058,-4673.182538
134.113781,-8882.471304,-8586.388927,-4673.182538
134.114102,-10288.862594,-9104.533087,-5745.716235
134.114424,-10584.944971,-9474.636058,-6052.154434
134.114746,-9474.636058,-9696.697840,-6435.202183
134.115067,-7846.182985,-8660.409521,-5975.544884
134.115389,-4959.379811,-9252.574275,-4596.572988
134.115711,-2220.617826,-9400.615463,-2451.505594
134.116032,370.102971,-9030.512492,-1302.362347
134.116354,1850.514855,-9252.574275,-919.314598
134.116676,2960.823768,-10066.800811,-383.047749
134.116997,3627.009116,-10955.047942,-919.314598
134.117319,3108.864956,-11473.192101,306.438199
134.117640,2590.720797,-10362.883188,1685.410096
134.117962,2664.741391,-9252.574275,1915.238745
134.118284,3182.885551,-9030.512492,1762.019645
134.118605,3404.947333,-9474.636058,1225.752797
134.118927,2886.803174,-9326.594869,842.705048
134.119249,2072.576638,-8808.450710,1149.143247
134.119570,1332.370696,-8438.347739,1378.971896
134.119892,740.205942,-8290.306550,919.314598
134.120214,518.144159,-7624.121203,-1378.971896
134.120535,444.123565,-7846.182985,-2834.553343
134.120857,0.000000,-9030.512492,-3600.648841
134.121179,-1036.288319,-9474.636058,-3217.601092
134.121500,-2368.659014,-8882.471304,-3217.601092
134.121822,-3256.906145,-8438.347739,-3830.477490
134.122144,-3330.926739,-9030.512492,-4673.182538
134.122465,-3256.906145,-9844.739029,-5286.058936
134.122787,-2960.823768,-9918.759623,-5056.230287
134.123109,-2072.576638,-10066.800811,-3140.991542
134.123430,-740.205942,-8956.491898,-1225.752797
134.123752,370.102971,-8142.265362,-689.485948
134.124074,1184.329507,-7550.100608,-306.438199
134.124396,962.267725,-8586.388927,0.000000
134.124717,370.102971,-9474.636058,536.266849
134.125039,-222.061783,-10807.006753,1762.019645
134.125361,74.020594,-11695.253884,2221.676944
134.125683,1332.370696,-11843.295072,1915.238745
134.126004,3034.844362,-11621.233289,1685.410096
134.126326,4293.194464,-11029.068536,1685.410096
134.126648,4737.318029,-10066.800811,1762.019645
134.126969,4663.297435,-9178.553681,1378.971896
134.127291,4441.235652,-8586.388927,229.828649
134.127613,3478.967927,-7994.224174,-1225.752797
134.127935,1998.556043,-8364.327145,-2374.896044
134.128256,74.020594,-8364.327145,-2451.505594
134.128578,-2220.617826,-8438.347739,-2681.334243
134.128900,-4367.215058,-8290.306550,-3064.381992
134.129221,-5995.668130,-8586.388927,-4749.792088
134.129543,-8512.368333,-8512.368333,-5745.716235
134.129865,-9474.636058,-8882.471304,-5822.325785
134.130187,-9178.553681,-9326.594869,-5975.544884
134.130508,-7105.977043,-9474.636058,-5362.668486
134.130830,-4737.318029,-9992.780217,-4290.134789
134.131152,-3034.844362,-10584.944971,-2451.505594
134.131474,-1480.411884,-10436.903782,-1149.143247
134.131795,0.000000,-10436.903782,-842.705048
134.132117,1036.288319,-10362.883188,-1762.019645
134.132439,1480.411884,-10955.047942,-919.314598
134.132760,518.144159,-10510.924376,383.047749
134.133082,-592.164754,-9696.697840,2221.676944
134.133404,0.000000,-9400.615463,2451.505594
134.133726,1480.411884,-9770.718434,919.314598
134.134047,2960.823768,-9696.697840,842.705048
134.134369,2738.761985,-8216.285956,1455.581446
134.134691,2294.638420,-7328.038826,2451.505594
134.135012,2072.576638,-6513.812290,2068.457845
134.135334,2146.597232,-5477.523971,-1532.190996
134.135656,1036.288319,-6217.729913,-4366.744339
134.135978,0.000000,-8364.327145,-3830.477490
134.136299,-1406.391290,-9918.759623,-3600.648841
134.136621,-1406.391290,-11399.171507,-4290.134789
134.136943,-1628.453072,-10658.965565,-4060.306139
134.137265,-2368.659014,-9548.656652,-3983.696590
134.137586,-3256.906145,-9474.636058,-4979.620737
134.137908,-2886.803174,-9400.615463,-5822.325785
134.138230,-2368.659014,-9474.636058,-6281.983084
