#time,accel_x,accel_y,accel_z
504.148416,-148.041188,-9326.594869,-1915.238745
504.148738,-222.061783,-9252.574275,-1532.190996
504.149061,-148.041188,-8956.491898,-1991.848295
504.149383,-296.082377,-8956.491898,-2145.067394
504.149705,-444.123565,-9178.553681,-1915.238745
504.150028,-740.205942,-9548.656652,-1762.019645
504.150350,-740.205942,-9696.697840,-1915.238745
504.150672,-592.164754,-9474.636058,-1915.238745
504.150995,-370.102971,-9252.574275,-1762.019645
504.151317,0.000000,-9030.512492,-1991.848295
504.151639,0.000000,-8882.471304,-1838.629195
504.151961,-444.123565,-9252.574275,-1685.410096
504.152284,-666.185348,-9326.594869,-1991.848295
504.152606,-444.123565,-9474.636058,-1685.410096
504.152928,-592.164754,-9400.615463,-2145.067394
504.153251,-296.082377,-9622.677246,-1532.190996
504.153573,-444.123565,-9474.636058,-1685.410096
504.153895,-444.123565,-9252.574275,-1455.581446
504.154218,-370.102971,-9252.574275,-1532.190996
504.154540,222.061783,-9622.677246,-1762.019645
504.154862,74.020594,-9030.512492,-1225.752797
504.155185,-592.164754,-9326.594869,-1378.971896
504.155507,-518.144159,-9474.636058,-1378.971896
504.155829,-518.144159,-9400.615463,-1455.581446
504.156152,-296.082377,-9326.594869,-1532.190996
504.156474,-296.082377,-9178.553681,-1378.971896
504.156796,-148.041188,-9252.574275,-1762.019645
504.157119,-592.164754,-9474.636058,-1455.581446
504.157441,-518.144159,-9474.636058,-1532.190996
504.157763,-370.102971,-9622.677246,-1532.190996
504.158085,-370.102971,-9400.615463,-1149.143247
504.158408,0.000000,-9548.656652,-1762.019645
504.158730,-370.102971,-9548.656652,-1762.019645
504.159052,-592.164754,-9474.636058,-1455.581446
504.159375,-444.123565,-9252.574275,-1225.752797
504.159697,-370.102971,-9252.574275,-1455.581446
504.160019,-296.082377,-9474.636058,-1302.362347
504.160342,-592.164754,-9400.615463,-1608.800546
504.160664,-592.164754,-9622.677246,-1302.362347
504.160986,-444.123565,-9622.677246,-1378.971896
504.161309,-296.082377,-9474.636058,-1532.190996
504.161631,-444.123565,-9400.615463,-1302.362347
504.161953,-814.226536,-8956.491898,-1225.752797
504.162276,-370.102971,-9326.594869,-1378.971896
504.162598,-296.082377,-9474.636058,-1302.362347
504.162920,-370.102971,-9400.615463,-1225.752797
504.163243,-518.144159,-9474.636058,-1302.362347
504.163565,0.000000,-9326.594869,-1302.362347
504.163887,-444.123565,-9326.594869,-1302.362347
504.164209,-444.123565,-9104.533087,-1378.971896
504.164532,-444.123565,-9030.512492,-1455.581446
504.164854,0.000000,-9030.512492,-1532.190996
504.165176,888.247130,-8882.471304,-1302.362347
504.165499,2220.617826,-9400.615463,-1608.800546
504.165821,2368.659014,-9400.615463,-995.924147
504.166143,1776.494261,-8586.388927,0.000000
504.166466,740.205942,-8290.306550,-1149.143247
504.166788,74.020594,-8734.430116,-2757.943793
504.167110,-1480.411884,-9252.574275,-2681.334243
504.167433,-2886.803174,-9696.697840,-2221.676944
504.167755,-3627.009116,-9918.759623,-2451.505594
504.168077,-3108.864956,-9400.615463,-2834.553343
504.168400,-518.144159,-10066.800811,-2451.505594
504.168722,1702.473667,-10658.965565,-1685.410096
504.169044,2590.720797,-10510.924376,-612.876398
504.169367,2368.659014,-9252.574275,0.000000
504.169689,1776.494261,-8808.450710,-612.876398
504.170011,2220.617826,-9474.636058,-2298.286494
504.170333,2442.679609,-9696.697840,-2221.676944
504.170656,1110.308913,-9326.594869,-1608.800546
504.170978,222.061783,-7994.224174,-306.438199
504.171300,592.164754,-7402.059420,-995.924147
504.171623,2294.638420,-8808.450710,-2757.943793
504.171945,2072.576638,-10140.821405,-2145.067394
504.172267,370.102971,-9992.780217,-766.095498
504.172590,-1110.308913,-9474.636058,-1072.533697
504.172912,-222.061783,-9622.677246,-3600.648841
504.173234,296.082377,-9548.656652,-3370.820191
504.173557,370.102971,-10140.821405,-1532.190996
504.173879,814.226536,-10881.027347,-1225.752797
504.174201,1628.453072,-9696.697840,-1838.629195
504.174524,2664.741391,-9326.594869,-1915.238745
504.174846,3552.988522,-10658.965565,-1225.752797
504.175168,3627.009116,-11325.150913,-995.924147
504.175490,2738.761985,-9548.656652,-1455.581446
504.175813,1850.514855,-7476.080014,-1378.971896
504.176135,2294.638420,-8068.244768,-919.314598
504.176457,2812.782580,-8734.430116,-1608.800546
504.176780,2072.576638,-7994.224174,-1532.190996
504.177102,1628.453072,-7994.224174,-1685.410096
504.177424,1924.535449,-9918.759623,-536.266849
504.177747,3108.864956,-11029.068536,-612.876398
504.178069,3108.864956,-9770.718434,-1225.752797
504.178391,2368.659014,-9400.615463,-1608.800546
504.178714,2738.761985,-9622.677246,-383.047749
504.179036,3108.864956,-8956.491898,0.000000
504.179358,3034.844362,-8734.430116,-2221.676944
504.179681,2664.741391,-9030.512492,-1915.238745
504.180003,2812.782580,-9622.677246,-689.485948
504.180325,3330.926739,-9104.533087,-612.876398
504.180648,3034.844362,-8882.471304,-1225.752797
504.180970,2516.700203,-9326.594869,-1608.800546
504.181292,2368.659014,-9104.533087,-612.876398
504.181614,1702.473667,-8068.244768,-689.485948
504.181937,370.102971,-7994.224174,-1608.800546
504.182259,-296.082377,-8882.471304,-2145.067394
504.182581,-296.082377,-9696.697840,-1838.629195
504.182904,-666.185348,-10584.944971,-1302.362347
504.183226,-518.144159,-11547.212695,-1225.752797
504.183548,0.000000,-11991.336260,-1149.143247
504.183871,592.164754,-11843.295072,-383.047749
504.184193,1184.329507,-10658.965565,-76.609550
504.184515,1110.308913,-9474.636058,-383.047749
504.184838,1776.494261,-8660.409521,-1225.752797
504.185160,1998.556043,-7846.182985,-842.705048
504.185482,2146.597232,-7476.080014,-612.876398
504.185805,2146.597232,-7698.141797,-536.266849
504.186127,2368.659014,-8290.306550,-919.314598
504.186449,2368.659014,-8660.409521,-1072.533697
504.186772,2220.617826,-8586.388927,-1225.752797
504.187094,2368.659014,-8438.347739,-2145.067394
504.187416,2442.679609,-8364.327145,-2221.676944
504.187738,2294.638420,-9030.512492,-2374.896044
504.188061,1776.494261,-9474.636058,-1991.848295
504.188383,1036.288319,-9844.739029,-2221.676944
504.188705,888.247130,-10807.006753,-2451.505594
504.189028,444.123565,-11843.295072,-2221.676944
504.189350,296.082377,-11399.171507,-1378.971896
504.189672,0.000000,-11325.150913,-1302.362347
504.189995,296.082377,-10658.965565,-1225.752797
504.190317,740.205942,-9992.780217,-536.266849
504.190639,888.247130,-8512.368333,-536.266849
504.190962,1332.370696,-7772.162391,-153.219100
504.191284,2072.576638,-7550.100608,-612.876398
504.191606,3552.988522,-7328.038826,-2068.457845
504.191929,4959.379811,-7550.100608,-2528.115143
504.192251,5995.668130,-8586.388927,-2068.457845
504.192573,6069.688724,-9400.615463,-1302.362347
504.192896,5847.626942,-10362.883188,-1991.848295
504.193218,4737.318029,-11029.068536,-2451.505594
504.193540,3108.864956,-12139.377449,-3140.991542
504.193862,1702.473667,-12953.603985,-2911.162892
504.194185,518.144159,-12213.398043,-1915.238745
504.194507,0.000000,-11103.089130,-1302.362347
504.194829,0.000000,-9326.594869,0.000000
504.195152,222.061783,-8068.244768,306.438199
504.195474,296.082377,-6661.853478,153.219100
504.195796,222.061783,-5921.647536,76.609550
504.196119,740.205942,-5403.503377,76.609550
504.196441,1184.329507,-4885.359217,-919.314598
504.196763,1332.370696,-5921.647536,-995.924147
504.197086,1480.411884,-7402.059420,-1455.581446
504.197408,814.226536,-8956.491898,-1762.019645
504.197730,444.123565,-10658.965565,-1991.848295
504.198053,222.061783,-11621.233289,-2604.724693
504.198375,-370.102971,-12065.356855,-3677.258390
504.198697,-296.082377,-12731.542202,-4213.525239
504.199019,-592.164754,-12657.521608,-3370.820191
504.199342,-888.247130,-12213.398043,-2145.067394
504.199664,-1628.453072,-11695.253884,-1455.581446
504.199986,-2368.659014,-11029.068536,-1149.143247
504.200309,-2886.803174,-10732.986159,-766.095498
504.200631,-2664.741391,-10807.006753,-459.657299
504.200953,-1998.556043,-9844.739029,383.047749
504.201276,-444.123565,-7920.203579,459.657299
504.201598,2146.597232,-5995.668130,995.924147
504.201920,4589.276840,-5921.647536,1072.533697
504.202243,6587.832884,-5033.400406,459.657299
504.202565,7402.059420,-4367.215058,229.828649
504.202887,7328.038826,-4663.297435,-842.705048
504.203210,7254.018232,-6587.832884,-3064.381992
504.203532,7105.977043,-10288.862594,-4060.306139
504.203854,5773.606348,-13101.645173,-3447.429741
504.204177,3182.885551,-13841.851115,-2145.067394
504.204499,888.247130,-13545.768739,-1072.533697
504.204821,-962.267725,-12509.480420,-1455.581446
504.205143,-2072.576638,-11621.233289,-3294.210641
504.205466,-4737.318029,-11029.068536,-3447.429741
504.205788,-6587.832884,-9548.656652,0.000000
504.206110,-7105.977043,-6513.812290,0.000000
504.206433,-5477.523971,-5477.523971,-2145.067394
504.206755,-1406.391290,-7105.977043,-2374.896044
504.207077,3256.906145,-7772.162391,-1608.800546
504.207400,6957.935855,-8808.450710,-2145.067394
504.207722,10140.821405,-10881.027347,-1072.533697
504.208044,13101.645173,-11029.068536,1225.752797
504.208367,15618.345376,-10436.903782,-383.047749
504.208689,15100.201217,-7994.224174,-1915.238745
504.209011,12583.501014,-7476.080014,-919.314598
504.209334,9104.533087,-8512.368333,-1532.190996
504.209656,4663.297435,-9918.759623,-1532.190996
504.209978,296.082377,-11473.192101,-919.314598
504.210301,-3182.885551,-12435.459826,-995.924147
504.210623,-5551.544565,-13545.768739,-1838.629195
504.210945,-8438.347739,-14137.933492,229.828649
504.211267,-10510.924376,-10436.903782,1915.238745
504.211590,-10732.986159,-5995.668130,2145.067394
504.211912,-9474.636058,-2220.617826,-1455.581446
504.212234,-5625.565159,-3997.112087,-2757.943793
504.212557,-592.164754,-6217.729913,-3140.991542
504.212879,3923.091493,-6291.750507,-4290.134789
504.213201,8512.368333,-9178.553681,-3600.648841
504.213524,12361.439231,-12065.356855,-2374.896044
504.213846,13471.748144,-13027.624579,-1991.848295
504.214168,10807.006753,-11695.253884,-2221.676944
504.214491,6069.688724,-10066.800811,-3370.820191
504.214813,2516.700203,-10066.800811,-5745.716235
504.215135,296.082377,-11103.089130,-7124.688131
504.215458,-1776.494261,-10732.986159,-4596.572988
504.215780,-4885.359217,-11769.274478,-153.219100
504.216103,-7105.977043,-12361.439231,3064.381992
504.216425,-6587.832884,-10658.965565,5132.839837
504.216747,-4441.235652,-8586.388927,689.485948
504.217070,-2516.700203,-8290.306550,-2528.115143
504.217392,1184.329507,-8586.388927,-842.705048
504.217714,5477.523971,-5699.585753,536.266849
504.218037,9696.697840,-3775.050304,-995.924147
504.218359,12879.583391,-6291.750507,-1302.362347
504.218682,11843.295072,-9770.718434,766.095498
504.219004,8660.409521,-10881.027347,153.219100
504.219326,3701.029710,-11991.336260,-2757.943793
504.219649,-1332.370696,-13989.892304,-6511.811733
504.219971,-4293.194464,-14730.098246,-6741.640382
504.220294,-6587.832884,-10436.903782,-3140.991542
504.220616,-9252.574275,-6217.729913,-1149.143247
504.220938,-8660.409521,-6883.915261,-3600.648841
504.221261,-5625.565159,-7846.182985,-2528.115143
504.221583,-3552.988522,-8956.491898,-1608.800546
504.221905,-3256.906145,-9844.739029,1302.362347
504.222228,-2146.597232,-9770.718434,2911.162892
504.222550,888.247130,-7624.121203,1378.971896
504.222873,4737.318029,-5181.441594,-612.876398
504.223195,7105.977043,-4885.359217,-229.828649
504.223517,6513.812290,-5551.544565,-1608.800546
504.223840,5477.523971,-8438.347739,-1915.238745
504.224162,5699.585753,-10436.903782,-919.314598
504.224485,6439.791695,-11769.274478,-2451.505594
504.224807,6883.915261,-13397.727550,-5362.668486
504.225129,6143.709319,-13397.727550,-4290.134789
504.225452,4145.153275,-12805.562797,-383.047749
504.225774,1184.329507,-10066.800811,1455.581446
504.226096,-1036.288319,-9992.780217,-1608.800546
504.226419,-2664.741391,-10881.027347,-2987.772442
504.226741,-3404.947333,-11251.130318,-2298.286494
504.227064,-2590.720797,-10732.986159,229.828649
504.227386,222.061783,-9992.780217,1225.752797
504.227708,4737.318029,-8438.347739,459.657299
504.228031,8216.285956,-6883.915261,1838.629195
504.228353,9918.759623,-5699.585753,3064.381992
504.228675,9400.615463,-4441.235652,1072.533697
504.228998,7254.018232,-4145.153275,-2298.286494
504.229320,4589.276840,-4441.235652,-3370.820191
504.229643,1702.473667,-7179.997637,-4136.915689
504.229965,-1480.411884,-10066.800811,-5056.230287
504.230287,-5329.482782,-12583.501014,-5362.668486
504.230610,-6661.853478,-13545.768739,-3600.648841
504.230932,-5107.421000,-13767.830521,-2451.505594
504.231255,-3108.864956,-14063.912898,-4979.620737
504.231577,-1776.494261,-12657.521608,-6052.154434
504.231899,-814.226536,-12583.501014,-2681.334243
504.232222,666.185348,-11621.233289,1685.410096
504.232544,4071.132681,-11029.068536,1378.971896
504.232866,6217.729913,-9992.780217,-1685.410096
504.233189,6809.894666,-9400.615463,-229.828649
504.233511,5921.647536,-8734.430116,4290.134789
504.233834,5625.565159,-6661.853478,6818.249932
504.234156,7476.080014,-4737.318029,3217.601092
504.234478,9696.697840,-3923.091493,-1991.848295
504.234801,10288.862594,-5033.400406,-2298.286494
504.235123,9400.615463,-5773.606348,1762.019645
504.235446,5699.585753,-6143.709319,2681.334243
504.235768,1702.473667,-8586.388927,-153.219100
504.236090,-2368.659014,-11473.192101,-3370.820191
504.236413,-6883.915261,-11029.068536,-5439.278036
504.236735,-10362.883188,-11399.171507,-6511.811733
504.237057,-10732.986159,-12583.501014,-7124.688131
504.237380,-8142.265362,-14137.933492,-6511.811733
504.237702,-6809.894666,-13323.706956,-3983.696590
504.238025,-6217.729913,-10732.986159,689.485948
504.238347,-6513.812290,-9770.718434,612.876398
504.238669,-5699.585753,-11399.171507,-2604.724693
504.238992,-5107.421000,-11621.233289,-3983.696590
504.239314,-5699.585753,-8734.430116,-1915.238745
504.239637,-4885.359217,-5403.503377,1149.143247
504.239959,0.000000,-4515.256246,3524.039291
504.240281,6217.729913,-4959.379811,842.705048
504.240604,9844.739029,-5921.647536,-1838.629195
504.240926,10881.027347,-8068.244768,536.266849
504.241248,9622.677246,-8586.388927,3140.991542
504.241571,5921.647536,-7698.141797,2528.115143
504.241893,2294.638420,-10732.986159,-2604.724693
504.242216,-1258.350101,-11843.295072,-4443.353888
504.242538,-3997.112087,-10955.047942,-4366.744339
504.242860,-6217.729913,-9474.636058,-3907.087040
504.243183,-6365.771101,-10658.965565,-4443.353888
504.243505,-5551.544565,-12657.521608,-3600.648841
504.243828,-5255.462188,-10584.944971,-1532.190996
504.244150,-5477.523971,-10288.862594,-1225.752797
504.244472,-6365.771101,-13175.665768,-3983.696590
504.244795,-6735.874072,-13397.727550,-3524.039291
504.245117,-7920.203579,-7994.224174,-1532.190996
504.245439,-7179.997637,-4441.235652,-842.705048
504.245762,-666.185348,-6587.832884,-2068.457845
504.246084,5699.585753,-7179.997637,-4213.525239
504.246407,7994.224174,-6735.874072,-2834.553343
504.246729,8956.491898,-6217.729913,3370.820191
504.247051,10362.883188,-7550.100608,4903.011187
504.247374,10807.006753,-8882.471304,-459.657299
504.247696,7994.224174,-10214.842000,-2987.772442
504.248018,2516.700203,-9770.718434,-1149.143247
504.248341,-1406.391290,-8364.327145,-689.485948
504.248663,-1258.350101,-9104.533087,-2374.896044
504.248986,222.061783,-9992.780217,-2911.162892
504.249308,0.000000,-10214.842000,-2298.286494
504.249630,-666.185348,-9918.759623,0.000000
504.249953,-962.267725,-12953.603985,612.876398
504.250275,-1628.453072,-15544.324782,-536.266849
504.250598,-3849.070898,-13915.871710,-1838.629195
504.250920,-5477.523971,-7550.100608,-2451.505594
504.251242,-4219.173869,-5181.441594,-2145.067394
504.251565,148.041188,-6587.832884,-3064.381992
504.251887,3997.112087,-7698.141797,-4060.306139
504.252209,4737.318029,-8586.388927,-1915.238745
504.252532,4071.132681,-7328.038826,2604.724693
504.252854,4367.215058,-8216.285956,1915.238745
504.253177,2960.823768,-9918.759623,-3140.991542
504.253499,-518.144159,-10955.047942,-6128.763984
504.253821,-4737.318029,-9844.739029,-3907.087040
504.254144,-6513.812290,-9030.512492,-1685.410096
504.254466,-5699.585753,-8956.491898,-1991.848295
504.254789,-4367.215058,-9474.636058,-3983.696590
504.255111,-3478.967927,-10436.903782,-2451.505594
504.255433,-3108.864956,-10214.842000,536.266849
504.255756,-2590.720797,-12065.356855,1532.190996
504.256078,-3330.926739,-13767.830521,-1072.533697
504.256400,-4145.153275,-11325.150913,-1149.143247
504.256723,-3627.009116,-6587.832884,689.485948
504.257045,-1332.370696,-4293.194464,306.438199
504.257368,1480.411884,-5551.544565,-2911.162892
504.257690,4071.132681,-7476.080014,-3753.867940
504.258012,5033.400406,-7994.224174,-1532.190996
504.258335,5033.400406,-8586.388927,1685.410096
504.258657,3701.029710,-10807.006753,995.924147
504.258980,1184.329507,-10510.924376,-3294.210641
504.259302,-2146.597232,-10066.800811,-5975.544884
504.259624,-5625.565159,-9400.615463,-4519.963438
504.259947,-6661.853478,-8808.450710,-2604.724693
504.260269,-5921.647536,-9104.533087,-4060.306139
504.260591,-5403.503377,-10288.862594,-3677.258390
504.260914,-4293.194464,-11769.274478,-919.314598
504.261236,-2590.720797,-12361.439231,1991.848295
504.261559,-1258.350101,-13323.706956,536.266849
504.261881,-740.205942,-12435.459826,-919.314598
504.262203,-222.061783,-8586.388927,0.000000
504.262526,814.226536,-5033.400406,1225.752797
504.262848,3849.070898,-4589.276840,1072.533697
504.263171,5551.544565,-5255.462188,-536.266849
504.263493,5477.523971,-5403.503377,-2068.457845
504.263815,5477.523971,-6587.832884,-1225.752797
504.264138,4737.318029,-8808.450710,536.266849
504.264460,3478.967927,-10584.944971,-1149.143247
504.264782,0.000000,-10658.965565,-4060.306139
504.265105,-3404.947333,-10584.944971,-5592.497135
504.265427,-5255.462188,-9474.636058,-4903.011187
504.265750,-4811.338623,-9696.697840,-4903.011187
504.266072,-3034.844362,-12287.418637,-6665.030833
504.266394,-2886.803174,-13397.727550,-3677.258390
504.266717,-3034.844362,-12435.459826,766.095498
504.267039,-2516.700203,-12435.459826,1378.971896
504.267361,-1184.329507,-13545.768739,-1378.971896
504.267684,-1332.370696,-11843.295072,-2298.286494
504.268006,-1850.514855,-7402.059420,-1455.581446
504.268329,-370.102971,-4515.256246,689.485948
504.268651,2664.741391,-5033.400406,1225.752797
504.268973,5773.606348,-5255.462188,689.485948
504.269296,7476.080014,-4515.256246,459.657299
504.269618,8734.430116,-6217.729913,-536.266849
504.269941,8586.388927,-9770.718434,-842.705048
504.270263,6587.832884,-11547.212695,-383.047749
504.270585,1406.391290,-10881.027347,-1915.238745
504.270908,-3997.112087,-9696.697840,-2911.162892
504.271230,-6735.874072,-9474.636058,-2757.943793
504.271552,-6513.812290,-9474.636058,-5669.106685
504.271875,-5551.544565,-10732.986159,-8044.002729
504.272197,-7105.977043,-11843.295072,-5592.497135
504.272520,-6661.853478,-11917.315666,1532.190996
504.272842,-4737.318029,-12583.501014,1532.190996
504.273164,-3478.967927,-13841.851115,-1915.238745
504.273487,-4811.338623,-12879.583391,-2451.505594
504.273809,-5847.626942,-7846.182985,766.095498
504.274132,-4145.153275,-4071.132681,919.314598
504.274454,444.123565,-4071.132681,-306.438199
504.274776,4663.297435,-5033.400406,-2298.286494
504.275099,6661.853478,-5033.400406,-766.095498
504.275421,8438.347739,-6883.915261,2451.505594
504.275743,8734.430116,-9992.780217,2451.505594
504.276066,6291.750507,-11547.212695,-1532.190996
504.276388,962.267725,-11843.295072,-4366.744339
504.276711,-3997.112087,-10288.862594,-1072.533697
504.277033,-5921.647536,-9400.615463,-1838.629195
504.277355,-4737.318029,-10066.800811,-6818.249932
504.277678,-2960.823768,-11917.315666,-8044.002729
504.278000,-2368.659014,-12287.418637,-2374.896044
504.278323,-2294.638420,-12065.356855,3753.867940
504.278645,-1850.514855,-12435.459826,2757.943793
504.278967,-2590.720797,-14285.974681,-1608.800546
504.279290,-4515.256246,-12361.439231,-1915.238745
504.279612,-6069.688724,-7328.038826,536.266849
504.279934,-4071.132681,-3775.050304,306.438199
504.280257,-222.061783,-2812.782580,-1838.629195
504.280579,3256.906145,-3478.967927,-2911.162892
504.280902,5551.544565,-5033.400406,-842.705048
504.281224,6513.812290,-7031.956449,1532.190996
504.281546,5329.482782,-9844.739029,0.000000
504.281869,2220.617826,-12361.439231,-3294.210641
504.282191,-2294.638420,-11843.295072,-4213.525239
504.282514,-6143.709319,-9992.780217,-3294.210641
504.282836,-6957.935855,-8734.430116,-4826.401637
504.283158,-4515.256246,-9770.718434,-7354.516781
504.283481,-1924.535449,-11843.295072,-5745.716235
504.283803,-740.205942,-11399.171507,-766.095498
504.284125,-296.082377,-10362.883188,2681.334243
504.284448,444.123565,-13619.789333,1762.019645
504.284770,740.205942,-14730.098246,0.000000
504.285093,-962.267725,-9696.697840,0.000000
504.285415,-2220.617826,-2664.741391,0.000000
504.285737,518.144159,-2368.659014,-1225.752797
504.286060,4737.318029,-4589.276840,-2451.505594
504.286382,7624.121203,-6587.832884,-2145.067394
504.286704,8290.306550,-7031.956449,689.485948
504.287027,7920.203579,-9400.615463,1762.019645
504.287349,6291.750507,-12509.480420,-612.876398
504.287672,1184.329507,-13471.748144,-3983.696590
504.287994,-5625.565159,-11547.212695,-5209.449386
504.288316,-10658.965565,-8660.409521,-4443.353888
504.288639,-10584.944971,-8956.491898,-6435.202183
504.288961,-7994.224174,-9844.739029,-9346.365076
504.289284,-6217.729913,-12435.459826,-7048.078582
504.289606,-5033.400406,-12287.418637,459.657299
504.289928,-2886.803174,-14137.933492,3830.477490
504.290251,-1184.329507,-15248.242405,1072.533697
504.290573,-1406.391290,-12731.542202,-1378.971896
504.290895,-2812.782580,-6587.832884,-1149.143247
504.291218,-1406.391290,-1702.473667,-612.876398
504.291540,2886.803174,-2442.679609,-1378.971896
504.291863,6661.853478,-4589.276840,-1762.019645
504.292185,7105.977043,-5551.544565,-229.828649
504.292507,7105.977043,-7402.059420,2451.505594
504.292830,6735.874072,-11251.130318,2757.943793
504.293152,4663.297435,-14434.015869,-919.314598
504.293475,222.061783,-14063.912898,-4366.744339
504.293797,-5033.400406,-10510.924376,-3830.477490
504.294119,-7328.038826,-6957.935855,-2681.334243
504.294442,-5995.668130,-7402.059420,-5056.230287
504.294764,-3701.029710,-10510.924376,-6588.421283
504.295086,-2960.823768,-11473.192101,-2834.553343
504.295409,-3330.926739,-11621.233289,2298.286494
504.295731,-1184.329507,-13841.851115,2604.724693
504.296054,-296.082377,-15322.262999,-153.219100
504.296376,-1924.535449,-12361.439231,-1608.800546
504.296698,-2590.720797,-6217.729913,153.219100
504.297021,-296.082377,-1998.556043,1072.533697
504.297343,4515.256246,-1628.453072,-842.705048
504.297666,6143.709319,-3034.844362,-1685.410096
504.297988,5995.668130,-5403.503377,0.000000
504.298310,5625.565159,-8438.347739,3217.601092
504.298633,4811.338623,-11473.192101,2221.676944
504.298955,1924.535449,-12583.501014,-995.924147
504.299277,-2516.700203,-12139.377449,-4673.182538
504.299600,-7105.977043,-8586.388927,-2834.553343
504.299922,-8512.368333,-6365.771101,-2528.115143
504.300245,-6143.709319,-8290.306550,-5515.887586
504.300567,-4441.235652,-11103.089130,-6894.859482
504.300889,-4071.132681,-12805.562797,-2145.067394
504.301212,-3775.050304,-11843.295072,1685.410096
504.301534,-2146.597232,-14434.015869,766.095498
504.301857,-962.267725,-16654.633695,-2757.943793
504.302179,-888.247130,-12361.439231,-2681.334243
504.302501,-814.226536,-5033.400406,-1532.190996
504.302824,1924.535449,-2590.720797,-536.266849
504.303146,5181.441594,-4515.256246,-1838.629195
504.303468,6587.832884,-6143.709319,-1608.800546
504.303791,6513.812290,-6587.832884,689.485948
504.304113,6513.812290,-8956.491898,2374.896044
504.304436,5329.482782,-12287.418637,-153.219100
504.304758,1776.494261,-12583.501014,-2681.334243
504.305080,-3330.926739,-9696.697840,-2604.724693
504.305403,-6735.874072,-7105.977043,-1991.848295
504.305725,-6217.729913,-6957.935855,-2911.162892
504.306047,-4145.153275,-9104.533087,-6358.592633
504.306370,-3997.112087,-10362.883188,-5822.325785
504.306692,-4071.132681,-11251.130318,-1072.533697
504.307015,-2812.782580,-12953.603985,1149.143247
504.307337,-962.267725,-15174.221811,-1072.533697
504.307659,-1184.329507,-14582.057057,-2987.772442
504.307982,-2590.720797,-9252.574275,-2451.505594
504.308304,-2516.700203,-4145.153275,-995.924147
504.308627,518.144159,-3849.070898,-1991.848295
504.308949,4219.173869,-6291.750507,-3140.991542
504.309271,6143.709319,-7031.956449,-1532.190996
504.309594,5625.565159,-7031.956449,1455.581446
504.309916,5773.606348,-8808.450710,2298.286494
504.310238,5329.482782,-10807.006753,-306.438199
504.310561,2146.597232,-11325.150913,-3140.991542
504.310883,-3108.864956,-8586.388927,-2298.286494
504.311206,-6365.771101,-7105.977043,-766.095498
504.311528,-5847.626942,-7772.162391,-2528.115143
504.311850,-4589.276840,-9992.780217,-5975.544884
504.312173,-4441.235652,-11695.253884,-4060.306139
504.312495,-3627.009116,-12805.562797,229.828649
504.312818,-1258.350101,-12139.377449,1455.581446
504.313140,518.144159,-13767.830521,-1991.848295
504.313462,592.164754,-12657.521608,-2451.505594
504.313785,-888.247130,-8438.347739,-229.828649
504.314107,-1110.308913,-5033.400406,689.485948
504.314429,518.144159,-4885.359217,-1991.848295
504.314752,2368.659014,-7105.977043,-4366.744339
504.315074,3552.988522,-8142.265362,-2757.943793
504.315396,3923.091493,-7772.162391,919.314598
504.315719,3701.029710,-8882.471304,1455.581446
504.316041,2738.761985,-10955.047942,-1685.410096
504.316363,-666.185348,-10881.027347,-2911.162892
504.316686,-4367.215058,-9400.615463,-1915.238745
504.317008,-7328.038826,-7105.977043,-2451.505594
504.317330,-7031.956449,-9104.533087,-5745.716235
504.317653,-5699.585753,-11843.295072,-6281.983084
504.317975,-4071.132681,-12583.501014,-2757.943793
504.318297,-2442.679609,-11399.171507,689.485948
504.318620,-444.123565,-12583.501014,612.876398
504.318942,1628.453072,-13545.768739,-1378.971896
504.319264,1776.494261,-11473.192101,-2374.896044
504.319587,814.226536,-7624.121203,-76.609550
504.319909,2072.576638,-5773.606348,766.095498
504.320231,4589.276840,-7031.956449,-1762.019645
504.320554,6439.791695,-7179.997637,-2528.115143
504.320876,6365.771101,-5995.668130,229.828649
504.321198,5847.626942,-6217.729913,2068.457845
504.321521,6069.688724,-9178.553681,766.095498
504.321843,3627.009116,-10658.965565,-1685.410096
504.322165,-1554.432478,-9326.594869,-2374.896044
504.322488,-5921.647536,-8068.244768,-1302.362347
504.322810,-7105.977043,-8734.430116,-2145.067394
504.323132,-6513.812290,-9918.759623,-5132.839837
504.323455,-5551.544565,-10658.965565,-5056.230287
504.323777,-4441.235652,-11325.150913,-2068.457845
504.324099,-2738.761985,-11325.150913,1149.143247
504.324422,-962.267725,-11917.315666,383.047749
504.324744,-962.267725,-12213.398043,-1915.238745
504.325066,-1480.411884,-10510.924376,-1685.410096
504.325389,-1850.514855,-6661.853478,0.000000
504.325711,74.020594,-4663.297435,-612.876398
504.326033,2960.823768,-6291.750507,-2757.943793
504.326356,5181.441594,-7105.977043,-2451.505594
504.326678,5107.421000,-7328.038826,612.876398
504.327000,4959.379811,-7846.182985,3524.039291
504.327323,4441.235652,-9474.636058,689.485948
504.327645,1850.514855,-10955.047942,-3830.477490
504.327967,-1998.556043,-9696.697840,-3140.991542
504.328290,-5699.585753,-7624.121203,-1225.752797
504.328612,-7105.977043,-8364.327145,-3064.381992
504.328934,-6439.791695,-11029.068536,-6205.373534
504.329257,-5403.503377,-12805.562797,-5745.716235
504.329579,-4811.338623,-11843.295072,-1762.019645
504.329901,-2442.679609,-11843.295072,-229.828649
504.330223,74.020594,-13841.851115,-3064.381992
504.330546,1332.370696,-14285.974681,-2987.772442
504.330868,74.020594,-10732.986159,-459.657299
504.331190,-296.082377,-6439.791695,1302.362347
504.331513,2072.576638,-5921.647536,-1455.581446
504.331835,5699.585753,-6883.915261,-4596.572988
504.332157,7105.977043,-6439.791695,-3140.991542
504.332480,6365.771101,-6143.709319,1991.848295
504.332802,5699.585753,-8364.327145,3907.087040
504.333124,4589.276840,-11103.089130,612.876398
504.333447,1406.391290,-11029.068536,-1991.848295
504.333769,-4589.276840,-7476.080014,-2145.067394
504.334091,-8808.450710,-6291.750507,-2374.896044
504.334414,-8586.388927,-8068.244768,-4519.963438
504.334736,-7698.141797,-10214.842000,-6281.983084
504.335058,-7031.956449,-11177.109724,-3830.477490
504.335381,-5551.544565,-9918.759623,229.828649
504.335703,-2738.761985,-12805.562797,-612.876398
504.336025,148.041188,-15248.242405,-3294.210641
504.336348,888.247130,-14211.954086,-3140.991542
504.336670,0.000000,-9918.759623,-536.266849
504.336992,1924.535449,-6143.709319,1225.752797
504.337315,5033.400406,-5033.400406,-1072.533697
504.337637,7698.141797,-6513.812290,-3064.381992
504.337959,7920.203579,-6365.771101,-536.266849
504.338282,6735.874072,-5773.606348,3294.210641
504.338604,6217.729913,-6809.894666,2604.724693
504.338926,4737.318029,-10436.903782,-536.266849
504.339249,148.041188,-11621.233289,-1532.190996
504.339571,-5107.421000,-8660.409521,0.000000
504.339893,-7994.224174,-6513.812290,-1455.581446
504.340216,-6883.915261,-8734.430116,-6281.983084
504.340538,-4515.256246,-11843.295072,-6358.592633
504.340860,-4367.215058,-10955.047942,-2604.724693
504.341183,-4589.276840,-10066.800811,612.876398
504.341505,-2590.720797,-13175.665768,-919.314598
504.341827,-666.185348,-16580.613101,-3677.258390
504.342150,-1776.494261,-13619.789333,-3447.429741
504.342472,-2960.823768,-7772.162391,-1532.190996
504.342794,-888.247130,-5773.606348,-1762.019645
504.343117,3182.885551,-6587.832884,-3140.991542
504.343439,6143.709319,-6069.688724,-2451.505594
504.343761,6809.894666,-5625.565159,689.485948
504.344084,6069.688724,-5477.523971,3677.258390
504.344406,5181.441594,-8586.388927,2528.115143
504.344728,2664.741391,-11473.192101,-766.095498
504.345051,-2590.720797,-10807.006753,-2298.286494
504.345373,-7624.121203,-7920.203579,-612.876398
504.345695,-8660.409521,-7105.977043,-995.924147
504.346018,-5921.647536,-9030.512492,-6128.763984
504.346340,-4293.194464,-11399.171507,-7124.688131
504.346662,-3256.906145,-11177.109724,-1762.019645
504.346985,-1850.514855,-11769.274478,2145.067394
504.347307,592.164754,-14508.036463,-1532.190996
504.347629,2886.803174,-17024.736666,-3447.429741
504.347952,1924.535449,-12731.542202,-2298.286494
504.348274,1184.329507,-7179.997637,-689.485948
504.348596,2738.761985,-5773.606348,229.828649
504.348918,5181.441594,-5477.523971,-1225.752797
504.349241,5699.585753,-4219.173869,-2681.334243
504.349563,4515.256246,-4589.276840,689.485948
504.349885,4441.235652,-6217.729913,3524.039291
504.350208,3701.029710,-9252.574275,536.266849
504.350530,740.205942,-10362.883188,-2834.553343
504.350852,-4219.173869,-9696.697840,-1378.971896
504.351175,-8364.327145,-8068.244768,306.438199
504.351497,-8660.409521,-7254.018232,-2374.896044
504.351819,-7772.162391,-9030.512492,-7354.516781
504.352142,-6735.874072,-11399.171507,-6818.249932
504.352464,-5255.462188,-11547.212695,-2145.067394
504.352786,-2886.803174,-13471.748144,0.000000
504.353109,-962.267725,-15988.448347,-2298.286494
504.353431,222.061783,-15914.427753,-3447.429741
504.353753,74.020594,-11399.171507,-2374.896044
504.354076,962.267725,-6883.915261,-1608.800546
504.354398,3478.967927,-5921.647536,-1762.019645
504.354720,5181.441594,-6365.771101,-2604.724693
504.355043,5255.462188,-5181.441594,-306.438199
504.355365,5181.441594,-4737.318029,2681.334243
504.355687,5921.647536,-6883.915261,1991.848295
504.356010,5255.462188,-9622.677246,-612.876398
504.356332,1554.432478,-10510.924376,-1302.362347
504.356654,-3627.009116,-9622.677246,612.876398
504.356977,-6587.832884,-7772.162391,536.266849
504.357299,-6439.791695,-8290.306550,-4060.306139
504.357621,-5255.462188,-10658.965565,-6894.859482
504.357944,-5847.626942,-10510.924376,-4826.401637
504.358266,-5699.585753,-11251.130318,-612.876398
504.358588,-3330.926739,-13249.686362,-1149.143247
504.358911,-962.267725,-16284.530724,-3524.039291
504.359233,-518.144159,-15766.386565,-3294.210641
504.359555,-888.247130,-11177.109724,-689.485948
504.359878,592.164754,-5773.606348,-842.705048
504.360200,3627.009116,-5403.503377,-3447.429741
504.360522,5477.523971,-5699.585753,-2834.553343
504.360845,5551.544565,-4811.338623,689.485948
504.361167,5033.400406,-3997.112087,2911.162892
504.361489,5329.482782,-7105.977043,1532.190996
504.361812,4367.215058,-10214.842000,-1225.752797
504.362134,814.226536,-10584.944971,-1991.848295
504.362456,-3849.070898,-8438.347739,536.266849
504.362779,-6069.688724,-7624.121203,689.485948
504.363101,-5329.482782,-9326.594869,-2987.772442
504.363423,-4219.173869,-10510.924376,-5286.058936
504.363746,-4959.379811,-10510.924376,-3753.867940
504.364068,-5329.482782,-9770.718434,-153.219100
504.364390,-3478.967927,-12731.542202,-919.314598
504.364713,-962.267725,-15470.304188,-3294.210641
504.365035,-592.164754,-13545.768739,-2911.162892
504.365357,-666.185348,-9178.553681,-459.657299
504.365680,962.267725,-7105.977043,689.485948
504.366002,3849.070898,-6661.853478,-1378.971896
504.366324,5477.523971,-5773.606348,-2757.943793
504.366646,5033.400406,-3997.112087,-842.705048
504.366969,4885.359217,-5477.523971,1608.800546
504.367291,4959.379811,-8586.388927,766.095498
504.367613,2442.679609,-10732.986159,-1608.800546
504.367936,-2294.638420,-10288.862594,-1685.410096
504.368258,-6439.791695,-9030.512492,0.000000
504.368580,-7179.997637,-9400.615463,-1991.848295
504.368903,-5699.585753,-10510.924376,-5592.497135
504.369225,-5477.523971,-10807.006753,-6052.154434
504.369547,-5625.565159,-9474.636058,-2068.457845
504.369870,-4145.153275,-10140.821405,459.657299
504.370192,-1776.494261,-13767.830521,-2068.457845
504.370514,-962.267725,-15174.221811,-3524.039291
504.370837,-1998.556043,-12065.356855,-1991.848295
504.371159,-1554.432478,-8290.306550,-229.828649
504.371481,1110.308913,-7105.977043,-1225.752797
504.371804,4737.318029,-7550.100608,-2528.115143
504.372126,6513.812290,-6217.729913,-1915.238745
504.372448,7105.977043,-4737.318029,459.657299
504.372771,7254.018232,-6587.832884,1455.581446
504.373093,5921.647536,-9770.718434,0.000000
504.373415,2072.576638,-11029.068536,-1685.410096
504.373738,-2886.803174,-10881.027347,-1455.581446
504.374060,-5773.606348,-10140.821405,-306.438199
504.374382,-6291.750507,-9474.636058,-2757.943793
504.374705,-6587.832884,-9178.553681,-6205.373534
504.375027,-7105.977043,-9474.636058,-4136.915689
504.375349,-5699.585753,-9326.594869,383.047749
504.375672,-2812.782580,-10881.027347,-1225.752797
504.375994,222.061783,-13915.871710,-4366.744339
504.376316,814.226536,-14508.036463,-2757.943793
504.376639,296.082377,-10955.047942,536.266849
504.376961,1850.514855,-7179.997637,1149.143247
504.377283,4663.297435,-6661.853478,-1838.629195
504.377606,6735.874072,-6957.935855,-3447.429741
504.377928,5625.565159,-5477.523971,-1225.752797
504.378250,3775.050304,-3256.906145,2604.724693
504.378573,3108.864956,-5033.400406,2068.457845
504.378895,3404.947333,-10362.883188,-2298.286494
504.379217,592.164754,-12731.542202,-3217.601092
504.379540,-4219.173869,-10658.965565,-842.705048
504.379862,-7402.059420,-8660.409521,0.000000
504.380184,-6957.935855,-9770.718434,-2604.724693
504.380507,-6217.729913,-11177.109724,-5056.230287
504.380829,-7105.977043,-10066.800811,-3677.258390
504.381151,-8142.265362,-9400.615463,-1302.362347
504.381474,-5329.482782,-12065.356855,-2145.067394
504.381796,-1258.350101,-15174.221811,-4290.134789
504.382118,0.000000,-13693.809927,-2451.505594
504.382441,592.164754,-8808.450710,-383.047749
504.382763,2812.782580,-7402.059420,689.485948
504.383085,5995.668130,-8068.244768,-1149.143247
504.383408,6957.935855,-7846.182985,-2528.115143
504.383730,5477.523971,-5329.482782,-383.047749
504.384052,4885.359217,-4293.194464,1608.800546
504.384374,5477.523971,-6439.791695,459.657299
504.384697,4071.132681,-9474.636058,-1532.190996
504.385019,0.000000,-10807.006753,-229.828649
504.385341,-4071.132681,-8438.347739,1149.143247
504.385664,-5625.565159,-8438.347739,-1608.800546
504.385986,-5403.503377,-9844.739029,-3830.477490
504.386308,-5921.647536,-11399.171507,-5056.230287
504.386631,-6513.812290,-10807.006753,-3064.381992
504.386953,-6217.729913,-9474.636058,383.047749
504.387275,-2886.803174,-12435.459826,-1149.143247
504.387598,-296.082377,-14137.933492,-4290.134789
504.387920,-666.185348,-12139.377449,-2528.115143
504.388242,-1628.453072,-8290.306550,229.828649
504.388565,444.123565,-7254.018232,-459.657299
504.388887,4367.215058,-8068.244768,-2911.162892
504.389209,5995.668130,-6809.894666,-2987.772442
504.389532,4959.379811,-4515.256246,-689.485948
504.389854,4071.132681,-5255.462188,1915.238745
504.390176,3701.029710,-8512.368333,229.828649
504.390499,1924.535449,-10881.027347,-2834.553343
504.390821,-2146.597232,-10214.842000,-2987.772442
504.391143,-5181.441594,-9696.697840,-383.047749
504.391466,-5995.668130,-9548.656652,-842.705048
504.391788,-4885.359217,-10140.821405,-3830.477490
504.392110,-4367.215058,-11399.171507,-4903.011187
504.392433,-3775.050304,-10140.821405,-1302.362347
504.392755,-2442.679609,-8586.388927,153.219100
504.393077,-444.123565,-10881.027347,-3140.991542
504.393400,1258.350101,-14211.954086,-3753.867940
504.393722,1036.288319,-12583.501014,-766.095498
504.394044,444.123565,-9030.512492,383.047749
504.394367,1998.556043,-8290.306550,-459.657299
504.394689,3775.050304,-8882.471304,-2604.724693
504.395011,4219.173869,-6587.832884,-3064.381992
504.395334,3552.988522,-4367.215058,-612.876398
504.395656,3404.947333,-4959.379811,459.657299
504.395978,2812.782580,-9030.512492,-1302.362347
504.396301,666.185348,-10955.047942,-2374.896044
504.396623,-4071.132681,-9770.718434,-1608.800546
504.396945,-7105.977043,-9622.677246,-1685.410096
504.397268,-5773.606348,-11177.109724,-3830.477490
504.397590,-3775.050304,-12583.501014,-5515.887586
504.397912,-3923.091493,-10510.924376,-3524.039291
504.398235,-4293.194464,-9104.533087,919.314598
504.398557,-3182.885551,-9252.574275,1378.971896
504.398879,-1702.473667,-12065.356855,-2374.896044
504.399202,-2442.679609,-12287.418637,-3140.991542
504.399524,-3478.967927,-9548.656652,-1149.143247
504.399846,-1332.370696,-7772.162391,-612.876398
504.400169,2368.659014,-8438.347739,-1072.533697
504.400491,5181.441594,-7994.224174,-995.924147
504.400813,5699.585753,-5699.585753,76.609550
504.401136,5625.565159,-4071.132681,1149.143247
504.401458,6143.709319,-6365.771101,0.000000
504.401780,4885.359217,-10288.862594,-2757.943793
504.402103,740.205942,-11621.233289,-2987.772442
504.402425,-3478.967927,-11177.109724,153.219100
504.402747,-4145.153275,-10436.903782,536.266849
504.403069,-2442.679609,-11103.089130,-3370.820191
504.403392,-1924.535449,-11177.109724,-4366.744339
504.403714,-2368.659014,-9326.594869,-689.485948
504.404036,-2664.741391,-7328.038826,1991.848295
504.404359,-1258.350101,-9252.574275,76.609550
504.404681,-666.185348,-11843.295072,-2374.896044
504.405003,-2442.679609,-11029.068536,-1915.238745
504.405326,-3330.926739,-8142.265362,-842.705048
504.405648,-1184.329507,-7698.141797,-459.657299
504.405970,2072.576638,-8882.471304,-2145.067394
504.406293,4293.194464,-7698.141797,-2145.067394
504.406615,4293.194464,-6439.791695,-689.485948
504.406937,3849.070898,-6439.791695,1149.143247
504.407260,3404.947333,-9252.574275,-1455.581446
504.407582,1258.350101,-11621.233289,-4519.963438
504.407904,-2960.823768,-11029.068536,-4366.744339
504.408227,-5699.585753,-10140.821405,-1378.971896
504.408549,-5181.441594,-10066.800811,-1991.848295
504.408871,-3478.967927,-10955.047942,-4443.353888
504.409194,-3256.906145,-10214.842000,-3753.867940
504.409516,-3627.009116,-8512.368333,-459.657299
504.409838,-2590.720797,-7624.121203,689.485948
504.410161,-740.205942,-10584.944971,-1225.752797
504.410483,-296.082377,-12583.501014,-3064.381992
504.410805,-1628.453072,-10066.800811,-1302.362347
504.411128,-1850.514855,-6883.915261,1532.190996
504.411450,1332.370696,-7179.997637,-229.828649
504.411772,4737.318029,-8216.285956,-3983.696590
504.412095,5329.482782,-8586.388927,-3677.258390
504.412417,4293.194464,-6809.894666,0.000000
504.412739,3627.009116,-6587.832884,1302.362347
504.413062,3701.029710,-8586.388927,-2451.505594
504.413384,592.164754,-10362.883188,-5822.325785
504.413706,-4737.318029,-10881.027347,-4213.525239
504.414029,-8216.285956,-9770.718434,-1838.629195
504.414351,-7624.121203,-10288.862594,-3217.601092
504.414673,-5847.626942,-11029.068536,-6435.202183
504.414995,-4589.276840,-11103.089130,-5439.278036
504.415318,-4219.173869,-10140.821405,536.266849
504.415640,-2516.700203,-10362.883188,1225.752797
504.415962,-1258.350101,-11843.295072,-1608.800546
504.416284,-814.226536,-11695.253884,-2604.724693
504.416607,-1406.391290,-7920.203579,-919.314598
504.416929,-888.247130,-5477.523971,-153.219100
504.417251,1998.556043,-7105.977043,-842.705048
504.417573,4959.379811,-8956.491898,-2221.676944
504.417896,6069.688724,-8660.409521,-766.095498
504.418218,6513.812290,-7105.977043,2221.676944
504.418540,6883.915261,-7846.182985,1455.581446
504.418862,6069.688724,-10955.047942,-2681.334243
504.419185,3034.844362,-11917.315666,-3064.381992
504.419507,-2294.638420,-9474.636058,-689.485948
504.419829,-5033.400406,-8290.306550,-1072.533697
504.420152,-3923.091493,-9992.780217,-4903.011187
504.420474,-2664.741391,-11695.253884,-5515.887586
504.420796,-3330.926739,-10881.027347,-1225.752797
504.421118,-2812.782580,-10436.903782,1991.848295
504.421441,-888.247130,-11251.130318,919.314598
504.421763,222.061783,-12213.398043,-1455.581446
504.422085,-888.247130,-10658.965565,-1149.143247
504.422407,-2812.782580,-7550.100608,1149.143247
504.422730,-1924.535449,-5551.544565,612.876398
504.423052,1628.453072,-6365.771101,-2451.505594
504.423374,3849.070898,-7476.080014,-2221.676944
504.423696,3997.112087,-6513.812290,1608.800546
504.424019,3997.112087,-5181.441594,2834.553343
504.424341,4071.132681,-7179.997637,-383.047749
504.424663,3552.988522,-11029.068536,-3447.429741
504.424985,592.164754,-11695.253884,-3064.381992
504.425308,-3997.112087,-8808.450710,-1532.190996
504.425630,-5995.668130,-8364.327145,-1991.848295
504.425952,-5107.421000,-11103.089130,-3447.429741
504.426274,-3330.926739,-12065.356855,-4673.182538
504.426597,-3404.947333,-10955.047942,-2604.724693
504.426919,-3849.070898,-9474.636058,306.438199
504.427241,-2368.659014,-11399.171507,153.219100
504.427563,-740.205942,-11769.274478,-1225.752797
504.427886,-1702.473667,-10584.944971,-1455.581446
504.428208,-2886.803174,-7402.059420,0.000000
504.428530,-1110.308913,-5847.626942,-612.876398
504.428852,2738.761985,-6217.729913,-3370.820191
504.429175,5107.421000,-7105.977043,-3907.087040
504.429497,5181.441594,-6661.853478,-536.266849
504.429819,5255.462188,-7031.956449,1455.581446
504.430141,4885.359217,-8734.430116,-459.657299
504.430464,2442.679609,-11695.253884,-4213.525239
504.430786,-1776.494261,-12287.418637,-5056.230287
504.431108,-5551.544565,-10881.027347,-3140.991542
504.431430,-6587.832884,-10140.821405,-3600.648841
504.431753,-4811.338623,-11251.130318,-5592.497135
504.432075,-3182.885551,-11695.253884,-5439.278036
504.432397,-1554.432478,-11399.171507,-2068.457845
504.432719,-1406.391290,-9474.636058,1302.362347
504.433042,-592.164754,-10732.986159,153.219100
504.433364,-296.082377,-11917.315666,-2451.505594
504.433686,-1332.370696,-9030.512492,-2221.676944
504.434008,-1924.535449,-6513.812290,0.000000
504.434331,444.123565,-6217.729913,-612.876398
504.434653,4367.215058,-7846.182985,-2221.676944
504.434975,5699.585753,-7476.080014,-2451.505594
504.435297,5403.503377,-6513.812290,153.219100
504.435620,4663.297435,-8586.388927,1378.971896
504.435942,4145.153275,-11103.089130,-1532.190996
504.436264,592.164754,-12435.459826,-3907.087040
504.436586,-4293.194464,-11399.171507,-3524.039291
504.436909,-7328.038826,-9622.677246,-2374.896044
504.437231,-6883.915261,-10140.821405,-3753.867940
504.437553,-4811.338623,-10510.924376,-5132.839837
504.437875,-3552.988522,-10066.800811,-2451.505594
504.438198,-2886.803174,-8808.450710,536.266849
504.438520,-1110.308913,-8660.409521,766.095498
504.438842,222.061783,-10881.027347,-919.314598
504.439164,-888.247130,-11547.212695,-612.876398
504.439487,-2664.741391,-7920.203579,842.705048
504.439809,-2146.597232,-5107.421000,842.705048
504.440131,888.247130,-5699.585753,-1532.190996
504.440453,3404.947333,-6883.915261,-1685.410096
504.440776,4441.235652,-7105.977043,0.000000
504.441098,4737.318029,-6883.915261,1915.238745
504.441420,5699.585753,-8512.368333,76.609550
504.441743,5033.400406,-11251.130318,-2987.772442
504.442065,1258.350101,-13027.624579,-3753.867940
504.442387,-3627.009116,-11695.253884,-1838.629195
504.442709,-6291.750507,-10066.800811,-1608.800546
504.443032,-4663.297435,-10140.821405,-3830.477490
504.443354,-2812.782580,-10732.986159,-5515.887586
504.443676,-2812.782580,-9622.677246,-2221.676944
504.443998,-2590.720797,-8364.327145,1685.410096
504.444321,-1480.411884,-9474.636058,1685.410096
504.444643,-592.164754,-11473.192101,-1225.752797
504.444965,-1924.535449,-10732.986159,-1838.629195
504.445287,-2146.597232,-7328.038826,-995.924147
504.445610,370.102971,-6809.894666,-1608.800546
504.445932,4441.235652,-8734.430116,-2068.457845
504.446254,6217.729913,-8068.244768,-383.047749
504.446576,6735.874072,-5847.626942,459.657299
504.446899,6365.771101,-5625.565159,1149.143247
504.447221,6587.832884,-10066.800811,-2145.067394
504.447543,3775.050304,-13471.748144,-4903.011187
504.447865,-1924.535449,-13101.645173,-3217.601092
504.448188,-6587.832884,-10066.800811,-306.438199
504.448510,-7328.038826,-8364.327145,-1838.629195
504.448832,-4515.256246,-10140.821405,-5745.716235
504.449154,-2664.741391,-11473.192101,-5669.106685
504.449477,-3701.029710,-8586.388927,-1915.238745
504.449799,-3775.050304,-8808.450710,1838.629195
504.450121,-1110.308913,-11103.089130,536.266849
504.450443,-222.061783,-12435.459826,-2451.505594
504.450766,-1998.556043,-10288.862594,-2987.772442
504.451088,-3034.844362,-6809.894666,-536.266849
504.451410,-148.041188,-6439.791695,153.219100
504.451732,3330.926739,-7328.038826,-2604.724693
504.452055,4885.359217,-7550.100608,-1455.581446
504.452377,4885.359217,-6809.894666,1302.362347
504.452699,4811.338623,-7624.121203,1149.143247
504.453021,4737.318029,-10436.903782,-1149.143247
504.453344,2442.679609,-11917.315666,-3294.210641
504.453666,-2738.761985,-9992.780217,-2834.553343
504.453988,-6587.832884,-8808.450710,-1532.190996
504.454310,-6957.935855,-9696.697840,-2298.286494
504.454633,-5477.523971,-10955.047942,-4673.182538
504.454955,-4737.318029,-10955.047942,-5209.449386
504.455277,-5329.482782,-9844.739029,-1991.848295
504.455599,-3923.091493,-10658.965565,383.047749
504.455922,-1184.329507,-12879.583391,-842.705048
504.456244,-814.226536,-12805.562797,-2374.896044
504.456566,-1924.535449,-9474.636058,-1225.752797
504.456888,-814.226536,-6661.853478,-689.485948
504.457211,2590.720797,-7550.100608,-2068.457845
504.457533,4737.318029,-8512.368333,-2221.676944
504.457855,4589.276840,-7254.018232,-306.438199
504.458177,3849.070898,-5921.647536,1838.629195
504.458500,4515.256246,-6661.853478,766.095498
504.458822,4737.318029,-10288.862594,-2221.676944
504.459144,1258.350101,-11621.233289,-3600.648841
504.459466,-3701.029710,-9252.574275,-1762.019645
504.459789,-5255.462188,-8290.306550,-1072.533697
504.460111,-3182.885551,-10214.842000,-3447.429741
504.460433,-2072.576638,-11177.109724,-4673.182538
504.460755,-3404.947333,-10066.800811,-2451.505594
504.461078,-3701.029710,-9400.615463,0.000000
504.461400,-1850.514855,-10955.047942,-383.047749
504.461722,0.000000,-13323.706956,-2528.115143
504.462044,-888.247130,-11843.295072,-2451.505594
504.462367,-2294.638420,-8586.388927,-612.876398
504.462689,-444.123565,-6735.874072,-306.438199
504.463011,3256.906145,-7402.059420,-1838.629195
504.463334,5181.441594,-7994.224174,-2221.676944
504.463656,4811.338623,-7105.977043,0.000000
504.463978,4367.215058,-6217.729913,1991.848295
504.464300,5033.400406,-7698.141797,766.095498
504.464623,4367.215058,-9992.780217,-2757.943793
504.464945,518.144159,-10807.006753,-3370.820191
504.465267,-3034.844362,-9770.718434,-1149.143247
504.465589,-4367.215058,-9400.615463,-995.924147
504.465912,-3182.885551,-10732.986159,-2298.286494
504.466234,-3108.864956,-10658.965565,-2911.162892
504.466556,-3775.050304,-9696.697840,-2451.505594
504.466878,-3701.029710,-8660.409521,-1149.143247
504.467201,-2368.659014,-10584.944971,-1225.752797
504.467523,-1332.370696,-12583.501014,-1838.629195
504.467845,-2294.638420,-10955.047942,-1225.752797
504.468167,-2516.700203,-7254.018232,0.000000
504.468490,-666.185348,-6143.709319,-689.485948
504.468812,2072.576638,-7402.059420,-1225.752797
504.469134,3034.844362,-7031.956449,-1532.190996
504.469456,3627.009116,-5921.647536,-1455.581446
504.469779,3923.091493,-6217.729913,-306.438199
504.470101,4145.153275,-8660.409521,-612.876398
504.470423,1998.556043,-11621.233289,-2987.772442
504.470745,-2442.679609,-11917.315666,-2911.162892
504.471068,-6291.750507,-10881.027347,-1915.238745
504.471390,-6217.729913,-11325.150913,-2757.943793
504.471712,-4219.173869,-11843.295072,-4673.182538
504.472034,-3478.967927,-10955.047942,-4060.306139
504.472357,-3997.112087,-9622.677246,-1608.800546
504.472679,-2590.720797,-9844.739029,995.924147
504.473001,-814.226536,-11029.068536,0.000000
504.473323,-1184.329507,-10658.965565,-1302.362347
504.473646,-3108.864956,-8068.244768,-1378.971896
504.473968,-2516.700203,-6587.832884,-995.924147
504.474290,1184.329507,-7254.018232,-1378.971896
504.474612,4589.276840,-8216.285956,-1378.971896
504.474935,5403.503377,-7550.100608,-1149.143247
504.475257,5773.606348,-7105.977043,-153.219100
504.475579,6069.688724,-7476.080014,0.000000
504.475901,5403.503377,-9770.718434,-2298.286494
504.476224,2072.576638,-12953.603985,-4596.572988
504.476546,-3330.926739,-12731.542202,-3447.429741
504.476868,-7031.956449,-10955.047942,-2528.115143
504.477190,-6661.853478,-11621.233289,-3370.820191
504.477513,-4811.338623,-12435.459826,-4903.011187
504.477835,-4293.194464,-11251.130318,-3217.601092
504.478157,-3997.112087,-7846.182985,153.219100
504.478479,-2368.659014,-7476.080014,1455.581446
504.478802,-296.082377,-8956.491898,-612.876398
504.479124,-148.041188,-9252.574275,-1991.848295
504.479446,-1406.391290,-7328.038826,-536.266849
504.479768,-296.082377,-6217.729913,689.485948
504.480091,2960.823768,-7476.080014,0.000000
504.480413,5699.585753,-8290.306550,-1302.362347
504.480735,5921.647536,-7476.080014,-306.438199
504.481057,5773.606348,-7402.059420,919.314598
504.481380,5551.544565,-8660.409521,-306.438199
504.481702,4885.359217,-10510.924376,-2757.943793
504.482024,1628.453072,-11399.171507,-4749.792088
504.482346,-2886.803174,-11325.150913,-3294.210641
504.482669,-5921.647536,-11177.109724,-1072.533697
504.482991,-6143.709319,-12065.356855,-1838.629195
504.483313,-5403.503377,-11917.315666,-3983.696590
504.483636,-6143.709319,-9622.677246,-3830.477490
504.483958,-5699.585753,-7920.203579,-919.314598
504.484280,-3627.009116,-8438.347739,0.000000
504.484602,-888.247130,-9474.636058,-306.438199
504.484925,-518.144159,-8290.306550,-2298.286494
504.485247,222.061783,-7328.038826,-1378.971896
504.485569,2220.617826,-8512.368333,-383.047749
504.485891,4737.318029,-9474.636058,-766.095498
504.486214,5773.606348,-9474.636058,-2145.067394
504.486536,5181.441594,-8512.368333,-689.485948
504.486858,5329.482782,-7846.182985,919.314598
504.487180,5551.544565,-7550.100608,-1302.362347
504.487503,3256.906145,-9474.636058,-3600.648841
504.487825,-1258.350101,-11103.089130,-3447.429741
504.488147,-5403.503377,-10066.800811,-1302.362347
504.488469,-7254.018232,-9178.553681,-1378.971896
504.488792,-6957.935855,-11103.089130,-3830.477490
504.489114,-6365.771101,-12953.603985,-4903.011187
504.489436,-6883.915261,-10362.883188,-2145.067394
504.489758,-6439.791695,-7698.141797,689.485948
504.490081,-3997.112087,-9474.636058,-612.876398
504.490403,-1776.494261,-11177.109724,-2145.067394
504.490725,-1850.514855,-8734.430116,-2145.067394
504.491047,-1702.473667,-6143.709319,-995.924147
504.491370,1628.453072,-7254.018232,-689.485948
504.491692,5625.565159,-9548.656652,-1838.629195
504.492014,6883.915261,-9474.636058,-2451.505594
504.492336,6291.750507,-8216.285956,0.000000
504.492659,6365.771101,-8290.306550,1455.581446
504.492981,5847.626942,-9474.636058,-612.876398
504.493303,2072.576638,-9474.636058,-2757.943793
504.493625,-3330.926739,-9400.615463,-2374.896044
504.493948,-6587.832884,-9548.656652,-1378.971896
504.494270,-6291.750507,-10066.800811,-1685.410096
504.494592,-4737.318029,-10362.883188,-3064.381992
504.494914,-4737.318029,-10584.944971,-2604.724693
504.495237,-4515.256246,-9030.512492,229.828649
504.495559,-2886.803174,-8734.430116,612.876398
504.495881,-1480.411884,-11103.089130,-1225.752797
504.496203,-2220.617826,-11991.336260,-1685.410096
504.496526,-2664.741391,-9104.533087,-1838.629195
504.496848,-888.247130,-6587.832884,-1915.238745
504.497170,2442.679609,-7624.121203,-1762.019645
504.497492,5255.462188,-9178.553681,-995.924147
504.497815,5403.503377,-8290.306550,-995.924147
504.498137,5033.400406,-6735.874072,-229.828649
504.498459,5107.421000,-7105.977043,-1149.143247
504.498781,4219.173869,-9696.697840,-2757.943793
504.499104,740.205942,-11177.109724,-4366.744339
504.499426,-4515.256246,-9770.718434,-2834.553343
504.499748,-7105.977043,-9474.636058,-1762.019645
504.500070,-5329.482782,-11103.089130,-2757.943793
504.500393,-3849.070898,-12361.439231,-4136.915689
504.500715,-3552.988522,-11177.109724,-2374.896044
504.501037,-3701.029710,-8808.450710,766.095498
504.501359,-1628.453072,-9622.677246,842.705048
504.501682,370.102971,-11029.068536,-995.924147
504.502004,296.082377,-10436.903782,-2528.115143
504.502326,-592.164754,-8438.347739,-1532.190996
504.502648,740.205942,-7179.997637,0.000000
504.502971,3997.112087,-7698.141797,-689.485948
504.503293,5329.482782,-8290.306550,-2221.676944
504.503615,4663.297435,-7254.018232,-459.657299
504.503937,4219.173869,-6365.771101,536.266849
504.504260,4663.297435,-7402.059420,-1685.410096
504.504582,2960.823768,-9844.739029,-4213.525239
504.504904,-962.267725,-10584.944971,-3983.696590
504.505227,-5551.544565,-9918.759623,-1915.238745
504.505549,-7624.121203,-9696.697840,-1532.190996
504.505871,-6291.750507,-11991.336260,-4290.134789
504.506193,-5255.462188,-12509.480420,-5362.668486
504.506516,-4589.276840,-10732.986159,-2298.286494
504.506838,-4293.194464,-8438.347739,612.876398
504.507160,-2368.659014,-9622.677246,1455.581446
504.507482,-1110.308913,-10362.883188,-842.705048
504.507805,-1776.494261,-8734.430116,-2604.724693
504.508127,-2072.576638,-5995.668130,-1991.848295
504.508449,592.164754,-6069.688724,-459.657299
504.508771,4219.173869,-7476.080014,-919.314598
504.509094,6513.812290,-8586.388927,-1225.752797
504.509416,6513.812290,-8364.327145,766.095498
504.509738,6661.853478,-8290.306550,2451.505594
504.510060,6587.832884,-8438.347739,-153.219100
504.510383,4589.276840,-9622.677246,-3983.696590
504.510705,0.000000,-9622.677246,-3524.039291
504.511027,-4589.276840,-9326.594869,-1608.800546
504.511349,-6809.894666,-9770.718434,-1762.019645
504.511672,-6291.750507,-12361.439231,-3064.381992
504.511994,-5995.668130,-13101.645173,-3370.820191
504.512316,-6957.935855,-9918.759623,-2145.067394
504.512638,-5847.626942,-9326.594869,-229.828649
504.512961,-3404.947333,-11695.253884,-153.219100
504.513283,-2294.638420,-11843.295072,-1991.848295
504.513605,-2738.761985,-8068.244768,-2068.457845
504.513927,-1776.494261,-4885.359217,-1225.752797
504.514250,2072.576638,-6217.729913,-2528.115143
504.514572,5921.647536,-8734.430116,-3907.087040
504.514894,6661.853478,-10436.903782,-1991.848295
504.515216,5995.668130,-9622.677246,1608.800546
504.515539,6513.812290,-8734.430116,2374.896044
504.515861,6957.935855,-8808.450710,-1532.190996
504.516183,4219.173869,-9992.780217,-4443.353888
504.516505,-444.123565,-9844.739029,-3217.601092
504.516828,-4885.359217,-8216.285956,-919.314598
504.517150,-5847.626942,-8808.450710,-1608.800546
504.517472,-4737.318029,-11547.212695,-3600.648841
504.517794,-4811.338623,-12065.356855,-2757.943793
504.518117,-5773.606348,-9474.636058,-229.828649
504.518439,-4515.256246,-9030.512492,459.657299
504.518761,-1702.473667,-10881.027347,-1685.410096
504.519083,222.061783,-11251.130318,-1915.238745
504.519406,-148.041188,-7846.182985,-1149.143247
504.519728,0.000000,-5921.647536,76.609550
504.520050,2590.720797,-7105.977043,-689.485948
504.520373,5403.503377,-9252.574275,-3140.991542
504.520695,5625.565159,-9326.594869,-3140.991542
504.521017,4441.235652,-7920.203579,-229.828649
504.521339,4219.173869,-7402.059420,1149.143247
504.521662,4145.153275,-9548.656652,-2068.457845
504.521984,1628.453072,-11029.068536,-3983.696590
504.522306,-3108.864956,-9622.677246,-2221.676944
504.522628,-6513.812290,-7698.141797,-1608.800546
504.522951,-6439.791695,-9770.718434,-2987.772442
504.523273,-5995.668130,-11843.295072,-4136.915689
504.523595,-6291.750507,-11695.253884,-2374.896044
504.523917,-6439.791695,-9474.636058,0.000000
504.524240,-4145.153275,-10510.924376,0.000000
504.524562,-1776.494261,-11769.274478,-1915.238745
504.524884,-888.247130,-10510.924376,-2374.896044
504.525206,-1480.411884,-6587.832884,-1302.362347
504.525529,666.185348,-5773.606348,-842.705048
504.525851,4071.132681,-7698.141797,-1532.190996
504.526173,5477.523971,-8734.430116,-2451.505594
504.526495,4589.276840,-7402.059420,-995.924147
504.526818,4219.173869,-7031.956449,536.266849
504.527140,4737.318029,-8438.347739,76.609550
504.527462,3701.029710,-10807.006753,-2604.724693
504.527784,0.000000,-11991.336260,-3370.820191
504.528107,-5033.400406,-10214.842000,-689.485948
504.528429,-7550.100608,-8882.471304,-612.876398
504.528751,-6735.874072,-9622.677246,-3447.429741
504.529073,-5403.503377,-11251.130318,-6128.763984
504.529396,-5329.482782,-10288.862594,-3753.867940
504.529718,-3849.070898,-9104.533087,383.047749
504.530040,-1406.391290,-10658.965565,0.000000
504.530362,296.082377,-12657.521608,-689.485948
504.530685,296.082377,-10362.883188,0.000000
504.531007,740.205942,-6587.832884,-995.924147
504.531329,3552.988522,-6143.709319,-1455.581446
504.531652,6365.771101,-7105.977043,-1762.019645
504.531974,6809.894666,-6883.915261,-1455.581446
504.532296,6291.750507,-6143.709319,0.000000
504.532618,6439.791695,-6735.874072,1378.971896
504.532941,6143.709319,-8438.347739,-459.657299
504.533263,3256.906145,-11843.295072,-3217.601092
504.533585,-1480.411884,-12731.542202,-2604.724693
504.533907,-5477.523971,-10066.800811,-842.705048
504.534230,-6069.688724,-8512.368333,-2834.553343
504.534552,-3849.070898,-10288.862594,-6128.763984
504.534874,-2590.720797,-11473.192101,-4826.401637
504.535196,-3330.926739,-9548.656652,-995.924147
504.535519,-2960.823768,-9400.615463,383.047749
504.535841,-1924.535449,-12509.480420,-153.219100
504.536163,-1480.411884,-14804.118840,-1072.533697
504.536485,-2368.659014,-11399.171507,-842.705048
504.536808,-1850.514855,-6735.874072,-766.095498
504.537130,1850.514855,-5921.647536,-1532.190996
504.537452,5625.565159,-5847.626942,-1838.629195
504.537774,6883.915261,-4811.338623,-995.924147
504.538097,5329.482782,-4663.297435,1532.190996
504.538419,4219.173869,-5847.626942,1608.800546
504.538741,4367.215058,-10584.944971,-2604.724693
504.539063,1110.308913,-13989.892304,-5515.887586
504.539386,-4145.153275,-13767.830521,-2911.162892
504.539708,-7772.162391,-11251.130318,-766.095498
504.540030,-7550.100608,-10732.986159,-2451.505594
504.540352,-4959.379811,-11325.150913,-4673.182538
504.540675,-6365.771101,-9474.636058,-4213.525239
504.540997,-6069.688724,-7476.080014,-1302.362347
504.541319,-4293.194464,-9252.574275,-383.047749
504.541642,-1258.350101,-13249.686362,-1225.752797
504.541964,-740.205942,-12435.459826,-919.314598
504.542286,-1924.535449,-8956.491898,1072.533697
504.542608,-814.226536,-6217.729913,1149.143247
504.542931,2960.823768,-6069.688724,-919.314598
504.543253,5033.400406,-6217.729913,-2374.896044
504.543575,4737.318029,-5625.565159,-1455.581446
504.543897,4515.256246,-6291.750507,1072.533697
504.544220,5255.462188,-8068.244768,612.876398
504.544542,4811.338623,-11103.089130,-2221.676944
504.544864,1258.350101,-13175.665768,-3217.601092
504.545186,-3256.906145,-11177.109724,-1762.019645
504.545509,-5329.482782,-9400.615463,-2374.896044
504.545831,-5477.523971,-9400.615463,-4136.915689
504.546153,-4885.359217,-10214.842000,-5592.497135
504.546475,-5255.462188,-8882.471304,-3600.648841
504.546798,-4885.359217,-7476.080014,-459.657299
504.547120,-2664.741391,-10658.965565,-383.047749
504.547442,-1332.370696,-13841.851115,-1149.143247
504.547764,-1924.535449,-12361.439231,-229.828649
504.548087,-2072.576638,-8068.244768,-383.047749
504.548409,1036.288319,-6587.832884,-919.314598
504.548731,5181.441594,-7179.997637,-1838.629195
504.549053,7550.100608,-6365.771101,-3064.381992
504.549376,6143.709319,-5329.482782,-766.095498
504.549698,6217.729913,-6587.832884,2298.286494
504.550020,6735.874072,-9474.636058,919.314598
504.550342,4589.276840,-11843.295072,-3677.258390
504.550665,-518.144159,-12065.356855,-4596.572988
504.550987,-4589.276840,-10436.903782,-2145.067394
504.551309,-5329.482782,-9252.574275,-2145.067394
504.551632,-3701.029710,-10140.821405,-4673.182538
504.551954,-2886.803174,-10436.903782,-4826.401637
504.552276,-3330.926739,-8438.347739,-2221.676944
504.552598,-2516.700203,-8956.491898,459.657299
504.552921,-1184.329507,-11843.295072,459.657299
504.553243,-1332.370696,-13693.809927,-1532.190996
504.553565,-3034.844362,-10955.047942,-2221.676944
504.553887,-2516.700203,-7031.956449,-383.047749
504.554210,0.000000,-5625.565159,0.000000
504.554532,3256.906145,-7031.956449,-1991.848295
504.554854,3478.967927,-6661.853478,-2298.286494
504.555176,3404.947333,-7031.956449,0.000000
504.555499,4515.256246,-8512.368333,919.314598
504.555821,5181.441594,-9992.780217,-1149.143247
504.556143,2590.720797,-12509.480420,-3983.696590
504.556465,-2146.597232,-11399.171507,-3294.210641
504.556788,-5107.421000,-8882.471304,-1225.752797
504.557110,-4885.359217,-8438.347739,-2221.676944
504.557432,-3478.967927,-10436.903782,-4903.011187
504.557754,-3701.029710,-11029.068536,-4443.353888
504.558077,-4441.235652,-8956.491898,0.000000
504.558399,-3330.926739,-8956.491898,1915.238745
504.558721,-1850.514855,-12879.583391,0.000000
504.559043,-1850.514855,-14211.954086,-1685.410096
504.559366,-3034.844362,-9400.615463,0.000000
504.559688,-2368.659014,-5033.400406,-153.219100
504.560010,1850.514855,-5995.668130,-1532.190996
504.560332,4441.235652,-7402.059420,-3064.381992
504.560655,3923.091493,-6883.915261,-2145.067394
504.560977,3404.947333,-6735.874072,459.657299
504.561299,4811.338623,-8586.388927,766.095498
504.561621,4737.318029,-11325.150913,-2681.334243
504.561944,1110.308913,-11917.315666,-4596.572988
504.562266,-3997.112087,-10436.903782,-2298.286494
504.562588,-5699.585753,-9178.553681,-1302.362347
504.562911,-3997.112087,-9474.636058,-3294.210641
504.563233,-3701.029710,-9992.780217,-5975.544884
504.563555,-4071.132681,-9992.780217,-3600.648841
504.563877,-3330.926739,-9622.677246,536.266849
504.564200,-740.205942,-11399.171507,766.095498
504.564522,370.102971,-13989.892304,0.000000
504.564844,-1332.370696,-12731.542202,383.047749
504.565166,-2664.741391,-7105.977043,459.657299
504.565489,-740.205942,-3404.947333,-1838.629195
504.565811,2812.782580,-5329.482782,-2987.772442
504.566133,4959.379811,-7105.977043,-3064.381992
504.566455,4589.276840,-6883.915261,-842.705048
504.566778,4737.318029,-6587.832884,2068.457845
504.567100,5995.668130,-9252.574275,766.095498
504.567422,5551.544565,-12805.562797,-2681.334243
504.567744,1480.411884,-12805.562797,-4749.792088
504.568067,-3627.009116,-9770.718434,-1838.629195
504.568389,-5107.421000,-8068.244768,-1455.581446
504.568711,-3478.967927,-9326.594869,-4213.525239
504.569033,-2590.720797,-10881.027347,-5362.668486
504.569356,-3404.947333,-10214.842000,-2298.286494
504.569678,-3701.029710,-9474.636058,842.705048
504.570000,-2368.659014,-12731.542202,612.876398
504.570322,-1776.494261,-14285.974681,-306.438199
504.570645,-3330.926739,-11473.192101,-919.314598
504.570967,-3701.029710,-5477.523971,-919.314598
504.571289,0.000000,-3330.926739,-1225.752797
504.571611,4441.235652,-5255.462188,-2068.457845
504.571934,5329.482782,-6587.832884,-2451.505594
504.572256,3923.091493,-5847.626942,1072.533697
504.572578,3701.029710,-6513.812290,2757.943793
504.572901,4589.276840,-11029.068536,-1072.533697
504.573223,3256.906145,-14211.954086,-4136.915689
504.573545,-1480.411884,-13545.768739,-3753.867940
504.573867,-5107.421000,-9622.677246,-1608.800546
504.574190,-4811.338623,-8808.450710,-2911.162892
504.574512,-3034.844362,-10214.842000,-4213.525239
504.574834,-3997.112087,-10510.924376,-3447.429741
504.575156,-5699.585753,-8660.409521,-1149.143247
504.575479,-6291.750507,-9252.574275,-153.219100
504.575801,-4885.359217,-12583.501014,-1072.533697
504.576123,-4515.256246,-13693.809927,-1532.190996
504.576445,-4737.318029,-8956.491898,-306.438199
504.576768,-2812.782580,-4367.215058,-229.828649
504.577090,2812.782580,-4589.276840,-1762.019645
504.577412,6513.812290,-7105.977043,-1915.238745
504.577734,6513.812290,-7994.224174,-536.266849
504.578057,4959.379811,-7550.100608,1225.752797
504.578379,5181.441594,-8956.491898,689.485948
504.578701,4959.379811,-12213.398043,-2987.772442
504.579023,1480.411884,-14508.036463,-5439.278036
504.579346,-3701.029710,-12287.418637,-3907.087040
504.579668,-6069.688724,-9548.656652,-2451.505594
504.579990,-4367.215058,-9030.512492,-3983.696590
504.580312,-3552.988522,-9696.697840,-4673.182538
504.580635,-4145.153275,-10436.903782,-2757.943793
504.580957,-5477.523971,-8734.430116,76.609550
504.581279,-3775.050304,-9326.594869,306.438199
504.581601,-1184.329507,-11917.315666,-1455.581446
504.581924,-148.041188,-11399.171507,-1608.800546
504.582246,-1406.391290,-7624.121203,-229.828649
504.582568,0.000000,-3849.070898,919.314598
504.582891,3997.112087,-5477.523971,-766.095498
504.583213,6883.915261,-8660.409521,-2451.505594
504.583535,5921.647536,-9104.533087,-2068.457845
504.583857,3627.009116,-8660.409521,459.657299
504.584180,3923.091493,-8956.491898,383.047749
504.584502,3701.029710,-11695.253884,-3524.039291
504.584824,1036.288319,-13175.665768,-4903.011187
504.585146,-3552.988522,-10214.842000,-2604.724693
504.585469,-6661.853478,-7846.182985,-1991.848295
504.585791,-5255.462188,-9326.594869,-2374.896044
504.586113,-4071.132681,-10955.047942,-3600.648841
504.586435,-4959.379811,-9622.677246,-2681.334243
504.586758,-4737.318029,-8364.327145,0.000000
504.587080,-2442.679609,-9622.677246,536.266849
504.587402,-518.144159,-12065.356855,-612.876398
504.587724,-370.102971,-10807.006753,0.000000
504.588047,-814.226536,-6143.709319,1072.533697
504.588369,1554.432478,-4885.359217,0.000000
504.588691,5181.441594,-7402.059420,-1149.143247
504.589013,5995.668130,-8808.450710,-2451.505594
504.589336,4589.276840,-8734.430116,-383.047749
504.589658,4219.173869,-8068.244768,1302.362347
504.589980,4737.318029,-9104.533087,-536.266849
504.590302,3923.091493,-11843.295072,-3983.696590
504.590625,-740.205942,-11843.295072,-3370.820191
504.590947,-5477.523971,-9030.512492,-1149.143247
504.591269,-6217.729913,-8438.347739,-1991.848295
504.591591,-3997.112087,-11029.068536,-4596.572988
504.591914,-3701.029710,-11843.295072,-3830.477490
504.592236,-4441.235652,-9918.759623,-1072.533697
504.592558,-4515.256246,-8956.491898,1378.971896
504.592880,-2294.638420,-10881.027347,383.047749
504.593203,-962.267725,-11843.295072,-2374.896044
504.593525,-2664.741391,-9178.553681,-2298.286494
504.593847,-3701.029710,-6661.853478,0.000000
504.594170,-1850.514855,-6513.812290,0.000000
504.594492,1776.494261,-8882.471304,-1838.629195
504.594814,2516.700203,-8660.409521,-2451.505594
504.595136,2220.617826,-7179.997637,-689.485948
504.595459,2960.823768,-7031.956449,612.876398
504.595781,4145.153275,-9326.594869,-1532.190996
504.596103,2072.576638,-12065.356855,-3677.258390
504.596425,-2442.679609,-11325.150913,-2451.505594
504.596748,-6809.894666,-9178.553681,-1149.143247
504.597070,-7550.100608,-9400.615463,-2911.162892
504.597392,-6513.812290,-10732.986159,-4903.011187
504.597714,-6661.853478,-10436.903782,-4749.792088
504.598037,-7402.059420,-7994.224174,-1915.238745
504.598359,-6513.812290,-7846.182985,383.047749
504.598681,-3997.112087,-10807.006753,-229.828649
504.599003,-3034.844362,-11399.171507,-2298.286494
504.599326,-4811.338623,-7920.203579,-2911.162892
504.599648,-5773.606348,-5921.647536,-1532.190996
504.599970,-3552.988522,-7476.080014,-1149.143247
504.600292,0.000000,-9326.594869,-2681.334243
504.600615,1998.556043,-9030.512492,-3524.039291
504.600937,2738.761985,-8734.430116,-1915.238745
504.601259,3182.885551,-9474.636058,536.266849
504.601581,3775.050304,-10436.903782,-383.047749
504.601904,1998.556043,-10436.903782,-3830.477490
504.602226,-1258.350101,-10362.883188,-5209.449386
504.602548,-4959.379811,-10658.965565,-3600.648841
504.602870,-7772.162391,-9622.677246,-1915.238745
504.603193,-8216.285956,-10214.842000,-3294.210641
504.603515,-6365.771101,-11251.130318,-4979.620737
504.603837,-4441.235652,-11991.336260,-3447.429741
504.604160,-3256.906145,-10584.944971,383.047749
504.604482,-2368.659014,-9474.636058,2374.896044
504.604804,-1702.473667,-8290.306550,536.266849
504.605126,-592.164754,-6735.874072,-2604.724693
504.605449,-1480.411884,-6587.832884,-2604.724693
504.605771,-3627.009116,-7550.100608,-1225.752797
504.606093,-4663.297435,-8586.388927,0.000000
504.606415,-2516.700203,-8364.327145,-766.095498
504.606738,1110.308913,-8956.491898,-3140.991542
504.607060,4071.132681,-10214.842000,-3370.820191
504.607382,4737.318029,-10881.027347,-1149.143247
504.607704,3478.967927,-9548.656652,0.000000
504.608027,1554.432478,-8438.347739,-1225.752797
504.608349,-592.164754,-7846.182985,-2987.772442
504.608671,-3627.009116,-8438.347739,-5056.230287
504.608993,-7105.977043,-9992.780217,-5745.716235
504.609316,-9474.636058,-11769.274478,-3370.820191
504.609638,-8512.368333,-11991.336260,-306.438199
504.609960,-5181.441594,-11103.089130,-1225.752797
504.610282,-2220.617826,-10140.821405,-1762.019645
504.610605,-518.144159,-8882.471304,-383.047749
504.610927,-370.102971,-6587.832884,2145.067394
504.611249,-592.164754,-4071.132681,1302.362347
504.611571,-1110.308913,-3701.029710,-1762.019645
504.611894,-1850.514855,-6809.894666,-3830.477490
504.612216,-3182.885551,-9548.656652,-2911.162892
504.612538,-5107.421000,-11991.336260,-306.438199
504.612860,-5255.462188,-13693.809927,1532.190996
504.613183,-3701.029710,-12805.562797,0.000000
504.613505,-1184.329507,-11251.130318,-3064.381992
504.613827,222.061783,-9104.533087,-2911.162892
504.614150,814.226536,-8438.347739,-1762.019645
504.614472,592.164754,-7402.059420,-1072.533697
504.614794,888.247130,-7772.162391,-612.876398
504.615117,148.041188,-8364.327145,-1762.019645
504.615439,-1332.370696,-9178.553681,-2834.553343
504.615761,-3997.112087,-10214.842000,-2604.724693
504.616084,-5255.462188,-11325.150913,-1455.581446
504.616406,-5995.668130,-10732.986159,-1302.362347
504.616729,-5995.668130,-8660.409521,-1149.143247
504.617051,-6587.832884,-6661.853478,-1685.410096
504.617373,-6143.709319,-6587.832884,-2604.724693
504.617696,-5255.462188,-6513.812290,-4060.306139
504.618018,-4071.132681,-8956.491898,-3447.429741
504.618340,-2738.761985,-10510.924376,-2451.505594
504.618663,-1628.453072,-11695.253884,-1608.800546
504.618985,-1332.370696,-11843.295072,-1149.143247
504.619308,-1036.288319,-11399.171507,-1532.190996
504.619630,-1110.308913,-11251.130318,-2298.286494
504.619952,-1406.391290,-9770.718434,-2834.553343
504.620275,-1332.370696,-9178.553681,-1608.800546
504.620597,-1258.350101,-9622.677246,-383.047749
504.620919,-1258.350101,-9474.636058,689.485948
504.621242,-1332.370696,-9030.512492,1225.752797
504.621564,-1702.473667,-8142.265362,536.266849
504.621887,-1850.514855,-7550.100608,-459.657299
504.622209,-962.267725,-7550.100608,-1225.752797
504.622531,-814.226536,-6069.688724,-1532.190996
504.622854,-666.185348,-5699.585753,-2145.067394
504.623176,0.000000,-7105.977043,-2298.286494
504.623498,296.082377,-9030.512492,-2911.162892
504.623821,-148.041188,-10955.047942,-3217.601092
504.624143,-2072.576638,-11251.130318,-2987.772442
504.624466,-2738.761985,-11917.315666,-3983.696590
504.624788,-3034.844362,-12509.480420,-4749.792088
504.625110,-3701.029710,-13249.686362,-3830.477490
504.625433,-5773.606348,-12361.439231,-1915.238745
504.625755,-7328.038826,-11177.109724,-1455.581446
504.626077,-8290.306550,-8142.265362,-612.876398
504.626400,-7328.038826,-5847.626942,-1685.410096
504.626722,-5255.462188,-4589.276840,-2528.115143
504.627045,-2664.741391,-5847.626942,-1838.629195
504.627367,0.000000,-7179.997637,-536.266849
504.627689,1554.432478,-7624.121203,153.219100
504.628012,2960.823768,-9252.574275,689.485948
504.628334,4737.318029,-10214.842000,1378.971896
504.628656,4737.318029,-9992.780217,-1455.581446
504.628979,3552.988522,-9770.718434,-4213.525239
504.629301,1480.411884,-11399.171507,-2757.943793
504.629624,-1110.308913,-11695.253884,-919.314598
504.629946,-4367.215058,-11621.233289,-2145.067394
504.630268,-7105.977043,-11843.295072,-2221.676944
504.630591,-9178.553681,-10807.006753,-1532.190996
504.630913,-12065.356855,-9474.636058,-2987.772442
504.631235,-12139.377449,-8956.491898,-2451.505594
504.631558,-10510.924376,-8364.327145,-1991.848295
504.631880,-6735.874072,-7328.038826,-1991.848295
504.632203,-2812.782580,-4737.318029,-1685.410096
504.632525,518.144159,-2886.803174,-1302.362347
504.632847,2368.659014,-3923.091493,-1608.800546
504.633170,3108.864956,-7476.080014,-1838.629195
504.633492,2886.803174,-10658.965565,-2374.896044
504.633815,2220.617826,-12731.542202,-2987.772442
504.634137,1480.411884,-14211.954086,-3600.648841
504.634459,-370.102971,-14582.057057,-2528.115143
504.634782,-2146.597232,-12879.583391,-1072.533697
504.635104,-3256.906145,-10881.027347,-1302.362347
504.635426,-4737.318029,-9326.594869,-1455.581446
504.635749,-5847.626942,-8882.471304,-612.876398
504.636071,-6513.812290,-7402.059420,-459.657299
504.636394,-6661.853478,-7031.956449,-995.924147
504.636716,-5181.441594,-8364.327145,-306.438199
504.637038,-3256.906145,-9030.512492,1149.143247
504.637361,-1184.329507,-7476.080014,1915.238745
504.637683,888.247130,-6069.688724,536.266849
504.638005,3182.885551,-6439.791695,-459.657299
504.638328,4811.338623,-7402.059420,-2298.286494
504.638650,4737.318029,-7624.121203,-3524.039291
504.638973,3108.864956,-8586.388927,-3753.867940
504.639295,814.226536,-10140.821405,-4213.525239
504.639617,-1332.370696,-12361.439231,-4979.620737
504.639940,-4515.256246,-13841.851115,-4903.011187
504.640262,-7624.121203,-14656.077652,-3907.087040
504.640584,-9400.615463,-14804.118840,-3370.820191
504.640907,-9474.636058,-13619.789333,-3753.867940
504.641229,-8586.388927,-11251.130318,-3370.820191
504.641552,-7476.080014,-8216.285956,-2298.286494
504.641874,-5329.482782,-6217.729913,-1072.533697
504.642196,-3478.967927,-4589.276840,459.657299
504.642519,-1850.514855,-3552.988522,919.314598
504.642841,-962.267725,-4737.318029,689.485948
504.643163,-666.185348,-6513.812290,-306.438199
504.643486,-296.082377,-8216.285956,-612.876398
504.643808,148.041188,-9474.636058,-1532.190996
504.644131,1036.288319,-11547.212695,-2298.286494
504.644453,1850.514855,-13915.871710,-1991.848295
504.644775,1776.494261,-14359.995275,-919.314598
504.645098,962.267725,-12139.377449,0.000000
504.645420,-740.205942,-10214.842000,-842.705048
504.645742,-2072.576638,-9548.656652,-1685.410096
504.646065,-3478.967927,-8438.347739,-2068.457845
504.646387,-5921.647536,-6587.832884,-2528.115143
504.646710,-6291.750507,-6291.750507,-1915.238745
504.647032,-5329.482782,-6661.853478,-1378.971896
504.647354,-4515.256246,-6809.894666,-1225.752797
504.647677,-3923.091493,-6587.832884,-919.314598
504.647999,-3552.988522,-7031.956449,-1149.143247
504.648321,-3330.926739,-8438.347739,-2374.896044
504.648644,-3034.844362,-9918.759623,-3140.991542
504.648966,-3404.947333,-10214.842000,-3753.867940
504.649289,-3552.988522,-10510.924376,-4290.134789
504.649611,-2812.782580,-11917.315666,-3983.696590
504.649933,-2368.659014,-12953.603985,-3064.381992
504.650256,-2368.659014,-13027.624579,-2374.896044
504.650578,-2072.576638,-12287.418637,-2145.067394
504.650900,-1332.370696,-11769.274478,-1532.190996
504.651223,-814.226536,-9992.780217,-612.876398
504.651545,0.000000,-8290.306550,-536.266849
504.651868,296.082377,-6143.709319,-306.438199
504.652190,296.082377,-5403.503377,-153.219100
504.652512,666.185348,-5329.482782,153.219100
504.652835,444.123565,-6365.771101,76.609550
504.653157,222.061783,-7476.080014,-1149.143247
504.653480,74.020594,-9252.574275,-1072.533697
504.653802,592.164754,-11325.150913,-1302.362347
504.654124,740.205942,-11843.295072,-1378.971896
504.654447,222.061783,-11843.295072,-1149.143247
504.654769,0.000000,-11695.253884,-1225.752797
504.655091,-1110.308913,-10214.842000,-1838.629195
504.655414,-2516.700203,-9844.739029,-1838.629195
504.655736,-3701.029710,-9918.759623,-2145.067394
504.656059,-4737.318029,-9918.759623,-2374.896044
504.656381,-5551.544565,-9918.759623,-1608.800546
504.656703,-5625.565159,-9474.636058,-536.266849
504.657026,-5403.503377,-8438.347739,-306.438199
504.657348,-5477.523971,-7698.141797,-919.314598
504.657670,-5625.565159,-6587.832884,-1685.410096
504.657993,-5551.544565,-5403.503377,-2068.457845
504.658315,-4811.338623,-5551.544565,-3753.867940
504.658638,-4737.318029,-6735.874072,-3294.210641
504.658960,-4293.194464,-8660.409521,-2451.505594
504.659282,-4071.132681,-10288.862594,-2604.724693
504.659605,-3108.864956,-12805.562797,-3370.820191
504.659927,-1924.535449,-14063.912898,-2451.505594
504.660249,-1998.556043,-13027.624579,-1225.752797
504.660572,-1628.453072,-11399.171507,-383.047749
504.660894,-1184.329507,-9770.718434,-1225.752797
504.661217,-1332.370696,-8290.306550,-1532.190996
504.661539,-2368.659014,-7624.121203,76.609550
504.661861,-2960.823768,-7476.080014,766.095498
504.662184,-3627.009116,-7328.038826,0.000000
504.662506,-3775.050304,-7179.997637,-842.705048
504.662828,-3478.967927,-7105.977043,-1149.143247
504.663151,-3256.906145,-8068.244768,-919.314598
504.663473,-2368.659014,-8734.430116,-689.485948
504.663796,-1776.494261,-8660.409521,-1608.800546
504.664118,-814.226536,-8882.471304,-2987.772442
504.664440,0.000000,-10658.965565,-3983.696590
504.664763,444.123565,-12805.562797,-3370.820191
504.665085,-296.082377,-13249.686362,-2374.896044
504.665407,-962.267725,-12953.603985,-2528.115143
504.665730,-814.226536,-13471.748144,-2757.943793
504.666052,-518.144159,-13027.624579,-2298.286494
504.666375,-1036.288319,-11177.109724,-919.314598
504.666697,-1332.370696,-9400.615463,76.609550
504.667019,-222.061783,-7920.203579,536.266849
504.667342,518.144159,-6661.853478,459.657299
504.667664,962.267725,-5551.544565,1149.143247
504.667986,1554.432478,-6217.729913,995.924147
504.668309,2368.659014,-7179.997637,1225.752797
504.668631,2886.803174,-7772.162391,1378.971896
504.668954,2590.720797,-8882.471304,1072.533697
504.669276,2664.741391,-11399.171507,383.047749
504.669598,2664.741391,-12509.480420,383.047749
504.669921,2516.700203,-12435.459826,306.438199
504.670243,2516.700203,-11917.315666,842.705048
504.670565,2368.659014,-11769.274478,612.876398
504.670888,2368.659014,-10881.027347,1225.752797
504.671210,1332.370696,-9918.759623,2374.896044
504.671533,370.102971,-9104.533087,2681.334243
504.671855,-370.102971,-8660.409521,2374.896044
504.672177,-888.247130,-8290.306550,2145.067394
504.672500,-1998.556043,-7179.997637,3370.820191
504.672822,-2738.761985,-7550.100608,3983.696590
504.673145,-2442.679609,-7254.018232,4213.525239
504.673467,-2590.720797,-7328.038826,3217.601092
504.673789,-2664.741391,-7550.100608,3524.039291
504.674112,-3330.926739,-7994.224174,3447.429741
504.674434,-3108.864956,-9252.574275,2834.553343
504.674756,-3701.029710,-9844.739029,2374.896044
504.675079,-4219.173869,-10881.027347,2298.286494
504.675401,-4811.338623,-11325.150913,2528.115143
504.675724,-4885.359217,-11399.171507,2911.162892
504.676046,-4737.318029,-11621.233289,2145.067394
504.676368,-4145.153275,-11399.171507,2451.505594
504.676691,-3034.844362,-10658.965565,3217.601092
504.677013,-2146.597232,-9400.615463,3753.867940
504.677335,-814.226536,-8364.327145,4213.525239
504.677658,0.000000,-7402.059420,3907.087040
504.677980,444.123565,-7402.059420,3753.867940
504.678303,296.082377,-7698.141797,3140.991542
504.678625,296.082377,-8512.368333,3370.820191
504.678947,0.000000,-9400.615463,2604.724693
504.679270,-148.041188,-9622.677246,2374.896044
504.679592,-592.164754,-9770.718434,1302.362347
504.679914,-444.123565,-9696.697840,459.657299
504.680237,296.082377,-10658.965565,-459.657299
504.680559,148.041188,-10732.986159,-229.828649
504.680882,-1184.329507,-10362.883188,766.095498
504.681204,-1924.535449,-9844.739029,76.609550
504.681526,-2294.638420,-10658.965565,-1608.800546
504.681849,-1258.350101,-11325.150913,-2298.286494
504.682171,0.000000,-10955.047942,-1685.410096
504.682493,1628.453072,-8882.471304,-689.485948
504.682816,3552.988522,-7105.977043,0.000000
504.683138,4737.318029,-6661.853478,-536.266849
504.683461,4515.256246,-6439.791695,-1072.533697
504.683783,3701.029710,-7846.182985,-2374.896044
504.684105,1480.411884,-8364.327145,-3447.429741
504.684428,-1036.288319,-8734.430116,-3907.087040
504.684750,-3182.885551,-9918.759623,-3983.696590
504.685072,-3849.070898,-11843.295072,-4213.525239
504.685395,-4145.153275,-12139.377449,-4136.915689
504.685717,-3701.029710,-12805.562797,-4366.744339
504.686040,-1258.350101,-11991.336260,-4443.353888
504.686362,1702.473667,-14137.933492,-3753.867940
504.686684,3552.988522,-13619.789333,-2221.676944
504.687007,4441.235652,-11621.233289,0.000000
504.687329,5107.421000,-9548.656652,1302.362347
504.687651,6809.894666,-7105.977043,1149.143247
504.687974,7624.121203,-5773.606348,-459.657299
504.688296,5847.626942,-5329.482782,-1225.752797
504.688619,3478.967927,-6217.729913,689.485948
504.688941,-222.061783,-5403.503377,2145.067394
504.689263,-4367.215058,-5329.482782,229.828649
504.689586,-7031.956449,-7994.224174,-2451.505594
504.689908,-9252.574275,-10436.903782,-3983.696590
504.690231,-10436.903782,-11177.109724,-5439.278036
504.690553,-10732.986159,-10881.027347,-4979.620737
504.690875,-7698.141797,-14211.954086,-4903.011187
504.691198,-4071.132681,-16580.613101,-3064.381992
504.691520,-2442.679609,-14878.139434,-1302.362347
504.691842,-2220.617826,-11621.233289,-1762.019645
504.692165,-1258.350101,-10510.924376,-3524.039291
504.692487,0.000000,-10807.006753,-2681.334243
504.692810,-518.144159,-8364.327145,-536.266849
504.693132,-2220.617826,-6365.771101,536.266849
504.693454,-2664.741391,-7846.182985,2604.724693
504.693777,-1702.473667,-9696.697840,3907.087040
504.694099,-1406.391290,-9844.739029,3600.648841
504.694421,-1702.473667,-9252.574275,4136.915689
504.694744,-2146.597232,-8660.409521,4903.011187
504.695066,-1036.288319,-7105.977043,5209.449386
504.695389,0.000000,-5181.441594,3600.648841
504.695711,0.000000,-4515.256246,2145.067394
504.696033,296.082377,-5625.565159,766.095498
504.696356,2072.576638,-8068.244768,459.657299
504.696678,3034.844362,-10658.965565,842.705048
504.697000,3849.070898,-12435.459826,2681.334243
504.697323,4737.318029,-12731.542202,3907.087040
504.697645,4737.318029,-11843.295072,3370.820191
504.697968,3627.009116,-11695.253884,2757.943793
504.698290,1184.329507,-10436.903782,3677.258390
504.698612,-2072.576638,-7698.141797,3830.477490
504.698935,-4663.297435,-6439.791695,3370.820191
504.699257,-5625.565159,-7550.100608,3524.039291
504.699579,-4515.256246,-9326.594869,3524.039291
504.699902,-2368.659014,-9992.780217,3370.820191
504.700224,-592.164754,-11251.130318,4290.134789
504.700547,1998.556043,-12435.459826,5898.935335
504.700869,4515.256246,-11695.253884,6052.154434
504.701191,5995.668130,-9400.615463,4136.915689
504.701514,5995.668130,-7550.100608,2681.334243
504.701836,5329.482782,-7476.080014,3140.991542
504.702158,4811.338623,-6735.874072,4443.353888
504.702481,5403.503377,-4737.318029,3294.210641
504.702803,5551.544565,-7698.141797,-1762.019645
504.703126,4515.256246,-14730.098246,-1838.629195
504.703448,1924.535449,-15322.262999,2374.896044
504.703770,-4071.132681,-11177.109724,2987.772442
504.704093,-8808.450710,-10066.800811,1378.971896
504.704415,-8956.491898,-12287.418637,-995.924147
504.704737,-10732.986159,-11251.130318,-5439.278036
504.705060,-14359.995275,-10584.944971,-4443.353888
504.705382,-16580.613101,-10362.883188,3217.601092
504.705705,-13841.851115,-7846.182985,2451.505594
504.706027,-5625.565159,-7624.121203,-3907.087040
504.706349,1776.494261,-8512.368333,-4366.744339
504.706672,6513.812290,-8142.265362,-2451.505594
504.706994,8586.388927,-7402.059420,-2221.676944
504.707316,11029.068536,-7624.121203,2528.115143
504.707639,11843.295072,-6069.688724,3447.429741
504.707961,9696.697840,-6365.771101,-4903.011187
504.708284,6735.874072,-11399.171507,-7354.516781
504.708606,2664.741391,-15100.201217,-1838.629195
504.708928,-3552.988522,-14952.160028,306.438199
504.709251,-9326.594869,-15174.221811,766.095498
504.709573,-10807.006753,-13027.624579,3140.991542
504.709896,-11991.336260,-7698.141797,-2145.067394
504.710218,-9992.780217,-5847.626942,-7737.564530
504.710540,-7254.018232,-7179.997637,-4443.353888
504.710863,-4515.256246,-6439.791695,919.314598
504.711185,-1702.473667,-4515.256246,1378.971896
504.711507,3182.885551,-6069.688724,306.438199
504.711830,6809.894666,-8142.265362,-919.314598
504.712152,7846.182985,-9622.677246,-3600.648841
504.712475,6735.874072,-10140.821405,-2451.505594
504.712797,4737.318029,-9696.697840,229.828649
504.713119,2516.700203,-9474.636058,-536.266849
504.713442,592.164754,-10436.903782,-3140.991542
504.713764,-1850.514855,-12287.418637,-3600.648841
504.714086,-3404.947333,-15100.201217,-3217.601092
504.714409,-3701.029710,-16210.510130,-2681.334243
504.714731,-2738.761985,-12657.521608,306.438199
504.715054,-2146.597232,-8586.388927,2604.724693
504.715376,-1184.329507,-4515.256246,1608.800546
504.715698,0.000000,-5773.606348,459.657299
504.716021,1776.494261,-6587.832884,0.000000
504.716343,2664.741391,-6513.812290,-689.485948
504.716666,2220.617826,-7179.997637,76.609550
504.716988,1406.391290,-9104.533087,3294.210641
504.717311,666.185348,-10288.862594,4749.792088
504.717633,592.164754,-10658.965565,2604.724693
504.717955,2294.638420,-12213.398043,0.000000
504.718278,3627.009116,-12583.501014,-766.095498
504.718600,1406.391290,-11325.150913,383.047749
504.718923,-444.123565,-9622.677246,4749.792088
504.719245,-2220.617826,-9770.718434,5286.058936
504.719567,-1702.473667,-10066.800811,1762.019645
504.719890,-1184.329507,-10807.006753,-842.705048
504.720212,-2590.720797,-11547.212695,1225.752797
504.720535,-5255.462188,-11399.171507,5209.449386
504.720857,-6661.853478,-11473.192101,6052.154434
504.721180,-5107.421000,-10955.047942,5822.325785
504.721502,-2146.597232,-8364.327145,3140.991542
504.721824,666.185348,-3997.112087,842.705048
504.722147,1702.473667,-1258.350101,229.828649
504.722469,2368.659014,-1924.535449,2298.286494
504.722792,2294.638420,-6217.729913,3294.210641
504.723114,1258.350101,-11103.089130,2681.334243
504.723436,-1184.329507,-13915.871710,1532.190996
504.723759,-4293.194464,-13767.830521,-383.047749
504.724081,-6217.729913,-12509.480420,-1532.190996
504.724404,-6069.688724,-12361.439231,-1302.362347
504.724726,-5403.503377,-12065.356855,1302.362347
504.725048,-3627.009116,-11325.150913,3907.087040
504.725371,-2960.823768,-7402.059420,4136.915689
504.725693,222.061783,-7105.977043,1455.581446
504.726016,2886.803174,-6217.729913,-1685.410096
504.726338,4293.194464,-7105.977043,-2221.676944
504.726661,2664.741391,-8956.491898,2528.115143
504.726983,1480.411884,-7550.100608,6435.202183
504.727305,2072.576638,-6069.688724,2757.943793
504.727628,3478.967927,-6513.812290,-2911.162892
504.727950,5107.421000,-9030.512492,-3753.867940
504.728273,4293.194464,-10807.006753,-1455.581446
504.728595,3256.906145,-10955.047942,153.219100
504.728917,3478.967927,-11399.171507,-612.876398
504.729240,3701.029710,-12805.562797,-3370.820191
504.729562,2220.617826,-14359.995275,-4060.306139
504.729885,-3182.885551,-14582.057057,-3294.210641
504.730207,-7846.182985,-13323.706956,-2604.724693
504.730529,-8586.388927,-11621.233289,-3677.258390
504.730852,-5995.668130,-11029.068536,-4903.011187
504.731174,-3627.009116,-9844.739029,-3140.991542
504.731497,-2368.659014,-8734.430116,1149.143247
504.731819,-370.102971,-7328.038826,2068.457845
504.732142,2072.576638,-6661.853478,-612.876398
504.732464,2368.659014,-7476.080014,-1991.848295
504.732786,74.020594,-8512.368333,0.000000
504.733109,-2072.576638,-7920.203579,459.657299
504.733431,-2072.576638,-7105.977043,-2604.724693
504.733754,592.164754,-8734.430116,-4290.134789
504.734076,3182.885551,-9326.594869,-2911.162892
504.734398,3997.112087,-9030.512492,-612.876398
504.734721,3404.947333,-7994.224174,-536.266849
504.735043,3775.050304,-8882.471304,-1991.848295
504.735366,2738.761985,-9548.656652,-3983.696590
504.735688,-888.247130,-10881.027347,-4213.525239
504.736011,-4959.379811,-11177.109724,-2145.067394
504.736333,-6809.894666,-10436.903782,-1302.362347
504.736655,-5699.585753,-8956.491898,-2451.505594
504.736978,-4219.173869,-10066.800811,-1532.190996
504.737300,-3182.885551,-10140.821405,612.876398
504.737623,-2368.659014,-7994.224174,1072.533697
504.737945,-962.267725,-6587.832884,383.047749
504.738267,0.000000,-6365.771101,153.219100
504.738590,-518.144159,-7105.977043,-689.485948
504.738912,-1702.473667,-6513.812290,-1225.752797
504.739235,-740.205942,-6809.894666,-2528.115143
504.739557,1850.514855,-9252.574275,-4136.915689
504.739879,3923.091493,-11843.295072,-4060.306139
504.740202,3404.947333,-12879.583391,-1685.410096
504.740524,1480.411884,-12879.583391,153.219100
504.740847,1776.494261,-12879.583391,-1838.629195
504.741169,1628.453072,-12509.480420,-4519.963438
504.741492,-888.247130,-11399.171507,-4136.915689
504.741814,-4589.276840,-8438.347739,-2681.334243
504.742136,-5551.544565,-7624.121203,-2068.457845
504.742459,-3478.967927,-9474.636058,-2374.896044
504.742781,-1036.288319,-11177.109724,-995.924147
504.743104,-814.226536,-10436.903782,1838.629195
504.743426,-888.247130,-8216.285956,2451.505594
504.743748,814.226536,-8142.265362,919.314598
504.744071,2294.638420,-8438.347739,0.000000
504.744393,1258.350101,-6809.894666,-383.047749
504.744716,-1036.288319,-5107.421000,-1302.362347
504.745038,-740.205942,-5847.626942,-2374.896044
504.745361,1258.350101,-8734.430116,-2834.553343
504.745683,2590.720797,-11103.089130,-2451.505594
504.746005,1850.514855,-11991.336260,-1608.800546
504.746328,1110.308913,-11917.315666,-2681.334243
504.746650,1628.453072,-11103.089130,-2987.772442
504.746973,1258.350101,-9474.636058,-2451.505594
504.747295,-1924.535449,-7846.182985,-2528.115143
504.747617,-5551.544565,-7550.100608,-2528.115143
504.747940,-6217.729913,-7920.203579,-2298.286494
504.748262,-4441.235652,-9474.636058,-1838.629195
504.748585,-1850.514855,-11029.068536,0.000000
504.748907,-296.082377,-10807.006753,1608.800546
504.749229,1924.535449,-8956.491898,1915.238745
504.749552,4293.194464,-7179.997637,459.657299
504.749874,4071.132681,-7698.141797,612.876398
504.750197,1554.432478,-7698.141797,1225.752797
504.750519,-888.247130,-7031.956449,0.000000
504.750842,0.000000,-7550.100608,-2451.505594
504.751164,2146.597232,-9252.574275,-3370.820191
504.751486,4219.173869,-10732.986159,-2221.676944
504.751809,5033.400406,-11917.315666,-1685.410096
504.752131,4515.256246,-12509.480420,-919.314598
504.752454,2294.638420,-12805.562797,-1072.533697
504.752776,-2294.638420,-12731.542202,-842.705048
504.753098,-7105.977043,-11991.336260,-1915.238745
504.753421,-9918.759623,-10362.883188,-3753.867940
504.753743,-9252.574275,-9104.533087,-4903.011187
504.754066,-6587.832884,-7994.224174,-3140.991542
504.754388,-3256.906145,-8438.347739,459.657299
504.754711,-1924.535449,-8290.306550,2757.943793
504.755033,-1628.453072,-8512.368333,2451.505594
504.755355,-1554.432478,-9770.718434,919.314598
504.755678,-2516.700203,-9844.739029,-612.876398
504.756000,-3182.885551,-7698.141797,-2604.724693
504.756323,-1776.494261,-4885.359217,-4749.792088
504.756645,2516.700203,-4737.318029,-5056.230287
504.756967,6439.791695,-7105.977043,-2298.286494
504.757290,6809.894666,-9548.656652,459.657299
504.757612,4589.276840,-11177.109724,383.047749
504.757935,2146.597232,-12139.377449,-1915.238745
504.758257,962.267725,-12583.501014,-4673.182538
504.758579,-148.041188,-11473.192101,-5515.887586
504.758902,-1998.556043,-8512.368333,-4060.306139
504.759224,-2146.597232,-7179.997637,-3217.601092
504.759547,-296.082377,-8068.244768,-1302.362347
504.759869,1258.350101,-10066.800811,153.219100
504.760192,888.247130,-9918.759623,919.314598
504.760514,0.000000,-9474.636058,383.047749
504.760836,444.123565,-8882.471304,-1225.752797
504.761159,1776.494261,-8734.430116,-1915.238745
504.761481,1406.391290,-8586.388927,-995.924147
504.761804,74.020594,-7402.059420,-689.485948
504.762126,-148.041188,-7328.038826,-2298.286494
504.762448,666.185348,-9252.574275,-4060.306139
504.762771,666.185348,-9622.677246,-4673.182538
504.763093,-222.061783,-9696.697840,-4596.572988
504.763416,-1258.350101,-10214.842000,-5209.449386
504.763738,-1258.350101,-11547.212695,-5745.716235
504.764061,-3034.844362,-12657.521608,-5515.887586
504.764383,-7105.977043,-13323.706956,-3677.258390
504.764705,-11177.109724,-13323.706956,-4136.915689
504.765028,-11399.171507,-12731.542202,-5822.325785
504.765350,-7920.203579,-10732.986159,-5209.449386
504.765673,-3849.070898,-8142.265362,-2221.676944
504.765995,-1036.288319,-6069.688724,1455.581446
504.766317,1628.453072,-5033.400406,3064.381992
504.766640,3997.112087,-6217.729913,2374.896044
504.766962,4145.153275,-8364.327145,2068.457845
504.767285,2442.679609,-9030.512492,1608.800546
504.767607,1258.350101,-7698.141797,0.000000
504.767929,3923.091493,-6143.709319,-1838.629195
504.768252,8512.368333,-5995.668130,-1378.971896
504.768574,11843.295072,-6883.915261,306.438199
504.768897,11399.171507,-8808.450710,1455.581446
504.769219,8660.409521,-11695.253884,1149.143247
504.769542,4885.359217,-13323.706956,0.000000
504.769864,-148.041188,-13767.830521,-2451.505594
504.770186,-5255.462188,-13175.665768,-3753.867940
504.770509,-7846.182985,-11399.171507,-3907.087040
504.770831,-7105.977043,-9696.697840,-3600.648841
504.771154,-5477.523971,-8734.430116,-153.219100
504.771476,-4959.379811,-9400.615463,2911.162892
504.771798,-6143.709319,-9400.615463,3983.696590
504.772121,-5181.441594,-8808.450710,995.924147
504.772443,-3701.029710,-7698.141797,-2068.457845
504.772766,-2960.823768,-6217.729913,-2145.067394
504.773088,-3108.864956,-5255.462188,0.000000
504.773410,-1628.453072,-5551.544565,995.924147
504.773733,592.164754,-7105.977043,306.438199
504.774055,2368.659014,-9844.739029,-1455.581446
504.774378,3108.864956,-13027.624579,-2911.162892
504.774700,4145.153275,-15322.262999,-3447.429741
504.775023,5107.421000,-14211.954086,-3600.648841
504.775345,4737.318029,-11103.089130,-2987.772442
504.775667,2812.782580,-10214.842000,-1225.752797
504.775990,148.041188,-9622.677246,229.828649
504.776312,-2960.823768,-7624.121203,-2451.505594
504.776635,-5477.523971,-7920.203579,-4979.620737
504.776957,-5773.606348,-10658.965565,-3064.381992
504.777279,-4071.132681,-11103.089130,536.266849
504.777602,-888.247130,-9252.574275,1608.800546
504.777924,2294.638420,-7105.977043,766.095498
504.778247,4145.153275,-6587.832884,-306.438199
504.778569,2368.659014,-5403.503377,-1532.190996
504.778892,-296.082377,-3404.947333,-3140.991542
504.779214,-1924.535449,-4515.256246,-6128.763984
504.779536,-1110.308913,-8586.388927,-8044.002729
504.779859,222.061783,-11621.233289,-6358.592633
504.780181,666.185348,-12213.398043,-2834.553343
504.780504,444.123565,-12361.439231,-2068.457845
504.780826,1036.288319,-12953.603985,-3907.087040
504.781148,-370.102971,-12731.542202,-5362.668486
504.781471,-4811.338623,-11917.315666,-4826.401637
504.781793,-8438.347739,-10140.821405,-4673.182538
504.782116,-8364.327145,-9104.533087,-5822.325785
504.782438,-4737.318029,-9622.677246,-5439.278036
504.782760,-1332.370696,-9622.677246,-1532.190996
504.783083,0.000000,-7698.141797,1838.629195
504.783405,1480.411884,-6809.894666,2298.286494
504.783728,3923.091493,-7031.956449,459.657299
504.784050,4219.173869,-9030.512492,-1225.752797
504.784373,1924.535449,-10288.862594,-1455.581446
504.784695,-888.247130,-8882.471304,-995.924147
504.785017,0.000000,-6809.894666,-2681.334243
504.785340,3923.091493,-5773.606348,-3677.258390
504.785662,6809.894666,-5847.626942,-4060.306139
504.785985,6365.771101,-6439.791695,-4366.744339
504.786307,4145.153275,-10140.821405,-4060.306139
504.786629,1554.432478,-15248.242405,-3294.210641
504.786952,-2072.576638,-18653.189738,-2451.505594
504.787274,-7105.977043,-17320.819043,-2987.772442
504.787597,-10066.800811,-13249.686362,-3753.867940
504.787919,-8068.244768,-8438.347739,-4826.401637
504.788242,-3775.050304,-5329.482782,-3907.087040
504.788564,0.000000,-4441.235652,-766.095498
504.788886,1036.288319,-4515.256246,2528.115143
504.789209,1776.494261,-5625.565159,3983.696590
504.789531,3775.050304,-8734.430116,2528.115143
504.789854,3034.844362,-10955.047942,766.095498
504.790176,1036.288319,-10510.924376,1378.971896
504.790498,962.267725,-7920.203579,536.266849
504.790821,4885.359217,-7254.018232,-1532.190996
504.791143,8438.347739,-8364.327145,-1762.019645
504.791466,8216.285956,-9474.636058,995.924147
504.791788,4367.215058,-9622.677246,2834.553343
504.792110,444.123565,-10584.944971,842.705048
504.792433,-1998.556043,-12287.418637,-2451.505594
504.792755,-5403.503377,-13101.645173,-4366.744339
504.793078,-9474.636058,-11399.171507,-3524.039291
504.793400,-12361.439231,-10288.862594,-2451.505594
504.793723,-11695.253884,-10881.027347,-1838.629195
504.794045,-9178.553681,-11251.130318,-689.485948
504.794367,-7328.038826,-10436.903782,1455.581446
504.794690,-6587.832884,-7550.100608,1072.533697
504.795012,-4737.318029,-5995.668130,-153.219100
504.795335,-1480.411884,-5477.523971,-383.047749
504.795657,444.123565,-6069.688724,229.828649
504.795979,-296.082377,-5921.647536,612.876398
504.796302,-148.041188,-6957.935855,459.657299
504.796624,2812.782580,-8290.306550,-689.485948
504.796947,7476.080014,-10436.903782,-2834.553343
504.797269,10066.800811,-11769.274478,-2834.553343
504.797592,10658.965565,-11917.315666,-995.924147
504.797914,9770.718434,-9992.780217,1149.143247
504.798236,7179.997637,-8660.409521,612.876398
504.798559,1850.514855,-9030.512492,-919.314598
504.798881,-4293.194464,-8512.368333,-2068.457845
504.799204,-8068.244768,-7772.162391,-6052.154434
504.799526,-6587.832884,-9400.615463,-7124.688131
504.799848,-2960.823768,-12065.356855,-3907.087040
504.800171,-370.102971,-11991.336260,306.438199
504.800493,222.061783,-9548.656652,2987.772442
504.800816,-148.041188,-6809.894666,2681.334243
504.801138,-296.082377,-6735.874072,-1762.019645
504.801460,-2072.576638,-6661.853478,-5822.325785
504.801783,-4145.153275,-5551.544565,-7431.126331
504.802105,-4071.132681,-5477.523971,-7048.078582
504.802428,-148.041188,-8586.388927,-4290.134789
504.802750,3256.906145,-11991.336260,-2145.067394
504.803073,4737.318029,-14211.954086,-1685.410096
504.803395,4071.132681,-14508.036463,-4366.744339
504.803717,2812.782580,-15322.262999,-5975.544884
504.804040,1036.288319,-13619.789333,-5592.497135
504.804362,-2220.617826,-9844.739029,-4136.915689
504.804685,-4737.318029,-7328.038826,-4596.572988
504.805007,-4589.276840,-5403.503377,-4443.353888
504.805329,-2516.700203,-6735.874072,-3907.087040
504.805652,-1628.453072,-9918.759623,-1991.848295
504.805974,-2368.659014,-12139.377449,1685.410096
504.806297,-1998.556043,-12287.418637,2528.115143
504.806619,444.123565,-10362.883188,612.876398
504.806941,2664.741391,-8216.285956,-1378.971896
504.807264,2442.679609,-5329.482782,-1225.752797
504.807586,1332.370696,-1850.514855,-612.876398
504.807909,1332.370696,-888.247130,-1838.629195
504.808231,2664.741391,-5847.626942,-3524.039291
504.808554,2220.617826,-11177.109724,-3294.210641
504.808876,0.000000,-13767.830521,-1991.848295
504.809198,-2368.659014,-14063.912898,-2374.896044
504.809521,-3034.844362,-13915.871710,-3217.601092
504.809843,-3627.009116,-12879.583391,-3217.601092
504.810166,-6735.874072,-8956.491898,-2757.943793
504.810488,-9030.512492,-6365.771101,-4290.134789
504.810810,-7624.121203,-7698.141797,-5439.278036
504.811133,-4441.235652,-10732.986159,-3370.820191
504.811455,-2886.803174,-12435.459826,229.828649
504.811778,-2294.638420,-12287.418637,3370.820191
504.812100,74.020594,-10658.965565,3753.867940
504.812423,3404.947333,-8956.491898,1915.238745
504.812745,5107.421000,-6365.771101,536.266849
504.813067,3108.864956,-4589.276840,1225.752797
504.813390,2294.638420,-4219.173869,919.314598
504.813712,3849.070898,-6587.832884,-383.047749
504.814035,6809.894666,-9548.656652,-1225.752797
504.814357,7624.121203,-12287.418637,-383.047749
504.814679,6439.791695,-11843.295072,1532.190996
504.815002,4367.215058,-10214.842000,0.000000
504.815324,1850.514855,-10362.883188,-1915.238745
504.815647,-2368.659014,-10807.006753,-2451.505594
504.815969,-7254.018232,-11547.212695,-2681.334243
504.816291,-9844.739029,-11621.233289,-4443.353888
504.816614,-9474.636058,-11769.274478,-4903.011187
504.816936,-6809.894666,-11399.171507,-1608.800546
504.817259,-3775.050304,-9548.656652,1378.971896
504.817588,-1776.494261,-7254.018232,3217.601092
504.817911,-518.144159,-5107.421000,1838.629195
504.818233,888.247130,-6365.771101,0.000000
504.818556,1184.329507,-8956.491898,-383.047749
504.818878,-444.123565,-8364.327145,-383.047749
504.819200,74.020594,-6661.853478,-1608.800546
504.819523,4663.297435,-7698.141797,-1149.143247
504.819845,9918.759623,-8734.430116,1302.362347
504.820168,11473.192101,-8586.388927,1532.190996
504.820490,9474.636058,-9400.615463,0.000000
504.820812,7105.977043,-11029.068536,-1455.581446
504.821135,4515.256246,-11917.315666,-3140.991542
504.821457,-296.082377,-11399.171507,-4213.525239
504.821780,-6439.791695,-10584.944971,-3830.477490
504.822102,-8586.388927,-9844.739029,-2987.772442
504.822425,-7402.059420,-9474.636058,-3140.991542
504.822747,-6291.750507,-10140.821405,-1762.019645
504.823069,-7105.977043,-10732.986159,612.876398
504.823392,-7550.100608,-9474.636058,919.314598
504.823714,-6217.729913,-8068.244768,-1302.362347
504.824037,-4441.235652,-7994.224174,-2604.724693
504.824359,-3849.070898,-6735.874072,-2374.896044
504.824681,-3478.967927,-4737.318029,-1838.629195
504.825004,-1924.535449,-4293.194464,-2298.286494
504.825326,1776.494261,-6661.853478,-3217.601092
504.825649,3478.967927,-10732.986159,-2757.943793
504.825971,3108.864956,-12361.439231,-1608.800546
504.826293,2664.741391,-11843.295072,-2374.896044
504.826616,2738.761985,-11843.295072,-3983.696590
504.826938,2072.576638,-12805.562797,-3677.258390
504.827261,-1332.370696,-12287.418637,-2068.457845
504.827583,-4737.318029,-9844.739029,-1532.190996
504.827905,-4293.194464,-8660.409521,-3907.087040
504.828228,-518.144159,-10658.965565,-4903.011187
504.828550,1998.556043,-11251.130318,-1455.581446
504.828873,1332.370696,-9326.594869,2451.505594
504.829195,148.041188,-7994.224174,3753.867940
504.829517,1480.411884,-7772.162391,2528.115143
504.829840,2146.597232,-7105.977043,-229.828649
504.830162,-148.041188,-4515.256246,-2757.943793
504.830485,-2368.659014,-4145.153275,-3447.429741
504.830807,-518.144159,-5625.565159,-2528.115143
504.831130,3182.885551,-7994.224174,-1838.629195
504.831452,5847.626942,-9252.574275,-1455.581446
504.831774,5625.565159,-10881.027347,-2681.334243
504.832097,4219.173869,-13471.748144,-4519.963438
504.832419,2294.638420,-14359.995275,-3677.258390
504.832742,-1776.494261,-13027.624579,-3753.867940
504.833064,-6069.688724,-11769.274478,-4060.306139
504.833386,-7698.141797,-10510.924376,-4443.353888
504.833709,-6439.791695,-9622.677246,-4903.011187
504.834031,-4145.153275,-10066.800811,-2374.896044
504.834354,-2072.576638,-10510.924376,689.485948
504.834676,-370.102971,-9474.636058,2451.505594
504.834998,1850.514855,-7920.203579,1685.410096
504.835321,3108.864956,-5995.668130,919.314598
504.835643,2516.700203,-5699.585753,306.438199
504.835966,592.164754,-5477.523971,229.828649
504.836288,0.000000,-5995.668130,-919.314598
504.836610,1850.514855,-7920.203579,-3140.991542
504.836933,4589.276840,-11029.068536,-3753.867940
504.837255,5477.523971,-12953.603985,-1838.629195
504.837578,4737.318029,-12065.356855,-995.924147
504.837900,2220.617826,-11917.315666,-1915.238745
504.838223,-962.267725,-13175.665768,-3140.991542
504.838545,-5107.421000,-13027.624579,-3447.429741
504.838867,-9918.759623,-11177.109724,-3677.258390
504.839190,-12139.377449,-8956.491898,-4826.401637
504.839512,-9770.718434,-8808.450710,-5132.839837
504.839835,-5995.668130,-8438.347739,-3600.648841
504.840157,-3404.947333,-8068.244768,689.485948
504.840479,-2516.700203,-7772.162391,4136.915689
504.840802,-1332.370696,-8438.347739,4136.915689
504.841124,-592.164754,-9548.656652,1915.238745
504.841447,-370.102971,-8438.347739,-229.828649
504.841769,-1110.308913,-6439.791695,-1378.971896
504.842091,1924.535449,-4293.194464,-1608.800546
504.842414,6809.894666,-5329.482782,-2145.067394
504.842736,11399.171507,-8216.285956,-766.095498
504.843059,11547.212695,-11473.192101,2221.676944
504.843381,8512.368333,-12361.439231,3217.601092
504.843703,4145.153275,-12509.480420,1072.533697
504.844026,740.205942,-12953.603985,-2145.067394
504.844348,-3478.967927,-11251.130318,-4443.353888
504.844671,-7254.018232,-7994.224174,-4290.134789
504.844993,-7994.224174,-6513.812290,-3830.477490
504.845316,-5551.544565,-8364.327145,-2757.943793
504.845638,-3478.967927,-10881.027347,153.219100
504.845960,-3627.009116,-11769.274478,3064.381992
504.846283,-4219.173869,-10214.842000,1532.190996
504.846605,-3923.091493,-9326.594869,-1762.019645
504.846928,-2738.761985,-8438.347739,-2528.115143
504.847250,-2886.803174,-6735.874072,-2068.457845
504.847572,-3552.988522,-5329.482782,-1455.581446
504.847895,-2294.638420,-6513.812290,-1915.238745
504.848217,2294.638420,-10066.800811,-1532.190996
504.848540,5921.647536,-11695.253884,-1149.143247
504.848862,7254.018232,-11547.212695,-1378.971896
504.849184,8068.244768,-11103.089130,-3064.381992
504.849507,9178.553681,-11473.192101,-3294.210641
504.849829,8216.285956,-11251.130318,-1838.629195
504.850152,2590.720797,-10362.883188,-1762.019645
504.850474,-3330.926739,-10140.821405,-1991.848295
504.850796,-5477.523971,-10066.800811,-2604.724693
504.851119,-3627.009116,-10288.862594,-3677.258390
504.851441,-814.226536,-10436.903782,-1455.581446
504.851764,-370.102971,-9770.718434,1072.533697
504.852086,740.205942,-7846.182985,2987.772442
504.852408,444.123565,-6291.750507,2757.943793
504.852731,-1258.350101,-6365.771101,995.924147
504.853053,-4441.235652,-6439.791695,-1685.410096
504.853376,-6439.791695,-5255.462188,-4443.353888
504.853698,-4737.318029,-5699.585753,-6281.983084
504.854021,-444.123565,-8808.450710,-5745.716235
504.854343,1628.453072,-12065.356855,-2221.676944
504.854665,1332.370696,-12731.542202,1225.752797
504.854988,0.000000,-12509.480420,0.000000
504.855310,-1554.432478,-11843.295072,-3217.601092
504.855633,-4663.297435,-11621.233289,-5286.058936
504.855955,-7698.141797,-8956.491898,-6052.154434
504.856277,-8438.347739,-5995.668130,-5975.544884
504.856600,-5329.482782,-6587.832884,-4136.915689
504.856922,-740.205942,-9252.574275,-766.095498
504.857245,1554.432478,-10436.903782,2145.067394
504.857567,1258.350101,-11029.068536,3370.820191
504.857889,1480.411884,-11399.171507,2757.943793
504.858212,1998.556043,-10140.821405,689.485948
504.858534,2294.638420,-8882.471304,-689.485948
504.858857,962.267725,-3997.112087,0.000000
504.859179,2442.679609,-888.247130,-383.047749
504.859501,6513.812290,-2664.741391,-1302.362347
504.859824,9326.594869,-7179.997637,-2068.457845
504.860146,7698.141797,-12435.459826,-2528.115143
504.860469,3701.029710,-16136.489536,-995.924147
504.860791,1184.329507,-17172.777854,-1149.143247
504.861114,-518.144159,-15766.386565,-3753.867940
504.861436,-2886.803174,-13249.686362,-4903.011187
504.861758,-6439.791695,-7920.203579,-4519.963438
504.862081,-7698.141797,-4737.318029,-5056.230287
504.862403,-6365.771101,-6439.791695,-5209.449386
504.862726,-4071.132681,-11473.192101,-2834.553343
504.863048,-3256.906145,-14137.933492,-153.219100
504.863370,-2960.823768,-13249.686362,1608.800546
504.863693,-2368.659014,-10807.006753,2221.676944
504.864015,0.000000,-8882.471304,995.924147
504.864338,74.020594,-6661.853478,0.000000
504.864660,-962.267725,-3404.947333,306.438199
504.864982,-1258.350101,-2294.638420,-383.047749
504.865305,1480.411884,-4515.256246,-1532.190996
504.865627,5255.462188,-7772.162391,-1762.019645
504.865950,7105.977043,-10584.944971,-1838.629195
504.866272,7179.997637,-12361.439231,-153.219100
504.866594,6513.812290,-12435.459826,0.000000
504.866917,2960.823768,-12065.356855,-1838.629195
504.867239,-3775.050304,-12731.542202,-1838.629195
504.867562,-9178.553681,-11843.295072,-2451.505594
504.867884,-10584.944971,-9918.759623,-5439.278036
504.868207,-7994.224174,-8734.430116,-6665.030833
504.868529,-3404.947333,-8734.430116,-2911.162892
504.868851,-370.102971,-8216.285956,1838.629195
504.869174,518.144159,-7031.956449,3907.087040
504.869496,1332.370696,-6587.832884,3830.477490
504.869819,148.041188,-8364.327145,1455.581446
504.870141,-2664.741391,-8956.491898,-1532.190996
504.870463,-4293.194464,-6883.915261,-2681.334243
504.870786,-2738.761985,-4441.235652,-3447.429741
504.871108,3552.988522,-5699.585753,-3983.696590
504.871431,8882.471304,-9844.739029,-2528.115143
504.871753,10288.862594,-12361.439231,459.657299
504.872075,8068.244768,-12065.356855,995.924147
504.872398,3775.050304,-13027.624579,-689.485948
504.872720,148.041188,-15248.242405,-3064.381992
504.873043,-3997.112087,-13175.665768,-5209.449386
504.873365,-7476.080014,-8734.430116,-7048.078582
504.873687,-6661.853478,-6735.874072,-5898.935335
504.874010,-2442.679609,-8512.368333,-1915.238745
504.874332,-814.226536,-10510.924376,153.219100
504.874655,-1184.329507,-11029.068536,2834.553343
504.874977,-2146.597232,-10362.883188,2987.772442
504.875300,-1850.514855,-10214.842000,-766.095498
504.875622,-1924.535449,-9326.594869,-2681.334243
504.875944,-3923.091493,-5847.626942,-2298.286494
504.876267,-4441.235652,-3034.844362,-1991.848295
504.876589,-2146.597232,-3627.009116,-1762.019645
504.876912,1406.391290,-6513.812290,-1225.752797
504.877234,3256.906145,-8808.450710,-2145.067394
504.877556,4219.173869,-11621.233289,-3217.601092
504.877879,4811.338623,-14359.995275,-3753.867940
504.878201,4959.379811,-14434.015869,-2834.553343
504.878524,2220.617826,-12435.459826,-2221.676944
504.878846,-1924.535449,-9400.615463,-1991.848295
504.879168,-4737.318029,-7698.141797,-3064.381992
504.879491,-5329.482782,-6587.832884,-5439.278036
504.879813,-3923.091493,-8142.265362,-5056.230287
504.880136,-1036.288319,-11843.295072,-1149.143247
504.880458,1258.350101,-12583.501014,2451.505594
504.880780,3108.864956,-10214.842000,2681.334243
504.881103,2590.720797,-7328.038826,2145.067394
504.881425,592.164754,-5625.565159,1149.143247
504.881748,-1406.391290,-3627.009116,-1455.581446
504.882070,-1480.411884,-2960.823768,-4826.401637
504.882392,0.000000,-6883.915261,-6205.373534
504.882715,2442.679609,-12509.480420,-3830.477490
504.883037,3108.864956,-15470.304188,-229.828649
504.883360,3330.926739,-15914.427753,0.000000
504.883682,3330.926739,-15396.283594,-3370.820191
504.884005,1406.391290,-13841.851115,-5439.278036
504.884327,-2664.741391,-10807.006753,-4673.182538
504.884649,-7772.162391,-6809.894666,-4366.744339
504.884972,-9400.615463,-6439.791695,-4749.792088
504.885294,-7550.100608,-8512.368333,-4673.182538
504.885617,-5329.482782,-10362.883188,-2068.457845
504.885939,-4219.173869,-10288.862594,1149.143247
504.886261,-2664.741391,-9548.656652,3677.258390
504.886584,296.082377,-9474.636058,2681.334243
504.886906,1258.350101,-7179.997637,1072.533697
504.887229,148.041188,-5477.523971,612.876398
504.887551,-1332.370696,-4589.276840,306.438199
504.887873,-222.061783,-3849.070898,-1302.362347
504.888196,2738.761985,-5403.503377,-2221.676944
504.888518,5847.626942,-8068.244768,-2374.896044
504.888841,6513.812290,-11843.295072,-153.219100
504.889163,6513.812290,-12287.418637,1915.238745
504.889485,6143.709319,-12583.501014,536.266849
504.889808,3478.967927,-12805.562797,-1532.190996
504.890130,-814.226536,-10955.047942,-2911.162892
504.890453,-5107.421000,-8438.347739,-4060.306139
504.890775,-6587.832884,-7179.997637,-4826.401637
504.891098,-4441.235652,-8438.347739,-4136.915689
504.891420,-1480.411884,-9474.636058,-153.219100
504.891742,370.102971,-7920.203579,2298.286494
504.892065,1036.288319,-6587.832884,1608.800546
504.892387,1480.411884,-7772.162391,-153.219100
504.892710,444.123565,-10066.800811,-919.314598
504.893032,-2812.782580,-9104.533087,-1762.019645
504.893354,-5625.565159,-7105.977043,-2987.772442
504.893677,-3997.112087,-7994.224174,-4136.915689
504.893999,1776.494261,-9770.718434,-4826.401637
504.894322,5329.482782,-11103.089130,-5286.058936
504.894644,6291.750507,-13989.892304,-3830.477490
504.894966,4811.338623,-16062.468941,-1455.581446
504.895289,2960.823768,-14211.954086,-1915.238745
504.895611,-814.226536,-12953.603985,-3983.696590
504.895934,-5329.482782,-12509.480420,-4979.620737
504.896256,-7846.182985,-9548.656652,-5822.325785
504.896578,-7846.182985,-6439.791695,-6052.154434
504.896901,-4515.256246,-7476.080014,-2528.115143
504.897223,-1110.308913,-8512.368333,766.095498
504.897546,666.185348,-7772.162391,2374.896044
504.897868,1406.391290,-7550.100608,2145.067394
504.898191,1332.370696,-7920.203579,1302.362347
504.898513,0.000000,-8956.491898,-536.266849
504.898835,-1332.370696,-7550.100608,-1302.362347
504.899158,-2146.597232,-4145.153275,-1915.238745
504.899480,-296.082377,-4293.194464,-3753.867940
504.899803,3404.947333,-7476.080014,-3140.991542
504.900125,4737.318029,-9918.759623,-919.314598
504.900447,4441.235652,-11251.130318,-612.876398
504.900770,2072.576638,-11621.233289,-1608.800546
504.901092,148.041188,-12361.439231,-2298.286494
504.901415,-2442.679609,-10807.006753,-3064.381992
504.901737,-5477.523971,-7624.121203,-4443.353888
504.902059,-6883.915261,-6143.709319,-5822.325785
504.902382,-5329.482782,-7254.018232,-4903.011187
504.902704,-3108.864956,-9844.739029,-1378.971896
504.903027,-2072.576638,-11325.150913,2911.162892
504.903349,-1702.473667,-11473.192101,3677.258390
504.903671,518.144159,-10362.883188,1072.533697
504.903994,2442.679609,-7624.121203,-1685.410096
504.904316,2368.659014,-5403.503377,-1991.848295
504.904639,1110.308913,-4293.194464,-1302.362347
504.904961,962.267725,-6217.729913,-1378.971896
504.905283,2368.659014,-9992.780217,-1225.752797
504.905606,2812.782580,-13101.645173,-1072.533697
504.905928,1924.535449,-14804.118840,-842.705048
504.906251,1110.308913,-14285.974681,-1915.238745
504.906573,1480.411884,-11843.295072,-3447.429741
504.906896,666.185348,-9252.574275,-4903.011187
504.907218,-2368.659014,-8216.285956,-3370.820191
504.907540,-6365.771101,-8290.306550,-2911.162892
504.907863,-8512.368333,-9992.780217,-4979.620737
504.908185,-7772.162391,-12805.562797,-4903.011187
504.908508,-4737.318029,-14359.995275,-2451.505594
504.908830,-2516.700203,-12953.603985,153.219100
504.909152,148.041188,-10510.924376,1532.190996
504.909475,2812.782580,-7624.121203,2451.505594
504.909797,3775.050304,-5995.668130,2221.676944
504.910120,2146.597232,-3701.029710,1225.752797
504.910442,-370.102971,-2886.803174,-229.828649
504.910764,444.123565,-4219.173869,-2604.724693
504.911087,3997.112087,-6957.935855,-3677.258390
504.911409,6809.894666,-10955.047942,-1532.190996
504.911732,6957.935855,-13101.645173,2451.505594
504.912054,5847.626942,-12065.356855,3677.258390
504.912376,3923.091493,-10140.821405,536.266849
504.912699,370.102971,-9474.636058,-3370.820191
504.913021,-4737.318029,-7920.203579,-4519.963438
504.913344,-8290.306550,-7105.977043,-4826.401637
504.913666,-8068.244768,-7328.038826,-4903.011187
504.913989,-4737.318029,-9548.656652,-3064.381992
504.914311,-1998.556043,-11103.089130,306.438199
504.914633,-1332.370696,-10658.965565,2911.162892
504.914956,-1480.411884,-9696.697840,2451.505594
504.915278,-1184.329507,-9252.574275,0.000000
504.915601,-1036.288319,-9696.697840,-1991.848295
504.915923,-2368.659014,-6883.915261,-2298.286494
504.916245,-3034.844362,-3627.009116,-2221.676944
504.916568,0.000000,-3627.009116,-2068.457845
504.916890,4885.359217,-6957.935855,-2834.553343
504.917213,7624.121203,-10510.924376,-3983.696590
504.917535,6143.709319,-14063.912898,-2068.457845
504.917858,4219.173869,-15248.242405,-919.314598
504.918180,2072.576638,-14211.954086,-1991.848295
504.918502,-1184.329507,-13767.830521,-4213.525239
504.918825,-5107.421000,-12139.377449,-4826.401637
504.919147,-7920.203579,-8660.409521,-5362.668486
504.919470,-7105.977043,-7105.977043,-6128.763984
504.919792,-3478.967927,-9844.739029,-4213.525239
504.920115,-444.123565,-11547.212695,0.000000
504.920437,74.020594,-11251.130318,2374.896044
504.920760,666.185348,-10436.903782,2145.067394
504.921082,1258.350101,-10288.862594,229.828649
504.921404,518.144159,-9622.677246,-1685.410096
504.921727,-666.185348,-6291.750507,-1685.410096
504.922049,-1406.391290,-3404.947333,-2528.115143
504.922372,666.185348,-4145.153275,-2834.553343
504.922694,3923.091493,-8068.244768,-2145.067394
504.923017,4663.297435,-11251.130318,76.609550
504.923339,2516.700203,-11917.315666,459.657299
504.923662,-222.061783,-11917.315666,-919.314598
504.923984,-2516.700203,-11103.089130,-1991.848295
504.924306,-4219.173869,-9696.697840,-2834.553343
504.924629,-6957.935855,-7920.203579,-4519.963438
504.924951,-8142.265362,-7550.100608,-4903.011187
504.925274,-5773.606348,-9548.656652,-2757.943793
504.925596,-2812.782580,-10955.047942,0.000000
504.925919,-1480.411884,-10807.006753,2068.457845
504.926241,-1258.350101,-9696.697840,2374.896044
504.926564,888.247130,-7105.977043,1455.581446
504.926886,2664.741391,-4293.194464,-1149.143247
504.927209,2294.638420,-3108.864956,-1762.019645
504.927531,592.164754,-4071.132681,0.000000
504.927853,666.185348,-6513.812290,0.000000
504.928176,2146.597232,-8808.450710,-995.924147
504.928498,4145.153275,-12361.439231,-2834.553343
504.928821,4959.379811,-15248.242405,-3140.991542
504.929143,5329.482782,-14804.118840,-842.705048
504.929466,5181.441594,-11547.212695,-383.047749
504.929788,2442.679609,-9400.615463,-2068.457845
504.930111,-1776.494261,-9178.553681,-2987.772442
504.930433,-5699.585753,-8512.368333,-4060.306139
504.930755,-7402.059420,-8290.306550,-6741.640382
504.931078,-5921.647536,-11695.253884,-6128.763984
504.931400,-3330.926739,-14582.057057,-1838.629195
504.931723,-1110.308913,-14063.912898,2374.896044
504.932045,592.164754,-10362.883188,3064.381992
504.932368,2812.782580,-6883.915261,1072.533697
504.932690,3034.844362,-5107.421000,-1915.238745
504.933013,518.144159,-3923.091493,-2681.334243
504.933335,-3182.885551,-4589.276840,-2834.553343
504.933657,-2960.823768,-8290.306550,-3983.696590
504.933980,370.102971,-13545.768739,-3370.820191
504.934302,3034.844362,-15988.448347,-612.876398
504.934625,2590.720797,-13915.871710,2221.676944
504.934947,1628.453072,-11399.171507,536.266849
504.935270,1406.391290,-9770.718434,-1225.752797
