#time,accel_x,accel_y,accel_z
346.251667,0.000000,-9030.512492,-919.314598
346.251989,-444.123565,-9178.553681,-1225.752797
346.252311,0.000000,-9252.574275,-1378.971896
346.252633,0.000000,-9252.574275,-1149.143247
346.252954,0.000000,-9474.636058,-1302.362347
346.253276,296.082377,-9252.574275,-1685.410096
346.253598,148.041188,-9400.615463,-1685.410096
346.253920,0.000000,-9252.574275,-1455.581446
346.254242,0.000000,-9400.615463,-1378.971896
346.254564,0.000000,-9474.636058,-1302.362347
346.254886,-296.082377,-9326.594869,-1685.410096
346.255207,0.000000,-9178.553681,-1762.019645
346.255529,-222.061783,-9474.636058,-1685.410096
346.255851,-148.041188,-9474.636058,-1532.190996
346.256173,-222.061783,-9548.656652,-1532.190996
346.256495,-296.082377,-9474.636058,-1608.800546
346.256817,0.000000,-9474.636058,-1838.629195
346.257139,-518.144159,-9474.636058,-1532.190996
346.257461,-518.144159,-9474.636058,-1685.410096
346.257782,-370.102971,-9474.636058,-1762.019645
346.258104,-444.123565,-9548.656652,-1685.410096
346.258426,-444.123565,-9474.636058,-1302.362347
346.258748,0.000000,-9622.677246,-1915.238745
346.259070,-592.164754,-9400.615463,-1608.800546
346.259392,-518.144159,-9622.677246,-1608.800546
346.259714,-592.164754,-9400.615463,-1608.800546
346.260036,-740.205942,-9474.636058,-1762.019645
346.260357,-518.144159,-9104.533087,-1838.629195
346.260679,-518.144159,-9104.533087,-1838.629195
346.261001,-592.164754,-9474.636058,-1838.629195
346.261323,-592.164754,-9548.656652,-1762.019645
346.261645,-370.102971,-9474.636058,-1685.410096
346.261967,-370.102971,-9400.615463,-1455.581446
346.262289,-370.102971,-9252.574275,-1302.362347
346.262610,-592.164754,-9326.594869,-1532.190996
346.262932,-592.164754,-9622.677246,-1762.019645
346.263254,-518.144159,-9548.656652,-1378.971896
346.263576,-592.164754,-9474.636058,-1378.971896
346.263898,-888.247130,-9548.656652,-1532.190996
346.264220,-592.164754,-9252.574275,-1225.752797
346.264542,-518.144159,-9326.594869,-1225.752797
346.264864,-296.082377,-9252.574275,-1685.410096
346.265185,-296.082377,-9252.574275,-1455.581446
346.265507,-148.041188,-9474.636058,-1072.533697
346.265829,0.000000,-9252.574275,-1685.410096
346.266151,-296.082377,-9474.636058,-1378.971896
346.266473,-222.061783,-9474.636058,-1149.143247
346.266795,-296.082377,-9326.594869,-1149.143247
346.267117,-222.061783,-9104.533087,-1225.752797
346.267439,74.020594,-9104.533087,-1225.752797
346.267760,0.000000,-9178.553681,-1072.533697
346.268082,0.000000,-9030.512492,-1532.190996
346.268404,0.000000,-9252.574275,-1302.362347
346.268726,0.000000,-9178.553681,-1225.752797
346.269048,-370.102971,-8660.409521,-995.924147
346.269370,0.000000,-9326.594869,-1149.143247
346.269692,0.000000,-9474.636058,-1072.533697
346.270013,-148.041188,-9178.553681,-1072.533697
346.270335,0.000000,-9252.574275,-1532.190996
346.270657,-370.102971,-9104.533087,-1378.971896
346.270979,74.020594,-9252.574275,-1149.143247
346.271301,296.082377,-9326.594869,-1302.362347
346.271623,1110.308913,-9844.739029,-1378.971896
346.271945,1184.329507,-9474.636058,-1072.533697
346.272267,814.226536,-9252.574275,-766.095498
346.272588,592.164754,-9030.512492,-689.485948
346.272910,0.000000,-8734.430116,-1685.410096
346.273232,-444.123565,-9474.636058,-2221.676944
346.273554,-1184.329507,-9326.594869,-1455.581446
346.273876,-1184.329507,-9030.512492,-1608.800546
346.274198,-666.185348,-9252.574275,-1685.410096
346.274520,518.144159,-10214.842000,-1685.410096
346.274842,0.000000,-9992.780217,-1072.533697
346.275163,0.000000,-9252.574275,-1225.752797
346.275485,740.205942,-9400.615463,-2145.067394
346.275807,1554.432478,-10214.842000,-1991.848295
346.276129,962.267725,-10362.883188,-1072.533697
346.276451,666.185348,-9474.636058,-306.438199
346.276773,1776.494261,-9030.512492,-842.705048
346.277095,3108.864956,-9548.656652,-1608.800546
346.277417,3256.906145,-9326.594869,-1378.971896
346.277738,2368.659014,-7994.224174,0.000000
346.278060,2886.803174,-8290.306550,-689.485948
346.278382,3404.947333,-8808.450710,-1302.362347
346.278704,3330.926739,-9918.759623,-1072.533697
346.279026,2516.700203,-9400.615463,-842.705048
346.279348,2590.720797,-8660.409521,-1225.752797
346.279670,3923.091493,-8586.388927,-2757.943793
346.279991,4737.318029,-10288.862594,-2757.943793
346.280313,4367.215058,-10658.965565,-2145.067394
346.280635,3849.070898,-9844.739029,-1685.410096
346.280957,3849.070898,-10066.800811,-1838.629195
346.281279,4071.132681,-10955.047942,-1915.238745
346.281601,3775.050304,-10140.821405,-2604.724693
346.281923,2812.782580,-9104.533087,-2528.115143
346.282245,2812.782580,-9030.512492,-1915.238745
346.282566,3182.885551,-8734.430116,-1455.581446
346.282888,4071.132681,-8586.388927,-1608.800546
346.283210,4515.256246,-8216.285956,-1991.848295
346.283532,5181.441594,-8808.450710,-1608.800546
346.283854,5921.647536,-9104.533087,-1532.190996
346.284176,5995.668130,-9474.636058,-1608.800546
346.284498,5773.606348,-9104.533087,-919.314598
346.284820,4663.297435,-8808.450710,-1302.362347
346.285141,3404.947333,-9992.780217,-2298.286494
346.285463,2220.617826,-11399.171507,-1915.238745
346.285785,1110.308913,-12509.480420,-1532.190996
346.286107,74.020594,-12657.521608,-306.438199
346.286429,0.000000,-12583.501014,383.047749
346.286751,74.020594,-11843.295072,1225.752797
346.287073,888.247130,-11029.068536,1455.581446
346.287394,740.205942,-9400.615463,2068.457845
346.287716,222.061783,-7698.141797,1991.848295
346.288038,-518.144159,-6291.750507,1378.971896
346.288360,-962.267725,-5107.421000,-383.047749
346.288682,-962.267725,-4515.256246,-1302.362347
346.289004,296.082377,-4663.297435,-2374.896044
346.289326,2072.576638,-5329.482782,-2987.772442
346.289648,4071.132681,-5847.626942,-3753.867940
346.289969,6069.688724,-8068.244768,-4290.134789
346.290291,7105.977043,-11029.068536,-4136.915689
346.290613,6365.771101,-13323.706956,-3600.648841
346.290935,5551.544565,-14211.954086,-3140.991542
346.291257,5181.441594,-14434.015869,-2451.505594
346.291579,4885.359217,-13545.768739,-1225.752797
346.291901,3108.864956,-12805.562797,153.219100
346.292223,740.205942,-10807.006753,2604.724693
346.292544,74.020594,-8956.491898,3524.039291
346.292866,592.164754,-6587.832884,2757.943793
346.293188,666.185348,-4885.359217,2911.162892
346.293510,0.000000,-3923.091493,2757.943793
346.293832,-518.144159,-3923.091493,2451.505594
346.294154,74.020594,-5403.503377,229.828649
346.294476,1184.329507,-7328.038826,-1149.143247
346.294798,1184.329507,-8364.327145,-2451.505594
346.295119,814.226536,-9474.636058,-4366.744339
346.295441,518.144159,-11991.336260,-5592.497135
346.295763,1628.453072,-15248.242405,-5592.497135
346.296085,1554.432478,-17024.736666,-5669.106685
346.296407,1184.329507,-16432.571912,-5362.668486
346.296729,1110.308913,-14285.974681,-4060.306139
346.297051,2516.700203,-11991.336260,-4060.306139
346.297372,3627.009116,-10362.883188,-3370.820191
346.297694,4885.359217,-9104.533087,-1072.533697
346.298016,5181.441594,-8068.244768,1225.752797
346.298338,5773.606348,-7179.997637,3064.381992
346.298660,6365.771101,-5403.503377,4060.306139
346.298982,7698.141797,-3997.112087,2987.772442
346.299304,8660.409521,-3478.967927,1455.581446
346.299626,7698.141797,-4219.173869,1838.629195
346.299947,4811.338623,-4515.256246,3217.601092
346.300269,2442.679609,-6217.729913,1149.143247
346.300591,1998.556043,-10140.821405,-3064.381992
346.300913,1406.391290,-12583.501014,-5439.278036
346.301235,-296.082377,-11917.315666,-5669.106685
346.301557,-1702.473667,-13101.645173,-4749.792088
346.301879,-2368.659014,-16136.489536,-3294.210641
346.302201,-2960.823768,-15470.304188,-3677.258390
346.302522,-2960.823768,-11399.171507,-5822.325785
346.302844,-518.144159,-9918.759623,-6128.763984
346.303166,2368.659014,-10362.883188,-4903.011187
346.303488,3627.009116,-9400.615463,-2757.943793
346.303810,5477.523971,-7920.203579,-612.876398
346.304132,7772.162391,-7254.018232,1608.800546
346.304454,9252.574275,-8364.327145,2451.505594
346.304775,7846.182985,-8808.450710,1915.238745
346.305097,5107.421000,-7772.162391,1302.362347
346.305419,3182.885551,-6513.812290,1608.800546
346.305741,1924.535449,-7920.203579,995.924147
346.306063,-592.164754,-8734.430116,1072.533697
346.306385,-2368.659014,-7846.182985,995.924147
346.306707,-2960.823768,-8586.388927,-612.876398
346.307029,-1554.432478,-11621.233289,-2145.067394
346.307350,-666.185348,-12657.521608,-2298.286494
346.307672,-592.164754,-11103.089130,-1915.238745
346.307994,148.041188,-9474.636058,-1532.190996
346.308316,2442.679609,-9252.574275,-2221.676944
346.308638,4219.173869,-9104.533087,-4136.915689
346.308960,4071.132681,-8734.430116,-4903.011187
346.309282,2886.803174,-9030.512492,-2604.724693
346.309604,1480.411884,-9030.512492,-766.095498
346.309925,518.144159,-9326.594869,-766.095498
346.310247,-1110.308913,-8216.285956,-995.924147
346.310569,-1924.535449,-6587.832884,-1072.533697
346.310891,-2960.823768,-6365.771101,-1378.971896
346.311213,-2664.741391,-7920.203579,-2298.286494
346.311535,-2516.700203,-9770.718434,-1455.581446
346.311857,-2516.700203,-10807.006753,0.000000
346.312178,-2146.597232,-10955.047942,1608.800546
346.312500,-740.205942,-10510.924376,689.485948
346.312822,814.226536,-10362.883188,-1149.143247
346.313144,1850.514855,-10288.862594,-2451.505594
346.313466,1628.453072,-11251.130318,-689.485948
346.313788,1924.535449,-11843.295072,459.657299
346.314110,3330.926739,-11991.336260,-766.095498
346.314432,4293.194464,-12435.459826,-2604.724693
346.314753,5477.523971,-12731.542202,-2298.286494
346.315075,4293.194464,-10362.883188,-612.876398
346.315397,1850.514855,-7846.182985,0.000000
346.315719,1258.350101,-6661.853478,76.609550
346.316041,1036.288319,-5625.565159,-1072.533697
346.316363,1184.329507,-4737.318029,-3600.648841
346.316685,-444.123565,-5551.544565,-2834.553343
346.317007,-1554.432478,-7476.080014,536.266849
346.317328,-2960.823768,-7254.018232,1072.533697
346.317650,-4145.153275,-7328.038826,-995.924147
346.317972,-5403.503377,-7920.203579,-3140.991542
346.318294,-7105.977043,-8956.491898,-4290.134789
346.318616,-7772.162391,-10732.986159,-5898.935335
346.318938,-6217.729913,-12731.542202,-6205.373534
346.319260,-3108.864956,-12731.542202,-4596.572988
346.319582,74.020594,-13175.665768,-1685.410096
346.319903,2442.679609,-12435.459826,-1072.533697
346.320225,4589.276840,-11177.109724,-1072.533697
346.320546,5329.482782,-9104.533087,-2834.553343
346.320868,5551.544565,-8956.491898,-2528.115143
346.321190,4515.256246,-10288.862594,-612.876398
346.321511,2516.700203,-10214.842000,1302.362347
346.321833,1702.473667,-9918.759623,1455.581446
346.322155,1776.494261,-9474.636058,536.266849
346.322476,2220.617826,-8734.430116,153.219100
346.322798,2442.679609,-7254.018232,229.828649
346.323120,1480.411884,-7550.100608,459.657299
346.323441,518.144159,-6809.894666,536.266849
346.323763,0.000000,-6365.771101,-383.047749
346.324085,-814.226536,-7698.141797,-2298.286494
346.324406,-1998.556043,-9326.594869,-3217.601092
346.324728,-3923.091493,-9844.739029,-4060.306139
346.325050,-6291.750507,-10584.944971,-3753.867940
346.325371,-7328.038826,-11843.295072,-1762.019645
346.325693,-7698.141797,-11843.295072,-2757.943793
346.326015,-8438.347739,-10214.842000,-5975.544884
346.326336,-8216.285956,-9770.718434,-6358.592633
346.326658,-7179.997637,-8068.244768,-4519.963438
346.326980,-4811.338623,-8660.409521,-3753.867940
346.327301,-1924.535449,-9252.574275,-3447.429741
346.327623,148.041188,-9992.780217,-689.485948
346.327945,1036.288319,-10658.965565,2068.457845
346.328266,2738.761985,-9918.759623,2068.457845
346.328588,3849.070898,-8438.347739,383.047749
346.328910,4293.194464,-9252.574275,-306.438199
346.329231,4441.235652,-9992.780217,1072.533697
346.329553,3330.926739,-8364.327145,2145.067394
346.329874,2368.659014,-6809.894666,1838.629195
346.330196,3330.926739,-8586.388927,1455.581446
346.330518,3923.091493,-10362.883188,842.705048
346.330839,2664.741391,-9770.718434,-612.876398
346.331161,1480.411884,-8512.368333,153.219100
346.331483,740.205942,-7772.162391,-459.657299
346.331804,1480.411884,-7846.182985,-1532.190996
346.332126,222.061783,-7328.038826,-2298.286494
346.332448,-2516.700203,-8438.347739,-2451.505594
346.332769,-5181.441594,-9844.739029,-2451.505594
346.333091,-6291.750507,-10732.986159,-2451.505594
346.333413,-6217.729913,-9622.677246,-3294.210641
346.333734,-5403.503377,-8216.285956,-4213.525239
346.334056,-3997.112087,-9400.615463,-3983.696590
346.334378,-2294.638420,-10955.047942,-3217.601092
346.334699,-962.267725,-9992.780217,-2221.676944
346.335021,1036.288319,-9770.718434,-1072.533697
346.335343,2664.741391,-10362.883188,-1378.971896
346.335664,3849.070898,-9992.780217,-689.485948
346.335986,4293.194464,-9326.594869,-919.314598
346.336308,4219.173869,-10140.821405,229.828649
346.336629,4589.276840,-11399.171507,2604.724693
346.336951,3627.009116,-9992.780217,2681.334243
346.337273,3627.009116,-9030.512492,612.876398
346.337594,4737.318029,-9622.677246,-1072.533697
346.337916,5181.441594,-9622.677246,-1455.581446
346.338238,4589.276840,-8364.327145,0.000000
346.338559,3330.926739,-7105.977043,1455.581446
346.338881,2738.761985,-8142.265362,-383.047749
346.339203,2368.659014,-8956.491898,-2604.724693
346.339524,444.123565,-9400.615463,-3983.696590
346.339846,-1924.535449,-9770.718434,-3830.477490
346.340167,-3404.947333,-9770.718434,-2911.162892
346.340489,-5255.462188,-9104.533087,-2757.943793
346.340811,-7031.956449,-9400.615463,-3677.258390
346.341132,-8216.285956,-8660.409521,-4519.963438
346.341454,-8734.430116,-8660.409521,-6128.763984
346.341776,-7550.100608,-10214.842000,-6741.640382
346.342097,-5033.400406,-11843.295072,-5056.230287
346.342419,-2886.803174,-10807.006753,-2681.334243
346.342741,-1184.329507,-10436.903782,-842.705048
346.343062,814.226536,-10881.027347,229.828649
346.343384,2368.659014,-9992.780217,-153.219100
346.343706,2368.659014,-7994.224174,-1838.629195
346.344027,2368.659014,-10066.800811,-2451.505594
346.344349,1480.411884,-11399.171507,229.828649
346.344671,740.205942,-10140.821405,1072.533697
346.344992,1110.308913,-9474.636058,1072.533697
346.345314,2368.659014,-9030.512492,1685.410096
346.345636,3108.864956,-8660.409521,0.000000
346.345957,2664.741391,-8068.244768,-1302.362347
346.346279,1406.391290,-7402.059420,-383.047749
346.346601,148.041188,-6883.915261,229.828649
346.346922,-518.144159,-7105.977043,-1149.143247
346.347244,-1850.514855,-7402.059420,-2834.553343
346.347566,-4737.318029,-9252.574275,-3294.210641
346.347887,-7698.141797,-11029.068536,-2374.896044
346.348209,-8956.491898,-10881.027347,-766.095498
346.348531,-8660.409521,-9252.574275,-2451.505594
346.348852,-7254.018232,-9030.512492,-3983.696590
346.349174,-5995.668130,-8142.265362,-3600.648841
346.349496,-6069.688724,-7920.203579,-3217.601092
346.349817,-4811.338623,-8068.244768,-2528.115143
346.350139,-2146.597232,-8364.327145,-1302.362347
346.350460,222.061783,-9400.615463,-1455.581446
346.350782,1702.473667,-11399.171507,-995.924147
346.351104,3108.864956,-11621.233289,1685.410096
346.351425,4219.173869,-9770.718434,1838.629195
346.351747,5625.565159,-8734.430116,766.095498
346.352069,6661.853478,-8882.471304,1225.752797
346.352390,6291.750507,-9252.574275,995.924147
346.352712,4663.297435,-8882.471304,689.485948
346.353034,3997.112087,-8512.368333,1608.800546
346.353355,4367.215058,-8142.265362,1608.800546
346.353677,4515.256246,-7698.141797,0.000000
346.353999,3849.070898,-8290.306550,-1149.143247
346.354320,3182.885551,-8586.388927,-689.485948
346.354642,2664.741391,-9252.574275,-995.924147
346.354964,1850.514855,-9918.759623,-1532.190996
346.355285,0.000000,-10362.883188,-2528.115143
346.355607,-2886.803174,-9844.739029,-3294.210641
346.355929,-5477.523971,-8512.368333,-4519.963438
346.356250,-6735.874072,-9548.656652,-5362.668486
346.356572,-5625.565159,-11843.295072,-6741.640382
346.356894,-3627.009116,-12731.542202,-6281.983084
346.357215,-2368.659014,-12731.542202,-4366.744339
346.357537,-592.164754,-12139.377449,-1378.971896
346.357859,1480.411884,-10881.027347,383.047749
346.358180,2368.659014,-8808.450710,-1302.362347
346.358502,2146.597232,-8068.244768,-2451.505594
346.358824,666.185348,-9326.594869,-1378.971896
346.359145,-222.061783,-10288.862594,766.095498
346.359467,814.226536,-9474.636058,2298.286494
346.359789,3256.906145,-9474.636058,383.047749
346.360110,5921.647536,-10436.903782,-459.657299
346.360432,6513.812290,-9918.759623,612.876398
346.360753,4367.215058,-8142.265362,2145.067394
346.361075,2812.782580,-6735.874072,1762.019645
346.361397,2812.782580,-7476.080014,-919.314598
346.361718,2146.597232,-7698.141797,-4443.353888
346.362040,0.000000,-8438.347739,-5056.230287
346.362362,-2516.700203,-9992.780217,-2757.943793
346.362683,-4441.235652,-9992.780217,-919.314598
346.363005,-6217.729913,-9104.533087,-1072.533697
346.363327,-7105.977043,-9030.512492,-2451.505594
346.363648,-8068.244768,-9696.697840,-4443.353888
346.363970,-9178.553681,-9696.697840,-5209.449386
346.364292,-9770.718434,-7698.141797,-4673.182538
346.364613,-8586.388927,-6217.729913,-2987.772442
346.364935,-6217.729913,-7846.182985,-2604.724693
346.365257,-4515.256246,-9622.677246,-1915.238745
346.365578,-3478.967927,-9918.759623,-1225.752797
346.365900,-1258.350101,-10362.883188,-1685.410096
346.366222,1554.432478,-10658.965565,-1225.752797
346.366543,2812.782580,-10955.047942,0.000000
346.366865,3034.844362,-9400.615463,1532.190996
346.367187,2738.761985,-7698.141797,1455.581446
346.367508,2590.720797,-7920.203579,-536.266849
346.367830,1998.556043,-9622.677246,-1532.190996
346.368152,1924.535449,-10214.842000,0.000000
346.368473,2072.576638,-11177.109724,306.438199
346.368795,3108.864956,-11325.150913,919.314598
346.369117,3849.070898,-9622.677246,1302.362347
346.369438,3923.091493,-7476.080014,459.657299
346.369760,3182.885551,-6809.894666,-1225.752797
346.370081,444.123565,-7105.977043,-2757.943793
346.370403,-2886.803174,-9030.512492,-2604.724693
346.370725,-5107.421000,-10807.006753,-1915.238745
346.371046,-5403.503377,-11991.336260,-1378.971896
346.371368,-5329.482782,-11177.109724,-1915.238745
346.371690,-4219.173869,-9474.636058,-3064.381992
346.372011,-2960.823768,-9696.697840,-3217.601092
346.372333,-2368.659014,-9548.656652,-3140.991542
346.372655,-1850.514855,-8808.450710,-2834.553343
346.372976,0.000000,-9178.553681,-2145.067394
346.373298,1110.308913,-9770.718434,-1762.019645
346.373620,1406.391290,-10362.883188,0.000000
346.373941,1110.308913,-9770.718434,0.000000
346.374263,1554.432478,-10140.821405,1225.752797
346.374585,2220.617826,-9844.739029,1532.190996
346.374906,2590.720797,-8882.471304,1608.800546
346.375228,3627.009116,-7772.162391,689.485948
346.375550,5255.462188,-7846.182985,536.266849
346.375871,6883.915261,-8660.409521,76.609550
346.376193,7031.956449,-8956.491898,536.266849
346.376515,6291.750507,-8438.347739,1608.800546
346.376836,4737.318029,-7402.059420,842.705048
346.377158,3701.029710,-8290.306550,-383.047749
346.377480,2590.720797,-9252.574275,-2374.896044
346.377801,1332.370696,-9474.636058,-3370.820191
346.378123,-814.226536,-9548.656652,-2145.067394
346.378445,-2960.823768,-9104.533087,0.000000
346.378766,-4737.318029,-8068.244768,-1225.752797
346.379088,-5403.503377,-8956.491898,-4519.963438
346.379410,-6291.750507,-9474.636058,-5745.716235
346.379731,-7624.121203,-9844.739029,-5132.839837
346.380053,-7772.162391,-11251.130318,-3983.696590
346.380374,-5773.606348,-11843.295072,-2374.896044
346.380696,-3552.988522,-10436.903782,-2757.943793
346.381018,-1628.453072,-10140.821405,-3064.381992
346.381339,-518.144159,-11029.068536,-2145.067394
346.381661,148.041188,-10584.944971,-1149.143247
346.381983,814.226536,-9252.574275,-1915.238745
346.382304,962.267725,-9622.677246,-2068.457845
346.382626,1480.411884,-11177.109724,-842.705048
346.382948,296.082377,-11029.068536,-919.314598
346.383269,0.000000,-8660.409521,229.828649
346.383591,1480.411884,-8808.450710,-383.047749
346.383913,3997.112087,-8882.471304,-1302.362347
346.384234,3923.091493,-8142.265362,-1532.190996
346.384556,1628.453072,-6883.915261,153.219100
346.384878,-148.041188,-7624.121203,0.000000
346.385199,-1480.411884,-7476.080014,-1455.581446
346.385521,-4219.173869,-8364.327145,-4136.915689
346.385843,-7105.977043,-9400.615463,-4596.572988
346.386164,-8512.368333,-11843.295072,-2221.676944
346.386486,-8216.285956,-11325.150913,-2221.676944
346.386808,-7031.956449,-11029.068536,-3217.601092
346.387129,-5551.544565,-9252.574275,-2911.162892
346.387451,-5107.421000,-8142.265362,-2528.115143
346.387773,-4737.318029,-8586.388927,-2911.162892
346.388094,-2220.617826,-8586.388927,-2528.115143
346.388416,0.000000,-8290.306550,-2451.505594
346.388738,1332.370696,-10140.821405,-1072.533697
346.389059,1924.535449,-10955.047942,2298.286494
346.389381,2442.679609,-10510.924376,2911.162892
346.389703,3701.029710,-8068.244768,1302.362347
346.390024,5477.523971,-7994.224174,0.000000
346.390346,5773.606348,-8956.491898,76.609550
346.390667,4219.173869,-7698.141797,1072.533697
346.390989,2886.803174,-6809.894666,2374.896044
346.391311,3478.967927,-6883.915261,2374.896044
346.391632,4293.194464,-7105.977043,-229.828649
346.391954,4293.194464,-8290.306550,-1915.238745
346.392276,3330.926739,-8956.491898,-1072.533697
346.392597,2072.576638,-9326.594869,0.000000
346.392919,888.247130,-10807.006753,-229.828649
346.393241,-444.123565,-10955.047942,-1838.629195
346.393562,-2812.782580,-9252.574275,-3370.820191
346.393884,-4811.338623,-7994.224174,-5669.106685
346.394206,-5033.400406,-10214.842000,-5439.278036
346.394527,-3923.091493,-12435.459826,-5056.230287
346.394849,-2368.659014,-12509.480420,-4519.963438
346.395171,-592.164754,-12213.398043,-2604.724693
346.395492,1406.391290,-11843.295072,-536.266849
346.395814,2812.782580,-9770.718434,-842.705048
346.396136,2664.741391,-7105.977043,-1915.238745
346.396457,2220.617826,-7476.080014,-2221.676944
346.396779,296.082377,-9696.697840,0.000000
346.397101,-1554.432478,-9992.780217,1302.362347
346.397422,-962.267725,-8586.388927,1302.362347
346.397744,2368.659014,-9474.636058,-1762.019645
346.398066,5921.647536,-11695.253884,-2374.896044
346.398387,6291.750507,-10807.006753,-383.047749
346.398709,4219.173869,-8364.327145,2681.334243
346.399031,2886.803174,-6513.812290,2911.162892
346.399352,3034.844362,-7105.977043,-1225.752797
346.399674,2368.659014,-8290.306550,-6205.373534
346.399995,-814.226536,-8882.471304,-5592.497135
346.400317,-4219.173869,-9474.636058,-2528.115143
346.400639,-5995.668130,-10510.924376,459.657299
346.400960,-6439.791695,-10140.821405,0.000000
346.401282,-6587.832884,-9326.594869,-3140.991542
346.401604,-7105.977043,-9474.636058,-5898.935335
346.401925,-7772.162391,-8586.388927,-5209.449386
346.402247,-8882.471304,-7105.977043,-4136.915689
346.402569,-7179.997637,-7772.162391,-2757.943793
346.402890,-3701.029710,-8660.409521,-2374.896044
346.403212,-2368.659014,-10066.800811,-3140.991542
346.403534,-1702.473667,-11843.295072,-2145.067394
346.403855,148.041188,-11695.253884,-229.828649
346.404177,2220.617826,-9992.780217,-689.485948
346.404499,3034.844362,-9474.636058,-1532.190996
346.404820,3256.906145,-10214.842000,536.266849
346.405142,1998.556043,-9252.574275,995.924147
346.405464,740.205942,-7698.141797,-995.924147
346.405785,1184.329507,-7994.224174,-1378.971896
346.406107,1702.473667,-8734.430116,-306.438199
346.406429,1628.453072,-9252.574275,-536.266849
346.406750,1850.514855,-9844.739029,153.219100
346.407072,2368.659014,-8586.388927,689.485948
346.407394,2368.659014,-7624.121203,-306.438199
346.407715,740.205942,-7402.059420,-2528.115143
346.408037,-2220.617826,-8290.306550,-3753.867940
346.408359,-4811.338623,-10066.800811,-3370.820191
346.408680,-6513.812290,-11695.253884,-3600.648841
346.409002,-7550.100608,-11177.109724,-2987.772442
346.409324,-7698.141797,-10214.842000,-3753.867940
346.409645,-5625.565159,-11029.068536,-4596.572988
346.409967,-2220.617826,-11843.295072,-4903.011187
346.410288,-148.041188,-11473.192101,-4060.306139
346.410610,1554.432478,-10362.883188,-766.095498
346.410932,3330.926739,-9030.512492,995.924147
346.411253,3997.112087,-7476.080014,0.000000
346.411575,4145.153275,-7179.997637,-766.095498
346.411897,3701.029710,-9252.574275,76.609550
346.412218,3108.864956,-9918.759623,1838.629195
346.412540,3182.885551,-8586.388927,1991.848295
346.412862,4441.235652,-8438.347739,1302.362347
346.413183,6217.729913,-8438.347739,1378.971896
346.413505,6513.812290,-7550.100608,536.266849
346.413827,4885.359217,-6883.915261,612.876398
346.414148,3775.050304,-6661.853478,919.314598
346.414470,2738.761985,-7105.977043,-766.095498
346.414792,888.247130,-8290.306550,-2681.334243
346.415113,-962.267725,-10288.862594,-2604.724693
346.415435,-2072.576638,-11029.068536,-1915.238745
346.415757,-2516.700203,-11029.068536,-2221.676944
346.416078,-2886.803174,-9844.739029,-2681.334243
346.416400,-3627.009116,-9104.533087,-3217.601092
346.416722,-4441.235652,-9030.512492,-4826.401637
346.417043,-5033.400406,-9992.780217,-5362.668486
346.417365,-5033.400406,-10807.006753,-4136.915689
346.417687,-3997.112087,-10881.027347,-2834.553343
346.418008,-2442.679609,-9844.739029,-1915.238745
346.418330,-962.267725,-9918.759623,-1378.971896
346.418652,370.102971,-10807.006753,-536.266849
346.418973,74.020594,-9474.636058,0.000000
346.419295,-296.082377,-9622.677246,-842.705048
346.419617,-296.082377,-10140.821405,-919.314598
346.419939,-444.123565,-9844.739029,0.000000
346.420260,-148.041188,-9252.574275,-689.485948
346.420582,1628.453072,-9844.739029,-2298.286494
346.420904,3182.885551,-10362.883188,-1915.238745
346.421226,3256.906145,-10510.924376,-1225.752797
346.421548,2738.761985,-9548.656652,-383.047749
346.421870,2590.720797,-9252.574275,-153.219100
346.422192,2442.679609,-8438.347739,-1302.362347
346.422514,1924.535449,-9622.677246,-2911.162892
346.422836,-222.061783,-10140.821405,-2221.676944
346.423157,-2886.803174,-9474.636058,-1302.362347
346.423479,-5033.400406,-8586.388927,-536.266849
346.423801,-6883.915261,-8364.327145,-1149.143247
346.424123,-8216.285956,-7698.141797,-2374.896044
346.424445,-8364.327145,-7772.162391,-3064.381992
346.424767,-7328.038826,-8660.409521,-3524.039291
346.425089,-6439.791695,-9104.533087,-2834.553343
346.425411,-5181.441594,-8142.265362,-766.095498
346.425732,-3997.112087,-7476.080014,-1532.190996
346.426054,-1554.432478,-9400.615463,-1991.848295
346.426376,148.041188,-10584.944971,-3294.210641
346.426698,370.102971,-11473.192101,-2298.286494
346.427020,222.061783,-12583.501014,0.000000
346.427342,1406.391290,-10436.903782,919.314598
346.427664,3256.906145,-9178.553681,0.000000
346.427986,4885.359217,-8586.388927,-1378.971896
346.428307,5329.482782,-8882.471304,-1072.533697
346.428629,4811.338623,-7846.182985,76.609550
346.428951,4885.359217,-7772.162391,1225.752797
346.429273,5551.544565,-7772.162391,1378.971896
346.429595,5847.626942,-7402.059420,0.000000
346.429917,5107.421000,-7846.182985,-919.314598
346.430239,3330.926739,-8808.450710,-306.438199
346.430561,962.267725,-9030.512492,229.828649
346.430883,-1110.308913,-9474.636058,-689.485948
346.431204,-2886.803174,-9622.677246,-2068.457845
346.431526,-4219.173869,-9400.615463,-3524.039291
346.431848,-4885.359217,-9326.594869,-4366.744339
346.432170,-4367.215058,-9992.780217,-4366.744339
346.432492,-3627.009116,-10955.047942,-3370.820191
346.432814,-2664.741391,-11843.295072,-3677.258390
346.433136,-1554.432478,-11473.192101,-2757.943793
346.433458,-296.082377,-10955.047942,-2298.286494
346.433779,666.185348,-10732.986159,-2604.724693
346.434101,1184.329507,-10436.903782,-2374.896044
346.434423,296.082377,-10214.842000,-1532.190996
346.434745,148.041188,-9844.739029,0.000000
346.435067,592.164754,-9474.636058,76.609550
346.435389,1702.473667,-9326.594869,-689.485948
346.435711,2812.782580,-8660.409521,-919.314598
346.436033,4219.173869,-8512.368333,-383.047749
346.436354,4071.132681,-8068.244768,0.000000
346.436676,4959.379811,-7994.224174,536.266849
346.436998,4737.318029,-7624.121203,153.219100
346.437320,3552.988522,-7994.224174,-1149.143247
346.437642,1776.494261,-9104.533087,-2298.286494
346.437964,-740.205942,-10288.862594,-2451.505594
346.438286,-3182.885551,-10955.047942,-1762.019645
346.438608,-4811.338623,-11251.130318,-1302.362347
346.438930,-6365.771101,-9992.780217,-1608.800546
346.439251,-6513.812290,-8808.450710,-3294.210641
346.439573,-6661.853478,-8438.347739,-4366.744339
346.439895,-6587.832884,-8734.430116,-3907.087040
346.440217,-6661.853478,-8882.471304,-2604.724693
346.440539,-6143.709319,-8438.347739,-1608.800546
346.440861,-4293.194464,-9252.574275,-1991.848295
346.441183,-1776.494261,-10362.883188,-2374.896044
346.441505,-592.164754,-10584.944971,-995.924147
346.441826,-666.185348,-9918.759623,383.047749
346.442148,-222.061783,-9548.656652,0.000000
346.442470,592.164754,-9252.574275,-229.828649
346.442792,962.267725,-9030.512492,-612.876398
346.443114,1406.391290,-8882.471304,-995.924147
346.443436,1258.350101,-8586.388927,-919.314598
346.443758,2146.597232,-8586.388927,-766.095498
346.444080,2590.720797,-8956.491898,-383.047749
346.444401,3182.885551,-9030.512492,0.000000
346.444723,2812.782580,-8290.306550,-383.047749
346.445045,2442.679609,-8734.430116,-1532.190996
346.445367,1628.453072,-9474.636058,-1685.410096
346.445689,0.000000,-10066.800811,-1838.629195
346.446011,-2072.576638,-10658.965565,-1378.971896
346.446333,-3256.906145,-10732.986159,-1762.019645
346.446655,-4367.215058,-10436.903782,-2987.772442
346.446977,-4811.338623,-9326.594869,-4060.306139
346.447298,-4959.379811,-9326.594869,-3983.696590
346.447620,-4367.215058,-10288.862594,-3140.991542
346.447942,-1850.514855,-10732.986159,-2834.553343
346.448264,-222.061783,-9622.677246,-2221.676944
346.448586,1258.350101,-9770.718434,-1532.190996
346.448908,1998.556043,-9992.780217,-842.705048
346.449230,2516.700203,-9400.615463,-689.485948
346.449552,2590.720797,-9548.656652,-1149.143247
346.449873,2368.659014,-9918.759623,0.000000
346.450195,1628.453072,-9474.636058,689.485948
346.450517,1036.288319,-8734.430116,459.657299
346.450839,2294.638420,-8734.430116,-536.266849
346.451161,3997.112087,-8882.471304,-995.924147
346.451483,4959.379811,-8808.450710,-919.314598
346.451805,4811.338623,-7328.038826,0.000000
346.452127,4737.318029,-7105.977043,766.095498
346.452448,4293.194464,-7772.162391,-306.438199
346.452770,2886.803174,-8882.471304,-1532.190996
346.453092,592.164754,-9992.780217,-1685.410096
346.453414,-1628.453072,-9548.656652,-2604.724693
346.453736,-3256.906145,-9918.759623,-2451.505594
346.454058,-4589.276840,-9474.636058,-2451.505594
346.454380,-5477.523971,-9030.512492,-3294.210641
346.454702,-4959.379811,-9548.656652,-4213.525239
346.455024,-4589.276840,-10214.842000,-4136.915689
346.455345,-4145.153275,-10436.903782,-2681.334243
346.455667,-3256.906145,-9992.780217,-1915.238745
346.455989,-1998.556043,-9474.636058,-1685.410096
346.456311,-1110.308913,-9918.759623,-1455.581446
346.456633,-888.247130,-9844.739029,-1225.752797
346.456955,-1332.370696,-9844.739029,-1149.143247
346.457277,-1332.370696,-10436.903782,-766.095498
346.457599,-1036.288319,-10732.986159,0.000000
346.457920,-666.185348,-9622.677246,153.219100
346.458242,222.061783,-9252.574275,-766.095498
346.458564,1110.308913,-8660.409521,-842.705048
346.458886,1332.370696,-8808.450710,-842.705048
346.459208,1258.350101,-8068.244768,-383.047749
346.459530,1332.370696,-7550.100608,-536.266849
346.459852,1554.432478,-8068.244768,-1455.581446
346.460174,1332.370696,-8586.388927,-2451.505594
346.460495,-444.123565,-8586.388927,-2145.067394
346.460817,-2294.638420,-9474.636058,-1532.190996
346.461139,-4441.235652,-9548.656652,-1149.143247
346.461461,-6217.729913,-9548.656652,-1532.190996
346.461783,-7550.100608,-9400.615463,-3600.648841
346.462105,-7105.977043,-9252.574275,-4366.744339
346.462427,-6587.832884,-9474.636058,-4060.306139
346.462749,-5107.421000,-10658.965565,-3753.867940
346.463071,-2886.803174,-10658.965565,-1838.629195
346.463392,-814.226536,-9844.739029,-153.219100
346.463714,592.164754,-9696.697840,-383.047749
346.464036,1924.535449,-10436.903782,-689.485948
346.464358,2294.638420,-8956.491898,-536.266849
346.464680,1776.494261,-8660.409521,-766.095498
346.465002,2368.659014,-9474.636058,459.657299
346.465324,2812.782580,-8956.491898,1225.752797
346.465646,2516.700203,-8438.347739,459.657299
346.465967,3627.009116,-8956.491898,-306.438199
346.466289,4737.318029,-9104.533087,229.828649
346.466611,5033.400406,-8586.388927,-306.438199
346.466933,5033.400406,-8142.265362,0.000000
346.467255,4885.359217,-7624.121203,76.609550
346.467577,4515.256246,-8734.430116,-995.924147
346.467899,3256.906145,-9104.533087,-2221.676944
346.468221,1258.350101,-10066.800811,-3294.210641
346.468542,-888.247130,-11103.089130,-3217.601092
346.468864,-2960.823768,-11991.336260,-2298.286494
346.469186,-5403.503377,-10807.006753,-1685.410096
346.469508,-5181.441594,-10288.862594,-3064.381992
346.469830,-3701.029710,-10732.986159,-5362.668486
346.470152,-2664.741391,-10732.986159,-3600.648841
346.470474,-2664.741391,-9178.553681,-1302.362347
346.470796,-2738.761985,-7698.141797,-612.876398
346.471118,-666.185348,-7994.224174,-919.314598
346.471439,814.226536,-9548.656652,-1762.019645
346.471761,1406.391290,-10214.842000,-2145.067394
346.472083,1776.494261,-10362.883188,-1532.190996
346.472405,2072.576638,-10436.903782,383.047749
346.472727,2072.576638,-10955.047942,1455.581446
346.473049,1554.432478,-9178.553681,766.095498
346.473371,1850.514855,-7994.224174,-1762.019645
346.473693,2738.761985,-9178.553681,-2681.334243
346.474014,2738.761985,-9992.780217,-1915.238745
346.474336,2442.679609,-8142.265362,-459.657299
346.474658,2886.803174,-7994.224174,229.828649
346.474980,3404.947333,-8808.450710,-306.438199
346.475302,2664.741391,-8956.491898,-1455.581446
346.475624,74.020594,-8216.285956,-2145.067394
346.475946,-1924.535449,-8734.430116,-1991.848295
346.476268,-4589.276840,-9400.615463,-1225.752797
346.476589,-6735.874072,-9474.636058,-1072.533697
346.476911,-7846.182985,-8438.347739,-1991.848295
346.477233,-7624.121203,-7994.224174,-2834.553343
346.477555,-6735.874072,-8068.244768,-3140.991542
346.477877,-6291.750507,-8512.368333,-3217.601092
346.478199,-5625.565159,-9474.636058,-1915.238745
346.478521,-4441.235652,-9326.594869,-1225.752797
346.478843,-2738.761985,-9992.780217,-1838.629195
346.479165,-1702.473667,-10658.965565,-2451.505594
346.479486,-1628.453072,-10288.862594,-1608.800546
346.479808,-1554.432478,-10510.924376,-1455.581446
346.480130,-962.267725,-9992.780217,-995.924147
346.480452,0.000000,-9992.780217,-689.485948
346.480774,518.144159,-9474.636058,-1455.581446
346.481096,1480.411884,-9326.594869,-1991.848295
346.481418,2368.659014,-9918.759623,-766.095498
346.481740,2960.823768,-9474.636058,-459.657299
346.482061,3478.967927,-8438.347739,306.438199
346.482383,4071.132681,-7476.080014,-536.266849
346.482705,3923.091493,-7254.018232,-1302.362347
346.483027,2960.823768,-7772.162391,-919.314598
346.483349,1036.288319,-9178.553681,-995.924147
346.483671,-814.226536,-9918.759623,-1532.190996
346.483993,-2664.741391,-10362.883188,-2068.457845
346.484315,-4589.276840,-10214.842000,-2298.286494
346.484636,-5033.400406,-10362.883188,-2834.553343
346.484958,-5107.421000,-10955.047942,-4673.182538
346.485280,-3997.112087,-11621.233289,-4060.306139
346.485602,-2590.720797,-11621.233289,-2451.505594
346.485924,-1184.329507,-10214.842000,-1149.143247
346.486246,888.247130,-9918.759623,-1149.143247
346.486568,2220.617826,-9400.615463,-1149.143247
346.486890,2368.659014,-9178.553681,-842.705048
346.487212,1702.473667,-9474.636058,-536.266849
346.487533,1110.308913,-9844.739029,842.705048
346.487855,814.226536,-9474.636058,1302.362347
346.488177,1184.329507,-8512.368333,536.266849
346.488499,2442.679609,-8290.306550,0.000000
346.488821,4293.194464,-8512.368333,0.000000
346.489143,5181.441594,-8586.388927,0.000000
346.489465,5255.462188,-7476.080014,1072.533697
346.489787,5847.626942,-7105.977043,1149.143247
346.490108,5033.400406,-7031.956449,-689.485948
346.490430,4293.194464,-8068.244768,-2374.896044
346.490752,1924.535449,-9696.697840,-2604.724693
346.491074,-518.144159,-10584.944971,-2374.896044
346.491396,-2590.720797,-10584.944971,-1608.800546
346.491718,-3478.967927,-10140.821405,-1762.019645
346.492040,-4367.215058,-9696.697840,-2911.162892
346.492362,-4367.215058,-9770.718434,-3830.477490
346.492683,-3997.112087,-9252.574275,-3753.867940
346.493005,-3552.988522,-8956.491898,-3064.381992
346.493327,-2664.741391,-9252.574275,-1455.581446
346.493649,-2590.720797,-8216.285956,-1149.143247
346.493971,-2368.659014,-9104.533087,-1532.190996
346.494293,-2220.617826,-10584.944971,-1685.410096
346.494615,-1850.514855,-10955.047942,-1072.533697
346.494937,-1480.411884,-10510.924376,-766.095498
346.495259,-1036.288319,-9770.718434,229.828649
346.495580,-592.164754,-9474.636058,612.876398
346.495902,0.000000,-9030.512492,-995.924147
346.496224,518.144159,-9178.553681,-2451.505594
346.496546,666.185348,-8586.388927,-2221.676944
346.496868,666.185348,-8290.306550,-2604.724693
346.497190,1036.288319,-8882.471304,-1608.800546
346.497512,1850.514855,-9400.615463,-1762.019645
346.497834,2072.576638,-10214.842000,-2374.896044
346.498155,1406.391290,-10214.842000,-2221.676944
346.498477,0.000000,-9326.594869,-1302.362347
346.498799,-2072.576638,-8956.491898,-1838.629195
346.499121,-3701.029710,-8808.450710,-2068.457845
346.499443,-5255.462188,-8660.409521,-2987.772442
346.499765,-5995.668130,-8956.491898,-3294.210641
346.500087,-5329.482782,-9474.636058,-2987.772442
346.500409,-4589.276840,-9770.718434,-2604.724693
346.500730,-3923.091493,-8956.491898,-2068.457845
346.501052,-2738.761985,-9474.636058,-1072.533697
346.501374,-1998.556043,-9696.697840,-1378.971896
346.501696,-666.185348,-10362.883188,-2221.676944
346.502018,222.061783,-11177.109724,-2145.067394
346.502340,0.000000,-11547.212695,-919.314598
346.502662,0.000000,-10658.965565,459.657299
346.502984,666.185348,-9252.574275,229.828649
346.503306,1480.411884,-8734.430116,-536.266849
346.503627,2664.741391,-9030.512492,-1378.971896
346.503949,3256.906145,-8660.409521,-766.095498
346.504271,3552.988522,-8438.347739,-536.266849
346.504593,4367.215058,-7994.224174,766.095498
346.504915,4515.256246,-7772.162391,536.266849
346.505237,4293.194464,-7254.018232,-689.485948
346.505559,3330.926739,-7994.224174,-1225.752797
346.505881,2072.576638,-8882.471304,-1838.629195
346.506202,592.164754,-9474.636058,-1608.800546
346.506524,-592.164754,-10288.862594,-1225.752797
346.506846,-1998.556043,-10214.842000,-1915.238745
346.507168,-2738.761985,-10214.842000,-3217.601092
346.507490,-3478.967927,-10658.965565,-3294.210641
346.507812,-3627.009116,-10807.006753,-3140.991542
346.508134,-2664.741391,-10584.944971,-2987.772442
346.508456,-1850.514855,-9474.636058,-2374.896044
346.508777,-518.144159,-8808.450710,-1455.581446
346.509099,518.144159,-9104.533087,-1608.800546
346.509421,1480.411884,-9918.759623,-1302.362347
346.509743,1850.514855,-10658.965565,-842.705048
346.510065,1332.370696,-11621.233289,0.000000
346.510387,444.123565,-10436.903782,1532.190996
346.510709,740.205942,-8512.368333,1149.143247
346.511031,1850.514855,-8142.265362,-459.657299
346.511353,2368.659014,-7994.224174,-1302.362347
346.511674,2294.638420,-7698.141797,-995.924147
346.511996,2590.720797,-8068.244768,-689.485948
346.512318,3627.009116,-8734.430116,0.000000
346.512640,3627.009116,-7920.203579,-689.485948
346.512962,3404.947333,-8438.347739,-1455.581446
346.513284,1554.432478,-9326.594869,-1608.800546
346.513606,-592.164754,-10140.821405,-1455.581446
346.513928,-2812.782580,-9992.780217,-2298.286494
346.514249,-4441.235652,-9918.759623,-1608.800546
346.514571,-5403.503377,-9400.615463,-2834.553343
346.514893,-5995.668130,-9252.574275,-3217.601092
346.515215,-5625.565159,-9474.636058,-3677.258390
346.515537,-5255.462188,-9844.739029,-2987.772442
346.515859,-4737.318029,-9918.759623,-1762.019645
346.516181,-4663.297435,-8956.491898,-1149.143247
346.516503,-4441.235652,-8438.347739,-2068.457845
346.516824,-3552.988522,-9474.636058,-2911.162892
346.517146,-2442.679609,-10362.883188,-2604.724693
346.517468,-1480.411884,-11177.109724,-1455.581446
346.517790,-1184.329507,-10807.006753,0.000000
346.518112,-296.082377,-10066.800811,1302.362347
346.518434,814.226536,-8956.491898,536.266849
346.518756,1776.494261,-9178.553681,-1991.848295
346.519078,2516.700203,-9252.574275,-2298.286494
346.519400,2960.823768,-8882.471304,-1225.752797
346.519721,2960.823768,-8586.388927,-612.876398
346.520043,3923.091493,-8142.265362,-383.047749
346.520365,4663.297435,-8290.306550,-919.314598
346.520687,4071.132681,-8586.388927,-1532.190996
346.521009,2368.659014,-8438.347739,-1378.971896
346.521331,222.061783,-8216.285956,-1225.752797
346.521653,-1850.514855,-8808.450710,-1991.848295
346.521975,-3478.967927,-9252.574275,-2145.067394
346.522296,-5033.400406,-9474.636058,-2987.772442
346.522618,-5551.544565,-10066.800811,-4213.525239
346.522940,-5107.421000,-9918.759623,-3753.867940
346.523262,-4737.318029,-10140.821405,-3370.820191
346.523583,-4071.132681,-10881.027347,-2834.553343
346.523905,-1850.514855,-11177.109724,-2451.505594
346.524227,74.020594,-10140.821405,-2221.676944
346.524549,1332.370696,-9844.739029,-2451.505594
346.524871,2294.638420,-9918.759623,-1072.533697
346.525192,2516.700203,-9918.759623,-612.876398
346.525514,2516.700203,-9844.739029,-459.657299
346.525836,2294.638420,-10140.821405,0.000000
346.526158,2368.659014,-10066.800811,919.314598
346.526479,2960.823768,-8586.388927,1302.362347
346.526801,4515.256246,-8068.244768,0.000000
346.527123,5773.606348,-8142.265362,153.219100
346.527445,6439.791695,-7846.182985,306.438199
346.527766,6587.832884,-7105.977043,229.828649
346.528088,5477.523971,-7402.059420,-306.438199
346.528410,4071.132681,-9030.512492,-689.485948
346.528732,814.226536,-10066.800811,-1225.752797
346.529053,-2590.720797,-10140.821405,-2374.896044
346.529375,-4811.338623,-10436.903782,-2528.115143
346.529697,-5921.647536,-10510.924376,-3140.991542
346.530019,-6365.771101,-10436.903782,-3830.477490
346.530340,-5995.668130,-9252.574275,-2987.772442
346.530662,-4885.359217,-8882.471304,-2221.676944
346.530984,-3701.029710,-9030.512492,-2145.067394
346.531306,-3182.885551,-9326.594869,-2374.896044
346.531627,-2516.700203,-9696.697840,-1149.143247
346.531949,-2442.679609,-9696.697840,-995.924147
346.532271,-2368.659014,-9992.780217,-689.485948
346.532593,-1850.514855,-10584.944971,0.000000
346.532914,-1480.411884,-9844.739029,-306.438199
346.533236,-592.164754,-8216.285956,0.000000
346.533558,74.020594,-8068.244768,-536.266849
346.533880,1702.473667,-9326.594869,-1302.362347
346.534201,2442.679609,-9696.697840,-919.314598
346.534523,2738.761985,-9326.594869,153.219100
346.534845,2886.803174,-9104.533087,383.047749
346.535167,4071.132681,-8808.450710,-995.924147
346.535488,3478.967927,-9178.553681,-2451.505594
346.535810,2368.659014,-9474.636058,-2221.676944
346.536132,0.000000,-9548.656652,-1149.143247
346.536454,-2294.638420,-9548.656652,-842.705048
346.536776,-3404.947333,-9252.574275,-1378.971896
346.537097,-5033.400406,-8734.430116,-2911.162892
346.537419,-5995.668130,-8660.409521,-3907.087040
346.537741,-6735.874072,-8882.471304,-3524.039291
346.538063,-6439.791695,-9326.594869,-3064.381992
346.538384,-5995.668130,-8734.430116,-2987.772442
346.538706,-4663.297435,-8808.450710,-2528.115143
346.539028,-3775.050304,-9326.594869,-2221.676944
346.539350,-2886.803174,-10362.883188,-2528.115143
346.539671,-2294.638420,-10436.903782,-2911.162892
346.539993,-1110.308913,-10881.027347,-2298.286494
346.540315,0.000000,-11695.253884,-766.095498
346.540637,444.123565,-10510.924376,0.000000
346.540958,1554.432478,-8734.430116,-229.828649
346.541280,3034.844362,-8068.244768,-1455.581446
346.541602,4663.297435,-8956.491898,-1532.190996
346.541924,4959.379811,-9548.656652,-766.095498
346.542245,4515.256246,-8882.471304,1149.143247
346.542567,5033.400406,-7624.121203,1532.190996
346.542889,6587.832884,-7254.018232,0.000000
346.543211,6735.874072,-7550.100608,-2221.676944
346.543532,5625.565159,-7846.182985,-1302.362347
346.543854,3108.864956,-8956.491898,-766.095498
346.544176,814.226536,-9770.718434,-995.924147
346.544498,-1776.494261,-10214.842000,-1608.800546
346.544819,-4071.132681,-10214.842000,-2604.724693
346.545141,-5107.421000,-10362.883188,-4060.306139
346.545463,-4515.256246,-11177.109724,-4979.620737
346.545785,-3552.988522,-11473.192101,-3524.039291
346.546106,-2664.741391,-10732.986159,-1302.362347
346.546428,-1850.514855,-9252.574275,0.000000
346.546750,-814.226536,-8290.306550,-842.705048
346.547072,0.000000,-9104.533087,-1915.238745
346.547394,0.000000,-9622.677246,-2145.067394
346.547715,-148.041188,-10584.944971,-1455.581446
346.548037,-1036.288319,-10510.924376,306.438199
346.548359,-1110.308913,-9770.718434,2298.286494
346.548681,-148.041188,-8734.430116,1378.971896
346.549002,1628.453072,-7994.224174,-2068.457845
346.549324,3701.029710,-8808.450710,-2604.724693
346.549646,4145.153275,-9548.656652,-919.314598
346.549968,3775.050304,-8956.491898,995.924147
346.550289,3627.009116,-7920.203579,919.314598
346.550611,3849.070898,-8734.430116,0.000000
346.550933,2812.782580,-9770.718434,-2374.896044
346.551255,592.164754,-10214.842000,-2987.772442
346.551576,-2442.679609,-10288.862594,-1838.629195
346.551898,-4885.359217,-10066.800811,76.609550
346.552220,-5699.585753,-9178.553681,306.438199
346.552542,-5551.544565,-7920.203579,-2451.505594
346.552863,-5329.482782,-8068.244768,-3753.867940
346.553185,-4589.276840,-8438.347739,-3370.820191
346.553507,-4441.235652,-8660.409521,-2528.115143
346.553829,-4515.256246,-8438.347739,-306.438199
346.554150,-3627.009116,-8290.306550,536.266849
346.554472,-3182.885551,-9252.574275,-1608.800546
346.554794,-2368.659014,-10288.862594,-3524.039291
346.555116,-2220.617826,-11177.109724,-2987.772442
346.555437,-2072.576638,-10955.047942,-995.924147
346.555759,-1702.473667,-9474.636058,919.314598
346.556081,-592.164754,-8734.430116,459.657299
346.556403,518.144159,-9474.636058,-995.924147
346.556724,1036.288319,-9326.594869,-1762.019645
346.557046,1406.391290,-9474.636058,-1991.848295
346.557368,1776.494261,-9030.512492,-1225.752797
346.557690,2516.700203,-8438.347739,0.000000
346.558012,3256.906145,-7920.203579,459.657299
346.558333,3330.926739,-7920.203579,-459.657299
346.558655,2812.782580,-7920.203579,-1302.362347
346.558977,1998.556043,-8216.285956,-2451.505594
346.559299,-222.061783,-8216.285956,-2374.896044
346.559620,-2738.761985,-8660.409521,-1072.533697
346.559942,-3849.070898,-9474.636058,-1915.238745
346.560264,-3330.926739,-10288.862594,-4213.525239
346.560586,-2146.597232,-11177.109724,-4903.011187
346.560907,-2146.597232,-11473.192101,-4136.915689
346.561229,-1850.514855,-10214.842000,-1915.238745
346.561551,-814.226536,-9104.533087,-1532.190996
346.561873,222.061783,-9252.574275,-2911.162892
346.562194,1036.288319,-10214.842000,-3830.477490
346.562516,1110.308913,-10436.903782,-3677.258390
346.562838,962.267725,-11029.068536,-2374.896044
346.563160,370.102971,-11621.233289,0.000000
346.563481,888.247130,-10066.800811,1072.533697
346.563803,1554.432478,-8956.491898,0.000000
346.564125,2664.741391,-9030.512492,-2145.067394
346.564447,3182.885551,-9400.615463,-1302.362347
346.564768,3108.864956,-8956.491898,76.609550
346.565090,3404.947333,-7031.956449,1072.533697
346.565412,4737.318029,-6957.935855,383.047749
346.565734,5107.421000,-8364.327145,-612.876398
346.566055,4145.153275,-9548.656652,-1302.362347
346.566377,1924.535449,-10658.965565,-1762.019645
346.566699,148.041188,-10881.027347,-1685.410096
346.567021,-1406.391290,-10807.006753,-919.314598
346.567342,-2590.720797,-9992.780217,-1072.533697
346.567664,-4515.256246,-9474.636058,-2068.457845
346.567986,-4589.276840,-9104.533087,-1991.848295
346.568308,-4219.173869,-9326.594869,-3140.991542
346.568629,-4145.153275,-9326.594869,-2757.943793
346.568951,-3775.050304,-8438.347739,-1225.752797
346.569273,-2886.803174,-8364.327145,-842.705048
346.569595,-2220.617826,-9474.636058,-1302.362347
346.569917,-1702.473667,-9992.780217,-1532.190996
346.570238,-2368.659014,-10066.800811,-612.876398
346.570560,-2960.823768,-9400.615463,0.000000
346.570882,-2886.803174,-8882.471304,229.828649
346.571204,-2516.700203,-8438.347739,-383.047749
346.571525,-1480.411884,-8216.285956,-842.705048
346.571847,-370.102971,-8512.368333,-766.095498
346.572169,962.267725,-9326.594869,-612.876398
346.572491,2146.597232,-9548.656652,0.000000
346.572812,3182.885551,-9474.636058,76.609550
346.573134,3627.009116,-9030.512492,-766.095498
346.573456,3256.906145,-8882.471304,-1072.533697
346.573778,1850.514855,-8734.430116,-1302.362347
346.574099,-518.144159,-8734.430116,-1225.752797
346.574421,-2738.761985,-8808.450710,-1685.410096
346.574743,-4367.215058,-9104.533087,-1608.800546
346.575065,-4737.318029,-9400.615463,-2451.505594
346.575386,-5181.441594,-9474.636058,-2145.067394
346.575708,-4959.379811,-8660.409521,-1991.848295
346.576030,-3627.009116,-9030.512492,-2451.505594
346.576352,-2294.638420,-9696.697840,-2757.943793
346.576673,-1924.535449,-9918.759623,-2221.676944
346.576995,-2146.597232,-8956.491898,-1608.800546
346.577317,-1702.473667,-9770.718434,-2451.505594
346.577639,-592.164754,-11029.068536,-2987.772442
346.577960,0.000000,-11621.233289,-2451.505594
346.578282,0.000000,-10807.006753,-1072.533697
346.578604,222.061783,-9622.677246,-766.095498
346.578926,1258.350101,-9400.615463,-766.095498
346.579247,2072.576638,-9474.636058,-1762.019645
346.579569,2442.679609,-9326.594869,-1838.629195
346.579891,2886.803174,-8660.409521,-1225.752797
346.580213,3775.050304,-7920.203579,-1072.533697
346.580535,4885.359217,-8142.265362,-995.924147
346.580856,5329.482782,-8216.285956,-1072.533697
346.581178,4959.379811,-8142.265362,-1455.581446
346.581500,3923.091493,-9400.615463,-1608.800546
346.581822,1998.556043,-9770.718434,-919.314598
346.582143,-814.226536,-9474.636058,-1378.971896
346.582465,-2220.617826,-9400.615463,-2298.286494
346.582787,-2516.700203,-9992.780217,-3677.258390
346.583109,-2516.700203,-9992.780217,-3677.258390
346.583430,-2220.617826,-9548.656652,-3217.601092
346.583752,-1924.535449,-8364.327145,-2221.676944
346.584074,-1036.288319,-9030.512492,-1685.410096
346.584396,-740.205942,-9474.636058,-1915.238745
346.584717,-1036.288319,-9770.718434,-2298.286494
346.585039,-888.247130,-10214.842000,-1991.848295
346.585361,-1184.329507,-10807.006753,-1838.629195
346.585683,-1184.329507,-10510.924376,-383.047749
346.586004,-1480.411884,-9696.697840,229.828649
346.586326,-962.267725,-9030.512492,-459.657299
346.586648,-296.082377,-9104.533087,-995.924147
346.586970,518.144159,-8734.430116,-612.876398
346.587291,1258.350101,-8438.347739,0.000000
346.587613,2294.638420,-7846.182985,-459.657299
346.587935,3627.009116,-7994.224174,-536.266849
346.588257,3552.988522,-9030.512492,-1072.533697
346.588578,2442.679609,-10362.883188,-1302.362347
346.588900,592.164754,-9770.718434,-612.876398
346.589222,-1406.391290,-9992.780217,0.000000
346.589544,-3256.906145,-9400.615463,-536.266849
346.589865,-4441.235652,-8956.491898,-1225.752797
346.590187,-5329.482782,-8142.265362,-2451.505594
346.590509,-5403.503377,-7624.121203,-2911.162892
346.590831,-4737.318029,-7698.141797,-2451.505594
346.591153,-4071.132681,-8808.450710,-1532.190996
346.591474,-3627.009116,-9400.615463,-1838.629195
346.591796,-3034.844362,-9548.656652,-1838.629195
346.592118,-2664.741391,-10066.800811,-1072.533697
346.592440,-2146.597232,-10214.842000,-1455.581446
346.592761,-1850.514855,-10881.027347,-1915.238745
346.593083,-1184.329507,-10732.986159,-1149.143247
346.593405,-1036.288319,-10214.842000,0.000000
346.593727,-666.185348,-9178.553681,0.000000
346.594048,-222.061783,-8660.409521,-383.047749
346.594370,1184.329507,-8512.368333,-1378.971896
346.594692,1554.432478,-9178.553681,-1225.752797
346.595014,1480.411884,-9252.574275,0.000000
346.595335,1628.453072,-7994.224174,536.266849
346.595657,3034.844362,-7476.080014,-995.924147
346.595979,4515.256246,-8142.265362,-2374.896044
346.596301,3404.947333,-8290.306550,-1838.629195
346.596622,1628.453072,-8808.450710,-536.266849
346.596944,-148.041188,-9474.636058,-842.705048
346.597266,-1924.535449,-9770.718434,-1685.410096
346.597588,-2294.638420,-10214.842000,-2987.772442
346.597909,-3256.906145,-9474.636058,-4903.011187
346.598231,-2738.761985,-9918.759623,-4673.182538
346.598553,-1850.514855,-10362.883188,-3753.867940
346.598875,-814.226536,-10214.842000,-2451.505594
346.599196,592.164754,-9474.636058,-1532.190996
346.599518,1184.329507,-8660.409521,-1608.800546
346.599840,1628.453072,-9252.574275,-2987.772442
346.600162,1554.432478,-9918.759623,-2911.162892
346.600483,740.205942,-10288.862594,-2068.457845
346.600805,0.000000,-10584.944971,-842.705048
346.601127,-370.102971,-10140.821405,229.828649
346.601449,148.041188,-9474.636058,-1149.143247
346.601770,1110.308913,-9548.656652,-2068.457845
346.602092,2368.659014,-9252.574275,-2298.286494
346.602414,2886.803174,-8512.368333,-1532.190996
346.602736,3849.070898,-8586.388927,-1072.533697
346.603058,4293.194464,-8364.327145,-689.485948
346.603379,3997.112087,-9104.533087,-1608.800546
346.603701,3034.844362,-9696.697840,-2681.334243
346.604023,1628.453072,-10214.842000,-2145.067394
346.604345,148.041188,-10658.965565,-1302.362347
346.604666,-1554.432478,-9622.677246,-1072.533697
346.604988,-2738.761985,-9622.677246,-1762.019645
346.605310,-3627.009116,-9474.636058,-2221.676944
346.605632,-3775.050304,-9326.594869,-2528.115143
346.605953,-3775.050304,-8216.285956,-2834.553343
346.606275,-2738.761985,-8290.306550,-2757.943793
346.606597,-2072.576638,-7772.162391,-1225.752797
346.606919,-962.267725,-8660.409521,-459.657299
346.607240,-592.164754,-9178.553681,-995.924147
346.607562,-592.164754,-9770.718434,-1072.533697
346.607884,-1406.391290,-10510.924376,-689.485948
346.608206,-2368.659014,-10288.862594,76.609550
346.608527,-2664.741391,-9992.780217,0.000000
346.608849,-2368.659014,-9178.553681,-536.266849
346.609171,-1628.453072,-8956.491898,-1302.362347
346.609493,-962.267725,-8660.409521,-995.924147
346.609814,0.000000,-8512.368333,-612.876398
346.610136,222.061783,-8882.471304,-536.266849
346.610458,592.164754,-9252.574275,0.000000
346.610780,740.205942,-8808.450710,-766.095498
346.611101,222.061783,-8660.409521,-1149.143247
346.611423,-592.164754,-8882.471304,-1302.362347
346.611745,-1998.556043,-9326.594869,-1455.581446
346.612067,-2738.761985,-9548.656652,-1072.533697
346.612388,-4219.173869,-9474.636058,-1072.533697
346.612710,-4811.338623,-9696.697840,-1378.971896
346.613032,-4441.235652,-9622.677246,-2145.067394
346.613354,-2664.741391,-9548.656652,-2681.334243
346.613676,-1776.494261,-9474.636058,-1991.848295
346.613997,-1184.329507,-8808.450710,-1378.971896
346.614319,-296.082377,-8808.450710,-1378.971896
346.614641,444.123565,-9178.553681,-1608.800546
346.614963,592.164754,-9992.780217,-1608.800546
346.615284,-444.123565,-10362.883188,-1455.581446
346.615606,-740.205942,-10955.047942,-842.705048
346.615928,-1036.288319,-10881.027347,-689.485948
346.616250,-814.226536,-9844.739029,-536.266849
346.616571,148.041188,-8808.450710,-1532.190996
346.616893,1036.288319,-8660.409521,-1532.190996
346.617215,1850.514855,-8216.285956,-1378.971896
346.617537,2442.679609,-8290.306550,-1072.533697
346.617858,2812.782580,-7772.162391,-842.705048
346.618180,3701.029710,-7920.203579,-995.924147
346.618502,4441.235652,-8290.306550,-1685.410096
346.618824,3997.112087,-9474.636058,-2221.676944
346.619145,3034.844362,-9474.636058,-1378.971896
346.619467,1702.473667,-9770.718434,-1915.238745
346.619789,962.267725,-10362.883188,-2221.676944
346.620111,296.082377,-10436.903782,-3447.429741
346.620432,-1184.329507,-10066.800811,-4060.306139
346.620754,-962.267725,-10066.800811,-3294.210641
346.621076,-888.247130,-9548.656652,-2374.896044
346.621398,-444.123565,-9844.739029,-2451.505594
346.621719,74.020594,-9548.656652,-2221.676944
346.622041,1036.288319,-8364.327145,-1838.629195
346.622364,1036.288319,-8364.327145,-1532.190996
346.622686,1110.308913,-9326.594869,-1915.238745
346.623008,666.185348,-10436.903782,-1378.971896
346.623329,-370.102971,-10955.047942,-1149.143247
346.623651,-1110.308913,-10955.047942,-536.266849
346.623973,-1480.411884,-9844.739029,-536.266849
346.624295,-666.185348,-9696.697840,-1532.190996
346.624617,0.000000,-8586.388927,-1838.629195
346.624939,74.020594,-8290.306550,-1532.190996
346.625261,740.205942,-8734.430116,-1149.143247
346.625583,2516.700203,-9252.574275,-1149.143247
346.625904,2960.823768,-9178.553681,-2221.676944
346.626226,2516.700203,-9622.677246,-2451.505594
346.626548,814.226536,-10066.800811,-842.705048
346.626870,-1702.473667,-10288.862594,-612.876398
346.627192,-3627.009116,-10066.800811,-1225.752797
346.627514,-4885.359217,-9548.656652,-1762.019645
346.627836,-5699.585753,-8808.450710,-2374.896044
346.628158,-6069.688724,-7994.224174,-3064.381992
346.628479,-4885.359217,-7994.224174,-2221.676944
346.628801,-3849.070898,-8956.491898,-1302.362347
346.629123,-2368.659014,-9252.574275,-766.095498
346.629445,-2294.638420,-8956.491898,-459.657299
346.629767,-2072.576638,-9474.636058,-1378.971896
346.630089,-1998.556043,-10732.986159,-1532.190996
346.630411,-2368.659014,-10436.903782,-1302.362347
346.630733,-2368.659014,-11029.068536,-842.705048
346.631054,-1776.494261,-10732.986159,229.828649
346.631376,-888.247130,-10288.862594,0.000000
346.631698,-370.102971,-9178.553681,-536.266849
346.632020,370.102971,-8808.450710,-306.438199
346.632342,1258.350101,-8364.327145,0.000000
346.632664,1184.329507,-8142.265362,-306.438199
346.632986,1036.288319,-7698.141797,0.000000
346.633308,1110.308913,-7179.997637,-306.438199
346.633629,1406.391290,-7105.977043,-1685.410096
346.633951,1628.453072,-7698.141797,-1838.629195
346.634273,888.247130,-8512.368333,-1302.362347
346.634595,-666.185348,-9548.656652,-1149.143247
346.634917,-1850.514855,-9918.759623,-1378.971896
346.635239,-2294.638420,-10288.862594,-2145.067394
346.635561,-2442.679609,-10436.903782,-3140.991542
346.635883,-2294.638420,-9622.677246,-3217.601092
346.636204,-1554.432478,-9474.636058,-2911.162892
346.636526,-888.247130,-9770.718434,-1991.848295
346.636848,444.123565,-9622.677246,-1149.143247
346.637170,1702.473667,-8956.491898,-1685.410096
346.637492,2664.741391,-9252.574275,-1762.019645
346.637814,3404.947333,-10214.842000,-842.705048
346.638136,1924.535449,-10288.862594,0.000000
346.638458,814.226536,-10066.800811,383.047749
346.638779,370.102971,-9770.718434,76.609550
346.639101,962.267725,-8882.471304,-1378.971896
346.639423,1554.432478,-8290.306550,-2604.724693
346.639745,1406.391290,-8438.347739,-1608.800546
346.640067,1850.514855,-9252.574275,-1072.533697
346.640389,2812.782580,-9400.615463,-1302.362347
346.640711,3552.988522,-9844.739029,-1762.019645
346.641033,3923.091493,-9992.780217,-1762.019645
346.641354,3256.906145,-9918.759623,-3447.429741
346.641676,1776.494261,-9548.656652,-3370.820191
346.641998,666.185348,-10436.903782,-2451.505594
346.642320,-666.185348,-10436.903782,-2221.676944
346.642642,-1998.556043,-9770.718434,-1762.019645
346.642964,-2812.782580,-9400.615463,-2374.896044
346.643286,-3182.885551,-9474.636058,-2757.943793
346.643608,-3404.947333,-9030.512492,-2451.505594
346.643929,-2886.803174,-8438.347739,-2528.115143
346.644251,-2220.617826,-8882.471304,-1838.629195
346.644573,-1702.473667,-8956.491898,-766.095498
346.644895,-888.247130,-8660.409521,-919.314598
346.645217,-814.226536,-9178.553681,-1072.533697
346.645539,-962.267725,-10288.862594,-842.705048
346.645861,-1554.432478,-11251.130318,-689.485948
346.646183,-2072.576638,-11251.130318,-383.047749
346.646504,-1554.432478,-9918.759623,-766.095498
346.646826,-962.267725,-9622.677246,-1608.800546
346.647148,-222.061783,-9696.697840,-2221.676944
346.647470,-148.041188,-9844.739029,-1149.143247
346.647792,-814.226536,-8808.450710,-995.924147
346.648114,-222.061783,-8364.327145,-459.657299
346.648436,74.020594,-8438.347739,-1225.752797
346.648758,0.000000,-8364.327145,-1455.581446
346.649079,-1036.288319,-7476.080014,-1072.533697
346.649401,-2220.617826,-7698.141797,-766.095498
346.649723,-2516.700203,-8512.368333,-995.924147
346.650045,-3627.009116,-9696.697840,-1608.800546
346.650367,-5255.462188,-9326.594869,-1915.238745
346.650689,-6069.688724,-9030.512492,-1838.629195
346.651011,-5181.441594,-9474.636058,-2068.457845
346.651333,-3552.988522,-10436.903782,-3370.820191
346.651654,-2146.597232,-10732.986159,-1915.238745
346.651976,-888.247130,-10732.986159,-689.485948
346.652298,518.144159,-9770.718434,0.000000
346.652620,1998.556043,-9622.677246,0.000000
346.652942,2294.638420,-9400.615463,-459.657299
346.653264,2368.659014,-9770.718434,-306.438199
346.653586,1332.370696,-9696.697840,0.000000
346.653908,740.205942,-9474.636058,689.485948
346.654229,444.123565,-8808.450710,689.485948
346.654551,444.123565,-8068.244768,0.000000
346.654873,1110.308913,-7920.203579,0.000000
346.655195,1332.370696,-7846.182985,-995.924147
346.655517,1998.556043,-8068.244768,-1455.581446
346.655839,2812.782580,-7772.162391,-1302.362347
346.656161,3552.988522,-7698.141797,-2221.676944
346.656483,2960.823768,-7920.203579,-2604.724693
346.656804,1998.556043,-9474.636058,-2451.505594
346.657126,148.041188,-10510.924376,-2987.772442
346.657448,-518.144159,-11769.274478,-3830.477490
346.657770,-1036.288319,-12509.480420,-4366.744339
346.658092,-1628.453072,-12287.418637,-3600.648841
346.658414,-1628.453072,-11251.130318,-1302.362347
346.658736,-1628.453072,-8660.409521,-689.485948
346.659058,-740.205942,-8660.409521,-2604.724693
346.659379,518.144159,-8290.306550,-2604.724693
346.659701,2220.617826,-8068.244768,-2221.676944
346.660023,2516.700203,-8586.388927,-1915.238745
346.660345,2738.761985,-10288.862594,536.266849
346.660667,2442.679609,-11769.274478,2221.676944
346.660989,1480.411884,-11251.130318,842.705048
346.661311,0.000000,-9474.636058,-766.095498
346.661633,-1110.308913,-8808.450710,-689.485948
346.661954,-1628.453072,-7772.162391,-2145.067394
346.662276,-1184.329507,-8216.285956,-3370.820191
346.662598,0.000000,-9326.594869,-2221.676944
346.662920,1036.288319,-10066.800811,-842.705048
346.663242,1110.308913,-9548.656652,-995.924147
346.663564,592.164754,-9252.574275,-1608.800546
346.663886,222.061783,-8956.491898,-1608.800546
346.664208,-740.205942,-8808.450710,-2528.115143
346.664529,-2664.741391,-9030.512492,-3370.820191
346.664851,-4219.173869,-9770.718434,-2145.067394
346.665173,-5107.421000,-9400.615463,-1532.190996
346.665495,-5477.523971,-8216.285956,-1762.019645
346.665817,-4515.256246,-8438.347739,-2911.162892
346.666139,-3108.864956,-9770.718434,-2451.505594
346.666461,-2664.741391,-10288.862594,-1915.238745
346.666783,-2516.700203,-10362.883188,-766.095498
346.667104,-740.205942,-9844.739029,76.609550
346.667426,518.144159,-9178.553681,-383.047749
346.667748,740.205942,-8660.409521,-1455.581446
346.668070,0.000000,-9030.512492,-1072.533697
346.668392,-444.123565,-9992.780217,0.000000
346.668714,-518.144159,-10584.944971,459.657299
346.669036,-592.164754,-10214.842000,919.314598
346.669358,666.185348,-10658.965565,383.047749
346.669679,1036.288319,-9622.677246,-229.828649
346.670001,814.226536,-8438.347739,0.000000
346.670323,296.082377,-7624.121203,-612.876398
346.670645,518.144159,-6957.935855,-1915.238745
346.670967,148.041188,-6439.791695,-1378.971896
346.671289,296.082377,-7031.956449,-1762.019645
346.671611,296.082377,-8290.306550,-2145.067394
346.671933,444.123565,-9548.656652,-1915.238745
346.672254,-444.123565,-10807.006753,-1532.190996
346.672576,-2960.823768,-10214.842000,-1072.533697
346.672898,-4737.318029,-9252.574275,-2451.505594
346.673220,-4885.359217,-9104.533087,-4673.182538
346.673542,-3701.029710,-10140.821405,-5286.058936
346.673864,-2738.761985,-10584.944971,-4443.353888
346.674186,-1110.308913,-10214.842000,-1455.581446
346.674508,444.123565,-10881.027347,-229.828649
346.674829,2220.617826,-10584.944971,229.828649
346.675151,3034.844362,-9474.636058,229.828649
346.675473,2886.803174,-8734.430116,-689.485948
346.675795,2812.782580,-9474.636058,-1838.629195
346.676117,2368.659014,-9770.718434,-689.485948
346.676439,1628.453072,-9326.594869,383.047749
346.676761,1036.288319,-8586.388927,1455.581446
346.677083,1850.514855,-8586.388927,459.657299
346.677404,2886.803174,-9326.594869,-1762.019645
346.677726,3182.885551,-10214.842000,-2528.115143
346.678048,3182.885551,-10436.903782,-1149.143247
346.678370,2960.823768,-9252.574275,-306.438199
346.678692,3108.864956,-8142.265362,-1685.410096
346.679014,2368.659014,-7698.141797,-2987.772442
346.679336,296.082377,-7994.224174,-3294.210641
346.679658,-2072.576638,-9400.615463,-4749.792088
346.679980,-4145.153275,-10732.986159,-3830.477490
346.680301,-5181.441594,-11325.150913,-2374.896044
346.680623,-5477.523971,-11029.068536,-2221.676944
346.680945,-4885.359217,-9844.739029,-2834.553343
346.681267,-4367.215058,-8808.450710,-3140.991542
346.681589,-3923.091493,-8290.306550,-3447.429741
346.681911,-2738.761985,-8216.285956,-2757.943793
346.682233,-1776.494261,-8142.265362,-1915.238745
346.682555,-296.082377,-8364.327145,-689.485948
346.682876,370.102971,-9326.594869,0.000000
346.683198,740.205942,-10288.862594,229.828649
346.683520,370.102971,-10658.965565,0.000000
346.683842,666.185348,-10510.924376,229.828649
346.684164,444.123565,-9918.759623,-306.438199
346.684486,1110.308913,-9474.636058,-459.657299
346.684808,1110.308913,-8956.491898,-1149.143247
346.685130,1554.432478,-8882.471304,-459.657299
346.685451,1036.288319,-8882.471304,-383.047749
346.685773,814.226536,-8586.388927,-842.705048
346.686095,592.164754,-8364.327145,-1608.800546
346.686417,444.123565,-8586.388927,-1685.410096
346.686739,-444.123565,-8882.471304,-1685.410096
346.687061,-1184.329507,-8956.491898,-995.924147
346.687383,-2146.597232,-9178.553681,-1685.410096
346.687705,-3552.988522,-9622.677246,-2145.067394
346.688026,-5181.441594,-8808.450710,-1915.238745
346.688348,-6291.750507,-8586.388927,-2757.943793
346.688670,-5847.626942,-9326.594869,-3140.991542
346.688992,-4441.235652,-10140.821405,-3217.601092
346.689314,-2664.741391,-10510.924376,-2374.896044
346.689636,-1258.350101,-10066.800811,-842.705048
346.689958,888.247130,-10214.842000,0.000000
346.690280,1776.494261,-10288.862594,-536.266849
346.690601,2072.576638,-9474.636058,-995.924147
346.690923,1998.556043,-9770.718434,-766.095498
346.691245,1702.473667,-10436.903782,76.609550
346.691567,1332.370696,-9770.718434,612.876398
346.691889,1258.350101,-8956.491898,612.876398
346.692211,2072.576638,-9030.512492,612.876398
346.692533,3108.864956,-9178.553681,0.000000
346.692855,3775.050304,-9178.553681,-306.438199
346.693176,3552.988522,-8586.388927,229.828649
346.693498,3330.926739,-7846.182985,229.828649
346.693820,3627.009116,-7402.059420,-1072.533697
346.694142,3182.885551,-7846.182985,-2757.943793
346.694464,1776.494261,-9252.574275,-2604.724693
346.694786,0.000000,-10214.842000,-2604.724693
346.695108,-2368.659014,-10436.903782,-1915.238745
346.695430,-3701.029710,-10066.800811,-2451.505594
346.695751,-3849.070898,-10140.821405,-3600.648841
346.696073,-3627.009116,-10214.842000,-4290.134789
346.696395,-3330.926739,-10066.800811,-4366.744339
346.696717,-2738.761985,-9622.677246,-3294.210641
346.697039,-1628.453072,-9104.533087,-1838.629195
346.697361,-444.123565,-8660.409521,-1378.971896
346.697683,814.226536,-8882.471304,-2145.067394
346.698005,2146.597232,-9770.718434,-2221.676944
346.698326,2516.700203,-10955.047942,-1532.190996
346.698648,2146.597232,-11843.295072,0.000000
346.698970,1258.350101,-10732.986159,1685.410096
346.699292,1110.308913,-8586.388927,1072.533697
346.699614,1554.432478,-7698.141797,-1302.362347
346.699936,2368.659014,-8142.265362,-2834.553343
346.700258,2368.659014,-7772.162391,-1838.629195
346.700580,1258.350101,-8290.306550,-1072.533697
346.700901,666.185348,-8660.409521,459.657299
346.701223,888.247130,-9178.553681,-153.219100
346.701545,740.205942,-9030.512492,-2145.067394
346.701867,-518.144159,-9400.615463,-3217.601092
346.702189,-2368.659014,-10436.903782,-3677.258390
346.702511,-4071.132681,-10510.924376,-3140.991542
346.702833,-5477.523971,-9918.759623,-2145.067394
346.703155,-6143.709319,-9104.533087,-2757.943793
346.703476,-6143.709319,-8586.388927,-4443.353888
346.703798,-5847.626942,-9474.636058,-4366.744339
346.704120,-5551.544565,-10510.924376,-4060.306139
346.704442,-4589.276840,-11177.109724,-3064.381992
346.704764,-2664.741391,-10288.862594,-1225.752797
346.705086,-666.185348,-9548.656652,0.000000
346.705408,740.205942,-9104.533087,-689.485948
346.705730,1110.308913,-8660.409521,-995.924147
346.706051,962.267725,-8956.491898,-842.705048
346.706373,222.061783,-10362.883188,229.828649
346.706695,-444.123565,-10214.842000,1685.410096
346.707017,0.000000,-9030.512492,1455.581446
346.707339,1110.308913,-8808.450710,459.657299
346.707661,2368.659014,-8882.471304,-842.705048
346.707983,2664.741391,-8364.327145,-689.485948
346.708305,2294.638420,-7698.141797,-383.047749
346.708626,2442.679609,-8142.265362,-306.438199
346.708948,2442.679609,-7994.224174,-536.266849
346.709270,1924.535449,-8660.409521,-2298.286494
346.709592,666.185348,-9770.718434,-2528.115143
346.709914,-962.267725,-11251.130318,-2145.067394
346.710236,-2442.679609,-11325.150913,-1378.971896
346.710558,-3923.091493,-9770.718434,-1225.752797
346.710880,-3923.091493,-9104.533087,-2911.162892
346.711201,-3701.029710,-9030.512492,-3753.867940
346.711523,-3404.947333,-9178.553681,-3600.648841
346.711845,-3182.885551,-9030.512492,-2298.286494
346.712167,-2072.576638,-8512.368333,-612.876398
346.712489,296.082377,-8882.471304,229.828649
346.712811,2294.638420,-9326.594869,-1455.581446
346.713133,3701.029710,-10140.821405,-2221.676944
346.713455,4145.153275,-10510.924376,-842.705048
346.713776,3849.070898,-11177.109724,383.047749
346.714098,3701.029710,-10584.944971,1225.752797
346.714420,3256.906145,-9252.574275,1149.143247
346.714742,2738.761985,-9252.574275,76.609550
346.715064,2590.720797,-8956.491898,-689.485948
346.715386,2812.782580,-8068.244768,-1225.752797
346.715708,3182.885551,-8142.265362,-919.314598
346.716030,4293.194464,-8808.450710,536.266849
346.716351,3997.112087,-8512.368333,306.438199
346.716673,2886.803174,-8216.285956,-1225.752797
346.716995,1184.329507,-8956.491898,-1991.848295
346.717317,-666.185348,-9400.615463,-2987.772442
346.717639,-2442.679609,-9474.636058,-3217.601092
346.717961,-4515.256246,-10066.800811,-3294.210641
346.718283,-5773.606348,-9474.636058,-2987.772442
346.718605,-6069.688724,-9474.636058,-4136.915689
346.718926,-5255.462188,-10140.821405,-4673.182538
346.719248,-4515.256246,-11103.089130,-4213.525239
346.719570,-4145.153275,-11177.109724,-3447.429741
346.719892,-3552.988522,-10140.821405,-2298.286494
346.720214,-2072.576638,-9400.615463,-1915.238745
346.720536,-444.123565,-9548.656652,-2451.505594
346.720858,666.185348,-10362.883188,-1991.848295
346.721180,0.000000,-10140.821405,-1225.752797
346.721501,-1702.473667,-9844.739029,1072.533697
346.721823,-1554.432478,-9178.553681,1838.629195
346.722145,-518.144159,-8512.368333,0.000000
346.722467,888.247130,-9104.533087,-2145.067394
346.722789,1776.494261,-9622.677246,-1685.410096
346.723111,1628.453072,-9474.636058,76.609550
346.723433,1480.411884,-8586.388927,919.314598
346.723755,2220.617826,-7920.203579,383.047749
346.724077,2960.823768,-8290.306550,-2757.943793
346.724398,2664.741391,-8808.450710,-4443.353888
346.724720,296.082377,-10066.800811,-2604.724693
346.725042,-2960.823768,-10288.862594,-306.438199
346.725364,-4811.338623,-9400.615463,0.000000
346.725686,-6069.688724,-7846.182985,-1762.019645
346.726008,-6513.812290,-8438.347739,-4136.915689
346.726330,-6069.688724,-8808.450710,-5209.449386
346.726652,-5995.668130,-8956.491898,-4443.353888
346.726974,-5033.400406,-8882.471304,-2451.505594
346.727295,-3552.988522,-8586.388927,-766.095498
346.727617,-1850.514855,-9622.677246,-842.705048
346.727939,-666.185348,-10658.965565,-1915.238745
346.728261,-666.185348,-11473.192101,-2374.896044
346.728583,-814.226536,-10510.924376,-995.924147
346.728905,0.000000,-9622.677246,229.828649
346.729227,1406.391290,-9030.512492,995.924147
346.729549,3182.885551,-8808.450710,689.485948
346.729871,3775.050304,-8290.306550,-383.047749
346.730192,4737.318029,-9844.739029,-689.485948
346.730514,5255.462188,-10658.965565,0.000000
346.730836,5625.565159,-9548.656652,1225.752797
346.731158,6143.709319,-7846.182985,1915.238745
346.731480,7179.997637,-7476.080014,153.219100
346.731802,6957.935855,-7698.141797,-2221.676944
346.732124,4885.359217,-8882.471304,-1991.848295
346.732446,1628.453072,-9548.656652,-459.657299
346.732768,-888.247130,-9548.656652,-995.924147
346.733090,-2368.659014,-10658.965565,-2681.334243
346.733411,-3256.906145,-11029.068536,-3753.867940
346.733733,-4367.215058,-10732.986159,-3524.039291
346.734055,-4737.318029,-9844.739029,-3524.039291
346.734377,-4145.153275,-10214.842000,-3447.429741
346.734699,-3034.844362,-10510.924376,-1991.848295
346.735021,-2294.638420,-9252.574275,-1685.410096
346.735343,-1332.370696,-8438.347739,-1915.238745
346.735665,0.000000,-9474.636058,-1991.848295
346.735987,1258.350101,-10066.800811,-1302.362347
346.736308,1110.308913,-10214.842000,-842.705048
346.736630,740.205942,-10214.842000,919.314598
346.736952,666.185348,-9474.636058,1225.752797
346.737274,1110.308913,-9252.574275,0.000000
346.737596,1480.411884,-8142.265362,-1608.800546
346.737918,1998.556043,-7994.224174,-1455.581446
346.738240,2516.700203,-8364.327145,-383.047749
346.738562,2738.761985,-8882.471304,0.000000
346.738884,2812.782580,-8438.347739,0.000000
346.739205,2812.782580,-7920.203579,-766.095498
346.739527,1850.514855,-8882.471304,-2298.286494
346.739849,148.041188,-10066.800811,-2911.162892
346.740171,-1924.535449,-10807.006753,-2528.115143
346.740493,-3775.050304,-10807.006753,-1532.190996
346.740815,-5255.462188,-9474.636058,-766.095498
346.741137,-5995.668130,-8586.388927,-2145.067394
346.741459,-5995.668130,-8734.430116,-3983.696590
346.741781,-5847.626942,-9030.512492,-4213.525239
346.742102,-6291.750507,-8364.327145,-2451.505594
346.742424,-6069.688724,-8438.347739,-1532.190996
346.742746,-4219.173869,-9104.533087,-1532.190996
346.743068,-2590.720797,-9770.718434,-2221.676944
346.743390,-2368.659014,-10066.800811,-2221.676944
346.743712,-2590.720797,-10510.924376,-1072.533697
346.744034,-2220.617826,-10436.903782,-612.876398
346.744356,-1628.453072,-9622.677246,-689.485948
346.744678,-888.247130,-9252.574275,-1225.752797
346.744999,0.000000,-9474.636058,-1302.362347
346.745321,1258.350101,-9992.780217,-1685.410096
346.745643,2220.617826,-9474.636058,-1225.752797
346.745965,3108.864956,-9548.656652,-612.876398
346.746287,4219.173869,-8660.409521,-459.657299
346.746609,4737.318029,-7698.141797,-1225.752797
346.746931,4515.256246,-8142.265362,-1608.800546
346.747253,3627.009116,-8808.450710,-459.657299
346.747575,2220.617826,-9548.656652,-919.314598
346.747896,518.144159,-10214.842000,-1225.752797
346.748218,-1036.288319,-10362.883188,-1532.190996
346.748540,-2590.720797,-9992.780217,-1685.410096
346.748862,-2886.803174,-9178.553681,-2604.724693
346.749184,-3182.885551,-9030.512492,-3600.648841
346.749506,-3256.906145,-9474.636058,-3600.648841
346.749828,-2812.782580,-9400.615463,-2681.334243
346.750150,-1998.556043,-9030.512492,-2451.505594
346.750472,-888.247130,-9474.636058,-2451.505594
346.750793,1184.329507,-10955.047942,-2374.896044
346.751115,1702.473667,-10807.006753,-1838.629195
346.751437,2072.576638,-10807.006753,-1302.362347
346.751759,1998.556043,-10881.027347,0.000000
346.752081,2146.597232,-9474.636058,1225.752797
346.752403,2220.617826,-8364.327145,383.047749
346.752725,2812.782580,-8216.285956,-612.876398
346.753047,3108.864956,-8364.327145,-383.047749
346.753369,2368.659014,-7698.141797,383.047749
346.753691,2294.638420,-7105.977043,766.095498
346.754012,3627.009116,-7254.018232,1149.143247
346.754334,4367.215058,-7920.203579,-842.705048
346.754656,3701.029710,-8808.450710,-1685.410096
346.754978,1998.556043,-9474.636058,-689.485948
346.755300,296.082377,-9844.739029,-842.705048
346.755622,-814.226536,-9696.697840,-1915.238745
346.755944,-2072.576638,-9918.759623,-4060.306139
346.756266,-4071.132681,-10214.842000,-4060.306139
346.756588,-5625.565159,-10288.862594,-3447.429741
346.756909,-6513.812290,-9992.780217,-3140.991542
346.757231,-6143.709319,-10288.862594,-3600.648841
346.757553,-4441.235652,-10436.903782,-3370.820191
346.757875,-2368.659014,-10584.944971,-3370.820191
346.758197,-1850.514855,-10436.903782,-2145.067394
346.758519,-1332.370696,-10140.821405,-919.314598
346.758841,-1332.370696,-9918.759623,-153.219100
346.759163,-1628.453072,-9474.636058,0.000000
346.759485,-2368.659014,-9918.759623,-383.047749
346.759806,-3330.926739,-8956.491898,153.219100
346.760128,-2886.803174,-8660.409521,-383.047749
346.760450,-1184.329507,-9030.512492,-306.438199
346.760772,0.000000,-8142.265362,76.609550
346.761094,1332.370696,-7920.203579,0.000000
346.761416,3478.967927,-8142.265362,-995.924147
346.761738,4959.379811,-9548.656652,-1838.629195
346.762060,4589.276840,-9992.780217,-1838.629195
346.762382,2590.720797,-9696.697840,-383.047749
346.762703,-740.205942,-9178.553681,153.219100
346.763025,-3330.926739,-9104.533087,-1225.752797
346.763347,-5329.482782,-8882.471304,-2681.334243
346.763669,-6587.832884,-8734.430116,-3753.867940
346.763991,-6439.791695,-8808.450710,-3677.258390
346.764313,-4663.297435,-8734.430116,-3217.601092
346.764635,-2368.659014,-9474.636058,-2298.286494
346.764957,-1554.432478,-9548.656652,-1762.019645
346.765279,-1702.473667,-9030.512492,-689.485948
346.765600,-2442.679609,-7772.162391,-995.924147
346.765922,-2294.638420,-7846.182985,-3217.601092
346.766244,-1628.453072,-9400.615463,-4213.525239
346.766566,-1258.350101,-10732.986159,-2604.724693
346.766888,-222.061783,-11547.212695,0.000000
346.767210,1628.453072,-10584.944971,1149.143247
346.767532,3552.988522,-9622.677246,919.314598
346.767854,5403.503377,-9104.533087,459.657299
346.768176,5847.626942,-8808.450710,-1455.581446
346.768497,4441.235652,-9326.594869,-1302.362347
346.768819,3775.050304,-8808.450710,612.876398
346.769141,4071.132681,-7402.059420,306.438199
346.769463,4589.276840,-6883.915261,-995.924147
346.769785,4811.338623,-8512.368333,-2451.505594
346.770107,3923.091493,-11029.068536,-1455.581446
346.770429,2220.617826,-11473.192101,-1225.752797
346.770751,444.123565,-10510.924376,-612.876398
346.771073,-666.185348,-9918.759623,-1378.971896
346.771394,-1776.494261,-9326.594869,-3677.258390
346.771716,-2738.761985,-9992.780217,-4979.620737
346.772038,-4219.173869,-10584.944971,-4213.525239
346.772360,-4737.318029,-9844.739029,-2068.457845
346.772682,-3478.967927,-8882.471304,-2451.505594
346.773004,-1184.329507,-9326.594869,-2834.553343
346.773326,1480.411884,-10584.944971,-3064.381992
346.773648,2294.638420,-11325.150913,-2451.505594
346.773970,1406.391290,-11029.068536,-1072.533697
346.774292,814.226536,-10510.924376,612.876398
346.774613,444.123565,-9326.594869,612.876398
346.774935,-962.267725,-7624.121203,-1149.143247
346.775257,-1406.391290,-9030.512492,-1378.971896
346.775579,-1480.411884,-8882.471304,-229.828649
346.775901,-296.082377,-8142.265362,0.000000
346.776223,1480.411884,-8068.244768,153.219100
346.776545,2368.659014,-7402.059420,1225.752797
346.776867,2960.823768,-6661.853478,612.876398
346.777189,3108.864956,-7624.121203,-1302.362347
346.777510,1406.391290,-9252.574275,-2145.067394
346.777832,-1036.288319,-9918.759623,-1149.143247
346.778154,-3478.967927,-9400.615463,-919.314598
346.778476,-4737.318029,-9622.677246,-1915.238745
346.778798,-5403.503377,-9622.677246,-2298.286494
346.779120,-6069.688724,-9326.594869,-2911.162892
346.779442,-5995.668130,-8956.491898,-3370.820191
346.779764,-5107.421000,-9770.718434,-3064.381992
346.780086,-4071.132681,-10140.821405,-2374.896044
346.780407,-3552.988522,-9252.574275,-1532.190996
346.780729,-3478.967927,-9400.615463,-612.876398
346.781051,-3182.885551,-8882.471304,-1072.533697
346.781373,-2960.823768,-9030.512492,-2298.286494
346.781695,-3182.885551,-10510.924376,-2068.457845
346.782017,-2960.823768,-9474.636058,-383.047749
346.782339,-2294.638420,-9252.574275,383.047749
346.782661,-740.205942,-8882.471304,0.000000
346.782983,518.144159,-8882.471304,-1149.143247
346.783304,1480.411884,-9178.553681,-1302.362347
346.783626,1554.432478,-9178.553681,-612.876398
346.783948,2442.679609,-9104.533087,-1149.143247
346.784270,3997.112087,-8808.450710,-2221.676944
346.784592,4885.359217,-9252.574275,-2451.505594
346.784914,4737.318029,-9622.677246,-1762.019645
346.785236,3330.926739,-9918.759623,-2374.896044
346.785558,1924.535449,-10658.965565,-1608.800546
346.785880,148.041188,-10584.944971,-1762.019645
346.786201,-1924.535449,-9696.697840,-2528.115143
346.786523,-3404.947333,-9474.636058,-3830.477490
346.786845,-3627.009116,-10066.800811,-3524.039291
346.787167,-3256.906145,-9548.656652,-2604.724693
346.787489,-2442.679609,-9474.636058,-1838.629195
346.787811,-1258.350101,-8808.450710,-995.924147
346.788133,148.041188,-8142.265362,-995.924147
346.788455,1184.329507,-8364.327145,-1991.848295
346.788777,1702.473667,-9770.718434,-1762.019645
346.789098,1776.494261,-10214.842000,-1225.752797
346.789420,1480.411884,-10881.027347,-689.485948
346.789742,814.226536,-10584.944971,-383.047749
346.790064,888.247130,-10362.883188,0.000000
346.790386,1924.535449,-9696.697840,-995.924147
346.790708,3182.885551,-8142.265362,-1991.848295
346.791030,3997.112087,-9030.512492,-1532.190996
346.791352,4219.173869,-8734.430116,383.047749
346.791674,3923.091493,-7179.997637,766.095498
346.791995,4219.173869,-7105.977043,0.000000
346.792317,3849.070898,-7476.080014,-1608.800546
346.792639,2220.617826,-8290.306550,-2145.067394
346.792961,-296.082377,-8882.471304,-1838.629195
346.793283,-2072.576638,-9474.636058,-1378.971896
346.793605,-3182.885551,-9474.636058,-919.314598
346.793927,-3330.926739,-9252.574275,-2451.505594
346.794249,-3701.029710,-9696.697840,-3064.381992
346.794571,-3701.029710,-10140.821405,-2757.943793
346.794893,-3478.967927,-10214.842000,-2834.553343
346.795214,-3330.926739,-10436.903782,-2221.676944
346.795536,-2516.700203,-10140.821405,-1302.362347
346.795858,-962.267725,-8956.491898,-1072.533697
346.796180,-444.123565,-9326.594869,-2374.896044
346.796502,-592.164754,-10881.027347,-1991.848295
346.796824,-1332.370696,-11251.130318,-383.047749
346.797146,-2294.638420,-10140.821405,153.219100
346.797468,-2294.638420,-9474.636058,-153.219100
346.797790,-1480.411884,-8734.430116,-153.219100
346.798111,-1776.494261,-8216.285956,-1302.362347
346.798433,-1702.473667,-7328.038826,-1762.019645
346.798755,-1036.288319,-8068.244768,-1302.362347
346.799077,296.082377,-8586.388927,-995.924147
346.799399,2220.617826,-8808.450710,-1455.581446
346.799721,3034.844362,-9474.636058,-2068.457845
346.800043,3034.844362,-10658.965565,-1455.581446
346.800365,1702.473667,-11177.109724,-1149.143247
346.800687,-888.247130,-10658.965565,-1072.533697
346.801008,-3627.009116,-9474.636058,-766.095498
346.801330,-5107.421000,-8290.306550,-2221.676944
346.801652,-5699.585753,-7698.141797,-4136.915689
346.801974,-5107.421000,-8586.388927,-4443.353888
346.802296,-4219.173869,-9474.636058,-2451.505594
346.802618,-2886.803174,-9622.677246,-919.314598
346.802940,-1702.473667,-9104.533087,0.000000
346.803262,74.020594,-9326.594869,-612.876398
346.803584,296.082377,-9252.574275,-1838.629195
346.803905,-740.205942,-8734.430116,-2298.286494
346.804227,-1998.556043,-9474.636058,-2298.286494
346.804549,-2368.659014,-10510.924376,-1072.533697
346.804871,-2072.576638,-9844.739029,-1149.143247
346.805193,-888.247130,-9474.636058,-1149.143247
346.805515,592.164754,-9696.697840,-995.924147
346.805837,2072.576638,-9770.718434,-919.314598
346.806159,3552.988522,-9696.697840,-1378.971896
346.806481,4367.215058,-9326.594869,-1302.362347
346.806802,4293.194464,-9178.553681,-689.485948
346.807124,4071.132681,-8956.491898,-842.705048
346.807446,3552.988522,-9326.594869,-2221.676944
346.807768,2886.803174,-9770.718434,-1685.410096
346.808090,1628.453072,-10584.944971,-1608.800546
346.808412,-148.041188,-10584.944971,-766.095498
346.808734,-592.164754,-9844.739029,-766.095498
346.809056,-148.041188,-9326.594869,-2068.457845
346.809378,0.000000,-8882.471304,-3217.601092
346.809699,-296.082377,-8586.388927,-2528.115143
346.810021,-1332.370696,-8512.368333,-1532.190996
346.810343,-888.247130,-8956.491898,-1838.629195
346.810665,296.082377,-9622.677246,-2374.896044
346.810987,1036.288319,-10362.883188,-1915.238745
346.811309,1554.432478,-10140.821405,-612.876398
346.811631,1776.494261,-10436.903782,-459.657299
346.811953,1110.308913,-10436.903782,0.000000
346.812275,444.123565,-10214.842000,153.219100
346.812596,-592.164754,-8882.471304,-612.876398
346.812918,-1480.411884,-8216.285956,-1378.971896
346.813240,-1036.288319,-7328.038826,-766.095498
346.813562,-444.123565,-7254.018232,-1072.533697
346.813884,370.102971,-7476.080014,-689.485948
346.814206,1406.391290,-7772.162391,0.000000
346.814528,2294.638420,-8660.409521,-459.657299
346.814850,2294.638420,-9696.697840,-919.314598
346.815172,962.267725,-9178.553681,-766.095498
346.815493,-666.185348,-9548.656652,-995.924147
346.815815,-2072.576638,-9548.656652,-2145.067394
346.816137,-3330.926739,-9400.615463,-2604.724693
346.816459,-3997.112087,-9474.636058,-2528.115143
346.816781,-3997.112087,-9918.759623,-2528.115143
346.817103,-3552.988522,-10362.883188,-2298.286494
346.817425,-3552.988522,-10584.944971,-2068.457845
346.817747,-3108.864956,-11029.068536,-1225.752797
346.818069,-2664.741391,-10066.800811,-536.266849
346.818391,-2368.659014,-8808.450710,-1072.533697
346.818712,-2590.720797,-8290.306550,-2298.286494
346.819034,-2442.679609,-9178.553681,-1378.971896
346.819356,-2812.782580,-10066.800811,-383.047749
346.819678,-2960.823768,-9918.759623,459.657299
346.820000,-2220.617826,-9400.615463,536.266849
346.820322,-888.247130,-8882.471304,-1225.752797
346.820644,0.000000,-9474.636058,-2374.896044
346.820966,296.082377,-9400.615463,-1149.143247
346.821288,222.061783,-8956.491898,-1072.533697
346.821609,888.247130,-8438.347739,-1762.019645
346.821931,2220.617826,-8364.327145,-2604.724693
346.822253,1850.514855,-8586.388927,-3294.210641
346.822575,1184.329507,-9474.636058,-2987.772442
346.822897,370.102971,-9918.759623,-2145.067394
346.823219,-592.164754,-10436.903782,-2145.067394
346.823541,-1332.370696,-10066.800811,-1915.238745
346.823862,-2590.720797,-8956.491898,-1991.848295
346.824184,-2664.741391,-9474.636058,-3524.039291
346.824506,-2220.617826,-9696.697840,-3217.601092
346.824828,-1332.370696,-9844.739029,-2374.896044
346.825150,-1036.288319,-9770.718434,-1225.752797
346.825472,0.000000,-9178.553681,459.657299
346.825794,1036.288319,-7550.100608,612.876398
346.826116,2220.617826,-7254.018232,-2221.676944
346.826437,2590.720797,-8660.409521,-2911.162892
346.826759,2886.803174,-9992.780217,-1225.752797
346.827081,2886.803174,-11103.089130,-229.828649
346.827403,2442.679609,-11399.171507,0.000000
346.827725,2590.720797,-11103.089130,1149.143247
346.828047,2368.659014,-10288.862594,-306.438199
346.828369,2072.576638,-8956.491898,-2451.505594
346.828691,2368.659014,-8660.409521,-2221.676944
346.829012,2886.803174,-9400.615463,-1608.800546
346.829334,2812.782580,-8068.244768,-612.876398
346.829656,3478.967927,-7105.977043,-306.438199
346.829978,3330.926739,-7254.018232,-766.095498
346.830300,2368.659014,-8660.409521,-1532.190996
346.830622,444.123565,-9548.656652,-2145.067394
346.830944,-1776.494261,-9474.636058,-1915.238745
346.831265,-3552.988522,-9770.718434,-1685.410096
346.831587,-4219.173869,-9770.718434,-1762.019645
346.831909,-5033.400406,-9622.677246,-2987.772442
346.832231,-4737.318029,-9474.636058,-2911.162892
346.832553,-3923.091493,-10362.883188,-2451.505594
346.832875,-3552.988522,-10140.821405,-2221.676944
346.833197,-2590.720797,-10066.800811,-1838.629195
346.833519,-1036.288319,-10214.842000,-1532.190996
346.833840,-148.041188,-10510.924376,-1302.362347
346.834162,0.000000,-10955.047942,-1608.800546
346.834484,-1184.329507,-11103.089130,-153.219100
346.834806,-2590.720797,-10066.800811,1072.533697
346.835128,-3330.926739,-8660.409521,919.314598
346.835450,-2516.700203,-7698.141797,-995.924147
346.835772,-592.164754,-7698.141797,-1762.019645
346.836093,296.082377,-7698.141797,-766.095498
346.836415,1184.329507,-8734.430116,153.219100
346.836737,2368.659014,-8956.491898,306.438199
346.837059,2886.803174,-8808.450710,0.000000
346.837381,2368.659014,-9030.512492,-1072.533697
346.837703,148.041188,-9030.512492,-1991.848295
346.838025,-3034.844362,-8808.450710,-2604.724693
346.838347,-4885.359217,-9400.615463,-2528.115143
346.838668,-6735.874072,-9770.718434,-2987.772442
346.838990,-7994.224174,-9474.636058,-2757.943793
346.839312,-8734.430116,-8512.368333,-2221.676944
346.839634,-7994.224174,-8734.430116,-2757.943793
346.839956,-7105.977043,-9474.636058,-3294.210641
346.840278,-5699.585753,-9844.739029,-3370.820191
346.840600,-4663.297435,-9770.718434,-1455.581446
346.840922,-3849.070898,-9104.533087,459.657299
346.841243,-2664.741391,-7994.224174,-842.705048
346.841565,-1406.391290,-8068.244768,-1838.629195
346.841887,148.041188,-9030.512492,-2221.676944
346.842209,444.123565,-10584.944971,-1608.800546
346.842531,370.102971,-11473.192101,383.047749
346.842853,296.082377,-9918.759623,2221.676944
346.843175,0.000000,-8808.450710,1149.143247
346.843496,444.123565,-8364.327145,-1608.800546
346.843818,0.000000,-8068.244768,-3217.601092
346.844140,-740.205942,-7920.203579,-3140.991542
346.844462,-1332.370696,-8882.471304,-1762.019645
346.844784,-1036.288319,-9622.677246,-842.705048
346.845106,-592.164754,-9178.553681,-1302.362347
346.845428,-370.102971,-9548.656652,-2528.115143
346.845750,-888.247130,-9770.718434,-3600.648841
346.846071,-1628.453072,-9918.759623,-3983.696590
346.846393,-2812.782580,-10584.944971,-3677.258390
346.846715,-4071.132681,-11621.233289,-2451.505594
346.847037,-5477.523971,-11103.089130,-1072.533697
346.847359,-6513.812290,-9474.636058,-1685.410096
346.847681,-6513.812290,-8364.327145,-3140.991542
346.848003,-6069.688724,-7994.224174,-3753.867940
346.848324,-4737.318029,-8142.265362,-3370.820191
346.848646,-4145.153275,-9104.533087,-1225.752797
346.848968,-3256.906145,-9918.759623,1149.143247
346.849290,-1258.350101,-9474.636058,1225.752797
346.849612,814.226536,-8734.430116,-689.485948
346.849934,2368.659014,-8290.306550,-2451.505594
346.850256,3182.885551,-8660.409521,-2298.286494
346.850578,2738.761985,-8364.327145,-1455.581446
346.850899,1258.350101,-9400.615463,-919.314598
346.851221,-518.144159,-11399.171507,-306.438199
346.851543,-3552.988522,-12139.377449,-612.876398
346.851865,-6365.771101,-11991.336260,-2298.286494
346.852187,-8808.450710,-10955.047942,-2681.334243
346.852509,-10658.965565,-9622.677246,-1991.848295
346.852831,-10955.047942,-7994.224174,-1915.238745
346.853153,-10288.862594,-5847.626942,-2221.676944
346.853474,-8586.388927,-5699.585753,-2451.505594
346.853796,-6587.832884,-7550.100608,-2834.553343
346.854118,-5255.462188,-9548.656652,-1915.238745
346.854440,-4515.256246,-10881.027347,-612.876398
346.854762,-3256.906145,-11177.109724,0.000000
346.855084,-1258.350101,-10436.903782,-1149.143247
346.855406,74.020594,-9474.636058,-1762.019645
346.855727,222.061783,-7772.162391,-1685.410096
346.856049,-592.164754,-6143.709319,-1225.752797
346.856371,-2368.659014,-5107.421000,-1455.581446
346.856693,-3256.906145,-6587.832884,-2068.457845
346.857015,-5107.421000,-9326.594869,-2451.505594
346.857337,-7328.038826,-11029.068536,-2068.457845
346.857659,-8660.409521,-11843.295072,-1608.800546
346.857981,-8882.471304,-12731.542202,-919.314598
346.858302,-8808.450710,-12139.377449,0.000000
346.858624,-8734.430116,-9844.739029,-689.485948
346.858946,-7476.080014,-7920.203579,-2374.896044
346.859268,-4737.318029,-7031.956449,-2451.505594
346.859590,-1850.514855,-5551.544565,-2298.286494
346.859912,0.000000,-4515.256246,-2451.505594
346.860234,1924.535449,-6217.729913,-2068.457845
346.860555,2442.679609,-9844.739029,-1608.800546
346.860877,2368.659014,-12731.542202,-1991.848295
346.861199,1110.308913,-13767.830521,-1608.800546
346.861521,444.123565,-13397.727550,-919.314598
346.861843,0.000000,-11769.274478,-306.438199
346.862165,-666.185348,-10362.883188,-1072.533697
346.862487,-2146.597232,-9918.759623,-689.485948
346.862809,-4071.132681,-8808.450710,76.609550
346.863130,-6143.709319,-7254.018232,-383.047749
346.863452,-7105.977043,-6809.894666,-1762.019645
346.863774,-6217.729913,-7328.038826,-2451.505594
346.864096,-5551.544565,-8882.471304,-4060.306139
346.864418,-4515.256246,-9992.780217,-3447.429741
346.864740,-3849.070898,-10140.821405,-1608.800546
346.865062,-3330.926739,-9104.533087,-919.314598
346.865384,-3330.926739,-7846.182985,-2451.505594
346.865705,-2960.823768,-8734.430116,-4903.011187
346.866027,-2442.679609,-11177.109724,-5745.716235
346.866349,-1850.514855,-13989.892304,-4749.792088
346.866671,-1776.494261,-16358.551318,-1225.752797
346.866993,-1332.370696,-16284.530724,4366.744339
346.867315,-296.082377,-12287.418637,6052.154434
346.867637,1924.535449,-8808.450710,3524.039291
346.867958,3256.906145,-7476.080014,383.047749
346.868280,2886.803174,-7402.059420,766.095498
346.868602,1110.308913,-6217.729913,3830.477490
346.868924,-962.267725,-4293.194464,6665.030833
346.869246,-3552.988522,-3849.070898,7354.516781
346.869568,-5477.523971,-3849.070898,3983.696590
346.869890,-7179.997637,-3923.091493,-2068.457845
346.870212,-8216.285956,-4219.173869,-5822.325785
346.870533,-8068.244768,-5181.441594,-4903.011187
346.870855,-7846.182985,-7994.224174,-4826.401637
346.871177,-7105.977043,-12213.398043,-4366.744339
346.871499,-6735.874072,-14878.139434,-4060.306139
346.871821,-6735.874072,-16580.613101,-5515.887586
346.872143,-6217.729913,-18431.127956,-5286.058936
346.872465,-5033.400406,-17246.798449,-3753.867940
346.872786,-4293.194464,-12213.398043,-1149.143247
346.873108,-3701.029710,-8438.347739,1302.362347
346.873430,-2738.761985,-6217.729913,3753.867940
346.873752,-2442.679609,-3997.112087,4060.306139
346.874074,-2368.659014,-1702.473667,1991.848295
346.874396,-1480.411884,-2738.761985,1532.190996
346.874718,-1702.473667,-6957.935855,3370.820191
346.875040,-2516.700203,-8882.471304,4826.401637
346.875361,-1628.453072,-10288.862594,2757.943793
346.875683,2072.576638,-10955.047942,-536.266849
346.876005,4589.276840,-9252.574275,-2451.505594
346.876327,3775.050304,-8512.368333,-2374.896044
346.876649,2146.597232,-12583.501014,-1915.238745
346.876971,666.185348,-16506.592507,-1991.848295
346.877293,1110.308913,-16432.571912,-3524.039291
346.877615,2072.576638,-16876.695478,-3677.258390
346.877936,2664.741391,-16284.530724,-689.485948
346.878258,1628.453072,-12953.603985,1378.971896
346.878580,-592.164754,-8660.409521,2834.553343
346.878902,-1406.391290,-5181.441594,4903.011187
346.879224,-592.164754,-3108.864956,3830.477490
346.879546,-222.061783,-1184.329507,0.000000
346.879868,-444.123565,-518.144159,-306.438199
346.880189,666.185348,-2072.576638,1991.848295
346.880511,2294.638420,-5551.544565,2757.943793
346.880833,2072.576638,-8512.368333,2604.724693
346.881155,1184.329507,-10510.924376,919.314598
346.881477,740.205942,-13101.645173,-4290.134789
346.881799,888.247130,-14434.015869,-6128.763984
346.882121,-148.041188,-13989.892304,-4290.134789
346.882443,-1776.494261,-14508.036463,-1608.800546
346.882764,-2442.679609,-15618.345376,383.047749
346.883086,-2664.741391,-15544.324782,1072.533697
346.883408,-2664.741391,-14137.933492,536.266849
346.883730,-2738.761985,-12731.542202,1838.629195
346.884052,-3034.844362,-10955.047942,5209.449386
346.884374,-4145.153275,-7772.162391,7277.907231
346.884696,-3552.988522,-5699.585753,7890.783629
346.885017,-2516.700203,-5255.462188,6281.983084
346.885339,-1998.556043,-5921.647536,4596.572988
346.885661,-2368.659014,-6365.771101,4826.401637
346.885983,-444.123565,-7105.977043,4213.525239
346.886305,2812.782580,-6291.750507,2681.334243
346.886627,4885.359217,-4737.318029,1915.238745
346.886949,5255.462188,-3182.885551,1149.143247
346.887271,3997.112087,-7105.977043,-2604.724693
346.887592,1998.556043,-11843.295072,-4903.011187
346.887914,-2368.659014,-14211.954086,-4443.353888
346.888236,-7698.141797,-16580.613101,-2145.067394
346.888558,-11695.253884,-19689.478057,1072.533697
346.888880,-13471.748144,-18431.127956,2298.286494
346.889202,-12953.603985,-13249.686362,1685.410096
346.889524,-10807.006753,-9918.759623,1915.238745
346.889845,-7179.997637,-9400.615463,5056.230287
346.890167,-5921.647536,-8512.368333,7048.078582
346.890489,-4071.132681,-4663.297435,10495.508323
346.890811,-1628.453072,-592.164754,13100.233016
346.891133,2664.741391,1332.370696,9499.584175
346.891455,7105.977043,-1776.494261,2911.162892
346.891777,10584.944971,-3108.864956,459.657299
346.892099,9992.780217,-3849.070898,1225.752797
346.892420,8290.306550,-8882.471304,4443.353888
346.892742,5773.606348,-16654.633695,7354.516781
346.893064,2146.597232,-20503.704593,2528.115143
346.893386,-1850.514855,-17912.983796,-4366.744339
346.893708,-3627.009116,-17542.880825,-4596.572988
346.894030,-3627.009116,-16580.613101,-1149.143247
346.894352,-4071.132681,-10214.842000,766.095498
346.894674,-4293.194464,-3330.926739,1532.190996
346.894995,-2516.700203,-3034.844362,2987.772442
346.895317,-1184.329507,-7179.997637,3907.087040
346.895639,-3330.926739,-7105.977043,2221.676944
346.895961,-4959.379811,-6735.874072,2757.943793
346.896283,-1776.494261,-7772.162391,5286.058936
346.896605,2960.823768,-10066.800811,6052.154434
346.896927,4293.194464,-8660.409521,5745.716235
346.897248,4811.338623,-3923.091493,5975.544884
346.897570,8512.368333,-3330.926739,0.000000
346.897892,10955.047942,-8364.327145,-6971.469032
346.898214,7328.038826,-9474.636058,-5132.839837
346.898536,740.205942,-9326.594869,-766.095498
346.898858,-3627.009116,-16136.489536,-1149.143247
346.899180,-5033.400406,-21836.075289,-2757.943793
346.899502,-6439.791695,-20207.622217,-5975.544884
346.899823,-6143.709319,-14952.160028,-7354.516781
346.900145,-3552.988522,-12435.459826,-3677.258390
346.900467,-1258.350101,-10436.903782,1302.362347
346.900789,-1184.329507,-7550.100608,2604.724693
346.901111,592.164754,-4589.276840,3064.381992
346.901433,2072.576638,-5033.400406,689.485948
346.901755,2442.679609,-7698.141797,842.705048
346.902076,2146.597232,-8216.285956,2911.162892
346.902398,2738.761985,-7550.100608,1455.581446
346.902720,4515.256246,-9474.636058,1455.581446
346.903042,5995.668130,-8734.430116,2987.772442
346.903364,2072.576638,-8734.430116,536.266849
346.903686,-3997.112087,-9474.636058,-1455.581446
346.904008,-8734.430116,-8142.265362,-153.219100
346.904330,-11177.109724,-7624.121203,-5056.230287
346.904651,-11843.295072,-9992.780217,-9882.631924
346.904973,-11547.212695,-13619.789333,-7354.516781
346.905295,-10288.862594,-13545.768739,-2834.553343
346.905617,-7698.141797,-13249.686362,-2528.115143
346.905939,-3330.926739,-14285.974681,-1225.752797
346.906261,-740.205942,-14730.098246,1072.533697
346.906583,-296.082377,-10584.944971,2451.505594
346.906905,1702.473667,-4293.194464,2451.505594
346.907226,5995.668130,370.102971,459.657299
346.907548,10436.903782,0.000000,-153.219100
346.907870,11621.233289,-2368.659014,3140.991542
346.908192,8734.430116,-5255.462188,6818.249932
346.908514,6069.688724,-8068.244768,7737.564530
346.908836,3182.885551,-11103.089130,5515.887586
346.909158,-666.185348,-12953.603985,1072.533697
346.909479,-4145.153275,-11843.295072,-1762.019645
346.909801,-5255.462188,-9178.553681,-3294.210641
346.910123,-4515.256246,-7994.224174,-3677.258390
346.910445,-3552.988522,-8438.347739,-2068.457845
346.910767,-4071.132681,-9622.677246,-766.095498
346.911089,-4959.379811,-10510.924376,-919.314598
346.911411,-5403.503377,-12879.583391,-2911.162892
346.911733,-4441.235652,-15322.262999,-3830.477490
346.912054,-3034.844362,-13841.851115,-2145.067394
346.912376,-1628.453072,-10584.944971,-153.219100
346.912698,-148.041188,-7994.224174,1072.533697
346.913020,222.061783,-6143.709319,1608.800546
346.913342,740.205942,-5403.503377,995.924147
346.913664,1480.411884,-6735.874072,-383.047749
346.913986,3182.885551,-8808.450710,-1225.752797
346.914307,4071.132681,-11029.068536,-995.924147
346.914629,4663.297435,-12139.377449,1225.752797
346.914951,4589.276840,-12731.542202,3294.210641
346.915273,3923.091493,-12583.501014,2068.457845
346.915595,2590.720797,-11251.130318,-1072.533697
346.915917,814.226536,-10066.800811,-3294.210641
346.916239,0.000000,-9770.718434,-3447.429741
346.916561,-740.205942,-9400.615463,-2528.115143
346.916882,-814.226536,-9474.636058,-1302.362347
346.917204,-740.205942,-10362.883188,-229.828649
346.917526,-1110.308913,-11029.068536,689.485948
346.917848,-1332.370696,-11325.150913,-383.047749
346.918170,-2516.700203,-11177.109724,-842.705048
346.918492,-2072.576638,-8956.491898,-153.219100
346.918814,-740.205942,-6735.874072,0.000000
346.919136,0.000000,-5033.400406,0.000000
346.919457,-296.082377,-5329.482782,-153.219100
346.919779,-888.247130,-7698.141797,-536.266849
346.920101,-2072.576638,-9474.636058,-1225.752797
346.920423,-3701.029710,-9548.656652,-1149.143247
346.920745,-4959.379811,-9770.718434,-766.095498
346.921067,-5477.523971,-9918.759623,-459.657299
346.921389,-5033.400406,-9474.636058,-2374.896044
346.921710,-3775.050304,-8438.347739,-3294.210641
346.922032,-1554.432478,-7772.162391,-2911.162892
346.922354,518.144159,-7254.018232,-2374.896044
346.922676,2368.659014,-6661.853478,-1991.848295
346.922998,2886.803174,-7179.997637,-1991.848295
346.923320,2960.823768,-8216.285956,-1838.629195
346.923641,2072.576638,-9326.594869,-2068.457845
346.923963,962.267725,-9918.759623,-2451.505594
346.924285,-814.226536,-10288.862594,-2221.676944
346.924607,-1480.411884,-9696.697840,-1685.410096
346.924929,-1480.411884,-9992.780217,-2987.772442
346.925250,-518.144159,-10658.965565,-2604.724693
346.925572,-74.020594,-10584.944971,-1762.019645
346.925894,518.144159,-9844.739029,-1762.019645
346.926216,1406.391290,-9992.780217,-1455.581446
346.926538,1480.411884,-9844.739029,-1149.143247
346.926860,148.041188,-10362.883188,-2221.676944
346.927181,-296.082377,-10362.883188,-3064.381992
346.927503,0.000000,-11251.130318,-3140.991542
346.927825,0.000000,-11547.212695,-2757.943793
346.928147,-222.061783,-10955.047942,-1455.581446
346.928469,-592.164754,-9622.677246,-842.705048
346.928791,-444.123565,-9474.636058,-1685.410096
346.929112,0.000000,-9696.697840,-2757.943793
346.929434,148.041188,-10288.862594,-2834.553343
346.929756,740.205942,-10510.924376,-2374.896044
346.930078,962.267725,-10140.821405,-689.485948
346.930400,962.267725,-9030.512492,383.047749
346.930721,1036.288319,-8068.244768,-536.266849
346.931043,592.164754,-7328.038826,-2145.067394
346.931365,-444.123565,-7402.059420,-2528.115143
346.931687,-2072.576638,-8142.265362,-2987.772442
346.932009,-3256.906145,-9474.636058,-1685.410096
346.932331,-4293.194464,-10288.862594,-383.047749
346.932652,-4737.318029,-10807.006753,0.000000
346.932974,-4589.276840,-10584.944971,-229.828649
346.933296,-2738.761985,-9326.594869,-306.438199
346.933618,-370.102971,-8216.285956,-1149.143247
346.933940,1480.411884,-7624.121203,-995.924147
346.934262,2516.700203,-7624.121203,0.000000
346.934583,3108.864956,-8216.285956,1378.971896
346.934905,3034.844362,-9252.574275,1915.238745
346.935227,3627.009116,-9104.533087,-153.219100
346.935549,3034.844362,-8216.285956,-995.924147
346.935871,2072.576638,-6661.853478,-842.705048
346.936192,592.164754,-6661.853478,-306.438199
346.936514,-370.102971,-8290.306550,-612.876398
346.936836,-666.185348,-10584.944971,-1838.629195
346.937158,-1628.453072,-10955.047942,-1608.800546
346.937480,-1776.494261,-11029.068536,-1991.848295
346.937802,-1332.370696,-10066.800811,-2068.457845
346.938123,-592.164754,-9030.512492,-2757.943793
346.938445,-148.041188,-8290.306550,-3140.991542
346.938767,-1184.329507,-9030.512492,-3677.258390
346.939089,-1702.473667,-10955.047942,-3294.210641
346.939411,-2738.761985,-11991.336260,-3064.381992
346.939733,-4293.194464,-12139.377449,-2528.115143
346.940054,-4441.235652,-11991.336260,-1762.019645
346.940376,-3404.947333,-11325.150913,-1532.190996
346.940698,-2072.576638,-10732.986159,-1762.019645
346.941020,0.000000,-9548.656652,-1762.019645
346.941342,1036.288319,-9178.553681,-842.705048
346.941663,1554.432478,-8364.327145,612.876398
346.941985,1628.453072,-8216.285956,0.000000
346.942307,1924.535449,-9326.594869,-995.924147
346.942629,1554.432478,-9770.718434,-1838.629195
346.942951,740.205942,-9400.615463,-995.924147
346.943273,-148.041188,-8438.347739,-689.485948
346.943594,-1110.308913,-8216.285956,-229.828649
346.943916,-1702.473667,-8290.306550,-995.924147
346.944238,-2220.617826,-9474.636058,-1378.971896
346.944560,-1850.514855,-10584.944971,-1915.238745
346.944882,-592.164754,-10362.883188,-1608.800546
346.945204,592.164754,-9400.615463,-383.047749
346.945525,3108.864956,-7031.956449,0.000000
346.945847,3182.885551,-6217.729913,-766.095498
346.946169,3404.947333,-6809.894666,-1608.800546
346.946491,1850.514855,-8068.244768,-1225.752797
346.946813,-592.164754,-9104.533087,-689.485948
346.947134,-2368.659014,-8956.491898,0.000000
346.947456,-2442.679609,-8956.491898,383.047749
346.947778,-2294.638420,-9548.656652,0.000000
346.948100,-1628.453072,-9770.718434,-459.657299
346.948422,-962.267725,-9400.615463,-153.219100
346.948744,370.102971,-8956.491898,229.828649
346.949065,1110.308913,-9622.677246,0.000000
346.949387,888.247130,-8660.409521,-383.047749
346.949709,0.000000,-8068.244768,-689.485948
346.950031,296.082377,-8068.244768,-1302.362347
346.950353,962.267725,-8660.409521,-3217.601092
346.950675,740.205942,-9474.636058,-4366.744339
346.950996,-592.164754,-9770.718434,-2298.286494
346.951318,-2072.576638,-10510.924376,-919.314598
346.951640,-3034.844362,-11843.295072,-1455.581446
346.951962,-3330.926739,-12879.583391,-2604.724693
346.952284,-2442.679609,-11621.233289,-3753.867940
346.952605,-1110.308913,-9474.636058,-4366.744339
346.952927,-148.041188,-8068.244768,-3064.381992
346.953249,962.267725,-7698.141797,-2681.334243
346.953571,1258.350101,-7698.141797,-3064.381992
346.953893,888.247130,-9400.615463,-2604.724693
346.954215,444.123565,-10955.047942,-1685.410096
346.954536,-962.267725,-11103.089130,-2757.943793
346.954858,-1406.391290,-10807.006753,-2681.334243
346.955180,-666.185348,-11029.068536,-2221.676944
346.955502,444.123565,-10807.006753,-1685.410096
346.955824,1924.535449,-10436.903782,-1225.752797
346.956146,2294.638420,-10214.842000,-766.095498
346.956467,2664.741391,-10658.965565,-1072.533697
346.956789,3034.844362,-9474.636058,-1302.362347
346.957111,2590.720797,-8808.450710,-1532.190996
346.957433,1332.370696,-7698.141797,-1302.362347
346.957755,370.102971,-7402.059420,-1608.800546
346.958076,-2146.597232,-7031.956449,-1838.629195
346.958398,-4515.256246,-7402.059420,-2221.676944
346.958720,-6587.832884,-8068.244768,-2374.896044
346.959042,-7550.100608,-8660.409521,-2604.724693
346.959364,-5921.647536,-9252.574275,-2757.943793
346.959686,-3849.070898,-10658.965565,-2757.943793
346.960007,-1850.514855,-9992.780217,-3064.381992
346.960329,-222.061783,-8882.471304,-2451.505594
346.960651,1332.370696,-8586.388927,-1915.238745
346.960973,1998.556043,-8660.409521,-2451.505594
346.961295,1924.535449,-7920.203579,-2451.505594
346.961617,1628.453072,-7698.141797,-1991.848295
346.961938,1702.473667,-7846.182985,-1762.019645
346.962260,1850.514855,-8808.450710,-612.876398
346.962582,1628.453072,-9548.656652,383.047749
346.962904,1406.391290,-10807.006753,612.876398
346.963226,888.247130,-11177.109724,1838.629195
346.963548,1480.411884,-10140.821405,1991.848295
346.963869,2294.638420,-9104.533087,1225.752797
346.964191,3478.967927,-7698.141797,306.438199
346.964513,3775.050304,-7328.038826,0.000000
346.964835,3108.864956,-8956.491898,0.000000
346.965157,1406.391290,-10510.924376,153.219100
346.965478,-740.205942,-10732.986159,0.000000
346.965800,-2442.679609,-10732.986159,-1455.581446
346.966122,-3256.906145,-10584.944971,-1915.238745
346.966444,-4293.194464,-9992.780217,-2604.724693
346.966766,-4441.235652,-10066.800811,-2757.943793
346.967088,-3923.091493,-10955.047942,-2451.505594
346.967409,-2516.700203,-11325.150913,-1685.410096
346.967731,-1036.288319,-11103.089130,-1225.752797
346.968053,0.000000,-9326.594869,-1302.362347
346.968375,1110.308913,-8882.471304,-1455.581446
346.968697,1480.411884,-8512.368333,-1838.629195
346.969019,1406.391290,-9030.512492,-842.705048
346.969340,518.144159,-8660.409521,0.000000
346.969662,0.000000,-9252.574275,229.828649
346.969984,-444.123565,-9474.636058,0.000000
346.970306,-888.247130,-9622.677246,76.609550
346.970628,-666.185348,-9770.718434,842.705048
346.970949,1184.329507,-9622.677246,612.876398
346.971271,2960.823768,-9474.636058,919.314598
346.971593,3627.009116,-9474.636058,1225.752797
346.971915,2886.803174,-9326.594869,1378.971896
346.972237,2146.597232,-9030.512492,383.047749
346.972559,1258.350101,-8216.285956,-919.314598
346.972880,0.000000,-7698.141797,-1532.190996
346.973202,-2220.617826,-6735.874072,-1149.143247
346.973524,-3478.967927,-7105.977043,-1685.410096
346.973846,-4885.359217,-7624.121203,-1915.238745
346.974168,-5773.606348,-9104.533087,-2757.943793
346.974490,-5699.585753,-9844.739029,-3524.039291
346.974811,-4219.173869,-9770.718434,-3064.381992
346.975133,-2738.761985,-9252.574275,-3370.820191
346.975455,-1332.370696,-7920.203579,-3217.601092
346.975777,74.020594,-7402.059420,-3753.867940
346.976099,666.185348,-8956.491898,-3907.087040
346.976420,222.061783,-9844.739029,-3600.648841
346.976742,-370.102971,-10214.842000,-2911.162892
346.977064,-962.267725,-10288.862594,-2911.162892
346.977386,-740.205942,-10214.842000,-2528.115143
346.977708,0.000000,-10658.965565,-2451.505594
346.978030,888.247130,-11325.150913,-2451.505594
346.978351,1554.432478,-11473.192101,-1149.143247
346.978673,2886.803174,-11325.150913,-306.438199
346.978995,3552.988522,-11325.150913,-229.828649
346.979317,4219.173869,-10214.842000,-1072.533697
346.979639,3627.009116,-9548.656652,-1685.410096
346.979961,3034.844362,-8956.491898,-1302.362347
346.980282,2146.597232,-8586.388927,-1072.533697
346.980604,962.267725,-7994.224174,-2298.286494
346.980926,-1184.329507,-8290.306550,-2221.676944
346.981248,-3478.967927,-9474.636058,-2451.505594
346.981570,-5255.462188,-10362.883188,-3294.210641
346.981891,-5551.544565,-10362.883188,-3830.477490
346.982213,-4589.276840,-10955.047942,-3907.087040
346.982535,-3552.988522,-10066.800811,-3447.429741
346.982857,-1924.535449,-8956.491898,-3294.210641
346.983179,-296.082377,-8142.265362,-2528.115143
346.983501,148.041188,-8142.265362,-3064.381992
346.983822,0.000000,-8956.491898,-3064.381992
346.984144,-814.226536,-9474.636058,-1378.971896
346.984466,-1258.350101,-8882.471304,-306.438199
346.984788,-666.185348,-8364.327145,-306.438199
346.985110,148.041188,-7550.100608,-306.438199
346.985432,1036.288319,-7179.997637,689.485948
346.985753,2368.659014,-8142.265362,842.705048
346.986075,3404.947333,-9178.553681,1302.362347
346.986397,3849.070898,-9326.594869,2068.457845
346.986719,4219.173869,-8586.388927,2528.115143
346.987041,5107.421000,-7254.018232,1378.971896
346.987362,5551.544565,-8142.265362,-612.876398
346.987684,4663.297435,-9252.574275,-1762.019645
346.988006,2220.617826,-9918.759623,-306.438199
346.988328,-888.247130,-10140.821405,536.266849
346.988650,-3256.906145,-10732.986159,-383.047749
346.988972,-4811.338623,-10955.047942,-1608.800546
346.989293,-5773.606348,-10807.006753,-2757.943793
346.989615,-5921.647536,-9696.697840,-3370.820191
346.989937,-4367.215058,-8734.430116,-2374.896044
346.990259,-2368.659014,-8216.285956,-1915.238745
346.990581,-1554.432478,-8068.244768,-1991.848295
346.990903,-2072.576638,-8882.471304,-1762.019645
346.991224,-3182.885551,-9622.677246,-2068.457845
346.991546,-3775.050304,-10807.006753,-2911.162892
346.991868,-3849.070898,-10955.047942,-3064.381992
346.992190,-3404.947333,-10732.986159,-2068.457845
346.992512,-2516.700203,-9548.656652,-995.924147
346.992833,-962.267725,-9770.718434,-689.485948
346.993155,0.000000,-10510.924376,-1378.971896
346.993477,962.267725,-11325.150913,-1302.362347
346.993799,1554.432478,-11399.171507,-612.876398
346.994121,2368.659014,-11473.192101,-383.047749
346.994443,3404.947333,-9918.759623,0.000000
346.994764,3849.070898,-9178.553681,0.000000
346.995086,3478.967927,-8808.450710,0.000000
346.995408,1924.535449,-8438.347739,229.828649
346.995730,222.061783,-8290.306550,0.000000
346.996052,-1554.432478,-7846.182985,-459.657299
346.996374,-2072.576638,-7402.059420,-919.314598
346.996695,-2590.720797,-7105.977043,-1838.629195
346.997017,-2220.617826,-7402.059420,-2451.505594
346.997339,-1628.453072,-8734.430116,-2221.676944
346.997661,-1776.494261,-9474.636058,-2068.457845
346.997983,-2294.638420,-9770.718434,-2451.505594
346.998304,-2220.617826,-9474.636058,-2757.943793
346.998626,-1628.453072,-9844.739029,-3677.258390
346.998948,-1332.370696,-9992.780217,-4060.306139
346.999270,-1480.411884,-9400.615463,-3064.381992
346.999592,-1406.391290,-8438.347739,-2987.772442
346.999914,-1554.432478,-8660.409521,-2604.724693
347.000235,-1628.453072,-8586.388927,-2068.457845
347.000557,-1924.535449,-9326.594869,-1991.848295
347.000879,-1480.411884,-9992.780217,-1072.533697
347.001201,0.000000,-10436.903782,-306.438199
347.001523,1850.514855,-10658.965565,-612.876398
347.001845,3552.988522,-10436.903782,-229.828649
347.002166,4737.318029,-10066.800811,536.266849
347.002488,4811.338623,-9326.594869,76.609550
347.002810,4145.153275,-8290.306550,-153.219100
347.003132,3478.967927,-7624.121203,-995.924147
347.003454,1924.535449,-8216.285956,-2374.896044
347.003775,296.082377,-8808.450710,-2681.334243
347.004097,-1554.432478,-9918.759623,-2604.724693
347.004419,-2368.659014,-11473.192101,-1915.238745
347.004741,-2812.782580,-12435.459826,-1991.848295
347.005063,-2368.659014,-11621.233289,-2757.943793
347.005385,-1332.370696,-10362.883188,-2757.943793
347.005706,-592.164754,-9030.512492,-2681.334243
347.006028,-740.205942,-8142.265362,-2528.115143
347.006350,-1480.411884,-7624.121203,-2145.067394
347.006672,-2442.679609,-8216.285956,-1378.971896
347.006994,-3108.864956,-8586.388927,-1608.800546
347.007316,-3997.112087,-9030.512492,-2145.067394
347.007637,-3849.070898,-9400.615463,-1762.019645
347.007959,-3552.988522,-9918.759623,-76.609550
347.008281,-2368.659014,-10214.842000,0.000000
347.008603,-666.185348,-10140.821405,536.266849
347.008925,1184.329507,-9326.594869,612.876398
347.009246,2590.720797,-9326.594869,0.000000
347.009568,3627.009116,-8808.450710,-766.095498
347.009890,3330.926739,-8142.265362,-842.705048
347.010212,2442.679609,-9252.574275,-153.219100
347.010534,1036.288319,-11029.068536,689.485948
347.010856,-1184.329507,-10140.821405,612.876398
347.011177,-2590.720797,-8956.491898,-383.047749
347.011499,-2516.700203,-7698.141797,-1915.238745
347.011821,-2664.741391,-7846.182985,-2834.553343
347.012143,-2590.720797,-8142.265362,-2221.676944
347.012465,-2294.638420,-8956.491898,-1378.971896
347.012787,-1702.473667,-9548.656652,-1072.533697
347.013108,-814.226536,-10510.924376,-1072.533697
347.013430,-962.267725,-9844.739029,-2374.896044
347.013752,-1110.308913,-8734.430116,-2681.334243
347.014074,-1480.411884,-8216.285956,-3600.648841
347.014396,-1480.411884,-7994.224174,-3217.601092
347.014717,-1628.453072,-8586.388927,-2221.676944
347.015039,-1406.391290,-9178.553681,-1149.143247
347.015361,-1480.411884,-10584.944971,-1149.143247
347.015683,-1258.350101,-11177.109724,-689.485948
347.016005,-1406.391290,-10584.944971,0.000000
347.016327,-296.082377,-9548.656652,0.000000
347.016648,1480.411884,-8808.450710,-383.047749
347.016970,3182.885551,-8734.430116,-842.705048
347.017292,3404.947333,-9326.594869,0.000000
347.017614,2442.679609,-9326.594869,536.266849
347.017936,1776.494261,-9548.656652,919.314598
347.018258,1480.411884,-9770.718434,-459.657299
347.018579,370.102971,-10140.821405,-2221.676944
347.018901,-814.226536,-9030.512492,-2221.676944
347.019223,-1776.494261,-8142.265362,-2451.505594
347.019545,-1258.350101,-9178.553681,-2987.772442
347.019867,-592.164754,-11103.089130,-2834.553343
347.020188,0.000000,-11547.212695,-2451.505594
347.020510,-666.185348,-11547.212695,-1915.238745
347.020832,0.000000,-9696.697840,-1532.190996
347.021154,962.267725,-8586.388927,-2604.724693
347.021476,1036.288319,-7920.203579,-3677.258390
347.021798,0.000000,-8364.327145,-2604.724693
347.022119,-1702.473667,-8068.244768,-1532.190996
347.022441,-2812.782580,-9252.574275,-1685.410096
347.022763,-3108.864956,-9548.656652,-1532.190996
347.023085,-3182.885551,-9474.636058,-1608.800546
347.023407,-2664.741391,-9104.533087,-1608.800546
347.023729,-1036.288319,-9252.574275,-536.266849
347.024050,814.226536,-9252.574275,153.219100
347.024372,1924.535449,-9326.594869,0.000000
347.024694,2368.659014,-9104.533087,-689.485948
347.025016,1998.556043,-9400.615463,-1149.143247
347.025338,1702.473667,-9622.677246,-1532.190996
347.025660,962.267725,-9104.533087,-995.924147
347.025981,444.123565,-8290.306550,-1685.410096
347.026303,-592.164754,-8142.265362,-1838.629195
347.026625,-1628.453072,-9178.553681,-1532.190996
347.026947,-2664.741391,-10214.842000,-1915.238745
347.027269,-2960.823768,-10288.862594,-2528.115143
347.027591,-2072.576638,-9696.697840,-1838.629195
347.027913,-370.102971,-8438.347739,-1838.629195
347.028235,888.247130,-6661.853478,-2451.505594
347.028556,1110.308913,-6365.771101,-2834.553343
347.028878,740.205942,-8068.244768,-3064.381992
347.029200,-592.164754,-10288.862594,-3294.210641
347.029522,-2072.576638,-11103.089130,-2757.943793
347.029844,-3108.864956,-11547.212695,-2374.896044
347.030166,-3108.864956,-10881.027347,-1915.238745
347.030488,-2072.576638,-9992.780217,-2451.505594
347.030809,-740.205942,-9844.739029,-2987.772442
347.031131,74.020594,-10214.842000,-2451.505594
347.031453,592.164754,-9992.780217,-1225.752797
347.031775,592.164754,-10288.862594,-536.266849
347.032097,814.226536,-10732.986159,0.000000
347.032419,1110.308913,-10955.047942,-766.095498
347.032741,444.123565,-10658.965565,-1225.752797
347.033062,-148.041188,-9770.718434,-766.095498
347.033384,-518.144159,-8364.327145,-306.438199
347.033706,-814.226536,-7476.080014,-1149.143247
347.034028,-1184.329507,-7179.997637,-1685.410096
347.034350,-1850.514855,-7624.121203,-1991.848295
347.034672,-2146.597232,-8438.347739,-2681.334243
347.034994,-1628.453072,-9548.656652,-2681.334243
347.035315,-740.205942,-10732.986159,-2681.334243
347.035637,-370.102971,-10955.047942,-1915.238745
347.035959,0.000000,-9844.739029,-995.924147
347.036281,0.000000,-9844.739029,-1762.019645
347.036603,666.185348,-9474.636058,-2757.943793
347.036925,592.164754,-8808.450710,-2528.115143
347.037247,148.041188,-7698.141797,-1225.752797
347.037568,74.020594,-7476.080014,-612.876398
347.037890,74.020594,-7328.038826,-536.266849
347.038212,-222.061783,-8438.347739,-919.314598
347.038534,-518.144159,-9992.780217,-306.438199
347.038856,-962.267725,-10288.862594,766.095498
347.039178,-814.226536,-10140.821405,1685.410096
347.039500,518.144159,-10362.883188,2068.457845
347.039821,1480.411884,-9104.533087,995.924147
347.040143,1702.473667,-7846.182985,76.609550
347.040465,2146.597232,-7550.100608,-612.876398
347.040787,1924.535449,-8216.285956,-842.705048
347.041109,592.164754,-8290.306550,-1225.752797
347.041431,-1036.288319,-8660.409521,-1532.190996
347.041753,-2590.720797,-9770.718434,-1072.533697
347.042074,-2812.782580,-11621.233289,-1915.238745
