#time,accel_x,accel_y,accel_z
509.970046,-148.041188,-9104.533087,-1608.800546
509.970369,0.000000,-9178.553681,-1685.410096
509.970692,-148.041188,-9400.615463,-1762.019645
509.971015,-518.144159,-9030.512492,-1302.362347
509.971337,-370.102971,-9326.594869,-1915.238745
509.971660,-370.102971,-9400.615463,-1685.410096
509.971983,-296.082377,-9548.656652,-1991.848295
509.972306,-222.061783,-9474.636058,-1838.629195
509.972628,-518.144159,-9474.636058,-1991.848295
509.972951,-370.102971,-9178.553681,-1838.629195
509.973274,-296.082377,-9548.656652,-1838.629195
509.973597,-296.082377,-9844.739029,-2068.457845
509.973919,-370.102971,-9622.677246,-1838.629195
509.974242,-370.102971,-9622.677246,-2145.067394
509.974565,-740.205942,-9252.574275,-1685.410096
509.974888,-518.144159,-9252.574275,-1991.848295
509.975211,-296.082377,-9474.636058,-1838.629195
509.975533,-370.102971,-9252.574275,-1915.238745
509.975856,-444.123565,-9474.636058,-2068.457845
509.976179,-666.185348,-9474.636058,-1608.800546
509.976502,-444.123565,-9474.636058,-1762.019645
509.976824,-666.185348,-9178.553681,-1838.629195
509.977147,-222.061783,-9326.594869,-1838.629195
509.977470,-296.082377,-9252.574275,-1915.238745
509.977793,-370.102971,-9400.615463,-1762.019645
509.978115,-222.061783,-9252.574275,-995.924147
509.978438,-444.123565,-9400.615463,-1685.410096
509.978761,-592.164754,-9548.656652,-1838.629195
509.979084,-444.123565,-9474.636058,-1532.190996
509.979406,-518.144159,-9474.636058,-1455.581446
509.979729,-296.082377,-9030.512492,-1532.190996
509.980052,-222.061783,-9030.512492,-1225.752797
509.980375,-148.041188,-8956.491898,-1532.190996
509.980697,-296.082377,-8956.491898,-1455.581446
509.981020,-296.082377,-9400.615463,-1455.581446
509.981343,-370.102971,-9252.574275,-1149.143247
509.981666,-222.061783,-9548.656652,-1225.752797
509.981989,-296.082377,-9474.636058,-919.314598
509.982311,-296.082377,-9326.594869,-1225.752797
509.982634,-222.061783,-9178.553681,-1302.362347
509.982957,-296.082377,-9252.574275,-1378.971896
509.983280,-592.164754,-9104.533087,-1072.533697
509.983602,-370.102971,-9030.512492,-1225.752797
509.983925,-592.164754,-9548.656652,-995.924147
509.984248,-666.185348,-9918.759623,-1149.143247
509.984571,-592.164754,-9622.677246,-1149.143247
509.984893,-444.123565,-9474.636058,-1455.581446
509.985216,-222.061783,-9178.553681,-1685.410096
509.985539,-666.185348,-9104.533087,-1149.143247
509.985862,-370.102971,-9030.512492,-995.924147
509.986184,-518.144159,-9400.615463,-1302.362347
509.986507,-518.144159,-9474.636058,-1378.971896
509.986830,-296.082377,-9696.697840,-995.924147
509.987153,-814.226536,-9178.553681,-1072.533697
509.987475,-296.082377,-9326.594869,-1302.362347
509.987798,-444.123565,-9252.574275,-1455.581446
509.988121,0.000000,-9178.553681,-1455.581446
509.988444,-222.061783,-9178.553681,-1149.143247
509.988767,-148.041188,-9252.574275,-1991.848295
509.989089,-444.123565,-9326.594869,-1608.800546
509.989412,-518.144159,-9474.636058,-1378.971896
509.989735,-592.164754,-9474.636058,-1685.410096
509.990058,-296.082377,-9252.574275,-1608.800546
509.990380,518.144159,-9030.512492,-1455.581446
509.990703,1850.514855,-9400.615463,-1991.848295
509.991026,2590.720797,-9548.656652,-1685.410096
509.991349,2368.659014,-8882.471304,-536.266849
509.991671,1332.370696,-8068.244768,-306.438199
509.991994,740.205942,-8956.491898,-1608.800546
509.992317,-1110.308913,-8586.388927,-1991.848295
509.992640,-2442.679609,-9474.636058,-2221.676944
509.992962,-3478.967927,-9844.739029,-2374.896044
509.993285,-3627.009116,-9770.718434,-2757.943793
509.993608,-1998.556043,-9474.636058,-2987.772442
509.993931,962.267725,-9844.739029,-2757.943793
509.994254,2812.782580,-10955.047942,-1532.190996
509.994576,2812.782580,-9844.739029,-153.219100
509.994899,1776.494261,-8660.409521,-229.828649
509.995222,1998.556043,-8956.491898,-1685.410096
509.995545,2368.659014,-9992.780217,-2451.505594
509.995867,2220.617826,-9548.656652,-2451.505594
509.996190,1184.329507,-8882.471304,-766.095498
509.996513,0.000000,-7402.059420,0.000000
509.996836,1184.329507,-7698.141797,-1455.581446
509.997158,2294.638420,-9252.574275,-2757.943793
509.997481,1036.288319,-9992.780217,-1838.629195
509.997804,-1258.350101,-9548.656652,-612.876398
509.998127,-1480.411884,-9474.636058,-2451.505594
509.998449,-296.082377,-9844.739029,-4290.134789
509.998772,222.061783,-10066.800811,-2681.334243
509.999095,296.082377,-10955.047942,-1072.533697
509.999418,1110.308913,-10436.903782,-1532.190996
509.999740,2368.659014,-9400.615463,-2528.115143
510.000063,3478.967927,-9918.759623,-1915.238745
510.000386,4293.194464,-11843.295072,-919.314598
510.000709,3627.009116,-11251.130318,-459.657299
510.001032,2516.700203,-8808.450710,-1455.581446
510.001354,2368.659014,-7846.182985,-1072.533697
510.001677,2812.782580,-8586.388927,-995.924147
510.002000,2442.679609,-8438.347739,-1225.752797
510.002323,1406.391290,-7402.059420,-919.314598
510.002645,1776.494261,-9030.512492,-612.876398
510.002968,2368.659014,-10584.944971,-153.219100
510.003291,2886.803174,-10362.883188,-766.095498
510.003614,2516.700203,-9474.636058,-1608.800546
510.003936,2294.638420,-9770.718434,-1302.362347
510.004259,2960.823768,-9696.697840,-459.657299
510.004582,3256.906145,-9400.615463,-1149.143247
510.004905,3034.844362,-8882.471304,-1608.800546
510.005227,2516.700203,-9474.636058,-1455.581446
510.005550,2960.823768,-9474.636058,-459.657299
510.005873,3552.988522,-9178.553681,-919.314598
510.006196,2442.679609,-8882.471304,-1378.971896
510.006518,1850.514855,-8956.491898,-383.047749
510.006841,1480.411884,-8512.368333,0.000000
510.007164,518.144159,-7550.100608,-766.095498
510.007487,0.000000,-8216.285956,-1532.190996
510.007810,-148.041188,-9104.533087,-1915.238745
510.008132,-592.164754,-9844.739029,-842.705048
510.008455,-444.123565,-10362.883188,-536.266849
510.008778,296.082377,-11547.212695,-1149.143247
510.009101,1036.288319,-11917.315666,-919.314598
510.009423,1406.391290,-11325.150913,383.047749
510.009746,1924.535449,-10362.883188,0.000000
510.010069,2146.597232,-9178.553681,-919.314598
510.010392,2368.659014,-8216.285956,-1455.581446
510.010714,2294.638420,-7550.100608,-842.705048
510.011037,2146.597232,-7476.080014,-536.266849
510.011360,1406.391290,-7402.059420,-1149.143247
510.011683,1554.432478,-8290.306550,-1915.238745
510.012005,1628.453072,-8956.491898,-1762.019645
510.012328,1776.494261,-8808.450710,-1532.190996
510.012651,1480.411884,-8364.327145,-2451.505594
510.012974,1850.514855,-8586.388927,-2604.724693
510.013297,1776.494261,-9178.553681,-2374.896044
510.013619,1850.514855,-9548.656652,-2451.505594
510.013942,1258.350101,-10140.821405,-2911.162892
510.014265,592.164754,-11325.150913,-2528.115143
510.014588,740.205942,-12287.418637,-1838.629195
510.014910,1036.288319,-12213.398043,-1225.752797
510.015233,962.267725,-11251.130318,-1608.800546
510.015556,1184.329507,-10140.821405,-1608.800546
510.015879,1628.453072,-9030.512492,-612.876398
510.016201,2072.576638,-7846.182985,-306.438199
510.016524,2220.617826,-7402.059420,-1149.143247
510.016847,2886.803174,-7105.977043,-2068.457845
510.017170,3775.050304,-7846.182985,-2528.115143
510.017492,4663.297435,-8364.327145,-2451.505594
510.017815,4811.338623,-9622.677246,-2298.286494
510.018138,4219.173869,-10658.965565,-1991.848295
510.018461,4145.153275,-11029.068536,-2068.457845
510.018783,3404.947333,-11325.150913,-3294.210641
510.019106,1998.556043,-11917.315666,-3294.210641
510.019429,592.164754,-12065.356855,-2987.772442
510.019752,74.020594,-11103.089130,-2145.067394
510.020075,0.000000,-10140.821405,-612.876398
510.020397,-74.020594,-9474.636058,0.000000
510.020720,-222.061783,-7698.141797,229.828649
510.021043,222.061783,-6291.750507,153.219100
510.021366,518.144159,-5625.565159,153.219100
510.021688,1480.411884,-5551.544565,-383.047749
510.022011,1258.350101,-5625.565159,-842.705048
510.022334,888.247130,-6809.894666,-536.266849
510.022657,740.205942,-8290.306550,-612.876398
510.022979,592.164754,-10140.821405,-1302.362347
510.023302,518.144159,-11843.295072,-2221.676944
510.023625,592.164754,-12139.377449,-2528.115143
510.023948,0.000000,-11547.212695,-2681.334243
510.024270,-370.102971,-11325.150913,-2451.505594
510.024593,-518.144159,-11843.295072,-2221.676944
510.024916,-1184.329507,-12065.356855,-2068.457845
510.025239,-1924.535449,-11621.233289,-1762.019645
510.025561,-2368.659014,-11399.171507,-1149.143247
510.025884,-2294.638420,-11177.109724,-612.876398
510.026207,-1184.329507,-10510.924376,306.438199
510.026530,0.000000,-8660.409521,766.095498
510.026853,1184.329507,-6883.915261,766.095498
510.027175,3404.947333,-5773.606348,612.876398
510.027498,5181.441594,-5329.482782,0.000000
510.027821,6365.771101,-5625.565159,-995.924147
510.028144,6661.853478,-6143.709319,-383.047749
510.028466,6069.688724,-7031.956449,-229.828649
510.028789,5921.647536,-8660.409521,-2221.676944
510.029112,5403.503377,-11251.130318,-3370.820191
510.029435,4589.276840,-13027.624579,-3294.210641
510.029757,2738.761985,-13767.830521,-2221.676944
510.030080,444.123565,-13249.686362,-766.095498
510.030403,-1258.350101,-12065.356855,-536.266849
510.030726,-2442.679609,-11325.150913,-2451.505594
510.031048,-4071.132681,-9252.574275,-1302.362347
510.031371,-4811.338623,-6291.750507,-1149.143247
510.031694,-5033.400406,-5403.503377,-2374.896044
510.032017,-3182.885551,-6735.874072,-1762.019645
510.032340,518.144159,-8216.285956,-1225.752797
510.032662,3997.112087,-8660.409521,-2451.505594
510.032985,7254.018232,-10584.944971,-1991.848295
510.033308,10510.924376,-11029.068536,153.219100
510.033631,12953.603985,-10066.800811,-383.047749
510.033953,13767.830521,-8068.244768,-1532.190996
510.034276,12509.480420,-7624.121203,-1378.971896
510.034599,10066.800811,-8068.244768,-1302.362347
510.034922,6883.915261,-9548.656652,-2221.676944
510.035244,2368.659014,-10584.944971,-1685.410096
510.035567,-1480.411884,-12361.439231,-2068.457845
510.035890,-4071.132681,-13101.645173,-1685.410096
510.036213,-6143.709319,-13175.665768,-1072.533697
510.036535,-9030.512492,-11843.295072,536.266849
510.036858,-10732.986159,-8438.347739,2451.505594
510.037181,-9918.759623,-3478.967927,-306.438199
510.037504,-6513.812290,-2368.659014,-3294.210641
510.037826,-1924.535449,-5477.523971,-4136.915689
510.038149,2886.803174,-6661.853478,-4366.744339
510.038472,6513.812290,-9252.574275,-3524.039291
510.038794,9548.656652,-12361.439231,-1762.019645
510.039117,10881.027347,-13767.830521,-536.266849
510.039439,10658.965565,-12731.542202,-2374.896044
510.039762,8364.327145,-10658.965565,-4290.134789
510.040084,4811.338623,-10066.800811,-5286.058936
510.040407,2072.576638,-10066.800811,-5439.278036
510.040729,74.020594,-9252.574275,-3983.696590
510.041051,-2368.659014,-9992.780217,-1608.800546
510.041374,-4885.359217,-13101.645173,536.266849
510.041696,-6217.729913,-13101.645173,2451.505594
510.042019,-5921.647536,-10881.027347,2681.334243
510.042341,-5773.606348,-6661.853478,-689.485948
510.042664,-3849.070898,-7698.141797,-612.876398
510.042986,2220.617826,-7772.162391,689.485948
510.043308,7476.080014,-3552.988522,-612.876398
510.043631,10510.924376,-4737.318029,-2911.162892
510.043953,11695.253884,-9178.553681,-1455.581446
510.044276,10584.944971,-12509.480420,1455.581446
510.044598,6587.832884,-12287.418637,842.705048
510.044921,1480.411884,-12065.356855,-3524.039291
510.045243,-2368.659014,-13397.727550,-6971.469032
510.045565,-4589.276840,-13989.892304,-5745.716235
510.045888,-6291.750507,-9178.553681,-1532.190996
510.046210,-7624.121203,-5477.523971,-689.485948
510.046533,-6809.894666,-5699.585753,-2451.505594
510.046855,-2590.720797,-7772.162391,-1149.143247
510.047178,-518.144159,-8438.347739,383.047749
510.047500,0.000000,-9400.615463,2451.505594
510.047822,814.226536,-8956.491898,2681.334243
510.048145,3256.906145,-6883.915261,1072.533697
510.048467,5477.523971,-5477.523971,612.876398
510.048790,5551.544565,-5107.421000,-383.047749
510.049112,3849.070898,-7624.121203,-2757.943793
510.049435,3849.070898,-9770.718434,-2528.115143
510.049757,4589.276840,-11325.150913,-1762.019645
510.050079,5255.462188,-12583.501014,-3217.601092
510.050402,5921.647536,-13175.665768,-4213.525239
510.050724,4441.235652,-12583.501014,-2451.505594
510.051047,2368.659014,-11177.109724,383.047749
510.051369,888.247130,-9844.739029,-689.485948
510.051692,-1406.391290,-10288.862594,-4060.306139
510.052014,-2738.761985,-11621.233289,-3983.696590
510.052336,-2960.823768,-11399.171507,383.047749
510.052659,-888.247130,-10436.903782,2528.115143
510.052981,2664.741391,-8660.409521,1149.143247
510.053304,7105.977043,-7550.100608,153.219100
510.053626,9326.594869,-6439.791695,1991.848295
510.053949,9622.677246,-4589.276840,3600.648841
510.054271,7920.203579,-3034.844362,612.876398
510.054593,5995.668130,-3701.029710,-3217.601092
510.054916,4885.359217,-6809.894666,-4519.963438
510.055238,1924.535449,-9252.574275,-3677.258390
510.055561,-2220.617826,-11843.295072,-4826.401637
510.055883,-5329.482782,-14582.057057,-4596.572988
510.056206,-5329.482782,-15100.201217,-2604.724693
510.056528,-3701.029710,-13323.706956,-2757.943793
510.056850,-2368.659014,-12213.398043,-5745.716235
510.057173,-2812.782580,-10436.903782,-4979.620737
510.057495,-1480.411884,-11029.068536,-1608.800546
510.057818,1110.308913,-10584.944971,306.438199
510.058140,4515.256246,-11473.192101,-1149.143247
510.058463,5403.503377,-12213.398043,-1685.410096
510.058785,5181.441594,-10362.883188,1149.143247
510.059107,6143.709319,-8364.327145,4443.353888
510.059430,7550.100608,-5921.647536,4443.353888
510.059752,9474.636058,-2738.761985,995.924147
510.060075,9992.780217,-2368.659014,-2298.286494
510.060397,10140.821405,-4145.153275,-1225.752797
510.060720,8660.409521,-7031.956449,1302.362347
510.061042,4885.359217,-8734.430116,995.924147
510.061364,814.226536,-11325.150913,-1455.581446
510.061687,-3256.906145,-12731.542202,-3217.601092
510.062009,-7846.182985,-11177.109724,-4826.401637
510.062332,-9770.718434,-10288.862594,-5975.544884
510.062654,-8734.430116,-11695.253884,-7277.907231
510.062977,-6439.791695,-13175.665768,-6128.763984
510.063299,-5847.626942,-11103.089130,-1685.410096
510.063621,-6809.894666,-8734.430116,842.705048
510.063944,-5403.503377,-10510.924376,-612.876398
510.064266,-4071.132681,-12953.603985,-4673.182538
510.064589,-4071.132681,-11991.336260,-4519.963438
510.064911,-5107.421000,-9030.512492,-536.266849
510.065234,-2072.576638,-7328.038826,2221.676944
510.065556,3552.988522,-5625.565159,1685.410096
510.065878,7105.977043,-4293.194464,-2145.067394
510.066201,8586.388927,-6217.729913,-1915.238745
510.066523,9326.594869,-8290.306550,1685.410096
510.066846,7105.977043,-8068.244768,2528.115143
510.067168,3627.009116,-9696.697840,153.219100
510.067491,-222.061783,-11177.109724,-2374.896044
510.067813,-3330.926739,-10658.965565,-3370.820191
510.068135,-5033.400406,-9770.718434,-3753.867940
510.068458,-4737.318029,-10807.006753,-4213.525239
510.068780,-3627.009116,-12287.418637,-4519.963438
510.069103,-2368.659014,-10881.027347,-2451.505594
510.069425,-2220.617826,-9844.739029,919.314598
510.069748,-2812.782580,-12361.439231,-459.657299
510.070070,-4219.173869,-14211.954086,-1915.238745
510.070392,-5625.565159,-8882.471304,-1915.238745
510.070715,-5847.626942,-4367.215058,-2068.457845
510.071037,-1110.308913,-6587.832884,-2298.286494
510.071360,4071.132681,-6883.915261,-2528.115143
510.071682,6291.750507,-6439.791695,-1838.629195
510.072005,7476.080014,-7624.121203,2374.896044
510.072327,9178.553681,-8142.265362,5056.230287
510.072649,8882.471304,-8216.285956,612.876398
510.072972,4811.338623,-7846.182985,-2681.334243
510.073294,-592.164754,-8660.409521,-1532.190996
510.073617,-2960.823768,-9252.574275,-1149.143247
510.073939,-1924.535449,-8660.409521,-2681.334243
510.074262,-444.123565,-9474.636058,-4290.134789
510.074584,-222.061783,-10362.883188,-2068.457845
510.074906,-370.102971,-10510.924376,2068.457845
510.075229,-444.123565,-12657.521608,2145.067394
510.075551,-1702.473667,-15470.304188,-612.876398
510.075874,-3256.906145,-15840.407159,-2451.505594
510.076196,-4219.173869,-10732.986159,-1149.143247
510.076519,-2442.679609,-3627.009116,-229.828649
510.076841,888.247130,-2442.679609,-2987.772442
510.077163,3775.050304,-4811.338623,-3907.087040
510.077486,4367.215058,-6587.832884,0.000000
510.077808,3256.906145,-7179.997637,1838.629195
510.078131,1702.473667,-9696.697840,-766.095498
510.078453,-666.185348,-12435.459826,-4673.182538
510.078776,-3552.988522,-13397.727550,-5515.887586
510.079098,-5699.585753,-10510.924376,-3447.429741
510.079420,-5477.523971,-8808.450710,-3677.258390
510.079743,-2812.782580,-9474.636058,-4979.620737
510.080065,-2368.659014,-9548.656652,-3907.087040
510.080388,-3478.967927,-8956.491898,0.000000
510.080710,-3256.906145,-11621.233289,689.485948
510.081033,-1480.411884,-15692.365970,-2221.676944
510.081355,-1554.432478,-15470.304188,-2834.553343
510.081677,-2960.823768,-9918.759623,229.828649
510.082000,-1924.535449,-3923.091493,1838.629195
510.082322,1998.556043,-3034.844362,-1378.971896
510.082645,4441.235652,-5181.441594,-2374.896044
510.082967,4367.215058,-5921.647536,-689.485948
510.083290,3330.926739,-6069.688724,153.219100
510.083612,3404.947333,-7846.182985,-1532.190996
510.083935,2516.700203,-10955.047942,-3064.381992
510.084257,-1332.370696,-11843.295072,-3600.648841
510.084579,-5699.585753,-11177.109724,-3064.381992
510.084902,-6809.894666,-10140.821405,-4060.306139
510.085224,-4515.256246,-11251.130318,-7354.516781
510.085547,-3923.091493,-11843.295072,-7737.564530
510.085869,-5181.441594,-11325.150913,-1915.238745
510.086192,-5403.503377,-10881.027347,2911.162892
510.086514,-3256.906145,-13841.851115,1225.752797
510.086836,-962.267725,-15396.283594,-1608.800546
510.087159,-666.185348,-11325.150913,-306.438199
510.087481,-518.144159,-5477.523971,2221.676944
510.087804,3701.029710,-2516.700203,2374.896044
510.088126,7846.182985,-3034.844362,229.828649
510.088449,9918.759623,-3330.926739,229.828649
510.088771,9696.697840,-3849.070898,1149.143247
510.089093,8512.368333,-6735.874072,1302.362347
510.089416,6143.709319,-9844.739029,-229.828649
510.089738,1258.350101,-12361.439231,-3140.991542
510.090061,-4441.235652,-12065.356855,-4060.306139
510.090383,-6291.750507,-9992.780217,-4519.963438
510.090706,-4737.318029,-9622.677246,-7124.688131
510.091028,-2812.782580,-11843.295072,-8044.002729
510.091350,-4441.235652,-12583.501014,-2834.553343
510.091673,-5847.626942,-12583.501014,1838.629195
510.091995,-5033.400406,-14211.954086,919.314598
510.092318,-3552.988522,-15766.386565,-1838.629195
510.092640,-4145.153275,-13101.645173,-2068.457845
510.092963,-3775.050304,-6587.832884,76.609550
510.093285,148.041188,-2516.700203,842.705048
510.093607,4811.338623,-1998.556043,1149.143247
510.093930,7328.038826,-3034.844362,1838.629195
510.094252,7550.100608,-3330.926739,1149.143247
510.094575,7994.224174,-6217.729913,0.000000
510.094897,7772.162391,-10066.800811,-1302.362347
510.095220,3701.029710,-11843.295072,-2374.896044
510.095542,-1924.535449,-12213.398043,-2528.115143
510.095864,-5033.400406,-10510.924376,-1991.848295
510.096187,-4367.215058,-9252.574275,-4519.963438
510.096509,-4145.153275,-9474.636058,-8503.660028
510.096832,-5921.647536,-12361.439231,-6205.373534
510.097154,-7772.162391,-13249.686362,-1302.362347
510.097477,-5847.626942,-14878.139434,0.000000
510.097799,-3627.009116,-16580.613101,-1072.533697
510.098121,-3478.967927,-14804.118840,0.000000
510.098444,-3552.988522,-8068.244768,1838.629195
510.098766,-1184.329507,-1850.514855,1149.143247
510.099089,3923.091493,-1702.473667,-766.095498
510.099411,7254.018232,-3330.926739,-1378.971896
510.099734,7476.080014,-3478.967927,459.657299
510.100056,6661.853478,-5403.503377,2221.676944
510.100378,6143.709319,-8512.368333,1455.581446
510.100701,3330.926739,-12213.398043,-2451.505594
510.101023,-2368.659014,-13471.748144,-3753.867940
510.101346,-8142.265362,-9696.697840,-2911.162892
510.101668,-8882.471304,-8438.347739,-5592.497135
510.101991,-7031.956449,-9548.656652,-8963.317327
510.102313,-5329.482782,-12657.521608,-7814.174080
510.102635,-6069.688724,-13323.706956,-1915.238745
510.102958,-5255.462188,-14804.118840,689.485948
510.103280,-2220.617826,-16580.613101,-536.266849
510.103603,-1480.411884,-17690.922014,-306.438199
510.103925,-2664.741391,-11695.253884,1608.800546
510.104248,-1184.329507,-4441.235652,1915.238745
510.104570,3775.050304,-1554.432478,-1532.190996
510.104892,8956.491898,-592.164754,-2451.505594
510.105215,9622.677246,-1998.556043,383.047749
510.105537,7994.224174,-2960.823768,3677.258390
510.105860,7105.977043,-5477.523971,2987.772442
510.106182,4663.297435,-10732.986159,-1762.019645
510.106505,0.000000,-14359.995275,-4290.134789
510.106827,-6143.709319,-13175.665768,-3677.258390
510.107149,-9104.533087,-9474.636058,-4290.134789
510.107472,-7328.038826,-9178.553681,-7890.783629
510.107794,-4737.318029,-11917.315666,-8580.269578
510.108117,-5255.462188,-13323.706956,-3524.039291
510.108439,-5329.482782,-13027.624579,1149.143247
510.108762,-4293.194464,-13989.892304,383.047749
510.109084,-3256.906145,-16062.468941,-995.924147
510.109406,-2368.659014,-13027.624579,-153.219100
510.109729,-1628.453072,-6069.688724,306.438199
510.110051,1850.514855,-1924.535449,-229.828649
510.110374,7105.977043,-296.082377,689.485948
510.110696,9918.759623,-1702.473667,459.657299
510.111019,10510.924376,-3034.844362,1302.362347
510.111341,9178.553681,-6587.832884,2221.676944
510.111663,5403.503377,-9918.759623,459.657299
510.111986,74.020594,-12879.583391,-2451.505594
510.112308,-5329.482782,-13101.645173,-4443.353888
510.112631,-7772.162391,-10214.842000,-5439.278036
510.112953,-7402.059420,-8808.450710,-7507.735880
510.113276,-7476.080014,-10732.986159,-7507.735880
510.113598,-7402.059420,-12583.501014,-3370.820191
510.113920,-7772.162391,-13323.706956,0.000000
510.114243,-5329.482782,-15618.345376,-1838.629195
510.114565,-2294.638420,-16876.695478,-3064.381992
510.114888,-1110.308913,-14359.995275,-229.828649
510.115210,-444.123565,-7698.141797,2221.676944
510.115533,3701.029710,-2368.659014,1762.019645
510.115855,7772.162391,-1036.288319,-536.266849
510.116177,9252.574275,-1850.514855,-459.657299
510.116500,7254.018232,-2886.803174,1149.143247
510.116822,5255.462188,-5403.503377,1225.752797
510.117145,3627.009116,-9474.636058,-919.314598
510.117467,296.082377,-13175.665768,-3370.820191
510.117790,-4737.318029,-14508.036463,-3294.210641
510.118112,-7920.203579,-11251.130318,-2757.943793
510.118434,-7402.059420,-8882.471304,-5439.278036
510.118757,-5033.400406,-9918.759623,-8044.002729
510.119079,-5255.462188,-11473.192101,-4443.353888
510.119402,-6809.894666,-11991.336260,306.438199
510.119724,-4589.276840,-14063.912898,0.000000
510.120047,-888.247130,-16654.633695,-2221.676944
510.120369,1480.411884,-16062.468941,-995.924147
510.120691,1850.514855,-9178.553681,3447.429741
510.121014,3701.029710,-3552.988522,3140.991542
510.121336,7402.059420,-740.205942,919.314598
510.121659,8808.450710,-1332.370696,-612.876398
510.121981,7105.977043,-1554.432478,842.705048
510.122304,5329.482782,-3849.070898,1532.190996
510.122626,3849.070898,-7328.038826,-612.876398
510.122948,1110.308913,-12065.356855,-3447.429741
510.123271,-3775.050304,-14582.057057,-2757.943793
510.123593,-8438.347739,-12287.418637,-1455.581446
510.123916,-9326.594869,-9622.677246,-4749.792088
510.124238,-8142.265362,-10288.862594,-8427.050478
510.124561,-7994.224174,-11695.253884,-7737.564530
510.124883,-8438.347739,-12657.521608,-2451.505594
510.125205,-6883.915261,-14063.912898,-689.485948
510.125528,-3404.947333,-16284.530724,-3217.601092
510.125850,-370.102971,-16654.633695,-2451.505594
510.126173,1184.329507,-11843.295072,1149.143247
510.126495,3182.885551,-5033.400406,2604.724693
510.126818,6735.874072,-1554.432478,612.876398
510.127140,9474.636058,-1258.350101,-995.924147
510.127462,9252.574275,-1184.329507,76.609550
510.127785,7476.080014,-3034.844362,1915.238745
510.128107,6143.709319,-6809.894666,995.924147
510.128430,3849.070898,-10807.006753,-1532.190996
510.128752,-518.144159,-13619.789333,-2374.896044
510.129075,-4663.297435,-12805.562797,-1762.019645
510.129397,-6365.771101,-10584.944971,-2911.162892
510.129719,-6513.812290,-9918.759623,-5822.325785
510.130042,-7031.956449,-11399.171507,-6818.249932
510.130364,-8068.244768,-11843.295072,-2757.943793
510.130687,-7698.141797,-12287.418637,-1762.019645
510.131009,-5329.482782,-14137.933492,-2757.943793
510.131332,-2294.638420,-15470.304188,-3217.601092
510.131654,-962.267725,-13175.665768,-229.828649
510.131976,814.226536,-7402.059420,1455.581446
510.132299,4071.132681,-3923.091493,536.266849
510.132621,7698.141797,-3923.091493,-995.924147
510.132944,8808.450710,-3552.988522,76.609550
510.133266,6735.874072,-1998.556043,2068.457845
510.133589,4885.359217,-3627.009116,842.705048
510.133911,3627.009116,-8808.450710,-1838.629195
510.134233,1036.288319,-12731.542202,-2221.676944
510.134556,-3108.864956,-12287.418637,-153.219100
510.134878,-5033.400406,-9770.718434,-1302.362347
510.135201,-4367.215058,-9474.636058,-4826.401637
510.135523,-3923.091493,-11251.130318,-5515.887586
510.135846,-5551.544565,-11621.233289,-2221.676944
510.136168,-7328.038826,-10658.965565,459.657299
510.136490,-5921.647536,-12583.501014,-1608.800546
510.136813,-2886.803174,-14211.954086,-3830.477490
510.137135,-1702.473667,-13101.645173,-1838.629195
510.137458,-962.267725,-8364.327145,1149.143247
510.137780,1628.453072,-5033.400406,1149.143247
510.138103,5477.523971,-5921.647536,-1532.190996
510.138425,6883.915261,-5847.626942,-1991.848295
510.138747,4885.359217,-5181.441594,76.609550
510.139070,2812.782580,-5403.503377,76.609550
510.139392,1406.391290,-8068.244768,-3064.381992
510.139714,-740.205942,-10140.821405,-5132.839837
510.140037,-3775.050304,-11251.130318,-3907.087040
510.140359,-5255.462188,-10510.924376,-2298.286494
510.140682,-4737.318029,-11029.068536,-3983.696590
510.141004,-3997.112087,-12213.398043,-4903.011187
510.141326,-5181.441594,-12657.521608,-2451.505594
510.141649,-6587.832884,-11399.171507,-383.047749
510.141971,-4737.318029,-12213.398043,-1991.848295
510.142293,-962.267725,-13397.727550,-3753.867940
510.142616,1184.329507,-12435.459826,-2298.286494
510.142938,2368.659014,-8438.347739,1762.019645
510.143260,5107.421000,-5033.400406,2757.943793
510.143583,8586.388927,-5107.421000,-612.876398
510.143905,9474.636058,-6439.791695,-1991.848295
510.144227,7476.080014,-6291.750507,229.828649
510.144550,5181.441594,-5255.462188,459.657299
510.144872,3849.070898,-6957.935855,-2528.115143
510.145195,1776.494261,-10658.965565,-4366.744339
510.145517,-2516.700203,-11917.315666,-2451.505594
510.145839,-6587.832884,-10436.903782,-1302.362347
510.146162,-6809.894666,-9844.739029,-3524.039291
510.146484,-5625.565159,-11843.295072,-6205.373534
510.146806,-5551.544565,-12805.562797,-4213.525239
510.147129,-6439.791695,-11917.315666,153.219100
510.147451,-4885.359217,-11103.089130,459.657299
510.147773,-1998.556043,-11621.233289,-1915.238745
510.148096,0.000000,-11991.336260,-1225.752797
510.148418,-592.164754,-7920.203579,2757.943793
510.148740,1480.411884,-3997.112087,1915.238745
510.149063,4959.379811,-3997.112087,-1915.238745
510.149385,7105.977043,-6143.709319,-1378.971896
510.149708,5699.585753,-5995.668130,2451.505594
510.150030,3627.009116,-4811.338623,2681.334243
510.150352,3404.947333,-7105.977043,-689.485948
510.150675,2368.659014,-9622.677246,-4519.963438
510.150997,-1184.329507,-12435.459826,-3370.820191
510.151319,-7031.956449,-10140.821405,-536.266849
510.151642,-9474.636058,-8734.430116,-2374.896044
510.151964,-7254.018232,-11251.130318,-6741.640382
510.152286,-6069.688724,-14656.077652,-6665.030833
510.152609,-7179.997637,-13323.706956,-2374.896044
510.152931,-7105.977043,-12213.398043,-766.095498
510.153253,-3404.947333,-13101.645173,-1532.190996
510.153576,666.185348,-14137.933492,-2221.676944
510.153898,2072.576638,-11029.068536,0.000000
510.154221,3849.070898,-6661.853478,612.876398
510.154543,7328.038826,-4589.276840,-536.266849
510.154865,10288.862594,-5403.503377,-536.266849
510.155188,9326.594869,-4885.359217,1685.410096
510.155510,6513.812290,-3256.906145,2681.334243
510.155832,4737.318029,-4737.318029,229.828649
510.156155,3478.967927,-9326.594869,-2987.772442
510.156477,-666.185348,-12213.398043,-2757.943793
510.156799,-5921.647536,-11695.253884,-1532.190996
510.157122,-7772.162391,-9770.718434,-2451.505594
510.157444,-7179.997637,-9918.759623,-3830.477490
510.157766,-7105.977043,-11917.315666,-4903.011187
510.158089,-9918.759623,-10436.903782,-2068.457845
510.158411,-10140.821405,-9622.677246,-1915.238745
510.158734,-5921.647536,-11547.212695,-4903.011187
510.159056,-962.267725,-14285.974681,-5439.278036
510.159378,518.144159,-14508.036463,-1532.190996
510.159701,1776.494261,-9474.636058,2221.676944
510.160023,6513.812290,-6069.688724,766.095498
510.160345,11325.150913,-6439.791695,-2834.553343
510.160668,11991.336260,-6513.812290,-1762.019645
510.160990,8290.306550,-4441.235652,2221.676944
510.161312,4885.359217,-3552.988522,1915.238745
510.161635,3997.112087,-7105.977043,-1455.581446
510.161957,1036.288319,-10658.965565,-2528.115143
510.162279,-4145.153275,-9992.780217,-612.876398
510.162602,-6883.915261,-8438.347739,-153.219100
510.162924,-5477.523971,-10732.986159,-3600.648841
510.163247,-4293.194464,-12805.562797,-4060.306139
510.163569,-5329.482782,-11621.233289,-995.924147
510.163891,-5921.647536,-9252.574275,-536.266849
510.164214,-4219.173869,-10807.006753,-2374.896044
510.164536,-2146.597232,-13989.892304,-4290.134789
510.164858,-2072.576638,-13545.768739,-2528.115143
510.165181,-2146.597232,-10066.800811,-153.219100
510.165503,888.247130,-7328.038826,-995.924147
510.165825,6143.709319,-7402.059420,-3677.258390
510.166148,7846.182985,-8438.347739,-2834.553343
510.166470,6587.832884,-6735.874072,1378.971896
510.166792,4589.276840,-4071.132681,1762.019645
510.167115,3330.926739,-5625.565159,-1991.848295
510.167437,518.144159,-9770.718434,-2987.772442
510.167760,-5107.421000,-10584.944971,-995.924147
510.168082,-9400.615463,-8290.306550,-536.266849
510.168404,-8142.265362,-9474.636058,-2987.772442
510.168727,-4367.215058,-12509.480420,-5209.449386
510.169049,-3330.926739,-12953.603985,-2681.334243
510.169371,-3330.926739,-10436.903782,1225.752797
510.169694,-2146.597232,-10140.821405,1378.971896
510.170016,1406.391290,-12879.583391,-1991.848295
510.170338,3701.029710,-14137.933492,-3370.820191
510.170661,3256.906145,-10584.944971,-612.876398
510.170983,3701.029710,-6217.729913,1225.752797
510.171305,5477.523971,-5181.441594,536.266849
510.171628,7772.162391,-6439.791695,-995.924147
510.171950,6883.915261,-6809.894666,-383.047749
510.172273,4219.173869,-5403.503377,995.924147
510.172595,2072.576638,-6143.709319,-1072.533697
510.172917,-296.082377,-9030.512492,-3524.039291
510.173240,-5181.441594,-11029.068536,-2911.162892
510.173562,-9770.718434,-9696.697840,-1302.362347
510.173884,-10288.862594,-9252.574275,-2681.334243
510.174207,-7772.162391,-10584.944971,-5898.935335
510.174529,-7105.977043,-10881.027347,-5056.230287
510.174851,-7772.162391,-11769.274478,-689.485948
510.175174,-5551.544565,-11029.068536,76.609550
510.175496,-1628.453072,-13249.686362,-3294.210641
510.175819,1702.473667,-14508.036463,-4060.306139
510.176141,2812.782580,-10807.006753,-153.219100
510.176463,4071.132681,-6587.832884,842.705048
510.176786,6735.874072,-4441.235652,-919.314598
510.177108,9104.533087,-5847.626942,-383.047749
510.177430,7772.162391,-6143.709319,536.266849
510.177753,5255.462188,-5181.441594,995.924147
510.178075,4737.318029,-5699.585753,-919.314598
510.178397,3627.009116,-9474.636058,-3447.429741
510.178720,74.020594,-12583.501014,-2451.505594
510.179042,-4885.359217,-11473.192101,919.314598
510.179364,-7920.203579,-9030.512492,229.828649
510.179687,-5995.668130,-9326.594869,-4060.306139
510.180009,-6513.812290,-10584.944971,-7201.297681
510.180332,-8956.491898,-10807.006753,-3294.210641
510.180654,-9030.512492,-10288.862594,-919.314598
510.180976,-5477.523971,-13027.624579,-3830.477490
510.181299,-1776.494261,-16136.489536,-4366.744339
510.181621,148.041188,-14656.077652,-995.924147
510.181943,888.247130,-8660.409521,306.438199
510.182266,5033.400406,-6069.688724,-1302.362347
510.182588,9030.512492,-6439.791695,-2068.457845
510.182910,8882.471304,-5403.503377,-612.876398
510.183233,6513.812290,-3330.926739,1378.971896
510.183555,4737.318029,-4071.132681,842.705048
510.183877,4293.194464,-8216.285956,-1915.238745
510.184200,1406.391290,-12139.377449,-2145.067394
510.184522,-3478.967927,-11473.192101,459.657299
510.184845,-5995.668130,-9178.553681,306.438199
510.185167,-5033.400406,-9548.656652,-2757.943793
510.185489,-3552.988522,-11843.295072,-3830.477490
510.185812,-5773.606348,-10436.903782,-1225.752797
510.186134,-7994.224174,-8660.409521,76.609550
510.186456,-6365.771101,-10288.862594,-2221.676944
510.186779,-2442.679609,-14211.954086,-4290.134789
510.187101,-1036.288319,-14804.118840,-3064.381992
510.187423,-444.123565,-11029.068536,-689.485948
510.187746,2590.720797,-8216.285956,229.828649
510.188068,6809.894666,-7846.182985,-1149.143247
510.188390,9104.533087,-7105.977043,-1149.143247
510.188713,6217.729913,-4737.318029,0.000000
510.189035,4071.132681,-3997.112087,0.000000
510.189358,3923.091493,-7402.059420,-1991.848295
510.189680,1776.494261,-10140.821405,-2757.943793
510.190002,-3552.988522,-9400.615463,-689.485948
510.190325,-7550.100608,-8512.368333,383.047749
510.190647,-6735.874072,-9474.636058,-2068.457845
510.190969,-4515.256246,-11843.295072,-4290.134789
510.191292,-6587.832884,-11103.089130,-2145.067394
510.191614,-8586.388927,-9104.533087,459.657299
510.191936,-6291.750507,-9178.553681,-383.047749
510.192259,-1332.370696,-12435.459826,-3370.820191
510.192581,888.247130,-12879.583391,-3064.381992
510.192903,814.226536,-9178.553681,536.266849
510.193226,2220.617826,-5995.668130,1225.752797
510.193548,6735.874072,-7476.080014,-1915.238745
510.193871,9030.512492,-9696.697840,-2834.553343
510.194193,6809.894666,-8956.491898,-536.266849
510.194515,4441.235652,-6661.853478,842.705048
510.194838,4663.297435,-7105.977043,-2145.067394
510.195160,3627.009116,-9326.594869,-4136.915689
510.195482,-370.102971,-10955.047942,-2528.115143
510.195805,-5403.503377,-9844.739029,-689.485948
510.196127,-7179.997637,-9622.677246,-2068.457845
510.196449,-6439.791695,-11251.130318,-4519.963438
510.196772,-6735.874072,-12139.377449,-4060.306139
510.197094,-8068.244768,-10140.821405,-995.924147
510.197416,-6513.812290,-9992.780217,-919.314598
510.197739,-2590.720797,-11621.233289,-1915.238745
510.198061,666.185348,-12583.501014,-1685.410096
510.198384,2220.617826,-10288.862594,306.438199
510.198706,4145.153275,-6735.874072,689.485948
510.199028,6809.894666,-5107.421000,689.485948
510.199351,8290.306550,-6143.709319,-842.705048
510.199673,6809.894666,-5847.626942,-383.047749
510.199995,4515.256246,-4589.276840,-383.047749
510.200318,3552.988522,-5699.585753,-2221.676944
510.200640,2220.617826,-9622.677246,-3370.820191
510.200962,-1554.432478,-12509.480420,-2528.115143
510.201285,-5847.626942,-12805.562797,-1072.533697
510.201607,-7402.059420,-11621.233289,-995.924147
510.201929,-7476.080014,-10288.862594,-3217.601092
510.202252,-8364.327145,-10436.903782,-4290.134789
510.202574,-9400.615463,-10807.006753,-2604.724693
510.202897,-8142.265362,-9696.697840,-1685.410096
510.203219,-4293.194464,-11103.089130,-3370.820191
510.203541,-740.205942,-13323.706956,-3294.210641
510.203864,1406.391290,-12509.480420,689.485948
510.204186,3997.112087,-9104.533087,1762.019645
510.204508,7402.059420,-6217.729913,-229.828649
510.204831,10510.924376,-6809.894666,-766.095498
510.205153,9770.718434,-6143.709319,612.876398
510.205475,7105.977043,-3775.050304,766.095498
510.205798,5255.462188,-3330.926739,-306.438199
510.206120,3404.947333,-6957.935855,-2298.286494
510.206442,0.000000,-11399.171507,-2681.334243
510.206765,-5477.523971,-11991.336260,-919.314598
510.207087,-8364.327145,-10955.047942,-689.485948
510.207410,-7105.977043,-10955.047942,-3677.258390
510.207732,-7254.018232,-11843.295072,-5592.497135
510.208054,-9992.780217,-10881.027347,-2451.505594
510.208377,-11251.130318,-8808.450710,-536.266849
510.208699,-8290.306550,-9400.615463,-2528.115143
510.209021,-3849.070898,-12583.501014,-4979.620737
510.209344,-1258.350101,-13027.624579,-3753.867940
510.209666,-148.041188,-10066.800811,-919.314598
510.209988,3552.988522,-8438.347739,0.000000
510.210311,8808.450710,-9844.739029,-459.657299
510.210633,10436.903782,-8438.347739,-383.047749
510.210956,8216.285956,-4367.215058,153.219100
510.211278,6217.729913,-2960.823768,-536.266849
510.211600,4959.379811,-5995.668130,-2528.115143
510.211923,1924.535449,-10288.862594,-2451.505594
510.212245,-3923.091493,-11177.109724,-229.828649
510.212567,-7254.018232,-9622.677246,-689.485948
510.212890,-5329.482782,-10955.047942,-4060.306139
510.213212,-2886.803174,-13767.830521,-3907.087040
510.213534,-3552.988522,-13175.665768,-612.876398
510.213857,-5847.626942,-8364.327145,2451.505594
510.214179,-3849.070898,-7698.141797,0.000000
510.214501,-148.041188,-10066.800811,-3677.258390
510.214824,888.247130,-11917.315666,-3064.381992
510.215146,-222.061783,-10362.883188,-459.657299
510.215469,666.185348,-7476.080014,153.219100
510.215791,4885.359217,-8142.265362,-1532.190996
510.216113,7624.121203,-9178.553681,-2221.676944
510.216436,5625.565159,-7179.997637,-689.485948
510.216758,2664.741391,-5107.421000,-306.438199
510.217080,1554.432478,-5329.482782,-3600.648841
510.217403,222.061783,-9104.533087,-5439.278036
510.217725,-3404.947333,-10955.047942,-3524.039291
510.218047,-7624.121203,-10066.800811,-1685.410096
510.218370,-7772.162391,-10066.800811,-2145.067394
510.218692,-5033.400406,-12361.439231,-4290.134789
510.219014,-3701.029710,-13175.665768,-3524.039291
510.219337,-4737.318029,-10436.903782,383.047749
510.219659,-4293.194464,-8364.327145,1991.848295
510.219982,-1480.411884,-10066.800811,-842.705048
510.220304,518.144159,-11547.212695,-1225.752797
510.220626,222.061783,-9252.574275,459.657299
510.220949,1036.288319,-6069.688724,612.876398
510.221271,5107.421000,-7254.018232,-383.047749
510.221593,8808.450710,-8438.347739,-1378.971896
510.221916,8956.491898,-7624.121203,0.000000
510.222238,6439.791695,-5551.544565,842.705048
510.222560,4885.359217,-6439.791695,-1225.752797
510.222883,3478.967927,-9844.739029,-4596.572988
510.223205,-1184.329507,-11917.315666,-4596.572988
510.223527,-6661.853478,-11843.295072,-3217.601092
510.223850,-8364.327145,-11917.315666,-3140.991542
510.224172,-5921.647536,-13249.686362,-4366.744339
510.224495,-6291.750507,-12213.398043,-3217.601092
510.224817,-7328.038826,-9696.697840,153.219100
510.225139,-6809.894666,-7920.203579,612.876398
510.225462,-2886.803174,-9030.512492,-2374.896044
510.225784,-888.247130,-10807.006753,-2987.772442
510.226106,-1480.411884,-10362.883188,459.657299
510.226429,-1036.288319,-7550.100608,2451.505594
510.226751,2368.659014,-6217.729913,1302.362347
510.227073,6735.874072,-7179.997637,-1302.362347
510.227396,7254.018232,-6957.935855,-1302.362347
510.227718,6143.709319,-5847.626942,842.705048
510.228040,5477.523971,-5921.647536,0.000000
510.228363,4367.215058,-8882.471304,-2834.553343
510.228685,888.247130,-13027.624579,-3600.648841
510.229008,-4145.153275,-12435.459826,-2221.676944
510.229330,-6883.915261,-11029.068536,-2451.505594
510.229652,-6143.709319,-11843.295072,-4979.620737
510.229975,-5773.606348,-12435.459826,-4519.963438
510.230297,-7179.997637,-10140.821405,-306.438199
510.230619,-7402.059420,-7105.977043,459.657299
510.230942,-4367.215058,-8882.471304,-2528.115143
510.231264,-1628.453072,-11547.212695,-3983.696590
510.231586,-1554.432478,-10955.047942,-1685.410096
510.231909,-1332.370696,-7476.080014,842.705048
510.232231,1628.453072,-6513.812290,459.657299
510.232553,5329.482782,-8216.285956,-1608.800546
510.232876,6069.688724,-8290.306550,-1608.800546
510.233198,4441.235652,-6439.791695,0.000000
510.233521,4219.173869,-5107.421000,-383.047749
510.233843,4367.215058,-7254.018232,-3600.648841
510.234165,1258.350101,-10584.944971,-3753.867940
510.234488,-3849.070898,-11103.089130,-842.705048
510.234810,-5995.668130,-10510.924376,-1685.410096
510.235132,-4589.276840,-11473.192101,-4749.792088
510.235455,-3256.906145,-13397.727550,-4903.011187
510.235777,-5329.482782,-12213.398043,-536.266849
510.236099,-6291.750507,-9178.553681,1915.238745
510.236422,-3478.967927,-9104.533087,-536.266849
510.236744,-1110.308913,-11251.130318,-2451.505594
510.237066,-962.267725,-10732.986159,-1149.143247
510.237389,-1924.535449,-7476.080014,536.266849
510.237711,222.061783,-5625.565159,-612.876398
510.238034,4515.256246,-7402.059420,-2834.553343
510.238356,6957.935855,-9178.553681,-2298.286494
510.238678,6957.935855,-7846.182985,306.438199
510.239000,6439.791695,-6069.688724,536.266849
510.239323,6587.832884,-7402.059420,-2911.162892
510.239645,4441.235652,-11325.150913,-4060.306139
510.239967,-814.226536,-12213.398043,-1762.019645
510.240290,-5477.523971,-10140.821405,-1302.362347
510.240612,-5033.400406,-10658.965565,-3753.867940
510.240934,-2590.720797,-12213.398043,-6128.763984
510.241256,-2368.659014,-12657.521608,-2757.943793
510.241579,-3775.050304,-9844.739029,1762.019645
510.241901,-2664.741391,-8734.430116,2221.676944
510.242223,370.102971,-10732.986159,-383.047749
510.242546,814.226536,-11473.192101,-842.705048
510.242868,-814.226536,-8290.306550,1532.190996
510.243190,-1184.329507,-4811.338623,1225.752797
510.243512,1998.556043,-5773.606348,-689.485948
510.243835,5033.400406,-7550.100608,-842.705048
510.244157,5033.400406,-6143.709319,842.705048
510.244479,2960.823768,-3627.009116,153.219100
510.244802,3256.906145,-6217.729913,-2604.724693
510.245124,2812.782580,-11325.150913,-5056.230287
510.245446,-1480.411884,-13027.624579,-4519.963438
510.245768,-6365.771101,-10955.047942,-2987.772442
510.246091,-7550.100608,-11769.274478,-4213.525239
510.246413,-5921.647536,-12805.562797,-5898.935335
510.246735,-5477.523971,-13397.727550,-4826.401637
510.247058,-7254.018232,-10510.924376,-1302.362347
510.247380,-7031.956449,-8734.430116,0.000000
510.247702,-3701.029710,-9844.739029,-1225.752797
510.248024,-962.267725,-12213.398043,-1608.800546
510.248347,-1036.288319,-10066.800811,766.095498
510.248669,296.082377,-6217.729913,919.314598
510.248991,4737.318029,-5551.544565,153.219100
510.249314,9622.677246,-7105.977043,0.000000
510.249636,9844.739029,-5921.647536,229.828649
510.249958,7328.038826,-3478.967927,766.095498
510.250280,5921.647536,-5551.544565,-689.485948
510.250603,4515.256246,-10288.862594,-4060.306139
510.250925,666.185348,-13545.768739,-6052.154434
510.251247,-5181.441594,-13175.665768,-5362.668486
510.251570,-7846.182985,-12731.542202,-3600.648841
510.251892,-5995.668130,-13027.624579,-4290.134789
510.252214,-5477.523971,-12657.521608,-5362.668486
510.252536,-6809.894666,-9918.759623,-2528.115143
510.252859,-6661.853478,-7772.162391,-766.095498
510.253181,-4219.173869,-9030.512492,-2528.115143
510.253503,-1628.453072,-11029.068536,-2987.772442
510.253826,-1924.535449,-10214.842000,-536.266849
510.254148,-1628.453072,-6661.853478,919.314598
510.254470,2368.659014,-5699.585753,306.438199
510.254792,7105.977043,-7476.080014,-76.609550
510.255115,7624.121203,-6809.894666,0.000000
510.255437,5625.565159,-4219.173869,1149.143247
510.255759,5033.400406,-5181.441594,306.438199
510.256082,4885.359217,-9104.533087,-2757.943793
510.256404,1924.535449,-12509.480420,-3983.696590
510.256726,-3552.988522,-12509.480420,-2757.943793
510.257048,-6291.750507,-11399.171507,-2145.067394
510.257371,-4441.235652,-12287.418637,-3447.429741
510.257693,-2664.741391,-12583.501014,-3907.087040
510.258015,-4441.235652,-11547.212695,-1991.848295
510.258338,-6217.729913,-9326.594869,1225.752797
510.258660,-4071.132681,-8956.491898,229.828649
510.258982,-1332.370696,-10807.006753,-1532.190996
510.259304,-1554.432478,-9992.780217,-536.266849
510.259627,-1702.473667,-6661.853478,1762.019645
510.259949,814.226536,-4959.379811,766.095498
510.260271,5033.400406,-6217.729913,-383.047749
510.260594,6587.832884,-7031.956449,-383.047749
510.260916,4589.276840,-5477.523971,459.657299
510.261238,3182.885551,-5107.421000,-383.047749
510.261560,3182.885551,-8290.306550,-3524.039291
510.261883,740.205942,-12509.480420,-4596.572988
510.262205,-4293.194464,-13471.748144,-3370.820191
510.262527,-7254.018232,-11547.212695,-2451.505594
510.262850,-4811.338623,-11843.295072,-4443.353888
510.263172,-1480.411884,-13545.768739,-6588.421283
510.263494,-1998.556043,-13323.706956,-3140.991542
510.263816,-4071.132681,-9770.718434,1991.848295
510.264139,-3552.988522,-9252.574275,1838.629195
510.264461,-962.267725,-10288.862594,-1532.190996
510.264783,74.020594,-9770.718434,-1991.848295
510.265106,-296.082377,-6513.812290,689.485948
510.265428,2368.659014,-4811.338623,919.314598
510.265750,7550.100608,-5847.626942,-766.095498
510.266072,10436.903782,-8068.244768,0.000000
510.266395,9104.533087,-7254.018232,2528.115143
510.266717,6735.874072,-5847.626942,1838.629195
510.267039,4811.338623,-7254.018232,-3294.210641
510.267362,1628.453072,-11325.150913,-6588.421283
510.267684,-3923.091493,-13915.871710,-5898.935335
510.268006,-8660.409521,-12139.377449,-3370.820191
510.268328,-8364.327145,-11399.171507,-3907.087040
510.268651,-5477.523971,-12509.480420,-5362.668486
510.268973,-4663.297435,-12731.542202,-3753.867940
510.269295,-5847.626942,-10436.903782,0.000000
510.269618,-5403.503377,-9252.574275,-229.828649
510.269940,-2590.720797,-10436.903782,-1685.410096
510.270262,-1406.391290,-10658.965565,-1455.581446
510.270584,-1554.432478,-7328.038826,0.000000
510.270907,-518.144159,-3775.050304,76.609550
510.271229,3404.947333,-4737.318029,383.047749
510.271551,6809.894666,-7476.080014,459.657299
510.271874,7105.977043,-7254.018232,153.219100
510.272196,5773.606348,-5995.668130,459.657299
510.272518,5921.647536,-7254.018232,-995.924147
510.272840,4811.338623,-10436.903782,-2757.943793
510.273163,296.082377,-12435.459826,-3370.820191
510.273485,-5403.503377,-10658.965565,-1915.238745
510.273807,-8142.265362,-9844.739029,-3370.820191
510.274130,-6661.853478,-11473.192101,-5592.497135
510.274452,-5921.647536,-13249.686362,-4596.572988
510.274774,-7402.059420,-12213.398043,-2068.457845
510.275096,-6957.935855,-11547.212695,-536.266849
510.275419,-2812.782580,-12509.480420,-1762.019645
510.275741,-518.144159,-12213.398043,-1685.410096
510.276063,-814.226536,-9548.656652,153.219100
510.276386,-814.226536,-5033.400406,1225.752797
510.276708,2812.782580,-3478.967927,-995.924147
510.277030,6735.874072,-5699.585753,-2451.505594
510.277352,7402.059420,-7476.080014,1302.362347
510.277675,5551.544565,-6143.709319,1915.238745
510.277997,4737.318029,-6809.894666,0.000000
510.278319,4367.215058,-9844.739029,-1915.238745
510.278642,888.247130,-12213.398043,-2604.724693
510.278964,-4737.318029,-11399.171507,-2757.943793
510.279286,-7550.100608,-9400.615463,-2681.334243
510.279608,-5329.482782,-9770.718434,-4979.620737
510.279931,-3849.070898,-11547.212695,-6665.030833
510.280253,-4811.338623,-12509.480420,-2528.115143
510.280575,-6217.729913,-11251.130318,1608.800546
510.280898,-4441.235652,-10807.006753,-306.438199
510.281220,-740.205942,-12583.501014,-3370.820191
510.281542,444.123565,-11769.274478,-2068.457845
510.281864,0.000000,-6883.915261,229.828649
510.282187,2220.617826,-3701.029710,0.000000
510.282509,6809.894666,-5625.565159,-842.705048
510.282831,9030.512492,-7328.038826,-612.876398
510.283153,7772.162391,-5921.647536,919.314598
510.283476,5847.626942,-5107.421000,1225.752797
510.283798,5403.503377,-7846.182985,-1225.752797
510.284120,2960.823768,-11769.274478,-4366.744339
510.284443,-1628.453072,-13249.686362,-2528.115143
510.284765,-5551.544565,-11103.089130,-1532.190996
510.285087,-5773.606348,-9992.780217,-3140.991542
510.285409,-3552.988522,-11177.109724,-4290.134789
510.285732,-4589.276840,-11103.089130,-3447.429741
510.286054,-5699.585753,-10066.800811,0.000000
510.286376,-5107.421000,-10732.986159,-689.485948
510.286699,-3182.885551,-12213.398043,-995.924147
510.287021,-2812.782580,-11843.295072,-995.924147
510.287343,-2886.803174,-7920.203579,-766.095498
510.287665,-518.144159,-4885.359217,-689.485948
510.287988,3256.906145,-5107.421000,-1302.362347
510.288310,5921.647536,-5625.565159,-536.266849
510.288632,5551.544565,-4885.359217,383.047749
510.288955,4811.338623,-5773.606348,-306.438199
510.289277,5403.503377,-9326.594869,-2451.505594
510.289599,3256.906145,-12805.562797,-3907.087040
510.289921,-1776.494261,-13397.727550,-2987.772442
510.290244,-5699.585753,-11917.315666,-2068.457845
510.290566,-5625.565159,-11251.130318,-3217.601092
510.290888,-4219.173869,-11621.233289,-4826.401637
510.291211,-4367.215058,-11325.150913,-2528.115143
510.291533,-6143.709319,-9770.718434,-689.485948
510.291855,-5181.441594,-10584.944971,-536.266849
510.292177,-2886.803174,-11547.212695,0.000000
510.292500,-2220.617826,-10881.027347,536.266849
510.292822,-2516.700203,-7179.997637,766.095498
510.293144,0.000000,-4515.256246,0.000000
510.293467,4737.318029,-4663.297435,-1225.752797
510.293789,7328.038826,-6217.729913,-1455.581446
510.294111,5847.626942,-6661.853478,383.047749
510.294433,4737.318029,-7254.018232,612.876398
510.294756,4959.379811,-7994.224174,-2068.457845
510.295078,3849.070898,-11843.295072,-5898.935335
510.295400,-1036.288319,-14656.077652,-4673.182538
510.295723,-6513.812290,-13101.645173,-1915.238745
510.296045,-7698.141797,-11251.130318,-3677.258390
510.296367,-6513.812290,-11621.233289,-5439.278036
510.296689,-5551.544565,-11917.315666,-4213.525239
510.297012,-7031.956449,-8660.409521,-1149.143247
510.297334,-6735.874072,-8068.244768,-306.438199
510.297656,-2368.659014,-9918.759623,-766.095498
510.297979,74.020594,-10288.862594,-1149.143247
510.298301,370.102971,-8586.388927,459.657299
510.298623,1776.494261,-5551.544565,2298.286494
510.298945,5847.626942,-5033.400406,536.266849
510.299268,9622.677246,-5403.503377,-995.924147
510.299590,9622.677246,-5625.565159,-153.219100
510.299912,7402.059420,-6513.812290,1072.533697
510.300235,6809.894666,-8142.265362,-995.924147
510.300557,6143.709319,-11103.089130,-4136.915689
510.300879,2368.659014,-13915.871710,-4826.401637
510.301201,-3849.070898,-13767.830521,-2911.162892
510.301524,-6883.915261,-12213.398043,-2451.505594
510.301846,-7105.977043,-11843.295072,-3907.087040
510.302168,-7328.038826,-11103.089130,-4903.011187
510.302491,-9548.656652,-9770.718434,-3294.210641
510.302813,-9252.574275,-9844.739029,-1532.190996
510.303135,-6217.729913,-10436.903782,-1915.238745
510.303457,-3627.009116,-11325.150913,-2451.505594
510.303780,-2294.638420,-10140.821405,-383.047749
510.304102,592.164754,-7179.997637,689.485948
510.304424,4885.359217,-4811.338623,-459.657299
510.304747,8290.306550,-5699.585753,-1532.190996
510.305069,8364.327145,-7179.997637,0.000000
510.305391,6439.791695,-6883.915261,2068.457845
510.305713,5773.606348,-6291.750507,0.000000
510.306036,5773.606348,-8142.265362,-4136.915689
510.306358,2738.761985,-11843.295072,-4903.011187
510.306680,-2812.782580,-12213.398043,-1149.143247
510.307003,-6217.729913,-11843.295072,306.438199
510.307325,-6143.709319,-12287.418637,-1991.848295
510.307647,-5403.503377,-13841.851115,-4136.915689
510.307969,-7402.059420,-11769.274478,-2528.115143
510.308292,-9844.739029,-8068.244768,459.657299
510.308614,-8216.285956,-8660.409521,-766.095498
510.308936,-3849.070898,-11251.130318,-2145.067394
510.309259,-1628.453072,-9992.780217,-1455.581446
510.309581,-148.041188,-6513.812290,0.000000
510.309903,3552.988522,-5255.462188,76.609550
510.310225,7994.224174,-7920.203579,-459.657299
510.310548,9474.636058,-8882.471304,-995.924147
510.310870,6957.935855,-7105.977043,383.047749
510.311192,5181.441594,-5625.565159,1072.533697
510.311515,4589.276840,-7328.038826,-2145.067394
510.311837,1332.370696,-10436.903782,-4290.134789
510.312159,-4885.359217,-11843.295072,-1991.848295
510.312481,-8660.409521,-10732.986159,-1225.752797
510.312804,-6735.874072,-11917.315666,-3677.258390
510.313126,-4811.338623,-12953.603985,-4443.353888
510.313448,-5773.606348,-11843.295072,0.000000
510.313771,-6883.915261,-9030.512492,1991.848295
510.314093,-5403.503377,-8660.409521,306.438199
510.314415,-2516.700203,-10510.924376,-995.924147
510.314737,-1480.411884,-10955.047942,-1915.238745
510.315060,-1554.432478,-7846.182985,-842.705048
510.315382,1110.308913,-5403.503377,-536.266849
510.315704,5921.647536,-6809.894666,-919.314598
510.316027,9104.533087,-8956.491898,-766.095498
510.316349,7920.203579,-8438.347739,153.219100
510.316671,5625.565159,-5773.606348,-612.876398
510.316993,4959.379811,-6883.915261,-3907.087040
510.317316,3478.967927,-10510.924376,-6358.592633
510.317638,-2294.638420,-12583.501014,-4366.744339
510.317960,-7179.997637,-11251.130318,-2451.505594
510.318283,-7994.224174,-11547.212695,-3447.429741
510.318605,-5403.503377,-13323.706956,-3447.429741
510.318927,-5255.462188,-12287.418637,-2374.896044
510.319249,-6735.874072,-10214.842000,-689.485948
510.319572,-5551.544565,-8512.368333,0.000000
510.319894,-2220.617826,-9474.636058,-919.314598
510.320216,0.000000,-10807.006753,-1302.362347
510.320539,-296.082377,-8142.265362,612.876398
510.320861,1702.473667,-5477.523971,383.047749
510.321183,5551.544565,-5255.462188,-1302.362347
510.321505,9326.594869,-6883.915261,-1225.752797
510.321828,8882.471304,-7846.182985,153.219100
510.322150,7105.977043,-7179.997637,0.000000
510.322472,5995.668130,-6513.812290,-1838.629195
510.322795,4367.215058,-9104.533087,-4826.401637
510.323117,-518.144159,-12287.418637,-4826.401637
510.323439,-6365.771101,-12213.398043,-3064.381992
510.323761,-8734.430116,-11029.068536,-2911.162892
510.324084,-7476.080014,-11843.295072,-4519.963438
510.324406,-5625.565159,-13767.830521,-4749.792088
510.324728,-6365.771101,-10955.047942,-766.095498
510.325051,-6439.791695,-9178.553681,919.314598
510.325373,-3775.050304,-9474.636058,-306.438199
510.325695,-740.205942,-10584.944971,-383.047749
510.326017,-370.102971,-8512.368333,0.000000
510.326340,518.144159,-4811.338623,229.828649
510.326662,4145.153275,-4293.194464,-689.485948
510.326984,7994.224174,-6809.894666,-689.485948
510.327307,8216.285956,-7920.203579,1149.143247
510.327629,6291.750507,-6883.915261,1608.800546
510.327951,5329.482782,-7105.977043,-689.485948
510.328273,4811.338623,-9622.677246,-3447.429741
510.328596,1406.391290,-12287.418637,-4903.011187
510.328918,-4441.235652,-12139.377449,-2911.162892
510.329240,-7846.182985,-10732.986159,-2145.067394
510.329563,-7994.224174,-11177.109724,-4136.915689
510.329885,-6735.874072,-13693.809927,-5286.058936
510.330207,-8586.388927,-12805.562797,-2374.896044
510.330529,-9770.718434,-11029.068536,76.609550
510.330852,-7179.997637,-10436.903782,-919.314598
510.331174,-3330.926739,-11843.295072,-1072.533697
510.331496,-2368.659014,-9474.636058,229.828649
510.331818,-1036.288319,-4737.318029,-229.828649
510.332141,3330.926739,-3330.926739,-1915.238745
510.332463,8216.285956,-6587.832884,-1685.410096
510.332785,10066.800811,-8808.450710,306.438199
510.333108,7846.182985,-7476.080014,2451.505594
510.333430,6735.874072,-6439.791695,1378.971896
510.333752,6957.935855,-9252.574275,-2987.772442
510.334074,5107.421000,-12657.521608,-5592.497135
510.334397,-962.267725,-11917.315666,-2911.162892
510.334719,-6069.688724,-9474.636058,-1302.362347
510.335041,-6365.771101,-9474.636058,-2528.115143
510.335364,-4441.235652,-12509.480420,-4596.572988
510.335686,-6883.915261,-12879.583391,-2987.772442
510.336008,-9770.718434,-10140.821405,1532.190996
510.336330,-8956.491898,-9474.636058,536.266849
510.336653,-4293.194464,-11399.171507,-2451.505594
510.336975,-1332.370696,-10362.883188,-2451.505594
510.337297,-444.123565,-5995.668130,-612.876398
510.337620,1776.494261,-3478.967927,-306.438199
510.337942,6735.874072,-5551.544565,-689.485948
510.338264,9918.759623,-8216.285956,-2068.457845
510.338587,8882.471304,-8586.388927,-1762.019645
510.338909,6513.812290,-7846.182985,76.609550
510.339231,5699.585753,-8956.491898,-919.314598
510.339554,3997.112087,-11547.212695,-3753.867940
510.339876,-666.185348,-12805.562797,-3830.477490
510.340199,-6143.709319,-10214.842000,-2068.457845
510.340521,-7254.018232,-9104.533087,-2604.724693
510.340844,-6291.750507,-10510.924376,-3907.087040
510.341166,-6661.853478,-11917.315666,-2528.115143
510.341488,-8290.306550,-10881.027347,153.219100
510.341811,-6587.832884,-9622.677246,536.266849
510.342133,-2738.761985,-11251.130318,-842.705048
510.342456,-148.041188,-11769.274478,-383.047749
510.342778,0.000000,-8216.285956,842.705048
510.343101,1258.350101,-3997.112087,153.219100
510.343423,5625.565159,-4515.256246,-1532.190996
510.343745,8956.491898,-8142.265362,-1915.238745
510.344068,7772.162391,-9104.533087,-1455.581446
510.344390,5181.441594,-7328.038826,-995.924147
510.344713,4663.297435,-7698.141797,-1608.800546
510.345035,3775.050304,-11843.295072,-4903.011187
510.345358,-592.164754,-13989.892304,-4366.744339
510.345680,-7031.956449,-11695.253884,-2528.115143
510.346002,-9474.636058,-9400.615463,-3677.258390
510.346325,-7698.141797,-10362.883188,-5822.325785
510.346647,-7105.977043,-11473.192101,-4903.011187
510.346970,-7994.224174,-10584.944971,-842.705048
510.347292,-6809.894666,-9178.553681,612.876398
510.347615,-3108.864956,-10807.006753,-689.485948
510.347937,-296.082377,-12139.377449,0.000000
510.348259,222.061783,-8882.471304,2068.457845
510.348582,1480.411884,-4737.318029,842.705048
510.348904,5403.503377,-3330.926739,-919.314598
510.349227,9474.636058,-5403.503377,-842.705048
510.349549,9622.677246,-6143.709319,306.438199
510.349872,8216.285956,-5773.606348,1072.533697
510.350194,7550.100608,-6513.812290,-229.828649
510.350516,6587.832884,-10510.924376,-3064.381992
510.350839,2442.679609,-14285.974681,-3907.087040
510.351161,-3775.050304,-13693.809927,-2681.334243
510.351484,-7846.182985,-11251.130318,-2987.772442
510.351806,-7031.956449,-10658.965565,-5132.839837
510.352129,-5329.482782,-12361.439231,-6128.763984
510.352451,-7179.997637,-11029.068536,-2834.553343
510.352773,-8068.244768,-9104.533087,0.000000
510.353096,-6143.709319,-10955.047942,-766.095498
510.353418,-3034.844362,-14359.995275,0.000000
510.353741,-1924.535449,-12065.356855,1378.971896
510.354063,-444.123565,-6513.812290,0.000000
510.354386,3552.988522,-3627.009116,-1455.581446
510.354708,8216.285956,-4219.173869,306.438199
510.355030,8882.471304,-3923.091493,1455.581446
510.355353,6365.771101,-3552.988522,1072.533697
510.355675,5107.421000,-4737.318029,-306.438199
510.355998,4737.318029,-9474.636058,-3983.696590
510.356320,1628.453072,-14359.995275,-5592.497135
510.356642,-4293.194464,-15544.324782,-3677.258390
510.356965,-7402.059420,-13693.809927,-2374.896044
510.357287,-5773.606348,-12509.480420,-3907.087040
510.357610,-3330.926739,-12509.480420,-4979.620737
510.357932,-5477.523971,-10362.883188,-2604.724693
510.358255,-8142.265362,-7402.059420,0.000000
510.358577,-6365.771101,-8364.327145,-1455.581446
510.358899,-3330.926739,-12065.356855,-2911.162892
510.359222,-2368.659014,-12435.459826,-229.828649
510.359544,-2442.679609,-8068.244768,1915.238745
510.359867,518.144159,-4441.235652,689.485948
510.360189,6143.709319,-5403.503377,-153.219100
510.360512,9178.553681,-6661.853478,995.924147
510.360834,7624.121203,-5551.544565,689.485948
510.361156,5699.585753,-4515.256246,229.828649
510.361479,5625.565159,-6809.894666,-1685.410096
510.361801,4441.235652,-11103.089130,-4290.134789
510.362124,-444.123565,-14063.912898,-4060.306139
510.362446,-5477.523971,-12879.583391,-2528.115143
510.362769,-6809.894666,-11917.315666,-3370.820191
510.363091,-5477.523971,-12213.398043,-5286.058936
510.363413,-5477.523971,-12287.418637,-3600.648841
510.363736,-7772.162391,-9400.615463,-1072.533697
510.364058,-7328.038826,-8438.347739,0.000000
510.364381,-4293.194464,-10807.006753,-1302.362347
510.364703,-1258.350101,-11917.315666,-689.485948
510.365026,-222.061783,-8438.347739,76.609550
510.365348,2072.576638,-4885.359217,459.657299
510.365670,6809.894666,-4515.256246,612.876398
510.365993,10362.883188,-6513.812290,-536.266849
510.366315,10066.800811,-6883.915261,-1072.533697
510.366638,7476.080014,-6513.812290,-229.828649
510.366960,5551.544565,-7476.080014,-459.657299
510.367283,3034.844362,-9918.759623,-3677.258390
510.367605,-444.123565,-13397.727550,-5286.058936
510.367927,-5551.544565,-12731.542202,-3677.258390
510.368250,-7254.018232,-10288.862594,-3217.601092
510.368572,-5477.523971,-10881.027347,-4673.182538
510.368895,-4663.297435,-11473.192101,-4519.963438
510.369217,-6217.729913,-10807.006753,-919.314598
510.369540,-6661.853478,-9696.697840,842.705048
510.369862,-4219.173869,-11621.233289,-383.047749
510.370184,-1702.473667,-12509.480420,-1225.752797
510.370507,-1110.308913,-9770.718434,0.000000
510.370829,-296.082377,-4589.276840,1225.752797
510.371152,3182.885551,-3478.967927,306.438199
510.371474,6661.853478,-5107.421000,-612.876398
510.371797,7402.059420,-6661.853478,-1072.533697
510.372119,5773.606348,-6291.750507,-689.485948
510.372441,4589.276840,-7031.956449,-1532.190996
510.372764,4145.153275,-10214.842000,-3907.087040
510.373086,1480.411884,-13841.851115,-5209.449386
510.373409,-3552.988522,-13841.851115,-3753.867940
510.373731,-6587.832884,-11769.274478,-2757.943793
510.374054,-5847.626942,-11769.274478,-4213.525239
510.374376,-5181.441594,-11917.315666,-5132.839837
510.374698,-6883.915261,-10955.047942,-2068.457845
510.375021,-7846.182985,-9104.533087,842.705048
510.375343,-6143.709319,-10510.924376,-612.876398
510.375666,-3404.947333,-13175.665768,-1149.143247
510.375988,-1850.514855,-11399.171507,459.657299
510.376311,-814.226536,-6143.709319,1915.238745
510.376633,3330.926739,-2664.741391,-153.219100
510.376955,7698.141797,-4589.276840,-1378.971896
510.377278,8660.409521,-6217.729913,-306.438199
510.377600,6513.812290,-5773.606348,766.095498
510.377923,5847.626942,-6069.688724,0.000000
510.378245,5477.523971,-9030.512492,-4673.182538
510.378567,2590.720797,-13249.686362,-6281.983084
510.378890,-2294.638420,-14285.974681,-3524.039291
510.379212,-5921.647536,-12287.418637,-2221.676944
510.379535,-4737.318029,-11547.212695,-3447.429741
510.379857,-3997.112087,-11399.171507,-4979.620737
510.380180,-5699.585753,-10584.944971,-3524.039291
510.380502,-7550.100608,-9992.780217,0.000000
510.380824,-6587.832884,-11029.068536,-536.266849
510.381147,-4145.153275,-13249.686362,-1608.800546
510.381469,-2442.679609,-12435.459826,0.000000
510.381792,-518.144159,-7920.203579,2145.067394
510.382114,3478.967927,-3330.926739,842.705048
510.382437,8512.368333,-3256.906145,-306.438199
510.382759,10584.944971,-5403.503377,612.876398
510.383081,9030.512492,-6291.750507,2145.067394
510.383404,5995.668130,-5477.523971,2221.676944
510.383726,5033.400406,-6735.874072,-1378.971896
510.384049,2960.823768,-11251.130318,-4903.011187
510.384371,-518.144159,-14211.954086,-4903.011187
510.384694,-3627.009116,-12805.562797,-2757.943793
510.385016,-4663.297435,-10658.965565,-3217.601092
510.385338,-3923.091493,-11991.336260,-3983.696590
510.385661,-4737.318029,-12879.583391,-1762.019645
510.385983,-7994.224174,-9474.636058,-383.047749
510.386306,-8956.491898,-9992.780217,-2604.724693
510.386628,-7179.997637,-12879.583391,-3370.820191
510.386951,-5107.421000,-13471.748144,-1991.848295
510.387273,-4145.153275,-8512.368333,612.876398
510.387595,-814.226536,-3701.029710,1302.362347
510.387918,5329.482782,-3923.091493,536.266849
510.388240,9474.636058,-6217.729913,-229.828649
510.388563,8068.244768,-6439.791695,612.876398
510.388885,5255.462188,-4885.359217,2068.457845
510.389208,4367.215058,-6143.709319,-995.924147
510.389530,3627.009116,-10436.903782,-4826.401637
510.389852,0.000000,-13323.706956,-4979.620737
510.390175,-4367.215058,-12953.603985,-2604.724693
510.390497,-4885.359217,-11547.212695,-3600.648841
510.390820,-2590.720797,-12805.562797,-4903.011187
510.391142,-3034.844362,-13841.851115,-2834.553343
510.391465,-6957.935855,-11843.295072,306.438199
510.391787,-8512.368333,-9622.677246,-306.438199
510.392109,-6809.894666,-9992.780217,-2528.115143
510.392432,-4367.215058,-11621.233289,-2451.505594
510.392754,-3775.050304,-7179.997637,306.438199
510.393077,-1036.288319,-2664.741391,766.095498
510.393399,4293.194464,-3256.906145,536.266849
510.393722,9474.636058,-7476.080014,306.438199
510.394044,8882.471304,-8808.450710,1378.971896
510.394366,5329.482782,-7476.080014,536.266849
510.394689,4145.153275,-7105.977043,-2145.067394
510.395011,2738.761985,-10140.821405,-5362.668486
510.395334,-444.123565,-12953.603985,-6281.983084
510.395656,-5847.626942,-12287.418637,-3370.820191
510.395979,-7772.162391,-9696.697840,-3370.820191
510.396301,-5403.503377,-10807.006753,-5822.325785
510.396623,-3404.947333,-13693.809927,-4979.620737
510.396946,-4589.276840,-13767.830521,-1072.533697
510.397268,-5995.668130,-11695.253884,536.266849
510.397591,-3849.070898,-11473.192101,153.219100
510.397913,-148.041188,-11103.089130,306.438199
510.398235,1184.329507,-7476.080014,612.876398
510.398558,2146.597232,-2368.659014,612.876398
510.398880,4589.276840,-1406.391290,0.000000
510.399203,7402.059420,-4219.173869,1532.190996
510.399525,7920.203579,-7179.997637,1608.800546
510.399848,5255.462188,-7105.977043,-229.828649
510.400170,4367.215058,-8216.285956,-2681.334243
510.400492,5329.482782,-12065.356855,-4673.182538
510.400815,2442.679609,-14582.057057,-4979.620737
510.401137,-3108.864956,-13767.830521,-2757.943793
510.401460,-6883.915261,-10732.986159,-2757.943793
510.401782,-5551.544565,-11177.109724,-5515.887586
510.402105,-4071.132681,-13397.727550,-5515.887586
510.402427,-6587.832884,-12139.377449,-2068.457845
510.402749,-8956.491898,-9474.636058,0.000000
510.403072,-6439.791695,-10584.944971,-153.219100
510.403394,-2072.576638,-11473.192101,-536.266849
510.403717,148.041188,-9252.574275,383.047749
510.404039,0.000000,-4663.297435,2221.676944
510.404362,2590.720797,-3108.864956,1838.629195
510.404684,7179.997637,-4811.338623,-153.219100
510.405006,8660.409521,-6661.853478,-459.657299
510.405329,5921.647536,-6735.874072,1608.800546
510.405651,3923.091493,-6513.812290,306.438199
510.405974,4663.297435,-9400.615463,-3677.258390
510.406296,3182.885551,-14137.933492,-5822.325785
510.406619,-1850.514855,-14434.015869,-3753.867940
510.406941,-6587.832884,-11843.295072,-2221.676944
510.407263,-6957.935855,-11251.130318,-3294.210641
510.407586,-5995.668130,-12287.418637,-4366.744339
510.407908,-7179.997637,-12953.603985,-3140.991542
510.408231,-9844.739029,-9844.739029,-306.438199
510.408553,-9844.739029,-9252.574275,306.438199
510.408876,-6661.853478,-9770.718434,0.000000
510.409198,-3701.029710,-8586.388927,0.000000
510.409520,-3478.967927,-5329.482782,459.657299
510.409843,-962.267725,-2886.803174,1302.362347
510.410165,3552.988522,-4589.276840,459.657299
510.410488,6143.709319,-6735.874072,-689.485948
510.410810,4663.297435,-7105.977043,-536.266849
510.411133,2516.700203,-6735.874072,-383.047749
510.411455,1998.556043,-8586.388927,-2604.724693
510.411777,1554.432478,-12657.521608,-5286.058936
510.412100,-1628.453072,-15026.180623,-5439.278036
510.412422,-6513.812290,-12953.603985,-3600.648841
510.412745,-8142.265362,-11177.109724,-2604.724693
510.413067,-6291.750507,-12657.521608,-3600.648841
510.413390,-5921.647536,-13323.706956,-4213.525239
510.413712,-7402.059420,-10288.862594,-2068.457845
510.414034,-7698.141797,-7402.059420,0.000000
510.414357,-5551.544565,-7920.203579,76.609550
510.414679,-2590.720797,-9178.553681,-612.876398
510.415002,-2516.700203,-6957.935855,0.000000
510.415324,-3256.906145,-3775.050304,842.705048
510.415647,-1110.308913,-3997.112087,919.314598
510.415969,2072.576638,-6513.812290,229.828649
510.416291,3552.988522,-8660.409521,-2834.553343
510.416614,2516.700203,-9030.512492,-3294.210641
510.416936,1998.556043,-9622.677246,-1915.238745
510.417259,1628.453072,-11177.109724,-2145.067394
510.417581,740.205942,-12805.562797,-4596.572988
510.417904,-2146.597232,-13693.809927,-6741.640382
510.418226,-6513.812290,-13249.686362,-5362.668486
510.418548,-9326.594869,-12953.603985,-2834.553343
510.418871,-8808.450710,-12139.377449,-3217.601092
510.419193,-7105.977043,-11991.336260,-4596.572988
510.419516,-5181.441594,-10140.821405,-3677.258390
510.419838,-3923.091493,-7698.141797,459.657299
510.420160,-1924.535449,-6069.688724,2987.772442
510.420483,148.041188,-4737.318029,2068.457845
510.420805,962.267725,-4441.235652,-995.924147
510.421128,518.144159,-5403.503377,-2145.067394
510.421450,-1110.308913,-7476.080014,459.657299
510.421773,-2664.741391,-8808.450710,1149.143247
510.422095,-1924.535449,-9474.636058,-1378.971896
510.422417,814.226536,-9770.718434,-4443.353888
510.422740,3256.906145,-10955.047942,-4903.011187
510.423062,3552.988522,-11103.089130,-2145.067394
510.423385,1998.556043,-10732.986159,-383.047749
510.423707,1184.329507,-11177.109724,-1838.629195
510.424030,296.082377,-11473.192101,-4136.915689
510.424352,-2072.576638,-11325.150913,-5056.230287
510.424674,-6143.709319,-11029.068536,-3677.258390
510.424997,-8512.368333,-11177.109724,-2145.067394
510.425319,-8216.285956,-10658.965565,-306.438199
510.425642,-6069.688724,-7920.203579,-995.924147
510.425964,-4367.215058,-5699.585753,-1378.971896
510.426287,-3701.029710,-5477.523971,229.828649
510.426609,-4145.153275,-4959.379811,1455.581446
510.426931,-3330.926739,-4737.318029,536.266849
510.427254,-3108.864956,-5995.668130,-2374.896044
510.427576,-3108.864956,-8660.409521,-4136.915689
510.427899,-3849.070898,-11917.315666,-3064.381992
510.428221,-4885.359217,-13471.748144,-1455.581446
510.428544,-4811.338623,-14063.912898,-229.828649
510.428866,-3256.906145,-13175.665768,-1302.362347
510.429188,0.000000,-11917.315666,-3907.087040
510.429511,1776.494261,-10955.047942,-3983.696590
510.429833,2664.741391,-9474.636058,-1072.533697
510.430156,2294.638420,-7105.977043,1608.800546
510.430478,1406.391290,-6513.812290,1685.410096
510.430801,888.247130,-6661.853478,229.828649
510.431123,-1332.370696,-6883.915261,-1532.190996
510.431445,-4737.318029,-7476.080014,-2451.505594
510.431768,-7328.038826,-8808.450710,-1378.971896
510.432090,-7624.121203,-9622.677246,-612.876398
510.432413,-6587.832884,-9030.512492,-1532.190996
510.432735,-5403.503377,-8438.347739,-2834.553343
510.433058,-5403.503377,-9326.594869,-3600.648841
510.433380,-5033.400406,-10584.944971,-2681.334243
510.433702,-4515.256246,-11695.253884,-2451.505594
510.434025,-4589.276840,-10732.986159,-2451.505594
510.434347,-2960.823768,-9844.739029,-3907.087040
510.434670,-1036.288319,-9992.780217,-4213.525239
510.434992,-222.061783,-10288.862594,-2604.724693
510.435315,0.000000,-10510.924376,-306.438199
510.435637,0.000000,-10362.883188,612.876398
510.435959,74.020594,-9548.656652,536.266849
510.436282,-222.061783,-8734.430116,842.705048
510.436604,-1850.514855,-7920.203579,689.485948
510.436927,-2516.700203,-7105.977043,536.266849
510.437249,-2812.782580,-6957.935855,0.000000
510.437572,-1332.370696,-6291.750507,-919.314598
510.437894,518.144159,-6143.709319,-1225.752797
510.438216,1850.514855,-6661.853478,-1532.190996
510.438539,2812.782580,-8290.306550,-2145.067394
510.438861,3701.029710,-11325.150913,-2068.457845
510.439184,2516.700203,-12879.583391,-1532.190996
510.439506,0.000000,-12509.480420,-2221.676944
510.439828,-2664.741391,-11177.109724,-3294.210641
510.440151,-4441.235652,-9844.739029,-5056.230287
510.440473,-5403.503377,-9474.636058,-5515.887586
510.440796,-6365.771101,-9844.739029,-4366.744339
510.441118,-6661.853478,-10658.965565,-2528.115143
510.441441,-7031.956449,-10658.965565,-2145.067394
510.441763,-7402.059420,-11695.253884,-1302.362347
510.442085,-7698.141797,-9622.677246,-689.485948
510.442408,-7105.977043,-6587.832884,-229.828649
510.442730,-4885.359217,-4737.318029,-3370.820191
510.443052,-1702.473667,-5033.400406,-4749.792088
510.443375,1036.288319,-7031.956449,-3370.820191
510.443697,2516.700203,-8142.265362,-306.438199
510.444019,3034.844362,-9770.718434,2298.286494
510.444341,4367.215058,-12657.521608,1225.752797
510.444664,5033.400406,-13841.851115,-3447.429741
510.444986,3849.070898,-14137.933492,-4213.525239
510.445308,1036.288319,-12805.562797,-459.657299
510.445631,-2812.782580,-10732.986159,842.705048
510.445953,-6513.812290,-9844.739029,153.219100
510.446275,-8956.491898,-7698.141797,0.000000
510.446598,-10732.986159,-5773.606348,-1991.848295
510.446920,-11621.233289,-5329.482782,-4213.525239
510.447242,-10214.842000,-7179.997637,-2145.067394
510.447565,-6365.771101,-8364.327145,-1532.190996
510.447887,-3108.864956,-7328.038826,-383.047749
510.448209,0.000000,-5921.647536,0.000000
510.448532,1406.391290,-5033.400406,-2451.505594
510.448854,1036.288319,-6587.832884,-4366.744339
510.449176,0.000000,-10140.821405,-5132.839837
510.449499,-1776.494261,-13027.624579,-4290.134789
510.449821,-2738.761985,-14582.057057,-3983.696590
510.450143,-3404.947333,-14582.057057,-2757.943793
510.450465,-4589.276840,-12731.542202,-2068.457845
510.450788,-4811.338623,-11029.068536,-1072.533697
510.451110,-6365.771101,-8956.491898,-2298.286494
510.451432,-6661.853478,-8364.327145,-2374.896044
510.451755,-6365.771101,-7994.224174,-919.314598
510.452077,-6069.688724,-6587.832884,689.485948
510.452399,-4367.215058,-6143.709319,1685.410096
510.452722,-2516.700203,-6957.935855,1072.533697
510.453044,222.061783,-7772.162391,612.876398
510.453366,2442.679609,-6957.935855,0.000000
510.453689,4589.276840,-7031.956449,-689.485948
510.454011,6513.812290,-7476.080014,-536.266849
510.454333,7698.141797,-9030.512492,-1991.848295
510.454656,7105.977043,-9474.636058,-2987.772442
510.454978,4811.338623,-10807.006753,-3370.820191
510.455300,1036.288319,-12361.439231,-3447.429741
510.455623,-2960.823768,-13989.892304,-3600.648841
510.455945,-6809.894666,-14434.015869,-2834.553343
510.456267,-9252.574275,-13323.706956,-2604.724693
510.456590,-9474.636058,-11843.295072,-3294.210641
510.456912,-8956.491898,-10214.842000,-2987.772442
510.457234,-7550.100608,-8364.327145,-1915.238745
510.457556,-5773.606348,-6291.750507,-383.047749
510.457879,-4293.194464,-4071.132681,766.095498
510.458201,-3256.906145,-2812.782580,-153.219100
510.458523,-2516.700203,-5255.462188,-995.924147
510.458846,-2368.659014,-7254.018232,-1915.238745
510.459168,-3182.885551,-8808.450710,-3447.429741
510.459490,-3330.926739,-10732.986159,-2681.334243
510.459813,-1924.535449,-12953.603985,-1532.190996
510.460135,-518.144159,-13101.645173,-1532.190996
510.460457,74.020594,-11325.150913,-1532.190996
510.460780,740.205942,-10584.944971,-842.705048
510.461102,2146.597232,-11473.192101,-1991.848295
510.461424,1406.391290,-10510.924376,-1225.752797
510.461747,74.020594,-9104.533087,229.828649
510.462069,-1850.514855,-6883.915261,0.000000
510.462391,-2368.659014,-6365.771101,-612.876398
510.462714,-2442.679609,-5995.668130,306.438199
510.463036,-2960.823768,-5033.400406,-995.924147
510.463358,-3849.070898,-5625.565159,-1532.190996
510.463680,-4071.132681,-7328.038826,-1378.971896
510.464003,-4663.297435,-8734.430116,-1455.581446
510.464325,-5107.421000,-9474.636058,-3064.381992
510.464647,-5995.668130,-10436.903782,-4673.182538
510.464970,-5625.565159,-12361.439231,-5898.935335
510.465292,-5477.523971,-12805.562797,-5209.449386
510.465614,-5329.482782,-13915.871710,-4979.620737
510.465937,-5255.462188,-14211.954086,-3830.477490
510.466259,-4441.235652,-13841.851115,-2451.505594
510.466581,-3108.864956,-11843.295072,-1455.581446
510.466904,-2294.638420,-9326.594869,-1915.238745
510.467226,-1480.411884,-7402.059420,-1378.971896
510.467548,74.020594,-6069.688724,-459.657299
510.467871,1184.329507,-4737.318029,0.000000
510.468193,1776.494261,-4737.318029,842.705048
510.468515,1554.432478,-5847.626942,612.876398
510.468838,1702.473667,-7476.080014,0.000000
510.469160,2072.576638,-9030.512492,-689.485948
510.469482,2294.638420,-10510.924376,-1225.752797
510.469804,1702.473667,-11473.192101,-536.266849
510.470127,518.144159,-11547.212695,0.000000
510.470449,-1110.308913,-10955.047942,-229.828649
510.470771,-2368.659014,-9992.780217,-1225.752797
510.471094,-3552.988522,-9770.718434,-2604.724693
510.471416,-4515.256246,-9548.656652,-2681.334243
510.471738,-5107.421000,-10288.862594,-2451.505594
510.472061,-5625.565159,-10436.903782,-995.924147
510.472383,-5033.400406,-10066.800811,-383.047749
510.472705,-4293.194464,-8808.450710,-842.705048
510.473028,-3478.967927,-7550.100608,-1608.800546
510.473350,-3182.885551,-6365.771101,-2374.896044
510.473672,-4515.256246,-5773.606348,-2451.505594
510.473995,-4737.318029,-6587.832884,-2834.553343
510.474317,-5181.441594,-7624.121203,-2298.286494
510.474639,-5551.544565,-8956.491898,-2528.115143
510.474962,-5033.400406,-10362.883188,-3294.210641
510.475284,-3923.091493,-12287.418637,-3677.258390
510.475606,-2368.659014,-13249.686362,-2221.676944
510.475929,-1628.453072,-12361.439231,-459.657299
510.476251,148.041188,-11177.109724,0.000000
510.476573,888.247130,-9844.739029,-919.314598
510.476895,1036.288319,-8512.368333,-229.828649
510.477218,-296.082377,-7772.162391,0.000000
510.477540,-2146.597232,-8068.244768,306.438199
510.477862,-3182.885551,-8142.265362,153.219100
510.478185,-3849.070898,-7402.059420,-536.266849
510.478507,-3997.112087,-6883.915261,-1072.533697
510.478829,-3034.844362,-8216.285956,-1378.971896
510.479152,-2664.741391,-9104.533087,-766.095498
510.479474,-1850.514855,-8882.471304,-1685.410096
510.479796,-1036.288319,-9474.636058,-2911.162892
510.480119,0.000000,-11547.212695,-4290.134789
510.480441,0.000000,-12361.439231,-2681.334243
510.480763,-1258.350101,-12065.356855,-2068.457845
510.481086,-2146.597232,-12287.418637,-3217.601092
510.481408,-1332.370696,-13249.686362,-3600.648841
510.481730,-740.205942,-13249.686362,-2068.457845
510.482053,-1628.453072,-11399.171507,0.000000
510.482375,-1924.535449,-9770.718434,1149.143247
510.482697,-296.082377,-8956.491898,536.266849
510.483019,740.205942,-7550.100608,0.000000
510.483342,1554.432478,-5773.606348,1225.752797
510.483664,2146.597232,-6513.812290,1149.143247
510.483986,2368.659014,-6365.771101,1838.629195
510.484309,2664.741391,-7550.100608,2068.457845
510.484631,2294.638420,-8882.471304,1608.800546
510.484953,1998.556043,-11103.089130,612.876398
510.485276,1924.535449,-12509.480420,689.485948
510.485598,2294.638420,-12139.377449,766.095498
510.485920,2516.700203,-11695.253884,689.485948
510.486243,2516.700203,-10881.027347,1302.362347
510.486565,2368.659014,-9992.780217,1838.629195
510.486887,1184.329507,-8660.409521,2451.505594
510.487210,222.061783,-7698.141797,2757.943793
510.487532,-666.185348,-8142.265362,1685.410096
510.487854,-1998.556043,-8142.265362,1608.800546
510.488177,-2738.761985,-8290.306550,2528.115143
510.488499,-3256.906145,-8586.388927,3447.429741
510.488821,-2812.782580,-8364.327145,3983.696590
510.489143,-2294.638420,-7550.100608,2834.553343
510.489466,-2664.741391,-7328.038826,2834.553343
510.489788,-2516.700203,-8142.265362,2528.115143
510.490110,-2368.659014,-8808.450710,2604.724693
510.490433,-2516.700203,-9622.677246,2298.286494
510.490755,-2812.782580,-10658.965565,2604.724693
510.491077,-3034.844362,-11843.295072,2987.772442
510.491400,-3256.906145,-12139.377449,2604.724693
510.491722,-3256.906145,-11769.274478,2145.067394
510.492044,-2886.803174,-11399.171507,2451.505594
510.492367,-2146.597232,-9992.780217,2374.896044
510.492689,-1332.370696,-8438.347739,2451.505594
510.493011,-740.205942,-7772.162391,2757.943793
510.493334,0.000000,-7698.141797,2834.553343
510.493656,0.000000,-8142.265362,2451.505594
510.493978,-740.205942,-8734.430116,1915.238745
510.494301,-1184.329507,-9918.759623,1225.752797
510.494623,-2368.659014,-10066.800811,1455.581446
510.494945,-2368.659014,-10140.821405,612.876398
510.495268,-2886.803174,-9770.718434,-536.266849
510.495590,-2664.741391,-10140.821405,-1072.533697
510.495912,-2220.617826,-9696.697840,-1532.190996
510.496234,-1776.494261,-9548.656652,-1378.971896
510.496557,-1776.494261,-9844.739029,-842.705048
510.496879,-1332.370696,-10510.924376,-766.095498
510.497201,-444.123565,-10807.006753,-1149.143247
510.497524,740.205942,-10584.944971,-612.876398
510.497846,2294.638420,-10510.924376,0.000000
510.498168,3627.009116,-8438.347739,306.438199
510.498491,5255.462188,-6291.750507,76.609550
510.498813,6661.853478,-5625.565159,-1225.752797
510.499135,7254.018232,-6439.791695,-1455.581446
510.499458,7105.977043,-7550.100608,-1838.629195
510.499780,3627.009116,-9622.677246,-2757.943793
510.500102,-222.061783,-11177.109724,-1149.143247
510.500425,-3997.112087,-11473.192101,-1072.533697
510.500747,-6661.853478,-11177.109724,-3677.258390
510.501069,-7550.100608,-11843.295072,-6205.373534
510.501392,-5403.503377,-12139.377449,-5745.716235
510.501714,-3034.844362,-10510.924376,-5056.230287
510.502036,148.041188,-11991.336260,-3140.991542
510.502358,3034.844362,-13249.686362,766.095498
510.502681,5329.482782,-13175.665768,2068.457845
510.503003,6513.812290,-11103.089130,229.828649
510.503325,5551.544565,-8882.471304,1302.362347
510.503648,5625.565159,-6513.812290,2298.286494
510.503970,5329.482782,-4145.153275,459.657299
510.504292,3923.091493,-3478.967927,0.000000
510.504615,518.144159,-3997.112087,1225.752797
510.504937,-3552.988522,-4737.318029,995.924147
510.505259,-6809.894666,-7550.100608,-2068.457845
510.505582,-9474.636058,-11029.068536,-3983.696590
510.505904,-9326.594869,-13915.871710,-4213.525239
510.506226,-8586.388927,-13915.871710,-5056.230287
510.506549,-6291.750507,-15396.283594,-4673.182538
510.506871,-4071.132681,-15618.345376,-1532.190996
510.507193,-2294.638420,-14211.954086,-153.219100
510.507516,-1850.514855,-10658.965565,-689.485948
510.507838,-1702.473667,-8216.285956,-1455.581446
510.508160,-1628.453072,-8438.347739,-995.924147
510.508482,-1332.370696,-8512.368333,459.657299
510.508805,-1850.514855,-8882.471304,2068.457845
510.509127,-1998.556043,-9474.636058,3753.867940
510.509449,-1776.494261,-9474.636058,4979.620737
510.509772,-1184.329507,-9474.636058,5975.544884
510.510094,-1554.432478,-7846.182985,5975.544884
510.510416,-2220.617826,-6809.894666,5132.839837
510.510739,-2368.659014,-6291.750507,3830.477490
510.511061,-1332.370696,-5699.585753,2374.896044
510.511383,0.000000,-5625.565159,1149.143247
510.511706,592.164754,-7105.977043,0.000000
510.512028,1184.329507,-9548.656652,536.266849
510.512350,1554.432478,-11399.171507,1991.848295
510.512673,2294.638420,-12361.439231,2451.505594
510.512995,3182.885551,-12139.377449,1149.143247
510.513317,3478.967927,-11473.192101,0.000000
510.513640,3478.967927,-10584.944971,459.657299
510.513962,1998.556043,-9548.656652,1302.362347
510.514284,-518.144159,-8808.450710,3064.381992
510.514607,-3108.864956,-8586.388927,4749.792088
510.514929,-4293.194464,-8290.306550,4136.915689
510.515251,-4071.132681,-9696.697840,2298.286494
510.515573,-2220.617826,-11399.171507,2451.505594
510.515896,666.185348,-11029.068536,2681.334243
510.516218,3552.988522,-10807.006753,3370.820191
510.516540,7105.977043,-9844.739029,4749.792088
510.516863,9770.718434,-8734.430116,3907.087040
510.517185,10658.965565,-8142.265362,2145.067394
510.517507,8290.306550,-9400.615463,2374.896044
510.517830,6957.935855,-8142.265362,4903.011187
510.518152,5995.668130,-6957.935855,2221.676944
510.518474,4959.379811,-8142.265362,-3370.820191
510.518797,1924.535449,-13989.892304,-1991.848295
510.519119,-2368.659014,-12435.459826,2068.457845
510.519441,-9178.553681,-8364.327145,2145.067394
510.519764,-13619.789333,-11399.171507,842.705048
510.520086,-13471.748144,-13619.789333,-2374.896044
510.520408,-15988.448347,-12583.501014,-5898.935335
510.520731,-20429.683999,-8586.388927,-1455.581446
510.521053,-20577.725188,-4441.235652,3294.210641
510.521375,-14434.015869,-5255.462188,-1225.752797
510.521697,-5181.441594,-7846.182985,-4979.620737
510.522020,2590.720797,-7254.018232,-2681.334243
510.522342,6883.915261,-7402.059420,-3064.381992
510.522664,9474.636058,-10140.821405,459.657299
510.522987,14211.954086,-9252.574275,8427.050478
510.523309,15026.180623,-5403.503377,842.705048
510.523631,13323.706956,-6217.729913,-7507.735880
510.523954,12509.480420,-13175.665768,-3524.039291
510.524276,8364.327145,-13693.809927,1762.019645
510.524598,-518.144159,-11769.274478,1991.848295
510.524921,-7254.018232,-14137.933492,4596.572988
510.525243,-11103.089130,-12879.583391,3907.087040
510.525565,-9770.718434,-9696.697840,-3447.429741
510.525888,-9104.533087,-8734.430116,-9499.584175
510.526210,-7846.182985,-10584.944971,-2987.772442
510.526532,-4885.359217,-7772.162391,3447.429741
510.526855,-1628.453072,-2960.823768,2374.896044
510.527177,814.226536,-4367.215058,-306.438199
510.527499,3256.906145,-10584.944971,-3140.991542
510.527822,3182.885551,-11547.212695,-5669.106685
510.528144,1036.288319,-10955.047942,-6741.640382
510.528466,-1184.329507,-12583.501014,-2298.286494
510.528788,0.000000,-13323.706956,1685.410096
510.529111,0.000000,-11029.068536,-1838.629195
510.529433,-2368.659014,-11917.315666,-3294.210641
510.529755,-2812.782580,-15470.304188,-2145.067394
510.530078,-3923.091493,-13545.768739,-2068.457845
510.530400,-2590.720797,-9918.759623,1608.800546
510.530722,-1258.350101,-3552.988522,3217.601092
510.531045,444.123565,-2368.659014,1225.752797
510.531367,4071.132681,-4589.276840,383.047749
510.531689,6661.853478,-5403.503377,1532.190996
510.532012,5551.544565,-6809.894666,995.924147
510.532334,3923.091493,-9400.615463,2834.553343
510.532656,1924.535449,-10510.924376,5669.106685
510.532979,1036.288319,-9474.636058,3600.648841
510.533301,1036.288319,-9104.533087,-995.924147
510.533623,4737.318029,-9918.759623,-2834.553343
510.533946,5403.503377,-8734.430116,-3064.381992
510.534268,2664.741391,-9104.533087,459.657299
510.534590,-2664.741391,-11029.068536,4519.963438
510.534912,-4885.359217,-13989.892304,4136.915689
510.535235,-4219.173869,-15396.283594,-766.095498
510.535557,-3256.906145,-13989.892304,-4290.134789
510.535879,-5033.400406,-11251.130318,-1915.238745
510.536202,-5921.647536,-8364.327145,4136.915689
510.536524,-5181.441594,-6883.915261,6818.249932
510.536846,-4145.153275,-7772.162391,5362.668486
510.537169,-2886.803174,-8660.409521,2528.115143
510.537491,-2368.659014,-7105.977043,0.000000
510.537813,-1258.350101,-4589.276840,-1378.971896
510.538136,222.061783,-5625.565159,-536.266849
510.538458,2368.659014,-8808.450710,1455.581446
510.538780,2960.823768,-11399.171507,2068.457845
510.539103,888.247130,-11917.315666,2374.896044
510.539425,-2146.597232,-12435.459826,1991.848295
510.539747,-4885.359217,-14211.954086,-919.314598
510.540070,-6217.729913,-15618.345376,-2374.896044
510.540392,-5477.523971,-15100.201217,0.000000
510.540714,-4663.297435,-11399.171507,3983.696590
510.541036,-1184.329507,-6957.935855,5898.935335
510.541359,2368.659014,-4145.153275,4060.306139
510.541681,4441.235652,-4367.215058,1685.410096
510.542004,3552.988522,-6291.750507,2451.505594
510.542326,666.185348,-8734.430116,4519.963438
510.542648,-1406.391290,-8734.430116,5669.106685
510.542971,-740.205942,-6957.935855,3983.696590
510.543293,1998.556043,-5255.462188,306.438199
510.543616,5255.462188,-6661.853478,0.000000
510.543938,6587.832884,-8734.430116,2298.286494
510.544261,5773.606348,-8512.368333,3217.601092
510.544583,4219.173869,-8808.450710,459.657299
510.544905,2590.720797,-12287.418637,-2834.553343
510.545228,-444.123565,-15618.345376,-3140.991542
510.545550,-5033.400406,-15248.242405,-1685.410096
510.545873,-8364.327145,-12583.501014,-1608.800546
510.546195,-7328.038826,-11991.336260,-2834.553343
510.546518,-4515.256246,-11621.233289,-2451.505594
510.546840,-2368.659014,-9696.697840,76.609550
510.547162,-1628.453072,-7920.203579,2298.286494
510.547485,518.144159,-6365.771101,1378.971896
510.547807,2516.700203,-5477.523971,-229.828649
510.548130,2442.679609,-5995.668130,-612.876398
510.548452,222.061783,-7624.121203,766.095498
510.548775,-1480.411884,-8438.347739,1149.143247
510.549097,-740.205942,-8882.471304,-2068.457845
510.549419,1554.432478,-9992.780217,-4749.792088
510.549742,3775.050304,-10732.986159,-4136.915689
510.550064,5181.441594,-9622.677246,-3370.820191
510.550387,6439.791695,-8956.491898,-3677.258390
510.550709,5329.482782,-9474.636058,-3600.648841
510.551032,1480.411884,-11103.089130,-2987.772442
510.551354,-4589.276840,-13101.645173,-2911.162892
510.551676,-9622.677246,-14137.933492,-4366.744339
510.551999,-10658.965565,-13915.871710,-6588.421283
510.552321,-8216.285956,-12361.439231,-5975.544884
510.552644,-4515.256246,-9844.739029,-1991.848295
510.552966,-518.144159,-5403.503377,1149.143247
510.553288,2590.720797,-2368.659014,1149.143247
510.553611,4589.276840,-2220.617826,-306.438199
510.553933,3330.926739,-5033.400406,-612.876398
510.554256,-592.164754,-7476.080014,-766.095498
510.554578,-2738.761985,-9030.512492,-2987.772442
510.554901,-1850.514855,-10066.800811,-5286.058936
510.555223,1258.350101,-12435.459826,-4673.182538
510.555545,2886.803174,-12731.542202,-1838.629195
510.555868,2812.782580,-11769.274478,-1532.190996
510.556190,1850.514855,-10955.047942,-3217.601092
510.556513,-518.144159,-11251.130318,-4213.525239
510.556835,-4293.194464,-11103.089130,-4749.792088
510.557158,-8216.285956,-9104.533087,-5286.058936
510.557480,-8734.430116,-7846.182985,-6665.030833
510.557802,-6217.729913,-9400.615463,-6128.763984
510.558125,-3256.906145,-11251.130318,-1608.800546
510.558447,-2516.700203,-12361.439231,3217.601092
510.558770,-2368.659014,-10288.862594,4366.744339
510.559092,0.000000,-9622.677246,2145.067394
510.559415,2072.576638,-8364.327145,-153.219100
510.559737,2516.700203,-6809.894666,-995.924147
510.560059,2368.659014,-3849.070898,-153.219100
510.560382,3627.009116,-2368.659014,153.219100
510.560704,5847.626942,-4293.194464,536.266849
510.561027,6143.709319,-7624.121203,1149.143247
510.561349,4293.194464,-11547.212695,0.000000
510.561672,2442.679609,-14508.036463,-1455.581446
510.561994,1406.391290,-15618.345376,-1685.410096
510.562316,74.020594,-14137.933492,-689.485948
510.562639,-2146.597232,-9770.718434,-612.876398
510.562961,-2886.803174,-5773.606348,-1762.019645
510.563284,-1998.556043,-4737.318029,-2528.115143
510.563606,-1776.494261,-6587.832884,-1762.019645
510.563928,-2886.803174,-9770.718434,-153.219100
510.564251,-3478.967927,-12731.542202,1455.581446
510.564573,-1850.514855,-13545.768739,1991.848295
510.564896,0.000000,-12139.377449,1991.848295
510.565218,666.185348,-9844.739029,2374.896044
510.565541,296.082377,-7105.977043,1838.629195
510.565863,1258.350101,-4441.235652,383.047749
510.566185,1776.494261,-3997.112087,-306.438199
510.566508,1850.514855,-5921.647536,0.000000
510.566830,1480.411884,-8586.388927,-306.438199
510.567153,1184.329507,-11769.274478,-2451.505594
510.567475,1480.411884,-14063.912898,-2604.724693
510.567798,74.020594,-14359.995275,-1915.238745
510.568120,-2442.679609,-13693.809927,-1608.800546
510.568442,-4589.276840,-11621.233289,-2298.286494
510.568765,-4589.276840,-10140.821405,-3907.087040
510.569087,-4663.297435,-9252.574275,-3140.991542
510.569410,-4737.318029,-9474.636058,-1225.752797
510.569732,-2664.741391,-8882.471304,229.828649
510.570055,296.082377,-8068.244768,-1225.752797
510.570377,2368.659014,-7846.182985,-1455.581446
510.570699,1924.535449,-7402.059420,1378.971896
510.571022,148.041188,-7846.182985,2298.286494
510.571344,0.000000,-8290.306550,-1532.190996
510.571667,1036.288319,-8882.471304,-4673.182538
510.571989,1554.432478,-9252.574275,-4213.525239
510.572312,1184.329507,-7920.203579,-1915.238745
510.572634,1924.535449,-7031.956449,-2298.286494
510.572956,2664.741391,-7105.977043,-4366.744339
510.573279,1998.556043,-8216.285956,-4979.620737
510.573601,-1332.370696,-9770.718434,-4979.620737
510.573924,-4811.338623,-12361.439231,-6971.469032
510.574246,-7402.059420,-15100.201217,-7507.735880
510.574568,-7105.977043,-16062.468941,-4673.182538
510.574891,-6143.709319,-12583.501014,-1072.533697
510.575213,-4293.194464,-8216.285956,-1225.752797
510.575536,-814.226536,-4737.318029,-2528.115143
510.575858,1554.432478,-4293.194464,-2298.286494
510.576181,2664.741391,-5995.668130,306.438199
510.576503,1850.514855,-7031.956449,2374.896044
510.576825,1406.391290,-7476.080014,0.000000
510.577148,2368.659014,-7698.141797,-1915.238745
510.577470,4737.318029,-6661.853478,-766.095498
510.577793,6217.729913,-4663.297435,-1608.800546
510.578115,6217.729913,-5847.626942,-4826.401637
510.578438,6291.750507,-10214.842000,-4903.011187
510.578760,3478.967927,-12287.418637,-2528.115143
510.579082,-2516.700203,-12583.501014,-2374.896044
510.579405,-7550.100608,-13841.851115,-3983.696590
510.579727,-8290.306550,-14359.995275,-7507.735880
510.580050,-5921.647536,-13323.706956,-8810.098227
510.580372,-3997.112087,-11399.171507,-4290.134789
510.580695,-2886.803174,-10510.924376,1072.533697
510.581017,-1184.329507,-9252.574275,2604.724693
510.581339,296.082377,-8364.327145,1302.362347
510.581662,0.000000,-7994.224174,1608.800546
510.581984,-296.082377,-8216.285956,919.314598
510.582307,740.205942,-7031.956449,-1762.019645
510.582629,3552.988522,-5847.626942,-1608.800546
510.582952,4811.338623,-5255.462188,1685.410096
510.583274,5995.668130,-7179.997637,3600.648841
510.583596,4293.194464,-8512.368333,2068.457845
510.583919,1184.329507,-9548.656652,-2068.457845
510.584241,-814.226536,-12065.356855,-4060.306139
510.584564,-2960.823768,-13619.789333,-4136.915689
510.584886,-5329.482782,-13915.871710,-4213.525239
510.585208,-6809.894666,-13471.748144,-3907.087040
510.585531,-5477.523971,-12879.583391,-2451.505594
510.585853,-4071.132681,-11621.233289,-689.485948
510.586176,-3775.050304,-9918.759623,229.828649
510.586498,-4367.215058,-8364.327145,0.000000
510.586821,-4071.132681,-7402.059420,-229.828649
510.587143,-3034.844362,-7328.038826,1072.533697
510.587465,-1554.432478,-7476.080014,2451.505594
510.587788,296.082377,-5921.647536,2374.896044
510.588110,2738.761985,-4145.153275,459.657299
510.588433,5181.441594,-3108.864956,383.047749
510.588755,6513.812290,-3923.091493,766.095498
510.589078,6439.791695,-6069.688724,-612.876398
510.589400,6365.771101,-10510.924376,-2681.334243
510.589722,5477.523971,-12805.562797,-2757.943793
510.590045,592.164754,-12287.418637,-2604.724693
510.590367,-3552.988522,-13767.830521,-1455.581446
510.590690,-5773.606348,-14656.077652,-2451.505594
510.591012,-5403.503377,-12879.583391,-4903.011187
510.591335,-4663.297435,-9474.636058,-5056.230287
510.591657,-3775.050304,-8290.306550,-2451.505594
510.591979,-2516.700203,-7920.203579,-306.438199
510.592302,-962.267725,-8216.285956,229.828649
510.592624,-370.102971,-8438.347739,1532.190996
510.592947,-1554.432478,-8364.327145,1149.143247
510.593269,-2442.679609,-7476.080014,-1532.190996
510.593592,-1110.308913,-5995.668130,-4290.134789
510.593914,1036.288319,-4737.318029,-4826.401637
510.594236,3034.844362,-4737.318029,-2604.724693
510.594559,4663.297435,-6069.688724,-1532.190996
510.594881,5699.585753,-9104.533087,-3064.381992
510.595204,5255.462188,-12657.521608,-3447.429741
510.595526,1480.411884,-15396.283594,-3370.820191
510.595848,-3627.009116,-17246.798449,-3370.820191
510.596171,-6661.853478,-16802.674883,-4673.182538
510.596493,-5551.544565,-14211.954086,-5898.935335
510.596816,-1850.514855,-9918.759623,-4979.620737
510.597138,-666.185348,-6883.915261,-1685.410096
510.597461,814.226536,-5403.503377,1838.629195
510.597783,2368.659014,-5699.585753,1838.629195
510.598105,3108.864956,-6291.750507,1072.533697
510.598428,1924.535449,-8882.471304,0.000000
510.598750,-296.082377,-9918.759623,76.609550
510.599073,-666.185348,-8068.244768,-229.828649
510.599395,888.247130,-5329.482782,-1608.800546
510.599718,3330.926739,-4515.256246,-2528.115143
510.600040,3478.967927,-5255.462188,-1685.410096
510.600362,2442.679609,-5995.668130,-2757.943793
510.600685,-370.102971,-8586.388927,-4443.353888
510.601007,-3404.947333,-12731.542202,-5056.230287
510.601330,-6143.709319,-15988.448347,-5056.230287
510.601652,-8068.244768,-16506.592507,-5515.887586
510.601975,-8068.244768,-15026.180623,-6511.811733
510.602297,-6365.771101,-13101.645173,-5209.449386
510.602619,-4293.194464,-10807.006753,-1762.019645
510.602942,-2664.741391,-7698.141797,306.438199
510.603264,-962.267725,-5551.544565,0.000000
510.603587,592.164754,-4959.379811,-612.876398
510.603909,1702.473667,-6587.832884,0.000000
510.604231,2072.576638,-6365.771101,1762.019645
510.604554,3552.988522,-5033.400406,919.314598
510.604876,6513.812290,-5107.421000,-2451.505594
510.605199,9104.533087,-7624.121203,-2145.067394
510.605521,7994.224174,-9104.533087,1302.362347
510.605844,4441.235652,-9770.718434,1149.143247
510.606166,1702.473667,-12065.356855,-2528.115143
510.606488,-518.144159,-14063.912898,-4749.792088
510.606811,-3627.009116,-13841.851115,-4596.572988
510.607133,-7105.977043,-11547.212695,-4366.744339
510.607456,-7550.100608,-10658.965565,-5056.230287
510.607778,-5403.503377,-10955.047942,-4903.011187
510.608101,-4293.194464,-11843.295072,-2834.553343
510.608423,-4885.359217,-11547.212695,306.438199
510.608745,-5847.626942,-9622.677246,1149.143247
510.609068,-4811.338623,-9178.553681,-1072.533697
510.609390,-3404.947333,-8216.285956,-536.266849
510.609713,-1850.514855,-6069.688724,-459.657299
510.610035,0.000000,-3330.926739,-995.924147
510.610358,2886.803174,-2960.823768,-1072.533697
510.610680,5773.606348,-5329.482782,-766.095498
510.611002,6069.688724,-8364.327145,536.266849
510.611325,5551.544565,-11103.089130,-459.657299
510.611647,5625.565159,-13175.665768,-3064.381992
510.611970,4811.338623,-14508.036463,-4673.182538
510.612292,1998.556043,-14211.954086,-2451.505594
510.612615,-2368.659014,-12805.562797,76.609550
510.612937,-4737.318029,-10955.047942,-1225.752797
510.613259,-4219.173869,-10066.800811,-3753.867940
510.613582,-2368.659014,-9844.739029,-3140.991542
510.613904,-1776.494261,-8142.265362,153.219100
510.614227,-1554.432478,-6735.874072,1608.800546
510.614549,0.000000,-7550.100608,1608.800546
510.614871,814.226536,-9178.553681,3294.210641
510.615194,-518.144159,-8290.306550,4060.306139
510.615516,-1850.514855,-5255.462188,1762.019645
510.615839,-1036.288319,-3256.906145,-1302.362347
510.616161,1998.556043,-1776.494261,-2451.505594
510.616484,4737.318029,-3034.844362,-2374.896044
510.616806,5329.482782,-7476.080014,-1455.581446
510.617128,4145.153275,-11695.253884,0.000000
510.617451,1776.494261,-13989.892304,0.000000
510.617773,-2960.823768,-15988.448347,-1685.410096
510.618096,-7402.059420,-16432.571912,-3140.991542
510.618418,-9548.656652,-12139.377449,-5362.668486
510.618741,-7105.977043,-8956.491898,-7507.735880
510.619063,-3701.029710,-7994.224174,-4596.572988
510.619385,-1332.370696,-7920.203579,76.609550
510.619708,-814.226536,-7994.224174,2834.553343
510.620030,-518.144159,-7920.203579,1532.190996
510.620353,0.000000,-8512.368333,-306.438199
510.620675,-370.102971,-9252.574275,-3217.601092
510.620998,-296.082377,-9326.594869,-4596.572988
510.621320,1406.391290,-9104.533087,-3983.696590
510.621642,4071.132681,-8438.347739,-2451.505594
510.621965,5255.462188,-8660.409521,-766.095498
510.622287,4959.379811,-9474.636058,-919.314598
510.622610,3182.885551,-10066.800811,-4519.963438
510.622932,1406.391290,-10807.006753,-7660.954980
510.623255,-1184.329507,-12361.439231,-8273.831378
510.623577,-4737.318029,-13545.768739,-6205.373534
510.623899,-7328.038826,-13767.830521,-4290.134789
510.624222,-6809.894666,-13471.748144,-4290.134789
510.624544,-5107.421000,-12879.583391,-4443.353888
510.624867,-2960.823768,-12583.501014,-2834.553343
510.625189,-2146.597232,-9992.780217,-383.047749
510.625511,0.000000,-7105.977043,459.657299
510.625834,2590.720797,-6365.771101,0.000000
510.626156,3997.112087,-5921.647536,1072.533697
510.626479,3330.926739,-5625.565159,1991.848295
510.626801,1998.556043,-4071.132681,612.876398
510.627124,3256.906145,-3627.009116,-1072.533697
510.627446,5551.544565,-5477.523971,-2834.553343
510.627768,6809.894666,-8216.285956,-2757.943793
510.628091,5625.565159,-9844.739029,-919.314598
510.628413,3108.864956,-10881.027347,-995.924147
510.628736,0.000000,-11399.171507,-1915.238745
510.629058,-3997.112087,-12509.480420,-2451.505594
510.629381,-8068.244768,-11473.192101,-4673.182538
510.629703,-10214.842000,-10732.986159,-6741.640382
510.630025,-9548.656652,-9696.697840,-5056.230287
510.630348,-6883.915261,-9696.697840,-689.485948
510.630670,-4293.194464,-9104.533087,1608.800546
510.630993,-2960.823768,-7624.121203,1225.752797
510.631315,-1332.370696,-6143.709319,1838.629195
510.631638,-740.205942,-6957.935855,1838.629195
510.631960,-222.061783,-9030.512492,689.485948
510.632282,148.041188,-7994.224174,-459.657299
510.632605,2220.617826,-5625.565159,-383.047749
510.632927,6143.709319,-4737.318029,1072.533697
510.633250,9548.656652,-5699.585753,1532.190996
510.633572,10955.047942,-9104.533087,-383.047749
510.633895,10807.006753,-13175.665768,-2451.505594
510.634217,8216.285956,-15840.407159,-2451.505594
510.634539,2664.741391,-17098.757260,-1762.019645
510.634862,-2886.803174,-17098.757260,-1532.190996
510.635184,-7031.956449,-14359.995275,-2451.505594
510.635507,-7402.059420,-11177.109724,-4749.792088
510.635829,-7476.080014,-10510.924376,-3217.601092
510.636151,-7105.977043,-9770.718434,306.438199
510.636474,-6513.812290,-7920.203579,2604.724693
510.636796,-5033.400406,-7920.203579,842.705048
510.637119,-4885.359217,-8734.430116,1072.533697
510.637441,-5551.544565,-8142.265362,1532.190996
510.637764,-5107.421000,-5773.606348,0.000000
510.638086,-2368.659014,-3923.091493,-2451.505594
510.638408,1480.411884,-4367.215058,-3217.601092
510.638731,2738.761985,-5477.523971,-2298.286494
510.639053,2812.782580,-7698.141797,-229.828649
510.639376,2664.741391,-9770.718434,-459.657299
510.639698,2664.741391,-12509.480420,-2604.724693
510.640021,888.247130,-15692.365970,-2451.505594
510.640343,-2590.720797,-14656.077652,-1072.533697
510.640665,-4663.297435,-11991.336260,-1991.848295
510.640988,-2664.741391,-9474.636058,-3753.867940
510.641310,888.247130,-8438.347739,-3064.381992
510.641633,3034.844362,-6661.853478,76.609550
510.641955,2516.700203,-4663.297435,2221.676944
510.642278,1924.535449,-6217.729913,3140.991542
510.642600,2294.638420,-8734.430116,3983.696590
510.642923,1924.535449,-9400.615463,2374.896044
510.643245,888.247130,-7031.956449,-306.438199
510.643568,1332.370696,-3404.947333,-2604.724693
510.643890,4959.379811,-2886.803174,-2757.943793
510.644213,6883.915261,-4071.132681,-2451.505594
510.644535,5699.585753,-6143.709319,-1915.238745
510.644858,2886.803174,-10510.924376,-3830.477490
510.645180,1332.370696,-15100.201217,-7124.688131
510.645503,-1258.350101,-17690.922014,-8656.879127
510.645825,-6587.832884,-18135.045579,-7967.393179
510.646148,-9696.697840,-17098.757260,-6971.469032
510.646470,-9252.574275,-15100.201217,-6818.249932
510.646793,-7624.121203,-12805.562797,-5515.887586
510.647115,-7254.018232,-11399.171507,-1072.533697
510.647437,-6439.791695,-9548.656652,-229.828649
510.647760,-4293.194464,-7105.977043,-2145.067394
510.648082,-814.226536,-6143.709319,-2145.067394
510.648405,1628.453072,-6069.688724,0.000000
510.648727,2812.782580,-5699.585753,1455.581446
510.649050,3997.112087,-4219.173869,1455.581446
510.649372,5107.421000,-5033.400406,689.485948
510.649695,7105.977043,-7179.997637,383.047749
510.650017,7550.100608,-9622.677246,-1762.019645
510.650340,7402.059420,-11843.295072,-3064.381992
510.650662,7254.018232,-12583.501014,-2757.943793
510.650985,5329.482782,-11473.192101,-1685.410096
510.651307,1628.453072,-11843.295072,-612.876398
510.651630,-3478.967927,-11843.295072,-842.705048
510.651952,-7846.182985,-11029.068536,-3217.601092
510.652275,-9770.718434,-11399.171507,-5132.839837
510.652597,-9400.615463,-11843.295072,-3907.087040
510.652920,-7994.224174,-10214.842000,-1225.752797
510.653242,-5107.421000,-7105.977043,0.000000
510.653565,-2812.782580,-4885.359217,2221.676944
510.653887,-1554.432478,-5107.421000,4060.306139
510.654210,-2368.659014,-5033.400406,3983.696590
510.654532,-2368.659014,-4293.194464,536.266849
510.654855,-444.123565,-4441.235652,-2834.553343
510.655177,3108.864956,-6069.688724,-4290.134789
510.655500,5921.647536,-9474.636058,-1991.848295
510.655822,7179.997637,-10288.862594,1608.800546
510.656145,7105.977043,-10658.965565,766.095498
510.656467,6217.729913,-14656.077652,-766.095498
510.656790,2072.576638,-16728.654289,-1608.800546
510.657112,-3923.091493,-15248.242405,-2987.772442
510.657435,-8068.244768,-12213.398043,-4443.353888
510.657757,-6143.709319,-10658.965565,-5286.058936
510.658079,-1850.514855,-9474.636058,-3600.648841
510.658402,296.082377,-9030.512492,-842.705048
510.658724,222.061783,-8956.491898,2834.553343
510.659047,-1184.329507,-8882.471304,4213.525239
510.659369,-2738.761985,-10140.821405,2451.505594
510.659692,-4293.194464,-10436.903782,-153.219100
510.660014,-4885.359217,-6883.915261,-3447.429741
510.660337,-2812.782580,-3923.091493,-4673.182538
510.660659,1258.350101,-3108.864956,-1915.238745
510.660982,4811.338623,-4145.153275,2068.457845
510.661304,5107.421000,-5847.626942,919.314598
510.661627,4219.173869,-8882.471304,-2221.676944
510.661949,2590.720797,-12509.480420,-4673.182538
510.662272,-222.061783,-15100.201217,-5209.449386
510.662594,-3404.947333,-15840.407159,-4596.572988
510.662917,-4811.338623,-14952.160028,-4136.915689
510.663239,-4737.318029,-11917.315666,-2757.943793
510.663562,-2220.617826,-9252.574275,-612.876398
510.663884,-1628.453072,-6661.853478,536.266849
510.664207,-148.041188,-5699.585753,995.924147
510.664529,962.267725,-5181.441594,-306.438199
510.664852,2072.576638,-6217.729913,919.314598
510.665174,2220.617826,-7846.182985,3294.210641
510.665497,1332.370696,-8290.306550,3600.648841
510.665819,1036.288319,-7402.059420,1532.190996
510.666142,1850.514855,-6513.812290,76.609550
510.666464,2738.761985,-5773.606348,-612.876398
510.666787,3627.009116,-5255.462188,-2145.067394
510.667109,4959.379811,-7179.997637,-4673.182538
510.667432,5477.523971,-10362.883188,-4979.620737
510.667754,3404.947333,-12583.501014,-2604.724693
510.668077,-1998.556043,-15322.262999,-2298.286494
510.668399,-7105.977043,-17616.901420,-3294.210641
510.668721,-9844.739029,-17320.819043,-5362.668486
510.669044,-9474.636058,-13915.871710,-6128.763984
510.669366,-8068.244768,-10066.800811,-4443.353888
510.669689,-4367.215058,-7105.977043,-1532.190996
510.670011,-666.185348,-6587.832884,612.876398
510.670334,1332.370696,-7105.977043,1991.848295
510.670656,740.205942,-8068.244768,3447.429741
510.670979,-592.164754,-8142.265362,2298.286494
510.671301,-148.041188,-7105.977043,-1915.238745
510.671624,2738.761985,-5477.523971,-4519.963438
510.671946,4811.338623,-4515.256246,-3294.210641
510.672269,6143.709319,-6883.915261,0.000000
510.672591,6143.709319,-10066.800811,1072.533697
510.672914,4071.132681,-12953.603985,-995.924147
510.673236,0.000000,-14952.160028,-3447.429741
510.673559,-4293.194464,-15174.221811,-4596.572988
510.673881,-6513.812290,-13027.624579,-7048.078582
510.674204,-5699.585753,-10732.986159,-7814.174080
510.674526,-3108.864956,-10288.862594,-4903.011187
510.674849,-1406.391290,-10510.924376,-1378.971896
510.675171,-1850.514855,-9252.574275,1225.752797
510.675494,-2812.782580,-9992.780217,1762.019645
510.675816,-3330.926739,-10732.986159,0.000000
510.676139,-3330.926739,-10436.903782,-1378.971896
510.676461,-2664.741391,-7624.121203,0.000000
510.676784,-370.102971,-2146.597232,689.485948
510.677106,3923.091493,296.082377,842.705048
510.677429,7254.018232,222.061783,842.705048
510.677751,7179.997637,-2590.720797,383.047749
510.678074,4885.359217,-8068.244768,-536.266849
510.678396,2294.638420,-12805.562797,-2681.334243
510.678719,-444.123565,-14508.036463,-3753.867940
510.679041,-3330.926739,-14582.057057,-4519.963438
510.679363,-5107.421000,-12953.603985,-4519.963438
510.679686,-5107.421000,-9696.697840,-5592.497135
510.680008,-3552.988522,-8882.471304,-6205.373534
510.680331,-3923.091493,-10214.842000,-4060.306139
510.680653,-4071.132681,-12361.439231,-1072.533697
510.680976,-3923.091493,-12361.439231,0.000000
510.681298,-2294.638420,-11695.253884,536.266849
510.681621,-518.144159,-9992.780217,766.095498
510.681943,1554.432478,-8068.244768,612.876398
510.682266,3627.009116,-4959.379811,306.438199
510.682588,5107.421000,-2590.720797,-842.705048
510.682911,5699.585753,-3552.988522,-1072.533697
510.683233,6217.729913,-6809.894666,995.924147
510.683556,6439.791695,-9400.615463,0.000000
510.683878,6365.771101,-12213.398043,-2911.162892
510.684201,5625.565159,-13915.871710,-3447.429741
510.684523,2960.823768,-13841.851115,-2604.724693
510.684846,-370.102971,-13175.665768,-2528.115143
510.685168,-3849.070898,-13175.665768,-3524.039291
510.685491,-5921.647536,-13693.809927,-4903.011187
510.685813,-7328.038826,-14063.912898,-3983.696590
510.686136,-8068.244768,-13175.665768,-1455.581446
510.686458,-6217.729913,-10881.027347,0.000000
510.686781,-3108.864956,-8068.244768,-919.314598
510.687103,-1184.329507,-4959.379811,2145.067394
510.687426,-1924.535449,-3627.009116,3907.087040
510.687748,-2886.803174,-3034.844362,3370.820191
510.688071,-2738.761985,-3627.009116,229.828649
510.688393,-1776.494261,-4737.318029,-1302.362347
510.688716,-1036.288319,-5921.647536,0.000000
510.689038,592.164754,-7402.059420,1302.362347
510.689361,2812.782580,-7994.224174,-229.828649
510.689683,4071.132681,-9178.553681,-1608.800546
510.690005,2886.803174,-11621.233289,-1225.752797
510.690328,-666.185348,-12361.439231,-1455.581446
510.690650,-4515.256246,-12065.356855,-3524.039291
510.690973,-5033.400406,-13101.645173,-5745.716235
510.691295,-3034.844362,-12583.501014,-5592.497135
510.691618,-518.144159,-10288.862594,-3447.429741
510.691940,2442.679609,-9474.636058,-229.828649
510.692263,4737.318029,-10214.842000,1532.190996
510.692585,3997.112087,-11103.089130,2068.457845
510.692908,740.205942,-11029.068536,2604.724693
510.693230,-2294.638420,-9400.615463,1302.362347
510.693553,-1702.473667,-6883.915261,-3064.381992
510.693875,1998.556043,-4737.318029,-5132.839837
510.694198,5255.462188,-3775.050304,-2068.457845
510.694520,5255.462188,-3923.091493,536.266849
510.694843,3701.029710,-6809.894666,-153.219100
510.695165,1924.535449,-11843.295072,-3294.210641
510.695488,-1480.411884,-16136.489536,-5362.668486
510.695810,-6365.771101,-17024.736666,-7201.297681
510.696133,-9770.718434,-16284.530724,-8503.660028
510.696455,-9400.615463,-13989.892304,-8427.050478
510.696778,-6143.709319,-9992.780217,-5515.887586
510.697100,-2960.823768,-6957.935855,-2604.724693
510.697423,-2886.803174,-5329.482782,-1762.019645
510.697745,-3108.864956,-7476.080014,-1915.238745
510.698068,-3034.844362,-10214.842000,-1608.800546
510.698390,-3330.926739,-10214.842000,-842.705048
510.698713,-1258.350101,-9326.594869,76.609550
510.699035,2294.638420,-6883.915261,76.609550
510.699358,6587.832884,-3034.844362,-536.266849
510.699680,9030.512492,-296.082377,612.876398
510.700003,9474.636058,-1702.473667,2451.505594
510.700325,8734.430116,-4885.359217,1225.752797
510.700648,6587.832884,-9178.553681,-1685.410096
510.700970,3701.029710,-14285.974681,-2145.067394
510.701292,222.061783,-16876.695478,-995.924147
510.701615,-2590.720797,-15396.283594,-2374.896044
510.701937,-2516.700203,-12435.459826,-5592.497135
510.702260,-444.123565,-10362.883188,-5822.325785
510.702582,-592.164754,-8586.388927,-2757.943793
510.702905,-1110.308913,-8290.306550,0.000000
510.703227,-2368.659014,-8956.491898,153.219100
510.703550,-2738.761985,-10140.821405,-612.876398
510.703872,-3256.906145,-10510.924376,-1455.581446
510.704195,-4219.173869,-9252.574275,-1378.971896
510.704517,-5255.462188,-7105.977043,-689.485948
510.704840,-4589.276840,-5255.462188,-995.924147
510.705162,-1850.514855,-5403.503377,0.000000
510.705485,296.082377,-6809.894666,-1149.143247
510.705807,962.267725,-9030.512492,-3217.601092
510.706130,518.144159,-12361.439231,-3907.087040
510.706452,0.000000,-13841.851115,-3294.210641
510.706775,-1850.514855,-14730.098246,-2145.067394
510.707097,-4071.132681,-14137.933492,-2451.505594
510.707420,-4959.379811,-12953.603985,-3600.648841
510.707742,-4145.153275,-10807.006753,-4903.011187
510.708065,-1702.473667,-9770.718434,-4290.134789
510.708387,222.061783,-10214.842000,-1762.019645
510.708710,1554.432478,-9622.677246,383.047749
510.709032,2590.720797,-9400.615463,1762.019645
510.709355,2738.761985,-9326.594869,2757.943793
510.709677,2516.700203,-8882.471304,2911.162892
510.710000,1850.514855,-7105.977043,995.924147
510.710322,2294.638420,-4293.194464,-1072.533697
510.710645,3627.009116,-3849.070898,-1149.143247
510.710967,4737.318029,-4515.256246,153.219100
510.711290,4811.338623,-5773.606348,612.876398
510.711612,3404.947333,-7846.182985,0.000000
510.711934,1998.556043,-10584.944971,-1915.238745
510.712257,-888.247130,-12435.459826,-3217.601092
510.712579,-4145.153275,-13545.768739,-4060.306139
510.712902,-6883.915261,-13545.768739,-4903.011187
510.713224,-7328.038826,-13471.748144,-4596.572988
510.713547,-6069.688724,-11251.130318,-3753.867940
510.713869,-4515.256246,-9030.512492,-1991.848295
510.714192,-2738.761985,-7772.162391,-1455.581446
510.714514,-1332.370696,-7772.162391,-1225.752797
510.714837,-1406.391290,-7920.203579,536.266849
510.715159,-2072.576638,-8142.265362,689.485948
510.715482,-2442.679609,-7476.080014,0.000000
510.715804,-888.247130,-6291.750507,-2604.724693
510.716127,1702.473667,-5699.585753,-2834.553343
510.716449,3404.947333,-5403.503377,-1302.362347
510.716772,3701.029710,-6957.935855,-612.876398
510.717094,3775.050304,-10288.862594,-995.924147
510.717417,3256.906145,-11991.336260,-2604.724693
510.717739,370.102971,-12731.542202,-3983.696590
510.718062,-3108.864956,-13397.727550,-3677.258390
510.718384,-4885.359217,-11695.253884,-4366.744339
510.718707,-4367.215058,-9918.759623,-6588.421283
510.719029,-2368.659014,-9918.759623,-5822.325785
510.719352,-1702.473667,-11103.089130,-1685.410096
510.719674,-1554.432478,-10955.047942,536.266849
510.719997,-814.226536,-9992.780217,-459.657299
510.720319,740.205942,-10066.800811,-689.485948
510.720642,1406.391290,-9992.780217,-919.314598
510.720964,1184.329507,-7698.141797,-306.438199
510.721287,1628.453072,-4071.132681,229.828649
510.721609,3849.070898,-3108.864956,-689.485948
510.721932,5033.400406,-4515.256246,-1072.533697
510.722254,4959.379811,-7328.038826,-919.314598
510.722576,1924.535449,-9400.615463,-1378.971896
510.722899,0.000000,-12657.521608,-2221.676944
510.723221,-1036.288319,-14434.015869,-2451.505594
510.723544,-1924.535449,-13471.748144,-3294.210641
510.723866,-3701.029710,-11473.192101,-4749.792088
510.724189,-4959.379811,-9844.739029,-4826.401637
510.724511,-4367.215058,-10214.842000,-2834.553343
510.724834,-3330.926739,-11177.109724,-1225.752797
510.725156,-3478.967927,-10510.924376,0.000000
510.725479,-4441.235652,-9770.718434,0.000000
510.725801,-2886.803174,-10066.800811,766.095498
510.726124,-888.247130,-9178.553681,995.924147
510.726446,0.000000,-7031.956449,1072.533697
510.726769,518.144159,-4441.235652,306.438199
510.727091,2442.679609,-2368.659014,0.000000
510.727414,4737.318029,-3034.844362,-1225.752797
510.727736,5033.400406,-5699.585753,-1915.238745
510.728059,3775.050304,-9400.615463,-1915.238745
510.728381,2146.597232,-11769.274478,-1762.019645
510.728704,74.020594,-12805.562797,-1532.190996
510.729026,-1036.288319,-14211.954086,-2374.896044
510.729349,-3775.050304,-13397.727550,-3064.381992
510.729671,-5107.421000,-11769.274478,-4673.182538
510.729994,-5107.421000,-10140.821405,-4519.963438
510.730316,-2960.823768,-10140.821405,-2757.943793
510.730639,-1258.350101,-9548.656652,-1225.752797
510.730961,296.082377,-8142.265362,76.609550
510.731284,2146.597232,-7698.141797,842.705048
510.731606,2072.576638,-9104.533087,383.047749
510.731929,888.247130,-10584.944971,1072.533697
510.732251,0.000000,-9696.697840,1225.752797
510.732574,1110.308913,-6439.791695,-995.924147
510.732896,3552.988522,-4811.338623,-3140.991542
510.733218,4959.379811,-5625.565159,-2528.115143
510.733541,3997.112087,-7179.997637,-459.657299
510.733863,1406.391290,-9474.636058,-766.095498
510.734186,-1332.370696,-12731.542202,-2298.286494
510.734508,-4367.215058,-14285.974681,-3294.210641
510.734831,-7105.977043,-13989.892304,-5515.887586
510.735153,-9178.553681,-12435.459826,-7354.516781
510.735476,-9326.594869,-11621.233289,-5286.058936
510.735798,-6291.750507,-10807.006753,-2145.067394
510.736121,-3849.070898,-9178.553681,-153.219100
510.736443,-2516.700203,-8660.409521,612.876398
510.736766,-1850.514855,-8586.388927,1225.752797
510.737088,-1258.350101,-7550.100608,229.828649
510.737411,-666.185348,-6883.915261,-842.705048
510.737733,1480.411884,-5477.523971,-689.485948
510.738056,4737.318029,-4219.173869,-766.095498
510.738378,8364.327145,-4071.132681,-1608.800546
510.738701,9252.574275,-6587.832884,383.047749
510.739023,6735.874072,-8142.265362,2221.676944
510.739346,3108.864956,-8586.388927,-229.828649
510.739668,1406.391290,-11399.171507,-3447.429741
510.739991,-888.247130,-12583.501014,-4903.011187
510.740313,-4293.194464,-12213.398043,-4749.792088
510.740636,-6883.915261,-12139.377449,-2681.334243
510.740958,-6291.750507,-13471.748144,-3064.381992
510.741281,-3256.906145,-13101.645173,-2834.553343
510.741603,-1480.411884,-10288.862594,-2987.772442
510.741925,-444.123565,-7105.977043,-1915.238745
510.742248,444.123565,-7328.038826,-1685.410096
510.742570,888.247130,-9474.636058,-919.314598
510.742893,-370.102971,-10362.883188,919.314598
510.743215,-1998.556043,-9622.677246,1302.362347
510.743538,-1036.288319,-6439.791695,-612.876398
510.743860,3108.864956,-5033.400406,-4443.353888
510.744183,6365.771101,-6735.874072,-4290.134789
510.744505,5921.647536,-9178.553681,-383.047749
510.744827,3923.091493,-10436.903782,2221.676944
510.745150,1776.494261,-12953.603985,306.438199
510.745472,-740.205942,-14730.098246,-2068.457845
510.745795,-4885.359217,-13249.686362,-4673.182538
510.746117,-8882.471304,-10140.821405,-5745.716235
510.746440,-8438.347739,-8512.368333,-5898.935335
510.746762,-4737.318029,-8882.471304,-4060.306139
510.747084,-1406.391290,-10140.821405,-995.924147
510.747407,-1258.350101,-10436.903782,2221.676944
510.747729,-3034.844362,-9696.697840,3447.429741
510.748052,-2812.782580,-10436.903782,766.095498
510.748374,-2294.638420,-9770.718434,-2068.457845
510.748697,-1702.473667,-6883.915261,-2911.162892
510.749019,296.082377,-2590.720797,-3140.991542
510.749341,3997.112087,-1258.350101,-1608.800546
510.749664,6661.853478,-4293.194464,689.485948
510.749986,5921.647536,-8586.388927,1915.238745
510.750309,2812.782580,-11177.109724,383.047749
510.750631,444.123565,-12435.459826,-2145.067394
510.750954,-370.102971,-13323.706956,-4673.182538
510.751276,-1480.411884,-13397.727550,-4903.011187
510.751598,-3404.947333,-10214.842000,-3830.477490
510.751921,-4145.153275,-7846.182985,-3370.820191
510.752243,-2368.659014,-9474.636058,-3064.381992
510.752566,-1258.350101,-11547.212695,-1072.533697
510.752888,-1554.432478,-11769.274478,-612.876398
510.753211,-1776.494261,-11029.068536,-766.095498
510.753533,-222.061783,-10955.047942,-383.047749
510.753856,2146.597232,-9252.574275,689.485948
510.754178,3256.906145,-6809.894666,1838.629195
510.754500,3552.988522,-4219.173869,1072.533697
510.754823,3108.864956,-2738.761985,-689.485948
510.755145,3034.844362,-4737.318029,-842.705048
510.755468,2368.659014,-7328.038826,-766.095498
510.755790,2220.617826,-10510.924376,-2451.505594
510.756113,2516.700203,-13323.706956,-3677.258390
510.756435,2516.700203,-13471.748144,-3294.210641
510.756757,-888.247130,-12287.418637,-1455.581446
510.757080,-5403.503377,-12287.418637,-1608.800546
510.757402,-9252.574275,-11991.336260,-3217.601092
510.757725,-9474.636058,-11843.295072,-5975.544884
