#time,accel_x,accel_y,accel_z
277.067837,-370.102971,-9104.533087,-1302.362347
277.068159,-148.041188,-8956.491898,-1225.752797
277.068481,-444.123565,-8660.409521,-1225.752797
277.068803,-148.041188,-9400.615463,-1072.533697
277.069125,-222.061783,-9400.615463,-995.924147
277.069447,-296.082377,-9622.677246,-1225.752797
277.069769,-296.082377,-9474.636058,-1149.143247
277.070090,0.000000,-9770.718434,-1149.143247
277.070412,0.000000,-9474.636058,-1149.143247
277.070734,-222.061783,-9326.594869,-1532.190996
277.071056,-148.041188,-9104.533087,-1608.800546
277.071378,-222.061783,-9400.615463,-1302.362347
277.071700,-222.061783,-9178.553681,-1225.752797
277.072022,-370.102971,-9178.553681,-1302.362347
277.072344,-296.082377,-9400.615463,-1608.800546
277.072666,-518.144159,-9474.636058,-1455.581446
277.072988,-666.185348,-9400.615463,-1455.581446
277.073309,-518.144159,-9326.594869,-1532.190996
277.073631,-518.144159,-9178.553681,-1532.190996
277.073953,-592.164754,-8956.491898,-1532.190996
277.074275,-444.123565,-9474.636058,-1685.410096
277.074597,-518.144159,-9770.718434,-1685.410096
277.074919,-740.205942,-9696.697840,-1685.410096
277.075241,-370.102971,-9474.636058,-1991.848295
277.075563,-444.123565,-9474.636058,-1532.190996
277.075885,-592.164754,-9474.636058,-1685.410096
277.076207,-518.144159,-9252.574275,-1532.190996
277.076528,-370.102971,-9104.533087,-1685.410096
277.076850,-518.144159,-9104.533087,-1762.019645
277.077172,-592.164754,-9622.677246,-1455.581446
277.077494,-592.164754,-9178.553681,-1532.190996
277.077816,-666.185348,-9548.656652,-1532.190996
277.078138,-444.123565,-9474.636058,-1608.800546
277.078460,-444.123565,-9474.636058,-1532.190996
277.078782,-222.061783,-9474.636058,-1915.238745
277.079104,0.000000,-9104.533087,-1685.410096
277.079426,-222.061783,-9474.636058,-1532.190996
277.079748,-148.041188,-9474.636058,-1608.800546
277.080069,-444.123565,-9474.636058,-1608.800546
277.080391,-370.102971,-9622.677246,-1685.410096
277.080713,222.061783,-9548.656652,-1915.238745
277.081035,0.000000,-9326.594869,-1685.410096
277.081357,0.000000,-9252.574275,-1608.800546
277.081679,0.000000,-9178.553681,-1455.581446
277.082001,0.000000,-9400.615463,-1532.190996
277.082323,-222.061783,-9326.594869,-1302.362347
277.082645,148.041188,-9548.656652,-1838.629195
277.082967,0.000000,-9474.636058,-1455.581446
277.083288,0.000000,-9252.574275,-1455.581446
277.083610,-148.041188,-9252.574275,-1225.752797
277.083932,74.020594,-9474.636058,-1455.581446
277.084254,-296.082377,-9252.574275,-1455.581446
277.084576,-296.082377,-9474.636058,-1378.971896
277.084898,-370.102971,-9474.636058,-1225.752797
277.085220,-370.102971,-9400.615463,-1225.752797
277.085542,-296.082377,-9326.594869,-1225.752797
277.085864,-370.102971,-9178.553681,-1225.752797
277.086186,74.020594,-9474.636058,-1225.752797
277.086507,-370.102971,-9326.594869,-1149.143247
277.086829,-444.123565,-9400.615463,-1149.143247
277.087151,-592.164754,-9400.615463,-1072.533697
277.087473,-592.164754,-9400.615463,-1685.410096
277.087795,0.000000,-9030.512492,-1532.190996
277.088117,-518.144159,-9178.553681,-1225.752797
277.088439,-592.164754,-8956.491898,-1532.190996
277.088761,-666.185348,-9252.574275,-1302.362347
277.089083,-518.144159,-9326.594869,-1072.533697
277.089405,-518.144159,-9474.636058,-1072.533697
277.089727,-666.185348,-9474.636058,-1532.190996
277.090048,-444.123565,-9622.677246,-1378.971896
277.090370,-444.123565,-9474.636058,-1378.971896
277.090692,-370.102971,-9474.636058,-1302.362347
277.091014,-296.082377,-8956.491898,-1378.971896
277.091336,-592.164754,-9474.636058,-1302.362347
277.091658,-888.247130,-9474.636058,-1302.362347
277.091980,-666.185348,-9548.656652,-1378.971896
277.092302,-740.205942,-9474.636058,-1762.019645
277.092624,-740.205942,-9030.512492,-1608.800546
277.092946,0.000000,-9030.512492,-1302.362347
277.093267,592.164754,-9326.594869,-1608.800546
277.093589,1406.391290,-9844.739029,-1608.800546
277.093911,962.267725,-9918.759623,-919.314598
277.094233,370.102971,-9474.636058,-536.266849
277.094555,0.000000,-8882.471304,-1608.800546
277.094877,-222.061783,-8956.491898,-1915.238745
277.095199,-740.205942,-9104.533087,-2221.676944
277.095521,-1110.308913,-8882.471304,-1915.238745
277.095843,-888.247130,-8734.430116,-1915.238745
277.096165,-296.082377,-9400.615463,-1991.848295
277.096486,592.164754,-10436.903782,-995.924147
277.096808,0.000000,-10066.800811,-919.314598
277.097130,0.000000,-9252.574275,-1302.362347
277.097452,1258.350101,-9770.718434,-1838.629195
277.097774,2220.617826,-10510.924376,-2145.067394
277.098096,1628.453072,-9400.615463,-1072.533697
277.098418,1480.411884,-8586.388927,-229.828649
277.098740,2516.700203,-8956.491898,-919.314598
277.099062,3701.029710,-9844.739029,-1532.190996
277.099384,3552.988522,-9474.636058,-536.266849
277.099705,2516.700203,-8586.388927,0.000000
277.100027,2812.782580,-7846.182985,-229.828649
277.100349,3552.988522,-8660.409521,-919.314598
277.100671,3330.926739,-9178.553681,-1378.971896
277.100993,2738.761985,-8216.285956,-1072.533697
277.101315,3182.885551,-8068.244768,-1608.800546
277.101637,4071.132681,-8882.471304,-2374.896044
277.101959,4663.297435,-11177.109724,-2068.457845
277.102281,4515.256246,-11029.068536,-1455.581446
277.102603,3775.050304,-10140.821405,-1149.143247
277.102925,4219.173869,-10510.924376,-1225.752797
277.103246,4737.318029,-10732.986159,-1685.410096
277.103568,3775.050304,-9548.656652,-2681.334243
277.103890,3256.906145,-9178.553681,-2298.286494
277.104212,3034.844362,-9400.615463,-1149.143247
277.104534,3404.947333,-9178.553681,-995.924147
277.104856,4293.194464,-8882.471304,-1762.019645
277.105178,4885.359217,-8364.327145,-1149.143247
277.105500,5403.503377,-8956.491898,-1302.362347
277.105822,5921.647536,-8586.388927,-1225.752797
277.106144,5847.626942,-8660.409521,-1685.410096
277.106465,5181.441594,-8808.450710,-1378.971896
277.106787,4071.132681,-9104.533087,-1455.581446
277.107109,2590.720797,-10881.027347,-2451.505594
277.107431,1110.308913,-11991.336260,-2451.505594
277.107753,518.144159,-13249.686362,-1455.581446
277.108075,0.000000,-13101.645173,-306.438199
277.108397,148.041188,-12583.501014,383.047749
277.108719,0.000000,-11325.150913,689.485948
277.109041,222.061783,-10362.883188,1302.362347
277.109363,0.000000,-9252.574275,1838.629195
277.109684,-1036.288319,-7772.162391,1991.848295
277.110006,-1554.432478,-6513.812290,1072.533697
277.110328,-1406.391290,-4959.379811,-153.219100
277.110650,-296.082377,-4589.276840,-1762.019645
277.110972,1184.329507,-4515.256246,-2528.115143
277.111294,3256.906145,-4885.359217,-2987.772442
277.111616,5329.482782,-6069.688724,-4366.744339
277.111938,7105.977043,-8068.244768,-4903.011187
277.112260,6957.935855,-10955.047942,-4826.401637
277.112582,5995.668130,-13693.809927,-3600.648841
277.112904,5551.544565,-15322.262999,-2298.286494
277.113225,5477.523971,-14730.098246,-2068.457845
277.113547,4515.256246,-13545.768739,-1608.800546
277.113869,2368.659014,-12213.398043,1072.533697
277.114191,666.185348,-9992.780217,3217.601092
277.114513,74.020594,-6809.894666,3140.991542
277.114835,74.020594,-4737.318029,2451.505594
277.115157,0.000000,-3923.091493,2451.505594
277.115479,-296.082377,-3034.844362,1532.190996
277.115801,-1036.288319,-4737.318029,689.485948
277.116123,-1036.288319,-7402.059420,919.314598
277.116444,-888.247130,-8586.388927,-536.266849
277.116766,-222.061783,-9474.636058,-4213.525239
277.117088,666.185348,-10510.924376,-6665.030833
277.117410,1184.329507,-12879.583391,-7201.297681
277.117732,222.061783,-15544.324782,-5669.106685
277.118054,-1110.308913,-17690.922014,-3983.696590
277.118376,-962.267725,-17024.736666,-3447.429741
277.118698,0.000000,-13323.706956,-4826.401637
277.119020,1258.350101,-9918.759623,-4749.792088
277.119342,2442.679609,-9030.512492,-3064.381992
277.119663,3256.906145,-8808.450710,-842.705048
277.119985,4071.132681,-6883.915261,2451.505594
277.120307,4811.338623,-5329.482782,4290.134789
277.120629,4367.215058,-5107.421000,3217.601092
277.120951,3701.029710,-5477.523971,3217.601092
277.121273,3182.885551,-4071.132681,1455.581446
277.121595,3404.947333,-4515.256246,-383.047749
277.121917,2738.761985,-5625.565159,612.876398
277.122239,814.226536,-7031.956449,1302.362347
277.122561,-962.267725,-9178.553681,-1838.629195
277.122883,-1406.391290,-12435.459826,-5056.230287
277.123204,-1776.494261,-13175.665768,-6665.030833
277.123526,-2738.761985,-13101.645173,-7124.688131
277.123848,-4441.235652,-15470.304188,-5745.716235
277.124170,-5181.441594,-16876.695478,-3753.867940
277.124492,-5995.668130,-13767.830521,-3753.867940
277.124814,-4663.297435,-10066.800811,-4826.401637
277.125136,-2146.597232,-9030.512492,-4979.620737
277.125458,-518.144159,-7550.100608,-4136.915689
277.125780,0.000000,-5699.585753,-1762.019645
277.126102,2812.782580,-6513.812290,1685.410096
277.126423,5921.647536,-8068.244768,2374.896044
277.126745,7550.100608,-9770.718434,689.485948
277.127067,7031.956449,-9844.739029,995.924147
277.127389,5625.565159,-8512.368333,3140.991542
277.127711,3997.112087,-6809.894666,2451.505594
277.128033,2960.823768,-5847.626942,536.266849
277.128355,888.247130,-5181.441594,-459.657299
277.128677,-2812.782580,-6883.915261,-1608.800546
277.128999,-6661.853478,-10732.986159,-1608.800546
277.129321,-9844.739029,-13619.789333,0.000000
277.129642,-12213.398043,-13323.706956,-1302.362347
277.129964,-12435.459826,-11621.233289,-4060.306139
277.130286,-10288.862594,-11177.109724,-5209.449386
277.130608,-7846.182985,-9622.677246,-5592.497135
277.130930,-5773.606348,-7105.977043,-4979.620737
277.131252,-2442.679609,-6661.853478,-4366.744339
277.131574,962.267725,-8882.471304,-2451.505594
277.131896,3330.926739,-10658.965565,-1532.190996
277.132218,4589.276840,-10807.006753,-995.924147
277.132540,5921.647536,-10214.842000,-612.876398
277.132861,7994.224174,-9326.594869,459.657299
277.133183,8586.388927,-8142.265362,919.314598
277.133505,7105.977043,-5921.647536,2911.162892
277.133827,5181.441594,-4071.132681,3064.381992
277.134149,3256.906145,-5403.503377,1302.362347
277.134471,1036.288319,-8068.244768,612.876398
277.134793,-1628.453072,-9030.512492,459.657299
277.135115,-3775.050304,-8956.491898,306.438199
277.135437,-3997.112087,-10140.821405,-612.876398
277.135759,-3775.050304,-12731.542202,-1149.143247
277.136081,-4293.194464,-13989.892304,-919.314598
277.136402,-4367.215058,-11695.253884,-2451.505594
277.136724,-3108.864956,-10362.883188,-4290.134789
277.137046,-148.041188,-10214.842000,-5592.497135
277.137368,2812.782580,-11325.150913,-5515.887586
277.137690,4589.276840,-12065.356855,-4519.963438
277.138012,5773.606348,-12879.583391,-2834.553343
277.138334,6957.935855,-12509.480420,-689.485948
277.138656,6513.812290,-10658.965565,0.000000
277.138978,4367.215058,-7105.977043,-229.828649
277.139300,2146.597232,-4145.153275,-536.266849
277.139621,-296.082377,-3330.926739,-766.095498
277.139943,-3849.070898,-4441.235652,536.266849
277.140265,-7772.162391,-6809.894666,1532.190996
277.140586,-10436.903782,-9622.677246,1685.410096
277.140908,-10288.862594,-11325.150913,-306.438199
277.141230,-8512.368333,-12509.480420,-2604.724693
277.141551,-6069.688724,-13027.624579,-2604.724693
277.141873,-4367.215058,-11695.253884,-306.438199
277.142195,-2220.617826,-9326.594869,-536.266849
277.142516,444.123565,-7698.141797,-3370.820191
277.142838,5033.400406,-9474.636058,-5209.449386
277.143159,8956.491898,-12065.356855,-6818.249932
277.143481,10584.944971,-13027.624579,-5745.716235
277.143803,10732.986159,-11547.212695,-1685.410096
277.144124,10436.903782,-9844.739029,1685.410096
277.144446,8808.450710,-8808.450710,1991.848295
277.144768,5255.462188,-6291.750507,459.657299
277.145089,1184.329507,-2664.741391,-1225.752797
277.145411,-2442.679609,-2442.679609,-3907.087040
277.145732,-5699.585753,-5329.482782,-1991.848295
277.146054,-9326.594869,-6217.729913,2451.505594
277.146376,-11991.336260,-6957.935855,3217.601092
277.146697,-11621.233289,-9770.718434,-459.657299
277.147019,-9252.574275,-12583.501014,-4979.620737
277.147341,-8142.265362,-13989.892304,-5822.325785
277.147662,-7624.121203,-12287.418637,-3140.991542
277.147984,-5625.565159,-11399.171507,-1685.410096
277.148305,-1850.514855,-12139.377449,-3983.696590
277.148627,2590.720797,-12065.356855,-5362.668486
277.148949,6957.935855,-10955.047942,-5975.544884
277.149270,9696.697840,-10658.965565,-6281.983084
277.149592,13027.624579,-12657.521608,-4519.963438
277.149914,13767.830521,-13101.645173,-153.219100
277.150235,11473.192101,-9030.512492,3140.991542
277.150557,6143.709319,-4811.338623,2451.505594
277.150879,2812.782580,-4145.153275,0.000000
277.151200,-518.144159,-3775.050304,-3600.648841
277.151522,-5773.606348,-6069.688724,-3217.601092
277.151843,-11177.109724,-9474.636058,2374.896044
277.152165,-13101.645173,-12361.439231,6588.421283
277.152487,-11991.336260,-12731.542202,2987.772442
277.152808,-9400.615463,-10436.903782,-1915.238745
277.153130,-7179.997637,-7846.182985,-2528.115143
277.153452,-6291.750507,-7328.038826,-1991.848295
277.153773,-5847.626942,-9400.615463,-2221.676944
277.154095,-3182.885551,-9696.697840,-2374.896044
277.154416,1258.350101,-9548.656652,-4903.011187
277.154738,5181.441594,-12657.521608,-6665.030833
277.155060,7105.977043,-14359.995275,-4060.306139
277.155381,6883.915261,-11103.089130,-1378.971896
277.155703,7031.956449,-7698.141797,536.266849
277.156025,7105.977043,-7994.224174,1149.143247
277.156346,4811.338623,-6069.688724,536.266849
277.156668,2146.597232,-2368.659014,-1685.410096
277.156989,222.061783,-2664.741391,-1991.848295
277.157311,-1776.494261,-5921.647536,1455.581446
277.157633,-3478.967927,-7402.059420,3983.696590
277.157954,-5403.503377,-8956.491898,2681.334243
277.158276,-5255.462188,-11769.274478,612.876398
277.158598,-4811.338623,-13175.665768,-229.828649
277.158919,-4145.153275,-12509.480420,-1302.362347
277.159241,-3627.009116,-11769.274478,-1072.533697
277.159563,-1628.453072,-9992.780217,-1685.410096
277.159884,444.123565,-9622.677246,-3370.820191
277.160206,3552.988522,-10214.842000,-4213.525239
277.160527,6735.874072,-11991.336260,-4213.525239
277.160849,8290.306550,-13619.789333,-5439.278036
277.161171,8956.491898,-14063.912898,-3907.087040
277.161492,7328.038826,-11251.130318,689.485948
277.161814,3256.906145,-8364.327145,2298.286494
277.162136,-296.082377,-6513.812290,153.219100
277.162457,-3256.906145,-3552.988522,-2374.896044
277.162779,-6069.688724,-2664.741391,-4826.401637
277.163100,-8956.491898,-6291.750507,-2528.115143
277.163422,-11473.192101,-10732.986159,3294.210641
277.163744,-12805.562797,-11029.068536,4826.401637
277.164065,-10140.821405,-11325.150913,-153.219100
277.164387,-6513.812290,-11843.295072,-3064.381992
277.164709,-4367.215058,-10955.047942,-3217.601092
277.165030,-3849.070898,-8660.409521,-2451.505594
277.165352,-1406.391290,-8660.409521,-1915.238745
277.165674,3775.050304,-9474.636058,-2451.505594
277.165995,8586.388927,-11103.089130,-5286.058936
277.166317,11621.233289,-12583.501014,-4903.011187
277.166638,12287.418637,-11325.150913,-1762.019645
277.166960,11251.130318,-9252.574275,-536.266849
277.167282,9178.553681,-9326.594869,229.828649
277.167603,6291.750507,-8068.244768,0.000000
277.167925,2960.823768,-3701.029710,-689.485948
277.168247,-148.041188,-1776.494261,-3830.477490
277.168568,-3108.864956,-5255.462188,-2987.772442
277.168890,-6143.709319,-7698.141797,1455.581446
277.169211,-8956.491898,-7031.956449,2681.334243
277.169533,-9326.594869,-9252.574275,0.000000
277.169855,-7846.182985,-12805.562797,-2834.553343
277.170176,-7105.977043,-12509.480420,-3064.381992
277.170498,-7402.059420,-9252.574275,-1762.019645
277.170820,-5921.647536,-10288.862594,-2298.286494
277.171141,-1924.535449,-12139.377449,-3524.039291
277.171463,2072.576638,-11991.336260,-5209.449386
277.171784,5033.400406,-10436.903782,-4596.572988
277.172106,8364.327145,-12139.377449,-4673.182538
277.172428,11843.295072,-13915.871710,-4366.744339
277.172749,12583.501014,-12657.521608,-2451.505594
277.173071,10214.842000,-9178.553681,1302.362347
277.173393,5107.421000,-7328.038826,2757.943793
277.173714,1332.370696,-5329.482782,0.000000
277.174036,-1776.494261,-3256.906145,-3677.258390
277.174358,-5477.523971,-5551.544565,-4979.620737
277.174679,-9474.636058,-9474.636058,-153.219100
277.175001,-11621.233289,-12657.521608,4673.182538
277.175322,-11843.295072,-13915.871710,3064.381992
277.175644,-9622.677246,-11695.253884,229.828649
277.175966,-6883.915261,-8808.450710,-1302.362347
277.176287,-5477.523971,-8068.244768,-2757.943793
277.176609,-5403.503377,-8142.265362,-2834.553343
277.176931,-2368.659014,-7105.977043,-2068.457845
277.177252,2812.782580,-7105.977043,-4060.306139
277.177574,7328.038826,-11843.295072,-4903.011187
277.177895,8216.285956,-14359.995275,-2604.724693
277.178217,7179.997637,-11473.192101,-1991.848295
277.178539,6513.812290,-9770.718434,-306.438199
277.178860,6217.729913,-10807.006753,919.314598
277.179182,3997.112087,-7254.018232,306.438199
277.179504,962.267725,-1258.350101,-2298.286494
277.179825,-1184.329507,-1998.556043,-1838.629195
277.180147,-2516.700203,-6883.915261,1915.238745
277.180469,-5403.503377,-6957.935855,4060.306139
277.180790,-7254.018232,-6809.894666,1915.238745
277.181112,-6365.771101,-9696.697840,459.657299
277.181433,-5329.482782,-12139.377449,-306.438199
277.181755,-5551.544565,-12065.356855,-995.924147
277.182077,-4885.359217,-11103.089130,-536.266849
277.182398,-2072.576638,-10288.862594,-995.924147
277.182720,1110.308913,-10807.006753,-3370.820191
277.183042,3775.050304,-11177.109724,-3907.087040
277.183363,7031.956449,-11177.109724,-3753.867940
277.183685,9474.636058,-11917.315666,-5439.278036
277.184006,11769.274478,-14211.954086,-4903.011187
277.184328,10584.944971,-13619.789333,-459.657299
277.184650,5033.400406,-9548.656652,2221.676944
277.184971,0.000000,-5773.606348,2374.896044
277.185293,-2664.741391,-4737.318029,-2374.896044
277.185615,-4367.215058,-5551.544565,-5592.497135
277.185936,-7772.162391,-7624.121203,-4060.306139
277.186258,-11695.253884,-10584.944971,2451.505594
277.186579,-12879.583391,-11325.150913,5745.716235
277.186901,-10658.965565,-11621.233289,1991.848295
277.187223,-8068.244768,-10140.821405,-2221.676944
277.187544,-6439.791695,-8290.306550,-3294.210641
277.187866,-5699.585753,-7772.162391,-3830.477490
277.188188,-3256.906145,-9474.636058,-3524.039291
277.188509,1924.535449,-10436.903782,-2834.553343
277.188831,7105.977043,-11621.233289,-3907.087040
277.189153,10510.924376,-12509.480420,-3983.696590
277.189474,10955.047942,-12435.459826,-1915.238745
277.189796,9252.574275,-10510.924376,-995.924147
277.190117,7476.080014,-9548.656652,-536.266849
277.190439,5107.421000,-8512.368333,-995.924147
277.190761,2294.638420,-5329.482782,-1072.533697
277.191082,-592.164754,-2960.823768,-2145.067394
277.191404,-1850.514855,-3997.112087,-1608.800546
277.191726,-2960.823768,-7105.977043,919.314598
277.192047,-5699.585753,-6661.853478,3140.991542
277.192369,-7402.059420,-7920.203579,2068.457845
277.192690,-7846.182985,-11103.089130,-153.219100
277.193012,-7254.018232,-13101.645173,-2451.505594
277.193334,-6883.915261,-10362.883188,-2987.772442
277.193655,-5107.421000,-8956.491898,-2834.553343
277.193977,-2072.576638,-10510.924376,-1915.238745
277.194299,1406.391290,-10288.862594,-1838.629195
277.194620,4737.318029,-9474.636058,-4673.182538
277.194942,8660.409521,-12583.501014,-6205.373534
277.195264,11695.253884,-15914.427753,-4596.572988
277.195585,10140.821405,-13915.871710,-1762.019645
277.195907,6217.729913,-9400.615463,1991.848295
277.196228,2590.720797,-6217.729913,3294.210641
277.196550,518.144159,-4071.132681,-229.828649
277.196872,-1850.514855,-3849.070898,-4979.620737
277.197193,-6661.853478,-6069.688724,-3447.429741
277.197515,-9474.636058,-9622.677246,2604.724693
277.197837,-9992.780217,-11029.068536,5132.839837
277.198158,-8734.430116,-12139.377449,1608.800546
277.198480,-6883.915261,-10510.924376,-919.314598
277.198801,-6143.709319,-9104.533087,-2221.676944
277.199123,-5403.503377,-8660.409521,-3600.648841
277.199445,-4293.194464,-10066.800811,-3447.429741
277.199766,-666.185348,-9844.739029,-3753.867940
277.200088,3997.112087,-10288.862594,-4903.011187
277.200410,7772.162391,-12731.542202,-3524.039291
277.200731,9844.739029,-13101.645173,-1302.362347
277.201053,9474.636058,-10510.924376,-2528.115143
277.201374,8512.368333,-8956.491898,-1762.019645
277.201696,5921.647536,-9104.533087,229.828649
277.202018,2368.659014,-7772.162391,0.000000
277.202339,-370.102971,-4885.359217,-1072.533697
277.202661,-1110.308913,-3849.070898,-1762.019645
277.202983,-1998.556043,-5995.668130,-459.657299
277.203304,-3849.070898,-7031.956449,1838.629195
277.203626,-6735.874072,-6661.853478,3140.991542
277.203948,-7624.121203,-8734.430116,919.314598
277.204269,-6661.853478,-13101.645173,-1378.971896
277.204591,-6143.709319,-13989.892304,-2911.162892
277.204912,-5847.626942,-10510.924376,-3140.991542
277.205234,-3478.967927,-9400.615463,-2068.457845
277.205556,1332.370696,-10807.006753,-1762.019645
277.205877,5995.668130,-11177.109724,-3753.867940
277.206199,9696.697840,-12583.501014,-5898.935335
277.206521,11621.233289,-13915.871710,-4749.792088
277.206842,11251.130318,-13397.727550,-1378.971896
277.207164,7254.018232,-10584.944971,1072.533697
277.207485,3330.926739,-6883.915261,919.314598
277.207807,1554.432478,-4441.235652,-1455.581446
277.208129,0.000000,-3552.988522,-5439.278036
277.208450,-4071.132681,-6291.750507,-4749.792088
277.208772,-8808.450710,-9992.780217,1762.019645
277.209094,-11029.068536,-10881.027347,6205.373534
277.209415,-11547.212695,-11251.130318,2221.676944
277.209737,-9474.636058,-10807.006753,-1838.629195
277.210058,-9622.677246,-8512.368333,-3677.258390
277.210380,-9622.677246,-7105.977043,-3677.258390
277.210702,-7846.182985,-8068.244768,-3370.820191
277.211023,-2738.761985,-9400.615463,-1991.848295
277.211345,1628.453072,-10510.924376,-4060.306139
277.211667,5921.647536,-12805.562797,-4136.915689
277.211988,8956.491898,-14137.933492,-2145.067394
277.212310,9918.759623,-11621.233289,-1991.848295
277.212632,9918.759623,-8734.430116,-2298.286494
277.212953,8364.327145,-8512.368333,-766.095498
277.213275,4663.297435,-8216.285956,306.438199
277.213596,1036.288319,-5403.503377,-153.219100
277.213918,-518.144159,-3256.906145,-1762.019645
277.214240,-296.082377,-4737.318029,-2145.067394
277.214561,-888.247130,-7550.100608,766.095498
277.214883,-4367.215058,-7994.224174,3830.477490
277.215205,-7179.997637,-8512.368333,4290.134789
277.215526,-7846.182985,-11251.130318,689.485948
277.215848,-7698.141797,-11695.253884,-3600.648841
277.216169,-7698.141797,-9696.697840,-4903.011187
277.216491,-6809.894666,-9252.574275,-4826.401637
277.216813,-2960.823768,-11399.171507,-3140.991542
277.217134,1480.411884,-13101.645173,-2681.334243
277.217456,5329.482782,-13545.768739,-3447.429741
277.217778,8512.368333,-13989.892304,-3140.991542
277.218099,9918.759623,-13693.809927,-3294.210641
277.218421,8660.409521,-11843.295072,-2757.943793
277.218743,5625.565159,-8364.327145,-459.657299
277.219064,2516.700203,-5773.606348,689.485948
277.219386,444.123565,-4589.276840,-536.266849
277.219707,-1480.411884,-5033.400406,-1685.410096
277.220029,-4367.215058,-6439.791695,-1991.848295
277.220351,-6217.729913,-9622.677246,612.876398
277.220672,-8068.244768,-11695.253884,3370.820191
277.220994,-9104.533087,-10658.965565,3370.820191
277.221316,-7994.224174,-9622.677246,76.609550
277.221637,-6069.688724,-8734.430116,-2911.162892
277.221959,-4811.338623,-8364.327145,-3753.867940
277.222280,-3034.844362,-8512.368333,-2987.772442
277.222602,222.061783,-11177.109724,-2451.505594
277.222924,4367.215058,-13397.727550,-2528.115143
277.223245,7920.203579,-13323.706956,-2451.505594
277.223567,9622.677246,-11325.150913,-2451.505594
277.223889,9030.512492,-9326.594869,-1838.629195
277.224210,7179.997637,-8734.430116,-1532.190996
277.224532,4441.235652,-7994.224174,-1302.362347
277.224853,1480.411884,-5181.441594,-153.219100
277.225175,-296.082377,-3775.050304,-612.876398
277.225497,-666.185348,-5107.421000,-1991.848295
277.225818,-1554.432478,-7179.997637,-1149.143247
277.226140,-3997.112087,-7994.224174,1915.238745
277.226462,-7105.977043,-7328.038826,3677.258390
277.226783,-8142.265362,-8586.388927,919.314598
277.227105,-7772.162391,-11251.130318,-3447.429741
277.227427,-7179.997637,-11991.336260,-5439.278036
277.227748,-5921.647536,-10436.903782,-3677.258390
277.228070,-3256.906145,-11177.109724,-2068.457845
277.228391,444.123565,-12805.562797,-612.876398
277.228713,4663.297435,-11991.336260,-1225.752797
277.229035,8956.491898,-10955.047942,-4213.525239
277.229356,12509.480420,-13101.645173,-5822.325785
277.229678,13323.706956,-14211.954086,-3983.696590
277.230000,10436.903782,-10288.862594,0.000000
277.230321,5551.544565,-5699.585753,2528.115143
277.230643,2368.659014,-3997.112087,1608.800546
277.230964,-222.061783,-4441.235652,-2604.724693
277.231286,-3108.864956,-5995.668130,-6281.983084
277.231608,-7105.977043,-9696.697840,-3677.258390
277.231929,-9474.636058,-12953.603985,2834.553343
277.232251,-11473.192101,-11473.192101,5515.887586
277.232573,-11029.068536,-9400.615463,612.876398
277.232894,-9548.656652,-8660.409521,-4213.525239
277.233216,-8438.347739,-8660.409521,-5745.716235
277.233538,-7772.162391,-8808.450710,-4826.401637
277.233859,-4737.318029,-10140.821405,-3753.867940
277.234181,444.123565,-11473.192101,-2451.505594
277.234502,5921.647536,-12731.542202,-3600.648841
277.234824,9030.512492,-12805.562797,-3677.258390
277.235146,9696.697840,-10955.047942,-2451.505594
277.235467,8956.491898,-8142.265362,-2145.067394
277.235789,7328.038826,-8142.265362,-1302.362347
277.236111,4589.276840,-8438.347739,0.000000
277.236432,1628.453072,-6217.729913,383.047749
277.236754,296.082377,-4071.132681,-1685.410096
277.237075,74.020594,-5107.421000,-1608.800546
277.237397,-740.205942,-7254.018232,1302.362347
277.237719,-4293.194464,-6809.894666,3600.648841
277.238040,-7624.121203,-6291.750507,2528.115143
277.238362,-7772.162391,-10288.862594,-383.047749
277.238684,-7328.038826,-13767.830521,-3447.429741
277.239005,-6883.915261,-12509.480420,-4749.792088
277.239327,-5255.462188,-11251.130318,-2834.553343
277.239648,-2146.597232,-11991.336260,-306.438199
277.239970,1628.453072,-11251.130318,-306.438199
277.240292,5921.647536,-9104.533087,-2757.943793
277.240613,9548.656652,-10510.924376,-5286.058936
277.240935,10881.027347,-12953.603985,-5822.325785
277.241256,9474.636058,-12657.521608,-2298.286494
277.241578,4663.297435,-9992.780217,2528.115143
277.241899,518.144159,-6661.853478,3753.867940
277.242221,-444.123565,-4367.215058,-383.047749
277.242543,-1184.329507,-4219.173869,-5669.106685
277.242864,-4515.256246,-8216.285956,-4826.401637
277.243186,-9178.553681,-10436.903782,2834.553343
277.243507,-11547.212695,-9696.697840,6358.592633
277.243829,-10140.821405,-10214.842000,2757.943793
277.244150,-7476.080014,-9844.739029,-1762.019645
277.244472,-6513.812290,-8438.347739,-4519.963438
277.244793,-6661.853478,-8882.471304,-3447.429741
277.245115,-4663.297435,-11177.109724,-919.314598
277.245437,-444.123565,-10807.006753,-536.266849
277.245758,5033.400406,-10881.027347,-2987.772442
277.246080,9474.636058,-12361.439231,-4366.744339
277.246401,10658.965565,-12583.501014,-2528.115143
277.246723,9104.533087,-9474.636058,-1915.238745
277.247044,6883.915261,-7698.141797,-842.705048
277.247366,5329.482782,-9178.553681,766.095498
277.247688,2886.803174,-7402.059420,76.609550
277.248009,-148.041188,-4441.235652,-2911.162892
277.248331,-1480.411884,-5181.441594,-3064.381992
277.248652,-2442.679609,-7254.018232,0.000000
277.248974,-4589.276840,-7328.038826,2298.286494
277.249295,-7105.977043,-7328.038826,1762.019645
277.249617,-7698.141797,-9252.574275,0.000000
277.249939,-7105.977043,-11695.253884,-2757.943793
277.250260,-7105.977043,-13175.665768,-4673.182538
277.250582,-6957.935855,-13619.789333,-2528.115143
277.250903,-4589.276840,-11325.150913,-1072.533697
277.251225,-296.082377,-9992.780217,-2451.505594
277.251546,5255.462188,-9326.594869,-3524.039291
277.251868,9474.636058,-11325.150913,-4826.401637
277.252189,11695.253884,-12805.562797,-5132.839837
277.252511,11843.295072,-13249.686362,-3294.210641
277.252833,9474.636058,-11473.192101,1991.848295
277.253154,4811.338623,-8290.306550,3447.429741
277.253476,1702.473667,-4293.194464,306.438199
277.253797,-370.102971,-2516.700203,-4213.525239
277.254119,-2220.617826,-5477.523971,-5745.716235
277.254440,-5773.606348,-8956.491898,-1685.410096
277.254762,-9474.636058,-10510.924376,4213.525239
277.255084,-10436.903782,-11621.233289,4060.306139
277.255405,-8808.450710,-11547.212695,-383.047749
277.255727,-7624.121203,-9474.636058,-4136.915689
277.256048,-7105.977043,-9030.512492,-4749.792088
277.256370,-6809.894666,-9918.759623,-3447.429741
277.256691,-4145.153275,-10066.800811,-1532.190996
277.257013,888.247130,-9474.636058,-2604.724693
277.257335,6217.729913,-10362.883188,-4903.011187
277.257656,9918.759623,-12509.480420,-4443.353888
277.257978,9548.656652,-11029.068536,-3140.991542
277.258299,8364.327145,-8956.491898,-1302.362347
277.258621,6143.709319,-8586.388927,1302.362347
277.258942,3775.050304,-8438.347739,1225.752797
277.259264,1110.308913,-5847.626942,-1608.800546
277.259586,0.000000,-3034.844362,-4673.182538
277.259907,-1110.308913,-5033.400406,-3217.601092
277.260229,-2368.659014,-7920.203579,1225.752797
277.260550,-5255.462188,-7105.977043,4596.572988
277.260872,-7105.977043,-8438.347739,2834.553343
277.261193,-6957.935855,-11325.150913,-1149.143247
277.261515,-6809.894666,-13397.727550,-4136.915689
277.261836,-7105.977043,-12953.603985,-4443.353888
277.262158,-5625.565159,-11695.253884,-2221.676944
277.262480,-1998.556043,-10658.965565,-995.924147
277.262801,2516.700203,-10214.842000,-2451.505594
277.263123,7476.080014,-10510.924376,-3370.820191
277.263444,10807.006753,-12657.521608,-4290.134789
277.263766,11251.130318,-12657.521608,-4136.915689
277.264087,10510.924376,-11103.089130,-1455.581446
277.264409,7328.038826,-9696.697840,1762.019645
277.264731,2960.823768,-6143.709319,2451.505594
277.265052,-666.185348,-2516.700203,-229.828649
277.265374,-2072.576638,-3404.947333,-5132.839837
277.265695,-4737.318029,-7624.121203,-3830.477490
277.266017,-9030.512492,-10807.006753,2068.457845
277.266338,-12139.377449,-11991.336260,4596.572988
277.266660,-11695.253884,-13027.624579,2834.553343
277.266982,-9030.512492,-10732.986159,-1302.362347
277.267303,-7698.141797,-7994.224174,-4136.915689
277.267625,-6661.853478,-8142.265362,-4290.134789
277.267946,-5107.421000,-9326.594869,-1838.629195
277.268268,-2072.576638,-9178.553681,-1532.190996
277.268589,3034.844362,-10066.800811,-3600.648841
277.268911,7698.141797,-13175.665768,-3830.477490
277.269233,9326.594869,-13767.830521,-2528.115143
277.269554,8142.265362,-10510.924376,-1915.238745
277.269876,7105.977043,-7994.224174,-536.266849
277.270197,5847.626942,-8142.265362,919.314598
277.270519,3404.947333,-7328.038826,0.000000
277.270840,1036.288319,-3330.926739,-1838.629195
277.271162,-666.185348,-3849.070898,-2221.676944
277.271483,-1850.514855,-7031.956449,536.266849
277.271805,-3701.029710,-8216.285956,2834.553343
277.272127,-6587.832884,-8586.388927,2451.505594
277.272448,-7698.141797,-9030.512492,842.705048
277.272770,-8216.285956,-10288.862594,-1991.848295
277.273091,-7624.121203,-12361.439231,-4673.182538
277.273413,-6439.791695,-12509.480420,-4443.353888
277.273734,-4145.153275,-11251.130318,-2604.724693
277.274056,-592.164754,-10732.986159,-2221.676944
277.274378,4293.194464,-10955.047942,-2374.896044
277.274699,8438.347739,-11917.315666,-3140.991542
277.275021,10584.944971,-12065.356855,-5056.230287
277.275342,11029.068536,-11991.336260,-3753.867940
277.275664,9252.574275,-11029.068536,459.657299
277.275985,4737.318029,-8290.306550,2681.334243
277.276307,1332.370696,-3997.112087,1225.752797
277.276629,-296.082377,-1480.411884,-2451.505594
277.276950,-1406.391290,-4959.379811,-5669.106685
277.277272,-5107.421000,-9548.656652,-2374.896044
277.277593,-10140.821405,-11251.130318,3983.696590
277.277915,-11843.295072,-11177.109724,4366.744339
277.278236,-9474.636058,-12361.439231,-612.876398
277.278558,-6883.915261,-11251.130318,-4673.182538
277.278879,-6661.853478,-8438.347739,-5132.839837
277.279201,-6217.729913,-9104.533087,-3370.820191
277.279523,-3404.947333,-10881.027347,-689.485948
277.279844,1184.329507,-10288.862594,-1915.238745
277.280166,6143.709319,-10658.965565,-5362.668486
277.280487,9696.697840,-12287.418637,-4596.572988
277.280809,10066.800811,-11843.295072,-2451.505594
277.281130,8586.388927,-8660.409521,-1302.362347
277.281452,6809.894666,-7476.080014,536.266849
277.281774,5255.462188,-7624.121203,1915.238745
277.282095,2072.576638,-5181.441594,-1072.533697
277.282417,-1110.308913,-4441.235652,-3600.648841
277.282738,-2590.720797,-6661.853478,-2145.067394
277.283060,-4737.318029,-8216.285956,2374.896044
277.283381,-6661.853478,-7920.203579,3217.601092
277.283703,-7698.141797,-9178.553681,1378.971896
277.284025,-7846.182985,-9992.780217,-919.314598
277.284346,-7846.182985,-11177.109724,-3677.258390
277.284668,-7624.121203,-11399.171507,-3600.648841
277.284989,-5995.668130,-11399.171507,-1991.848295
277.285311,-2812.782580,-10807.006753,-1991.848295
277.285632,1406.391290,-10436.903782,-3370.820191
277.285954,5477.523971,-10288.862594,-3447.429741
277.286276,8364.327145,-11843.295072,-2834.553343
277.286597,9696.697840,-11769.274478,-3370.820191
277.286919,10140.821405,-11325.150913,-1915.238745
277.287240,8734.430116,-9548.656652,919.314598
277.287562,5403.503377,-6587.832884,2145.067394
277.287883,2516.700203,-4515.256246,-459.657299
277.288205,0.000000,-3923.091493,-2374.896044
277.288526,-2072.576638,-6217.729913,-1915.238745
277.288848,-5773.606348,-9548.656652,0.000000
277.289170,-8956.491898,-11843.295072,3677.258390
277.289491,-10436.903782,-12435.459826,3524.039291
277.289813,-9474.636058,-11843.295072,-689.485948
277.290134,-7772.162391,-9622.677246,-3294.210641
277.290456,-6365.771101,-6957.935855,-3830.477490
277.290777,-5033.400406,-5921.647536,-3983.696590
277.291099,-1850.514855,-8512.368333,-2221.676944
277.291421,1702.473667,-10584.944971,-2451.505594
277.291742,4737.318029,-11695.253884,-4136.915689
277.292064,7550.100608,-13397.727550,-4596.572988
277.292385,9030.512492,-13175.665768,-3140.991542
277.292707,8808.450710,-10510.924376,-2068.457845
277.293028,7031.956449,-8216.285956,153.219100
277.293350,4589.276840,-6439.791695,1149.143247
277.293672,2220.617826,-4515.256246,-689.485948
277.293993,-592.164754,-4367.215058,-3140.991542
277.294315,-3478.967927,-6587.832884,-2757.943793
277.294636,-6661.853478,-8586.388927,1149.143247
277.294958,-8290.306550,-9992.780217,2451.505594
277.295279,-7994.224174,-11769.274478,1532.190996
277.295601,-6439.791695,-13027.624579,-995.924147
277.295922,-5403.503377,-11843.295072,-2451.505594
277.296244,-4589.276840,-9178.553681,-1072.533697
277.296566,-2812.782580,-8438.347739,-1762.019645
277.296887,-444.123565,-9030.512492,-2987.772442
277.297209,2960.823768,-9992.780217,-4136.915689
277.297530,6809.894666,-11917.315666,-4443.353888
277.297852,10510.924376,-14434.015869,-4290.134789
277.298173,11769.274478,-14359.995275,-2604.724693
277.298495,10584.944971,-12287.418637,229.828649
277.298817,6587.832884,-7994.224174,2068.457845
277.299138,2812.782580,-4515.256246,842.705048
277.299460,-518.144159,-2146.597232,-2757.943793
277.299781,-4219.173869,-3552.988522,-5592.497135
277.300103,-8882.471304,-7772.162391,-3524.039291
277.300424,-12879.583391,-11695.253884,2604.724693
277.300746,-14285.974681,-12213.398043,4596.572988
277.301068,-12213.398043,-11917.315666,1072.533697
277.301389,-8216.285956,-9844.739029,-2374.896044
277.301711,-5699.585753,-8808.450710,-3983.696590
277.302032,-5625.565159,-8660.409521,-2681.334243
277.302354,-4293.194464,-8216.285956,-536.266849
277.302675,148.041188,-6957.935855,-1608.800546
277.302997,5847.626942,-8216.285956,-4903.011187
277.303319,10066.800811,-12879.583391,-5745.716235
277.303640,11325.150913,-14285.974681,-3830.477490
277.303962,10881.027347,-12065.356855,-766.095498
277.304283,9252.574275,-10436.903782,2068.457845
277.304605,6957.935855,-9474.636058,2451.505594
277.304926,3775.050304,-5921.647536,-536.266849
277.305248,740.205942,-2590.720797,-4290.134789
277.305569,-1998.556043,-4515.256246,-4519.963438
277.305891,-4589.276840,-8290.306550,153.219100
277.306213,-7254.018232,-7402.059420,4903.011187
277.306534,-8586.388927,-7624.121203,3524.039291
277.306856,-7846.182985,-10584.944971,-842.705048
277.307177,-7105.977043,-12583.501014,-3600.648841
277.307499,-7254.018232,-11621.233289,-3677.258390
277.307820,-6587.832884,-9252.574275,-2298.286494
277.308142,-2516.700203,-9622.677246,-2068.457845
277.308464,962.267725,-10288.862594,-3983.696590
277.308785,4811.338623,-10955.047942,-3983.696590
277.309107,7624.121203,-12657.521608,-3753.867940
277.309428,9844.739029,-13989.892304,-4366.744339
277.309750,11621.233289,-13989.892304,-2221.676944
277.310071,10510.924376,-11251.130318,1378.971896
277.310393,5625.565159,-7698.141797,2451.505594
277.310715,1554.432478,-5033.400406,1455.581446
277.311036,-518.144159,-3182.885551,-1685.410096
277.311358,-2812.782580,-4663.297435,-4519.963438
277.311679,-6587.832884,-7698.141797,-1072.533697
277.312001,-10214.842000,-10214.842000,4519.963438
277.312322,-10955.047942,-13397.727550,4366.744339
277.312644,-8586.388927,-13175.665768,0.000000
277.312965,-5551.544565,-10140.821405,-3447.429741
277.313287,-3552.988522,-7476.080014,-4366.744339
277.313609,-2886.803174,-8216.285956,-3447.429741
277.313930,-2146.597232,-9030.512492,-766.095498
277.314252,814.226536,-7846.182985,-1608.800546
277.314573,6069.688724,-9252.574275,-5439.278036
277.314895,9992.780217,-13471.748144,-6511.811733
277.315216,10510.924376,-13101.645173,-4519.963438
277.315538,8512.368333,-10436.903782,-536.266849
277.315860,6365.771101,-9178.553681,3064.381992
277.316181,4293.194464,-7624.121203,2374.896044
277.316503,1258.350101,-4219.173869,-2068.457845
277.316824,-1924.535449,-2368.659014,-5439.278036
277.317146,-4885.359217,-5625.565159,-4136.915689
277.317467,-7105.977043,-9326.594869,1762.019645
277.317789,-8290.306550,-10288.862594,3983.696590
277.318111,-6883.915261,-11843.295072,1762.019645
277.318432,-5181.441594,-12435.459826,-536.266849
277.318754,-4293.194464,-10436.903782,-1455.581446
277.319075,-4811.338623,-8216.285956,-2374.896044
277.319397,-3330.926739,-8956.491898,-3447.429741
277.319718,0.000000,-10214.842000,-4519.963438
277.320040,4145.153275,-10807.006753,-4979.620737
277.320362,7254.018232,-11991.336260,-3294.210641
277.320683,10584.944971,-14285.974681,-2757.943793
277.321005,12139.377449,-14137.933492,-2757.943793
277.321326,11029.068536,-11399.171507,-1532.190996
277.321648,6217.729913,-8734.430116,459.657299
277.321969,740.205942,-6365.771101,306.438199
277.322291,-3182.885551,-3182.885551,-2757.943793
277.322612,-5921.647536,-3775.050304,-5822.325785
277.322934,-8956.491898,-7698.141797,-3447.429741
277.323256,-11917.315666,-11177.109724,2298.286494
277.323577,-12805.562797,-13471.748144,4366.744339
277.323899,-10510.924376,-12731.542202,2374.896044
277.324220,-7624.121203,-9474.636058,-689.485948
277.324542,-4959.379811,-7624.121203,-3064.381992
277.324863,-4959.379811,-7105.977043,-3140.991542
277.325185,-4293.194464,-6883.915261,-1991.848295
277.325507,-222.061783,-5551.544565,-2834.553343
277.325828,5033.400406,-8364.327145,-5975.544884
277.326150,8956.491898,-14285.974681,-4903.011187
277.326471,9844.739029,-15692.365970,-2681.334243
277.326793,9326.594869,-12509.480420,-612.876398
277.327114,8142.265362,-10214.842000,1149.143247
277.327436,6291.750507,-9326.594869,1991.848295
277.327758,2886.803174,-4885.359217,-1072.533697
277.328079,-444.123565,-1332.370696,-4366.744339
277.328401,-3108.864956,-4515.256246,-2834.553343
277.328722,-5033.400406,-8438.347739,1991.848295
277.329044,-7031.956449,-9474.636058,4290.134789
277.329365,-7031.956449,-11177.109724,2911.162892
277.329687,-6883.915261,-11103.089130,1149.143247
277.330009,-6291.750507,-10436.903782,-995.924147
277.330330,-5921.647536,-8808.450710,-2068.457845
277.330652,-4663.297435,-8142.265362,-3140.991542
277.330973,-1628.453072,-8734.430116,-4366.744339
277.331295,1480.411884,-9918.759623,-4903.011187
277.331616,4885.359217,-12731.542202,-2987.772442
277.331938,6809.894666,-14582.057057,-2451.505594
277.332259,9400.615463,-14211.954086,-3447.429741
277.332581,11325.150913,-13249.686362,-2374.896044
277.332903,9030.512492,-11103.089130,0.000000
277.333224,3478.967927,-7994.224174,1072.533697
277.333546,-666.185348,-5033.400406,536.266849
277.333867,-2812.782580,-2738.761985,-2068.457845
277.334189,-3627.009116,-5181.441594,-3370.820191
277.334510,-6439.791695,-9030.512492,-612.876398
277.334832,-9326.594869,-10955.047942,3907.087040
277.335154,-9474.636058,-12805.562797,4213.525239
277.335475,-6957.935855,-12139.377449,1608.800546
277.335797,-4737.318029,-8956.491898,-1149.143247
277.336118,-3478.967927,-6587.832884,-2681.334243
277.336440,-2960.823768,-7402.059420,-3447.429741
277.336761,-1184.329507,-8438.347739,-2757.943793
277.337083,2294.638420,-8068.244768,-3370.820191
277.337405,7031.956449,-10732.986159,-4826.401637
277.337726,10510.924376,-13915.871710,-4749.792088
277.338048,11547.212695,-13323.706956,-4060.306139
277.338369,9844.739029,-11103.089130,-1762.019645
277.338691,7031.956449,-9474.636058,919.314598
277.339012,3552.988522,-6883.915261,689.485948
277.339334,-444.123565,-4293.194464,-2911.162892
277.339655,-3330.926739,-4071.132681,-5056.230287
277.339977,-6661.853478,-6883.915261,-2757.943793
277.340299,-7624.121203,-9622.677246,919.314598
277.340620,-8216.285956,-10140.821405,2681.334243
277.340942,-7105.977043,-10584.944971,2068.457845
277.341263,-5107.421000,-11029.068536,0.000000
277.341585,-4367.215058,-9770.718434,-1532.190996
277.341906,-4071.132681,-7105.977043,-2374.896044
277.342228,-2664.741391,-6735.874072,-3524.039291
277.342550,0.000000,-9030.512492,-4366.744339
277.342872,3108.864956,-11177.109724,-4366.744339
277.343193,5995.668130,-13545.768739,-4136.915689
277.343515,9326.594869,-15544.324782,-4366.744339
277.343837,11695.253884,-15322.262999,-3294.210641
277.344159,10362.883188,-13101.645173,-1072.533697
277.344480,5847.626942,-9252.574275,766.095498
277.344802,1036.288319,-4737.318029,76.609550
277.345124,-1850.514855,-3034.844362,-3677.258390
277.345446,-5033.400406,-4811.338623,-6128.763984
277.345767,-8438.347739,-8660.409521,-3370.820191
277.346089,-11251.130318,-11917.315666,2604.724693
277.346411,-11399.171507,-12879.583391,4519.963438
277.346733,-9252.574275,-12139.377449,2757.943793
277.347054,-5995.668130,-10362.883188,-306.438199
277.347376,-4589.276840,-7624.121203,-2374.896044
277.347698,-4293.194464,-5255.462188,-2604.724693
277.348020,-3108.864956,-4737.318029,-1838.629195
277.348341,888.247130,-5773.606348,-1915.238745
277.348663,5181.441594,-8512.368333,-4136.915689
277.348985,8068.244768,-13175.665768,-5056.230287
277.349307,9622.677246,-15100.201217,-2987.772442
277.349628,9770.718434,-13693.809927,-842.705048
277.349950,7920.203579,-10807.006753,1225.752797
277.350272,4885.359217,-8438.347739,1915.238745
277.350594,1406.391290,-4663.297435,-153.219100
277.350915,-1702.473667,-2220.617826,-4213.525239
277.351237,-3997.112087,-4959.379811,-4903.011187
277.351559,-5847.626942,-8438.347739,-306.438199
277.351881,-7772.162391,-9474.636058,4443.353888
277.352202,-7846.182985,-11473.192101,3907.087040
277.352524,-5551.544565,-11251.130318,1762.019645
277.352846,-4145.153275,-10732.986159,-766.095498
277.353168,-3775.050304,-9474.636058,-2221.676944
277.353489,-2960.823768,-7772.162391,-1838.629195
277.353811,-370.102971,-6809.894666,-2451.505594
277.354133,3034.844362,-8290.306550,-4290.134789
277.354455,6217.729913,-11769.274478,-2834.553343
277.354776,7550.100608,-14211.954086,-2068.457845
277.355098,8216.285956,-13545.768739,-2451.505594
277.355420,9252.574275,-13249.686362,-2757.943793
277.355741,8512.368333,-12287.418637,-1225.752797
277.356063,4219.173869,-9400.615463,-229.828649
277.356385,-1110.308913,-5773.606348,-536.266849
277.356707,-4293.194464,-4515.256246,-1532.190996
277.357028,-6143.709319,-5995.668130,-3753.867940
277.357350,-8660.409521,-8956.491898,-2987.772442
277.357672,-11473.192101,-11695.253884,1685.410096
277.357994,-12213.398043,-12805.562797,3907.087040
277.358315,-9844.739029,-12139.377449,2221.676944
277.358637,-6883.915261,-9474.636058,0.000000
277.358959,-4515.256246,-7105.977043,-2451.505594
277.359281,-3701.029710,-5181.441594,-3064.381992
277.359602,-1998.556043,-6809.894666,-3370.820191
277.359924,1406.391290,-8438.347739,-3064.381992
277.360246,4885.359217,-10066.800811,-3753.867940
277.360568,8068.244768,-13101.645173,-4749.792088
277.360889,9918.759623,-14063.912898,-3294.210641
277.361211,9474.636058,-12657.521608,-1608.800546
277.361533,7994.224174,-10362.883188,-229.828649
277.361855,5551.544565,-8364.327145,229.828649
277.362176,2516.700203,-5773.606348,-459.657299
277.362498,-814.226536,-4811.338623,-2834.553343
277.362820,-3775.050304,-6069.688724,-2681.334243
277.363142,-4885.359217,-8364.327145,-612.876398
277.363463,-5255.462188,-9696.697840,1608.800546
277.363785,-5773.606348,-10066.800811,2068.457845
277.364107,-6587.832884,-10214.842000,2068.457845
277.364429,-6291.750507,-9326.594869,995.924147
277.364750,-5625.565159,-6513.812290,-1685.410096
277.365072,-3182.885551,-5995.668130,-5209.449386
277.365394,666.185348,-8290.306550,-6128.763984
277.365716,3256.906145,-11621.233289,-4213.525239
277.366037,5033.400406,-13471.748144,-1608.800546
277.366359,6587.832884,-13989.892304,-306.438199
277.366681,8882.471304,-14211.954086,-2068.457845
277.367003,9474.636058,-13175.665768,-3677.258390
277.367324,6439.791695,-10436.903782,-3064.381992
277.367646,1332.370696,-7624.121203,-919.314598
277.367968,-1776.494261,-5773.606348,-536.266849
277.368290,-2664.741391,-4885.359217,-1455.581446
277.368611,-4071.132681,-6809.894666,-1991.848295
277.368933,-7179.997637,-9178.553681,76.609550
277.369255,-8882.471304,-10955.047942,2528.115143
277.369577,-9178.553681,-11621.233289,2757.943793
277.369898,-7476.080014,-10658.965565,1378.971896
277.370220,-5107.421000,-8438.347739,-229.828649
277.370542,-3256.906145,-6513.812290,-2451.505594
277.370864,-1184.329507,-5773.606348,-3907.087040
277.371185,740.205942,-6513.812290,-3370.820191
277.371507,4219.173869,-8956.491898,-2604.724693
277.371829,6957.935855,-11843.295072,-2528.115143
277.372151,8660.409521,-13471.748144,-2987.772442
277.372472,9474.636058,-12509.480420,-3830.477490
277.372794,9474.636058,-10955.047942,-1608.800546
277.373116,6735.874072,-9548.656652,-842.705048
277.373438,2590.720797,-6587.832884,-306.438199
277.373759,-666.185348,-4441.235652,-919.314598
277.374081,-3108.864956,-5699.585753,-2681.334243
277.374403,-5477.523971,-8438.347739,-2451.505594
277.374725,-7476.080014,-10066.800811,612.876398
277.375046,-8734.430116,-10288.862594,2681.334243
277.375368,-8068.244768,-10362.883188,2068.457845
277.375690,-6735.874072,-10436.903782,0.000000
277.376012,-5107.421000,-8364.327145,-919.314598
277.376333,-3701.029710,-5625.565159,-2374.896044
277.376655,-1998.556043,-7254.018232,-4366.744339
277.376977,1406.391290,-10881.027347,-4060.306139
277.377299,3997.112087,-12805.562797,-2604.724693
277.377620,6291.750507,-14285.974681,-2987.772442
277.377942,9104.533087,-15470.304188,-3677.258390
277.378264,10362.883188,-14063.912898,-2987.772442
277.378586,8808.450710,-10881.027347,-2298.286494
277.378907,4219.173869,-8216.285956,-1532.190996
277.379229,518.144159,-6661.853478,-842.705048
277.379551,-2590.720797,-5033.400406,-1991.848295
277.379873,-5921.647536,-6069.688724,-3447.429741
277.380194,-8586.388927,-9030.512492,-1608.800546
277.380516,-10510.924376,-11251.130318,2374.896044
277.380838,-11251.130318,-11769.274478,3217.601092
277.381160,-9400.615463,-11473.192101,2604.724693
277.381481,-6883.915261,-9696.697840,306.438199
277.381803,-4663.297435,-7254.018232,-536.266849
277.382125,-3552.988522,-4811.338623,-1608.800546
277.382447,-1406.391290,-4737.318029,-2987.772442
277.382768,2220.617826,-6809.894666,-3447.429741
277.383090,5847.626942,-10066.800811,-3524.039291
277.383412,7328.038826,-12805.562797,-3600.648841
277.383734,8734.430116,-13989.892304,-2911.162892
277.384055,9104.533087,-13323.706956,-1455.581446
277.384377,6957.935855,-11325.150913,-153.219100
277.384699,3627.009116,-8438.347739,0.000000
277.385021,444.123565,-4367.215058,-1378.971896
277.385342,-1406.391290,-3478.967927,-3294.210641
277.385664,-3404.947333,-6365.771101,-3217.601092
277.385986,-5477.523971,-8660.409521,459.657299
277.386308,-6957.935855,-9252.574275,3983.696590
277.386629,-6365.771101,-10288.862594,2451.505594
277.386951,-5107.421000,-11695.253884,459.657299
277.387273,-4589.276840,-9474.636058,-459.657299
277.387595,-4441.235652,-5847.626942,-1532.190996
277.387916,-2664.741391,-5477.523971,-3370.820191
277.388238,740.205942,-8438.347739,-4060.306139
277.388560,3182.885551,-10881.027347,-4366.744339
277.388882,4367.215058,-13175.665768,-2528.115143
277.389203,5773.606348,-15248.242405,-1991.848295
277.389525,8068.244768,-15692.365970,-2834.553343
277.389847,8808.450710,-14063.912898,-3217.601092
277.390169,6217.729913,-10955.047942,-2451.505594
277.390490,1480.411884,-8290.306550,-306.438199
277.390812,-2072.576638,-6217.729913,-766.095498
277.391134,-4367.215058,-5181.441594,-2451.505594
277.391456,-5699.585753,-6809.894666,-3217.601092
277.391777,-7031.956449,-9104.533087,-612.876398
277.392099,-8068.244768,-11251.130318,2298.286494
277.392421,-8364.327145,-11547.212695,3753.867940
277.392743,-6883.915261,-9918.759623,2681.334243
277.393064,-4811.338623,-8364.327145,0.000000
277.393386,-3552.988522,-7179.997637,-2221.676944
277.393708,-2442.679609,-6661.853478,-3524.039291
277.394030,222.061783,-6735.874072,-4213.525239
277.394351,3775.050304,-9252.574275,-3064.381992
277.394673,7105.977043,-12509.480420,-1838.629195
277.394995,9252.574275,-12879.583391,-2145.067394
277.395317,10140.821405,-10732.986159,-2604.724693
277.395638,9400.615463,-10362.883188,-2451.505594
277.395960,5995.668130,-9548.656652,-1532.190996
277.396282,1776.494261,-6735.874072,-1225.752797
277.396604,-962.267725,-4737.318029,-1915.238745
277.396925,-2812.782580,-6217.729913,-2528.115143
277.397247,-4293.194464,-9622.677246,-1685.410096
277.397569,-6587.832884,-10362.883188,1225.752797
277.397891,-7179.997637,-9918.759623,2987.772442
277.398212,-6809.894666,-9474.636058,1762.019645
277.398534,-5477.523971,-9474.636058,153.219100
277.398856,-4737.318029,-7179.997637,-459.657299
277.399178,-3627.009116,-4811.338623,-2757.943793
277.399499,-296.082377,-6587.832884,-4979.620737
277.399821,2664.741391,-10955.047942,-4519.963438
277.400143,4219.173869,-14137.933492,-1915.238745
277.400465,4959.379811,-14211.954086,-1532.190996
277.400786,7476.080014,-14878.139434,-3217.601092
277.401108,9178.553681,-14063.912898,-4136.915689
277.401430,7550.100608,-11399.171507,-3600.648841
277.401752,2960.823768,-8882.471304,-2221.676944
277.402073,-740.205942,-6587.832884,-1225.752797
277.402395,-2812.782580,-5847.626942,-2451.505594
277.402717,-4515.256246,-7550.100608,-2757.943793
277.403039,-6735.874072,-9844.739029,-1685.410096
277.403360,-8364.327145,-11843.295072,1685.410096
277.403682,-9548.656652,-12065.356855,3217.601092
277.404004,-9326.594869,-9918.759623,2604.724693
277.404326,-7328.038826,-7402.059420,919.314598
277.404647,-5403.503377,-5699.585753,-2221.676944
277.404969,-3404.947333,-5329.482782,-4136.915689
277.405291,444.123565,-6661.853478,-4366.744339
277.405613,3923.091493,-8586.388927,-3370.820191
277.405934,7105.977043,-11769.274478,-1149.143247
277.406256,8216.285956,-13101.645173,-153.219100
277.406578,8438.347739,-11917.315666,-1991.848295
277.406900,7624.121203,-10214.842000,-3983.696590
277.407221,5403.503377,-9400.615463,-3753.867940
277.407543,2368.659014,-8586.388927,-2451.505594
277.407865,-222.061783,-5847.626942,-689.485948
277.408187,-1332.370696,-5033.400406,-919.314598
277.408508,-2072.576638,-7476.080014,-766.095498
277.408830,-3552.988522,-9918.759623,76.609550
277.409152,-5403.503377,-9548.656652,1762.019645
277.409474,-7698.141797,-9474.636058,2451.505594
277.409795,-8068.244768,-9622.677246,2068.457845
277.410117,-7105.977043,-8364.327145,-383.047749
277.410439,-5403.503377,-6587.832884,-3217.601092
277.410761,-1628.453072,-7031.956449,-4443.353888
277.411082,2516.700203,-9696.697840,-4596.572988
277.411404,5255.462188,-12805.562797,-2604.724693
277.411726,6809.894666,-14656.077652,229.828649
277.412048,7920.203579,-13915.871710,153.219100
277.412369,8734.430116,-12435.459826,-3524.039291
277.412691,7328.038826,-11029.068536,-4903.011187
277.413013,3552.988522,-9622.677246,-3294.210641
277.413335,-444.123565,-7624.121203,-1532.190996
277.413656,-2294.638420,-6513.812290,-1225.752797
277.413978,-3330.926739,-7105.977043,-842.705048
277.414300,-5107.421000,-9252.574275,153.219100
277.414622,-6513.812290,-10436.903782,1225.752797
277.414943,-8290.306550,-11029.068536,1915.238745
277.415265,-8882.471304,-10066.800811,1149.143247
277.415587,-9030.512492,-8438.347739,1072.533697
277.415909,-8142.265362,-6735.874072,76.609550
277.416230,-6513.812290,-5699.585753,-2834.553343
277.416552,-2664.741391,-7402.059420,-4826.401637
277.416874,1702.473667,-9622.677246,-4826.401637
277.417196,4959.379811,-12287.418637,-3140.991542
277.417517,7476.080014,-13471.748144,-459.657299
277.417839,8956.491898,-11473.192101,306.438199
277.418161,9696.697840,-9400.615463,-2145.067394
277.418483,9030.512492,-7772.162391,-3983.696590
277.418804,5403.503377,-7402.059420,-3447.429741
277.419126,1110.308913,-6439.791695,-1302.362347
277.419448,-1480.411884,-5477.523971,306.438199
277.419770,-2516.700203,-6587.832884,-766.095498
277.420091,-2664.741391,-9474.636058,-919.314598
277.420413,-3627.009116,-11621.233289,536.266849
277.420735,-5921.647536,-10955.047942,2528.115143
277.421057,-7105.977043,-8956.491898,2681.334243
277.421378,-6069.688724,-7550.100608,689.485948
277.421700,-5477.523971,-6661.853478,-2834.553343
277.422022,-4293.194464,-6957.935855,-4749.792088
277.422344,-1406.391290,-9178.553681,-4826.401637
277.422665,1924.535449,-12287.418637,-4136.915689
277.422987,4737.318029,-14359.995275,-2757.943793
277.423309,7105.977043,-14730.098246,-612.876398
277.423631,7920.203579,-13101.645173,-1455.581446
277.423952,7624.121203,-11547.212695,-4060.306139
277.424274,5625.565159,-10436.903782,-4749.792088
277.424596,2072.576638,-8734.430116,-3600.648841
277.424918,-1554.432478,-6957.935855,-2451.505594
277.425239,-3404.947333,-7328.038826,-995.924147
277.425561,-4441.235652,-9252.574275,-536.266849
277.425883,-5773.606348,-9918.759623,229.828649
277.426205,-6291.750507,-10362.883188,1225.752797
277.426526,-6809.894666,-10140.821405,1762.019645
277.426848,-6587.832884,-8808.450710,1685.410096
277.427170,-6883.915261,-7550.100608,995.924147
277.427492,-6291.750507,-6587.832884,-995.924147
277.427813,-3330.926739,-7031.956449,-3753.867940
277.428135,740.205942,-7994.224174,-4903.011187
277.428457,3923.091493,-11029.068536,-4826.401637
277.428779,6513.812290,-12287.418637,-1915.238745
277.429100,8956.491898,-12065.356855,459.657299
277.429422,10214.842000,-10732.986159,-995.924147
277.429744,9548.656652,-9252.574275,-3294.210641
277.430066,6735.874072,-7179.997637,-2987.772442
277.430387,2368.659014,-7105.977043,-2068.457845
277.430709,-1628.453072,-5773.606348,-1072.533697
277.431031,-3552.988522,-5403.503377,-1072.533697
277.431353,-3997.112087,-7179.997637,-995.924147
277.431674,-4589.276840,-10288.862594,-229.828649
277.431996,-5847.626942,-11843.295072,2068.457845
277.432318,-7920.203579,-10881.027347,2757.943793
277.432640,-7994.224174,-7920.203579,2145.067394
277.432961,-6809.894666,-5773.606348,-1225.752797
277.433283,-5403.503377,-5477.523971,-4366.744339
277.433605,-3034.844362,-6661.853478,-5898.935335
277.433927,74.020594,-10436.903782,-5822.325785
277.434248,3404.947333,-14359.995275,-4366.744339
277.434570,6365.771101,-16950.716072,-1378.971896
277.434892,8734.430116,-15840.407159,0.000000
277.435214,9178.553681,-11843.295072,-1455.581446
277.435535,8512.368333,-10214.842000,-4060.306139
277.435857,5921.647536,-8956.491898,-3753.867940
277.436179,2442.679609,-7105.977043,-2757.943793
277.436501,-962.267725,-5625.565159,-1915.238745
277.436822,-2738.761985,-7476.080014,-383.047749
277.437144,-4219.173869,-10732.986159,1072.533697
277.437466,-6365.771101,-12139.377449,2298.286494
277.437788,-7920.203579,-11473.192101,2068.457845
277.438109,-7994.224174,-10288.862594,1685.410096
277.438431,-7476.080014,-8216.285956,1072.533697
277.438753,-7550.100608,-5995.668130,0.000000
277.439075,-6069.688724,-4441.235652,-1532.190996
277.439396,-3108.864956,-5403.503377,-3830.477490
277.439718,518.144159,-8956.491898,-4979.620737
277.440040,3108.864956,-11399.171507,-4136.915689
277.440362,5329.482782,-13027.624579,-2068.457845
277.440683,7105.977043,-13397.727550,-1302.362347
277.441005,8956.491898,-12509.480420,-2374.896044
277.441327,8142.265362,-10436.903782,-3524.039291
277.441649,5255.462188,-7846.182985,-2528.115143
277.441970,1702.473667,-5477.523971,-1149.143247
277.442292,-1036.288319,-4737.318029,-1608.800546
277.442614,-2146.597232,-6735.874072,-1685.410096
277.442936,-3182.885551,-9178.553681,-229.828649
277.443258,-4885.359217,-10881.027347,2145.067394
277.443580,-6143.709319,-10732.986159,3600.648841
277.443901,-6809.894666,-10140.821405,2911.162892
277.444223,-5995.668130,-7698.141797,919.314598
277.444545,-5107.421000,-5329.482782,-1225.752797
277.444867,-3997.112087,-4515.256246,-3294.210641
277.445189,-592.164754,-7105.977043,-4443.353888
277.445511,3330.926739,-11843.295072,-4136.915689
277.445833,5255.462188,-15396.283594,-2604.724693
277.446154,7254.018232,-16136.489536,306.438199
277.446476,9178.553681,-14730.098246,153.219100
277.446798,9622.677246,-12509.480420,-3294.210641
277.447120,7994.224174,-10436.903782,-4290.134789
277.447442,3849.070898,-8512.368333,-3907.087040
277.447764,-1406.391290,-7179.997637,-2374.896044
277.448085,-5255.462188,-7031.956449,-919.314598
277.448407,-7105.977043,-7698.141797,-536.266849
277.448729,-8808.450710,-9104.533087,-689.485948
277.449051,-9918.759623,-10732.986159,995.924147
277.449373,-10436.903782,-10584.944971,1455.581446
277.449695,-9622.677246,-8290.306550,1378.971896
277.450017,-7994.224174,-6439.791695,459.657299
277.450338,-6735.874072,-6143.709319,-766.095498
277.450660,-5699.585753,-7105.977043,-2451.505594
277.450982,-3108.864956,-7328.038826,-3447.429741
277.451304,296.082377,-8808.450710,-4596.572988
277.451626,4737.318029,-10807.006753,-4213.525239
277.451948,9104.533087,-12953.603985,-2834.553343
277.452269,11621.233289,-12583.501014,-2451.505594
277.452591,12657.521608,-10510.924376,-2221.676944
277.452913,11769.274478,-8956.491898,-612.876398
277.453235,7476.080014,-7920.203579,-229.828649
277.453557,2812.782580,-6217.729913,-1532.190996
277.453879,-740.205942,-5625.565159,-2528.115143
277.454201,-3034.844362,-7624.121203,-2604.724693
277.454522,-4367.215058,-10140.821405,-459.657299
277.454844,-5329.482782,-11103.089130,2221.676944
277.455166,-6143.709319,-11029.068536,2911.162892
277.455488,-6069.688724,-9178.553681,2681.334243
277.455810,-5551.544565,-6735.874072,459.657299
277.456132,-4737.318029,-4959.379811,-3064.381992
277.456453,-2442.679609,-5625.565159,-5286.058936
277.456775,1036.288319,-8956.491898,-5822.325785
277.457097,3404.947333,-13545.768739,-5056.230287
277.457419,5107.421000,-16654.633695,-1302.362347
277.457741,6957.935855,-15840.407159,689.485948
277.458063,9178.553681,-13915.871710,-2374.896044
277.458385,9178.553681,-11843.295072,-5515.887586
277.458706,6735.874072,-10214.842000,-4903.011187
277.459028,1406.391290,-8734.430116,-2911.162892
277.459350,-2368.659014,-6661.853478,-1302.362347
277.459672,-4145.153275,-6069.688724,-612.876398
277.459994,-5107.421000,-8068.244768,-1225.752797
277.460316,-7179.997637,-10881.027347,-689.485948
277.460638,-9474.636058,-12435.459826,1608.800546
277.460959,-9918.759623,-11473.192101,3064.381992
277.461281,-8438.347739,-8512.368333,2451.505594
277.461603,-5699.585753,-6069.688724,995.924147
277.461925,-4219.173869,-3775.050304,-2374.896044
277.462247,-2072.576638,-4589.276840,-4136.915689
277.462569,1258.350101,-7772.162391,-3830.477490
277.462890,4293.194464,-10807.006753,-2911.162892
277.463212,6957.935855,-11769.274478,-1455.581446
277.463534,8956.491898,-12509.480420,-1149.143247
277.463856,9918.759623,-12731.542202,-2298.286494
277.464178,9400.615463,-10955.047942,-2834.553343
277.464500,5921.647536,-9104.533087,-2451.505594
277.464822,1628.453072,-7105.977043,-612.876398
277.465143,-2368.659014,-4589.276840,-153.219100
277.465465,-4737.318029,-4737.318029,-1302.362347
277.465787,-6365.771101,-7179.997637,-1762.019645
277.466109,-6735.874072,-10584.944971,383.047749
277.466431,-7550.100608,-11251.130318,2834.553343
277.466753,-7698.141797,-9696.697840,3370.820191
277.467074,-7328.038826,-8438.347739,2451.505594
277.467396,-6513.812290,-6069.688724,76.609550
277.467718,-4811.338623,-4293.194464,-3907.087040
277.468040,-2442.679609,-5995.668130,-6358.592633
277.468362,1480.411884,-11029.068536,-5898.935335
277.468684,3701.029710,-13915.871710,-2911.162892
277.469006,5403.503377,-14952.160028,-459.657299
277.469327,7254.018232,-16358.551318,-995.924147
277.469649,8956.491898,-15618.345376,-2987.772442
277.469971,7920.203579,-11399.171507,-4213.525239
277.470293,3849.070898,-9030.512492,-4060.306139
277.470615,0.000000,-7994.224174,-1915.238745
277.470937,-2590.720797,-7105.977043,-536.266849
277.471258,-4737.318029,-7624.121203,-766.095498
277.471580,-6587.832884,-8882.471304,383.047749
277.471902,-7698.141797,-10732.986159,1915.238745
277.472224,-8364.327145,-10658.965565,2068.457845
277.472546,-8068.244768,-9178.553681,1072.533697
277.472868,-6883.915261,-7476.080014,1302.362347
277.473190,-5699.585753,-5921.647536,536.266849
277.473511,-3997.112087,-5699.585753,-1685.410096
277.473833,-1554.432478,-6809.894666,-4826.401637
277.474155,1776.494261,-8734.430116,-5439.278036
277.474477,4885.359217,-11547.212695,-4060.306139
277.474799,7402.059420,-14137.933492,-1991.848295
277.475121,8660.409521,-12657.521608,-842.705048
277.475442,9918.759623,-10807.006753,-2068.457845
277.475764,8512.368333,-9474.636058,-2834.553343
277.476086,4515.256246,-8438.347739,-2298.286494
277.476408,296.082377,-6587.832884,-2221.676944
277.476730,-2146.597232,-5033.400406,-1838.629195
277.477052,-2812.782580,-6957.935855,-1302.362347
277.477374,-3256.906145,-9474.636058,842.705048
277.477695,-4145.153275,-9770.718434,2604.724693
277.478017,-5773.606348,-9622.677246,3140.991542
277.478339,-5921.647536,-8438.347739,3294.210641
277.478661,-5255.462188,-6587.832884,842.705048
277.478983,-4737.318029,-5551.544565,-2528.115143
277.479305,-2220.617826,-6365.771101,-4979.620737
277.479626,1998.556043,-8734.430116,-5209.449386
277.479948,5107.421000,-11991.336260,-3983.696590
277.480270,7402.059420,-15100.201217,-612.876398
277.480592,8734.430116,-15766.386565,153.219100
277.480914,8364.327145,-13693.809927,-2145.067394
277.481236,7698.141797,-12065.356855,-5209.449386
277.481558,4885.359217,-11843.295072,-4826.401637
277.481879,0.000000,-10140.821405,-3677.258390
277.482201,-3478.967927,-7254.018232,-1838.629195
277.482523,-4885.359217,-6069.688724,-306.438199
277.482845,-5477.523971,-7920.203579,0.000000
277.483167,-6957.935855,-9770.718434,306.438199
277.483489,-8586.388927,-10658.965565,766.095498
277.483810,-8808.450710,-9992.780217,1838.629195
277.484132,-7920.203579,-8438.347739,1991.848295
277.484454,-7476.080014,-6883.915261,1378.971896
277.484776,-6143.709319,-5477.523971,-919.314598
277.485098,-2886.803174,-6291.750507,-4366.744339
277.485420,814.226536,-8808.450710,-5822.325785
277.485742,4219.173869,-11399.171507,-4366.744339
277.486063,6587.832884,-12435.459826,-1378.971896
277.486385,9178.553681,-12879.583391,-919.314598
277.486707,10510.924376,-11843.295072,-2221.676944
277.487029,10140.821405,-10066.800811,-3294.210641
277.487351,6143.709319,-8512.368333,-3600.648841
277.487673,1850.514855,-7550.100608,-1225.752797
277.487994,-1554.432478,-6217.729913,0.000000
277.488316,-3478.967927,-6069.688724,-766.095498
277.488638,-4071.132681,-7994.224174,-459.657299
277.488960,-4219.173869,-9918.759623,1225.752797
277.489282,-5403.503377,-9918.759623,1762.019645
277.489604,-6957.935855,-9178.553681,2451.505594
277.489926,-7254.018232,-7105.977043,2987.772442
277.490247,-6513.812290,-5033.400406,-229.828649
277.490569,-3923.091493,-5477.523971,-4903.011187
277.490891,-518.144159,-6957.935855,-6818.249932
277.491213,2442.679609,-10955.047942,-6052.154434
277.491535,4515.256246,-15100.201217,-2681.334243
277.491857,6143.709319,-16728.654289,1149.143247
277.492178,7476.080014,-14656.077652,306.438199
277.492500,7698.141797,-11991.336260,-4366.744339
277.492822,6809.894666,-10436.903782,-6358.592633
277.493144,2960.823768,-9696.697840,-4443.353888
277.493466,-1110.308913,-7179.997637,-2374.896044
277.493788,-3108.864956,-5477.523971,-459.657299
277.494110,-3701.029710,-7031.956449,995.924147
277.494431,-4885.359217,-10510.924376,76.609550
277.494753,-7624.121203,-11547.212695,766.095498
277.495075,-9474.636058,-10881.027347,1991.848295
277.495397,-9252.574275,-8808.450710,2068.457845
277.495719,-7328.038826,-6513.812290,1149.143247
277.496041,-5773.606348,-5181.441594,-1302.362347
277.496363,-3849.070898,-5107.421000,-3217.601092
277.496684,-666.185348,-7476.080014,-4749.792088
277.497006,3256.906145,-10807.006753,-4443.353888
277.497328,5773.606348,-12435.459826,-3217.601092
277.497650,7772.162391,-13619.789333,-1302.362347
277.497972,9104.533087,-13101.645173,-1915.238745
277.498294,9104.533087,-11695.253884,-3140.991542
277.498615,7179.997637,-10140.821405,-3983.696590
277.498937,3108.864956,-8290.306550,-2451.505594
277.499259,-1110.308913,-5477.523971,-459.657299
277.499581,-3478.967927,-3478.967927,-306.438199
277.499903,-3552.988522,-6143.709319,-1762.019645
277.500225,-3923.091493,-9474.636058,-459.657299
277.500547,-4663.297435,-10732.986159,1532.190996
277.500868,-5995.668130,-10288.862594,2528.115143
277.501190,-6735.874072,-9252.574275,3370.820191
277.501512,-6439.791695,-7031.956449,1685.410096
277.501834,-5477.523971,-5255.462188,-2604.724693
277.502156,-3108.864956,-5551.544565,-5822.325785
277.502478,1776.494261,-8882.471304,-6588.421283
277.502799,4737.318029,-13397.727550,-4519.963438
277.503121,5995.668130,-16062.468941,-229.828649
277.503443,7254.018232,-15248.242405,2374.896044
277.503765,8364.327145,-12879.583391,-995.924147
277.504087,8142.265362,-11547.212695,-5515.887586
277.504409,5181.441594,-10732.986159,-5745.716235
277.504731,888.247130,-8882.471304,-2987.772442
277.505052,-2812.782580,-6735.874072,-766.095498
277.505374,-3627.009116,-7328.038826,1149.143247
277.505696,-4071.132681,-8808.450710,1149.143247
277.506018,-5625.565159,-9770.718434,995.924147
277.506340,-7105.977043,-9622.677246,1455.581446
277.506662,-6957.935855,-9474.636058,1915.238745
277.506983,-6661.853478,-8364.327145,1915.238745
277.507305,-6735.874072,-6365.771101,1455.581446
277.507627,-5699.585753,-6143.709319,-612.876398
277.507949,-3330.926739,-7179.997637,-3983.696590
277.508271,0.000000,-8586.388927,-5592.497135
277.508593,2294.638420,-10288.862594,-4060.306139
277.508915,4515.256246,-12435.459826,-2221.676944
277.509236,6883.915261,-13249.686362,-766.095498
277.509558,7994.224174,-11843.295072,-2451.505594
277.509880,8068.244768,-10288.862594,-3753.867940
277.510202,6513.812290,-8142.265362,-2528.115143
277.510524,2664.741391,-6439.791695,-1838.629195
277.510846,0.000000,-5551.544565,-1608.800546
277.511167,-1702.473667,-7031.956449,-1149.143247
277.511489,-2368.659014,-9252.574275,-383.047749
277.511811,-3701.029710,-9548.656652,1838.629195
277.512133,-4515.256246,-9992.780217,2374.896044
277.512455,-5255.462188,-9400.615463,1608.800546
277.512777,-5329.482782,-8216.285956,1455.581446
277.513099,-5181.441594,-5995.668130,0.000000
277.513420,-3330.926739,-4885.359217,-2834.553343
277.513742,-148.041188,-6365.771101,-5669.106685
277.514064,3627.009116,-9992.780217,-5745.716235
277.514386,5625.565159,-14656.077652,-3753.867940
277.514708,6513.812290,-16136.489536,-689.485948
277.515030,7994.224174,-14582.057057,0.000000
277.515351,9030.512492,-13175.665768,-3600.648841
277.515673,8290.306550,-11325.150913,-5745.716235
277.515995,4515.256246,-9844.739029,-4749.792088
277.516317,-444.123565,-8068.244768,-3370.820191
277.516639,-2960.823768,-6957.935855,-1838.629195
277.516961,-3182.885551,-7920.203579,-995.924147
277.517283,-4811.338623,-9326.594869,-1072.533697
277.517604,-7105.977043,-11029.068536,153.219100
277.517926,-8808.450710,-11769.274478,1608.800546
277.518248,-9104.533087,-10214.842000,1685.410096
277.518570,-7624.121203,-6587.832884,1455.581446
277.518892,-6143.709319,-4737.318029,-1149.143247
277.519214,-4885.359217,-5033.400406,-3753.867940
277.519535,-1924.535449,-7254.018232,-4903.011187
277.519857,1332.370696,-9622.677246,-4136.915689
277.520179,4737.318029,-11473.192101,-2451.505594
277.520501,7920.203579,-12435.459826,-1455.581446
277.520823,9622.677246,-13471.748144,-1532.190996
277.521145,9992.780217,-12583.501014,-2604.724693
277.521467,7846.182985,-10732.986159,-2528.115143
277.521788,3775.050304,-9030.512492,-2221.676944
277.522110,-518.144159,-6513.812290,-842.705048
277.522432,-2738.761985,-4959.379811,-995.924147
277.522754,-4441.235652,-5995.668130,-1991.848295
277.523076,-5477.523971,-9104.533087,-536.266849
277.523398,-6439.791695,-10436.903782,2451.505594
277.523719,-7105.977043,-9770.718434,2911.162892
277.524041,-6217.729913,-8216.285956,1838.629195
277.524363,-5921.647536,-7550.100608,689.485948
277.524685,-6291.750507,-5699.585753,-536.266849
277.525007,-5181.441594,-4737.318029,-2757.943793
277.525329,-2072.576638,-6883.915261,-5286.058936
277.525651,1702.473667,-12287.418637,-5056.230287
277.525972,3627.009116,-15396.283594,-2298.286494
277.526294,4367.215058,-15544.324782,0.000000
277.526616,6439.791695,-14804.118840,-612.876398
277.526938,8216.285956,-13249.686362,-2451.505594
277.527260,7105.977043,-10288.862594,-3600.648841
277.527582,3034.844362,-7328.038826,-3294.210641
277.527903,-444.123565,-7031.956449,-1302.362347
277.528225,-2146.597232,-7328.038826,-153.219100
277.528547,-3849.070898,-8290.306550,76.609550
277.528869,-5699.585753,-9178.553681,919.314598
277.529191,-6809.894666,-10066.800811,2681.334243
277.529513,-7402.059420,-10732.986159,2068.457845
277.529835,-7550.100608,-9474.636058,1532.190996
277.530156,-6957.935855,-6587.832884,1149.143247
277.530478,-5255.462188,-5329.482782,-1455.581446
277.530800,-3182.885551,-5329.482782,-3447.429741
277.531122,-296.082377,-6291.750507,-4060.306139
277.531444,2738.761985,-8808.450710,-4060.306139
277.531766,5181.441594,-12657.521608,-2451.505594
277.532088,7105.977043,-13841.851115,-1608.800546
277.532409,8438.347739,-12361.439231,-3370.820191
277.532731,8364.327145,-11621.233289,-2911.162892
277.533053,6365.771101,-10362.883188,-1608.800546
277.533375,2220.617826,-6957.935855,-1378.971896
277.533697,-592.164754,-4145.153275,-2528.115143
277.534019,-1332.370696,-4737.318029,-2451.505594
277.534340,-2072.576638,-8142.265362,-1685.410096
277.534662,-3404.947333,-10362.883188,0.000000
277.534984,-4737.318029,-10881.027347,2145.067394
277.535306,-5403.503377,-10807.006753,2528.115143
277.535628,-5329.482782,-9326.594869,2451.505594
277.535950,-5477.523971,-5921.647536,76.609550
277.536272,-4737.318029,-5329.482782,-3907.087040
277.536593,-666.185348,-7550.100608,-6665.030833
277.536915,3997.112087,-11177.109724,-5975.544884
277.537237,6069.688724,-14137.933492,-3064.381992
277.537559,7624.121203,-14804.118840,2068.457845
277.537881,8586.388927,-12731.542202,1225.752797
277.538203,8882.471304,-12361.439231,-3600.648841
277.538524,7624.121203,-11473.192101,-6281.983084
277.538846,4441.235652,-11103.089130,-5056.230287
277.539168,-888.247130,-8956.491898,-3600.648841
277.539490,-3256.906145,-6809.894666,-612.876398
277.539812,-4071.132681,-6513.812290,1072.533697
277.540134,-4959.379811,-7772.162391,-153.219100
277.540456,-7254.018232,-8956.491898,-842.705048
277.540777,-9400.615463,-10658.965565,0.000000
277.541099,-9622.677246,-10584.944971,1302.362347
277.541421,-8364.327145,-9104.533087,1072.533697
277.541743,-7328.038826,-7105.977043,153.219100
277.542070,-5699.585753,-6291.750507,-1608.800546
277.542392,-2812.782580,-6217.729913,-3217.601092
277.542713,0.000000,-7476.080014,-4903.011187
277.543035,3182.885551,-10140.821405,-4443.353888
277.543357,5107.421000,-11917.315666,-1762.019645
277.543679,7846.182985,-12287.418637,-1378.971896
277.544001,9474.636058,-11917.315666,-2451.505594
277.544323,9178.553681,-11029.068536,-2145.067394
277.544645,6439.791695,-8660.409521,-842.705048
277.544966,2146.597232,-5773.606348,-995.924147
277.545288,-1406.391290,-5847.626942,-1532.190996
277.545610,-3034.844362,-7624.121203,-1225.752797
277.545932,-3997.112087,-8808.450710,-536.266849
277.546254,-4219.173869,-9622.677246,1455.581446
277.546576,-4589.276840,-10436.903782,2911.162892
277.546897,-4515.256246,-9844.739029,2374.896044
277.547219,-5033.400406,-7920.203579,995.924147
277.547541,-5773.606348,-5033.400406,153.219100
277.547863,-4367.215058,-4515.256246,-2987.772442
277.548185,-888.247130,-7994.224174,-6741.640382
277.548507,1628.453072,-12435.459826,-6128.763984
277.548829,2664.741391,-15100.201217,-2068.457845
277.549150,3256.906145,-14804.118840,919.314598
277.549472,5329.482782,-14211.954086,-536.266849
277.549794,6957.935855,-12509.480420,-3447.429741
277.550116,6143.709319,-9770.718434,-5362.668486
277.550438,2812.782580,-7328.038826,-3983.696590
277.550760,0.000000,-6957.935855,-2145.067394
277.551082,-1628.453072,-7254.018232,-383.047749
277.551403,-3182.885551,-8660.409521,306.438199
277.551725,-4663.297435,-10140.821405,1072.533697
277.552047,-6809.894666,-10807.006753,1072.533697
277.552369,-6809.894666,-11103.089130,1302.362347
277.552691,-6661.853478,-10066.800811,1915.238745
277.553013,-6217.729913,-7254.018232,2068.457845
277.553334,-4959.379811,-5107.421000,153.219100
277.553656,-2368.659014,-5329.482782,-3217.601092
277.553978,518.144159,-6587.832884,-5209.449386
277.554300,2886.803174,-8216.285956,-4749.792088
277.554622,4737.318029,-11029.068536,-2298.286494
277.554944,6365.771101,-13323.706956,-612.876398
277.555266,7254.018232,-13841.851115,-2451.505594
277.555587,6957.935855,-11917.315666,-3140.991542
277.555909,4589.276840,-9770.718434,-2221.676944
277.556231,444.123565,-7179.997637,-2298.286494
277.556553,-2220.617826,-4885.359217,-3217.601092
277.556875,-3552.988522,-5107.421000,-2681.334243
277.557197,-4145.153275,-7698.141797,-1072.533697
277.557518,-4737.318029,-10658.965565,0.000000
277.557840,-4811.338623,-11399.171507,1149.143247
277.558162,-5477.523971,-10584.944971,1608.800546
277.558484,-5625.565159,-8364.327145,2681.334243
277.558806,-5921.647536,-5625.565159,1072.533697
277.559128,-4811.338623,-5477.523971,-3140.991542
277.559450,-592.164754,-7031.956449,-6281.983084
277.559771,3775.050304,-10288.862594,-6052.154434
277.560093,5699.585753,-13619.789333,-2604.724693
277.560415,6957.935855,-15396.283594,1991.848295
277.560737,8438.347739,-13249.686362,2298.286494
277.561059,9400.615463,-11769.274478,-2987.772442
277.561381,8956.491898,-11843.295072,-6435.202183
277.561703,4959.379811,-11843.295072,-4366.744339
277.562024,-370.102971,-8586.388927,-1762.019645
277.562346,-3923.091493,-5551.544565,0.000000
277.562668,-3997.112087,-6439.791695,306.438199
277.562990,-4737.318029,-8808.450710,-689.485948
277.563312,-7772.162391,-10066.800811,-1378.971896
277.563634,-9696.697840,-10140.821405,-229.828649
277.563955,-8882.471304,-10807.006753,536.266849
277.564277,-7698.141797,-10066.800811,1225.752797
277.564599,-7105.977043,-7105.977043,536.266849
277.564921,-5847.626942,-5699.585753,-1225.752797
277.565243,-2664.741391,-6809.894666,-4060.306139
277.565565,814.226536,-9474.636058,-4903.011187
277.565887,3701.029710,-10658.965565,-3294.210641
277.566208,5699.585753,-10881.027347,-689.485948
277.566530,8882.471304,-11917.315666,-536.266849
277.566852,11325.150913,-11843.295072,-1991.848295
277.567174,11103.089130,-9326.594869,-2451.505594
277.567496,7031.956449,-6809.894666,-2068.457845
277.567818,2442.679609,-6069.688724,-306.438199
277.568140,-1110.308913,-6809.894666,0.000000
277.568461,-3627.009116,-7624.121203,-1149.143247
277.568783,-4811.338623,-9622.677246,-1455.581446
277.569105,-5329.482782,-11473.192101,919.314598
277.569427,-5921.647536,-11251.130318,1915.238745
277.569749,-6291.750507,-9252.574275,1532.190996
277.570071,-6439.791695,-7550.100608,383.047749
277.570392,-5551.544565,-5181.441594,-229.828649
277.570714,-4145.153275,-4515.256246,-3524.039291
277.571036,-1258.350101,-8586.388927,-7048.078582
277.571358,1628.453072,-12435.459826,-4979.620737
277.571680,3849.070898,-14359.995275,-1532.190996
277.572002,5255.462188,-14211.954086,-612.876398
277.572324,7476.080014,-14285.974681,-1838.629195
277.572645,9326.594869,-12953.603985,-4060.306139
277.572967,7994.224174,-9844.739029,-4979.620737
277.573289,4071.132681,-7772.162391,-3830.477490
277.573611,518.144159,-7179.997637,-1072.533697
277.573933,-1850.514855,-6809.894666,-229.828649
277.574255,-4367.215058,-7179.997637,-919.314598
277.574577,-6661.853478,-9400.615463,-919.314598
277.574898,-7846.182985,-10881.027347,229.828649
277.575220,-7624.121203,-11769.274478,383.047749
277.575542,-7550.100608,-10362.883188,1072.533697
277.575864,-6809.894666,-7402.059420,2451.505594
277.576186,-5699.585753,-4737.318029,689.485948
277.576508,-3330.926739,-4885.359217,-3294.210641
277.576829,0.000000,-6883.915261,-6511.811733
277.577151,2886.803174,-9474.636058,-5209.449386
277.577473,4663.297435,-11769.274478,-1838.629195
277.577795,6439.791695,-12139.377449,153.219100
277.578117,7920.203579,-12287.418637,-1302.362347
277.578439,9326.594869,-11325.150913,-3447.429741
277.578761,7476.080014,-9770.718434,-3983.696590
277.579082,3182.885551,-8364.327145,-3294.210641
277.579404,-296.082377,-6513.812290,-1302.362347
277.579726,-1702.473667,-5995.668130,-383.047749
277.580048,-2812.782580,-7994.224174,76.609550
277.580370,-4219.173869,-9992.780217,766.095498
277.580692,-5551.544565,-10214.842000,995.924147
277.581013,-6291.750507,-10066.800811,536.266849
277.581335,-6957.935855,-8734.430116,1149.143247
277.581657,-6587.832884,-6735.874072,1455.581446
277.581979,-5551.544565,-5255.462188,-995.924147
277.582301,-2812.782580,-6365.771101,-4826.401637
277.582623,1110.308913,-10140.821405,-6128.763984
277.582945,3108.864956,-13397.727550,-3677.258390
277.583266,3552.988522,-15396.283594,-383.047749
277.583588,4737.318029,-14878.139434,229.828649
277.583910,6809.894666,-12879.583391,-1991.848295
277.584232,8364.327145,-11177.109724,-4749.792088
277.584554,6513.812290,-9548.656652,-4596.572988
277.584876,2072.576638,-8290.306550,-2298.286494
277.585198,-592.164754,-7772.162391,-153.219100
277.585519,-2442.679609,-8142.265362,1149.143247
277.585841,-4441.235652,-9474.636058,919.314598
277.586163,-6957.935855,-9992.780217,76.609550
277.586485,-8290.306550,-9104.533087,689.485948
277.586807,-7772.162391,-9252.574275,383.047749
277.587129,-7328.038826,-8142.265362,1378.971896
277.587450,-6809.894666,-6439.791695,1915.238745
277.587772,-5107.421000,-5551.544565,-153.219100
277.588094,-2294.638420,-6439.791695,-3294.210641
277.588416,1480.411884,-7402.059420,-4366.744339
277.588738,3330.926739,-10214.842000,-3217.601092
277.589060,5329.482782,-11991.336260,-1455.581446
277.589382,7179.997637,-12361.439231,-1149.143247
277.589703,8808.450710,-11103.089130,-2604.724693
277.590025,8216.285956,-10066.800811,-2528.115143
277.590347,5477.523971,-8586.388927,-1762.019645
277.590669,814.226536,-5477.523971,-766.095498
277.590991,-2146.597232,-4589.276840,-1378.971896
277.591313,-3627.009116,-6661.853478,-1455.581446
277.591635,-4663.297435,-9030.512492,-919.314598
277.591956,-6143.709319,-9992.780217,-459.657299
277.592278,-6513.812290,-10510.924376,689.485948
277.592600,-6439.791695,-11473.192101,842.705048
277.592922,-6069.688724,-9474.636058,1378.971896
277.593244,-5699.585753,-5921.647536,0.000000
277.593566,-3627.009116,-4811.338623,-2834.553343
277.593887,222.061783,-7624.121203,-6741.640382
277.594209,4219.173869,-11843.295072,-6128.763984
277.594531,5477.523971,-13989.892304,-2451.505594
277.594853,6661.853478,-13323.706956,842.705048
277.595175,8882.471304,-12953.603985,-536.266849
277.595497,10584.944971,-13471.748144,-4443.353888
277.595819,9178.553681,-12065.356855,-6052.154434
277.596140,4145.153275,-10362.883188,-3983.696590
277.596462,-888.247130,-8216.285956,-1225.752797
277.596784,-3182.885551,-7105.977043,383.047749
277.597106,-4293.194464,-6513.812290,-689.485948
277.597428,-7031.956449,-8216.285956,-2068.457845
277.597750,-9326.594869,-9918.759623,-766.095498
277.598071,-10510.924376,-10732.986159,0.000000
277.598393,-9178.553681,-10288.862594,-306.438199
277.598715,-6883.915261,-8512.368333,689.485948
277.599037,-5033.400406,-7328.038826,0.000000
277.599359,-3552.988522,-6957.935855,-2451.505594
277.599681,-370.102971,-7254.018232,-4673.182538
277.600003,2738.761985,-8882.471304,-4749.792088
277.600324,6439.791695,-10140.821405,-2911.162892
277.600646,7994.224174,-11769.274478,-1532.190996
277.600968,10288.862594,-12435.459826,-1838.629195
277.601290,11843.295072,-12509.480420,-2374.896044
277.601612,10288.862594,-10807.006753,-1532.190996
277.601934,6291.750507,-7476.080014,-1072.533697
277.602256,1850.514855,-5995.668130,-612.876398
277.602577,-962.267725,-5995.668130,-1072.533697
277.602899,-3627.009116,-7328.038826,-1838.629195
277.603221,-5699.585753,-8808.450710,-612.876398
277.603543,-6513.812290,-11029.068536,1149.143247
277.603865,-6809.894666,-12287.418637,1532.190996
277.604187,-6883.915261,-10658.965565,1685.410096
277.604508,-6661.853478,-6291.750507,1838.629195
277.604830,-5551.544565,-4071.132681,-689.485948
277.605152,-2664.741391,-5255.462188,-4826.401637
277.605474,740.205942,-8956.491898,-7124.688131
277.605796,2220.617826,-12805.562797,-4366.744339
277.606118,2442.679609,-13471.748144,383.047749
277.606440,4293.194464,-13471.748144,995.924147
277.606761,7476.080014,-13249.686362,-2604.724693
277.607083,9696.697840,-12731.542202,-5898.935335
277.607405,7550.100608,-10066.800811,-4903.011187
277.607727,2442.679609,-8438.347739,-1072.533697
277.608049,-1850.514855,-6883.915261,1685.410096
277.608371,-4219.173869,-6587.832884,919.314598
277.608693,-6365.771101,-7550.100608,-1762.019645
277.609014,-9030.512492,-9548.656652,-2604.724693
277.609336,-9770.718434,-11843.295072,-306.438199
277.609658,-9918.759623,-12361.439231,1915.238745
277.609980,-7328.038826,-10362.883188,3064.381992
277.610302,-4663.297435,-7254.018232,1838.629195
277.610624,-2664.741391,-4737.318029,-919.314598
277.610945,-740.205942,-5107.421000,-3830.477490
277.611267,1036.288319,-6291.750507,-4596.572988
277.611589,3182.885551,-8438.347739,-3524.039291
277.611911,6143.709319,-10732.986159,-2681.334243
277.612233,8438.347739,-13989.892304,-3524.039291
277.612555,9474.636058,-16284.530724,-2451.505594
277.612877,8216.285956,-13027.624579,-995.924147
277.613198,4811.338623,-9548.656652,-766.095498
277.613520,1184.329507,-6735.874072,-1838.629195
277.613842,-1776.494261,-4959.379811,-2987.772442
277.614164,-4737.318029,-4959.379811,-3677.258390
277.614486,-7328.038826,-6587.832884,-1532.190996
277.614808,-7920.203579,-9548.656652,766.095498
277.615130,-6957.935855,-11103.089130,1302.362347
277.615451,-6661.853478,-11177.109724,536.266849
277.615773,-6587.832884,-9844.739029,1685.410096
277.616095,-5995.668130,-7105.977043,1225.752797
277.616417,-4071.132681,-5477.523971,-2451.505594
277.616739,444.123565,-7105.977043,-5975.544884
277.617061,4589.276840,-9474.636058,-6205.373534
277.617382,6217.729913,-12435.459826,-2528.115143
277.617704,7105.977043,-13397.727550,919.314598
277.618026,8290.306550,-13397.727550,383.047749
277.618348,10658.965565,-14137.933492,-3064.381992
277.618670,9992.780217,-12953.603985,-4749.792088
277.618992,4737.318029,-11473.192101,-3447.429741
277.619314,-370.102971,-8438.347739,0.000000
277.619635,-3108.864956,-5773.606348,1225.752797
277.619957,-4515.256246,-5329.482782,-995.924147
277.620279,-6883.915261,-7402.059420,-2221.676944
277.620601,-9178.553681,-9696.697840,-536.266849
277.620923,-10510.924376,-11695.253884,842.705048
277.621245,-9400.615463,-11325.150913,1455.581446
277.621566,-7031.956449,-8956.491898,1685.410096
277.621888,-5255.462188,-6809.894666,153.219100
277.622210,-3552.988522,-5625.565159,-2604.724693
277.622532,-962.267725,-5995.668130,-4673.182538
277.622854,2072.576638,-8142.265362,-4136.915689
277.623176,5403.503377,-10584.944971,-2221.676944
277.623498,7402.059420,-11991.336260,-1378.971896
277.623819,9622.677246,-12435.459826,-2374.896044
277.624141,10955.047942,-12213.398043,-2528.115143
277.624463,9400.615463,-10807.006753,-1378.971896
277.624785,5107.421000,-7476.080014,-1072.533697
277.625107,592.164754,-5625.565159,-612.876398
277.625429,-1554.432478,-5699.585753,-1302.362347
277.625751,-3923.091493,-7031.956449,-2604.724693
277.626072,-5403.503377,-9030.512492,-1378.971896
277.626394,-5921.647536,-11103.089130,1378.971896
277.626716,-5699.585753,-11991.336260,1225.752797
277.627038,-5551.544565,-10510.924376,1455.581446
277.627360,-5107.421000,-7328.038826,1608.800546
277.627682,-4219.173869,-5403.503377,-842.705048
277.628003,-1776.494261,-6883.915261,-5209.449386
277.628325,1776.494261,-9252.574275,-6588.421283
277.628647,3997.112087,-12583.501014,-4136.915689
277.628969,4737.318029,-13619.789333,-153.219100
277.629291,6143.709319,-13989.892304,766.095498
277.629613,8068.244768,-13545.768739,-2451.505594
277.629935,9326.594869,-12065.356855,-5975.544884
277.630256,5551.544565,-10362.883188,-4596.572988
277.630578,296.082377,-8364.327145,-1762.019645
277.630900,-3404.947333,-6439.791695,0.000000
277.631222,-4737.318029,-6069.688724,-612.876398
277.631544,-6365.771101,-7772.162391,-2221.676944
277.631866,-8512.368333,-10362.883188,-1991.848295
277.632188,-10362.883188,-11547.212695,766.095498
277.632509,-9696.697840,-11547.212695,1225.752797
277.632831,-7550.100608,-10214.842000,842.705048
277.633153,-4811.338623,-7698.141797,1302.362347
277.633475,-3256.906145,-5033.400406,-1149.143247
277.633797,-1332.370696,-4959.379811,-3753.867940
277.634119,2146.597232,-6957.935855,-4366.744339
277.634440,5477.523971,-9326.594869,-2911.162892
277.634762,7698.141797,-11325.150913,-1915.238745
277.635084,9326.594869,-13397.727550,-1838.629195
277.635406,9918.759623,-13175.665768,-1072.533697
277.635728,8734.430116,-10732.986159,-1302.362347
277.636050,4737.318029,-8512.368333,-1608.800546
277.636372,888.247130,-6735.874072,-1302.362347
277.636693,-1628.453072,-4811.338623,-1302.362347
277.637015,-4071.132681,-4959.379811,-3524.039291
277.637337,-6069.688724,-8438.347739,-1762.019645
277.637659,-6735.874072,-10881.027347,1915.238745
277.637981,-7254.018232,-11029.068536,1072.533697
277.638303,-7105.977043,-10955.047942,-1149.143247
277.638625,-5995.668130,-8808.450710,459.657299
277.638946,-5107.421000,-6661.853478,-536.266849
277.639268,-3997.112087,-6217.729913,-3370.820191
277.639590,-148.041188,-7994.224174,-4826.401637
277.639912,3404.947333,-11103.089130,-4519.963438
277.640234,4959.379811,-13249.686362,-2221.676944
277.640556,6291.750507,-14063.912898,536.266849
277.640877,7772.162391,-13767.830521,-919.314598
277.641199,9770.718434,-12731.542202,-3830.477490
277.641521,8660.409521,-11177.109724,-3830.477490
277.641843,3256.906145,-9030.512492,-1072.533697
277.642165,-1184.329507,-6809.894666,-229.828649
277.642487,-2812.782580,-5551.544565,-1302.362347
277.642809,-4515.256246,-6883.915261,-2757.943793
277.643130,-7254.018232,-9770.718434,-2298.286494
277.643452,-9844.739029,-11991.336260,1608.800546
277.643774,-10584.944971,-11843.295072,2757.943793
277.644096,-8882.471304,-10955.047942,995.924147
277.644418,-5329.482782,-8956.491898,-995.924147
277.644740,-4219.173869,-6883.915261,-1915.238745
277.645061,-3330.926739,-5551.544565,-2374.896044
277.645383,-592.164754,-6365.771101,-2374.896044
277.645705,2812.782580,-8364.327145,-1762.019645
277.646027,6735.874072,-10658.965565,-2068.457845
277.646348,9104.533087,-12509.480420,-1991.848295
277.646670,10066.800811,-12731.542202,-1455.581446
277.646992,9326.594869,-11251.130318,76.609550
277.647314,7031.956449,-8660.409521,306.438199
277.647635,3701.029710,-6143.709319,-1302.362347
277.647957,666.185348,-4441.235652,-2528.115143
277.648279,-2368.659014,-5181.441594,-2987.772442
277.648601,-5625.565159,-8068.244768,-2451.505594
277.648922,-7846.182985,-10584.944971,612.876398
277.649244,-7994.224174,-11325.150913,2298.286494
277.649566,-7476.080014,-10881.027347,-612.876398
277.649887,-6809.894666,-10658.965565,-1532.190996
277.650209,-6439.791695,-8364.327145,459.657299
277.650531,-6143.709319,-5403.503377,-995.924147
277.650853,-3849.070898,-5255.462188,-4060.306139
277.651174,1036.288319,-8660.409521,-5362.668486
277.651496,4293.194464,-13323.706956,-4826.401637
277.651818,4737.318029,-14730.098246,-1915.238745
277.652140,5551.544565,-13323.706956,1455.581446
277.652461,8216.285956,-11547.212695,0.000000
277.652783,10066.800811,-11177.109724,-4213.525239
277.653105,7328.038826,-10510.924376,-4366.744339
277.653427,1850.514855,-8142.265362,-1608.800546
277.653748,-1776.494261,-6587.832884,-536.266849
277.654070,-2812.782580,-6809.894666,-1302.362347
277.654392,-2812.782580,-8660.409521,-1838.629195
277.654714,-5921.647536,-10362.883188,-1378.971896
277.655035,-9326.594869,-12065.356855,1378.971896
277.655357,-9770.718434,-11547.212695,2528.115143
277.655679,-7624.121203,-9548.656652,76.609550
277.656001,-4219.173869,-7920.203579,-3140.991542
277.656322,-2960.823768,-5255.462188,-3830.477490
277.656644,-1850.514855,-5107.421000,-2374.896044
277.656966,370.102971,-7550.100608,-1991.848295
277.657287,3182.885551,-10732.986159,-2145.067394
277.657609,6365.771101,-11843.295072,-2374.896044
277.657931,7550.100608,-11177.109724,-2451.505594
277.658253,8216.285956,-11473.192101,-2221.676944
277.658574,8438.347739,-10214.842000,-995.924147
277.658896,7476.080014,-7476.080014,-1302.362347
277.659218,4737.318029,-5551.544565,-2221.676944
277.659540,2368.659014,-6291.750507,-2374.896044
277.659861,-1184.329507,-9252.574275,-1685.410096
277.660183,-4071.132681,-11029.068536,-459.657299
277.660505,-5625.565159,-11251.130318,766.095498
277.660827,-5699.585753,-11251.130318,612.876398
277.661148,-5329.482782,-10510.924376,-306.438199
277.661470,-5403.503377,-8438.347739,76.609550
277.661792,-4885.359217,-5995.668130,536.266849
277.662114,-3552.988522,-5033.400406,-1302.362347
277.662435,-592.164754,-7105.977043,-3600.648841
277.662757,1702.473667,-10362.883188,-3677.258390
277.663079,3552.988522,-13027.624579,-919.314598
277.663401,4293.194464,-12731.542202,383.047749
277.663722,6883.915261,-12953.603985,-1149.143247
277.664044,8808.450710,-13175.665768,-3524.039291
277.664366,8142.265362,-11473.192101,-3447.429741
277.664687,4145.153275,-8956.491898,-1991.848295
277.665009,-1480.411884,-7476.080014,-1378.971896
277.665331,-3256.906145,-8068.244768,-2068.457845
277.665653,-4441.235652,-8734.430116,-3447.429741
277.665974,-7105.977043,-10658.965565,-3370.820191
277.666296,-10288.862594,-12509.480420,229.828649
277.666618,-12361.439231,-12213.398043,2604.724693
277.666940,-11177.109724,-9992.780217,1149.143247
277.667261,-8364.327145,-7846.182985,-1762.019645
277.667583,-5847.626942,-6217.729913,-2374.896044
277.667905,-4589.276840,-4441.235652,-2298.286494
277.668227,-1850.514855,-5107.421000,-1685.410096
277.668548,1702.473667,-6809.894666,0.000000
277.668870,5255.462188,-9030.512492,-383.047749
277.669192,7624.121203,-11473.192101,-2451.505594
277.669514,9030.512492,-13471.748144,-2834.553343
277.669835,9104.533087,-12953.603985,-995.924147
277.670157,6735.874072,-9474.636058,306.438199
277.670479,3849.070898,-7179.997637,612.876398
277.670801,1332.370696,-5255.462188,-1149.143247
277.671122,-592.164754,-5329.482782,-3524.039291
277.671444,-2590.720797,-7772.162391,-3677.258390
277.671766,-5403.503377,-9918.759623,0.000000
277.672088,-7402.059420,-9400.615463,3140.991542
277.672409,-6957.935855,-8438.347739,1685.410096
277.672731,-6069.688724,-10362.883188,-1685.410096
277.673053,-6291.750507,-10288.862594,-1762.019645
277.673374,-6957.935855,-7105.977043,-919.314598
277.673696,-4737.318029,-5181.441594,-2757.943793
277.674018,222.061783,-8290.306550,-5056.230287
277.674340,5551.544565,-11917.315666,-4596.572988
277.674661,6217.729913,-14137.933492,-2681.334243
277.674983,6587.832884,-14285.974681,76.609550
277.675305,8216.285956,-13249.686362,1762.019645
277.675627,9474.636058,-11621.233289,-1532.190996
277.675948,7698.141797,-9918.759623,-4443.353888
277.676270,4515.256246,-8956.491898,-3217.601092
277.676592,888.247130,-7402.059420,-1838.629195
277.676914,-1110.308913,-7846.182985,-306.438199
277.677235,-2812.782580,-8660.409521,153.219100
277.677557,-5107.421000,-9178.553681,76.609550
277.677879,-7179.997637,-10807.006753,-842.705048
277.678201,-8808.450710,-13101.645173,-306.438199
277.678522,-9326.594869,-11843.295072,536.266849
277.678844,-7476.080014,-7402.059420,76.609550
277.679166,-5477.523971,-5107.421000,-2298.286494
277.679488,-2368.659014,-6217.729913,-4136.915689
277.679809,666.185348,-8216.285956,-3753.867940
277.680131,2738.761985,-10214.842000,-1991.848295
277.680453,4663.297435,-11621.233289,0.000000
277.680774,7920.203579,-11325.150913,-689.485948
277.681096,10288.862594,-10732.986159,-3217.601092
277.681418,10881.027347,-10214.842000,-3294.210641
277.681740,8586.388927,-8438.347739,-1072.533697
277.682061,4885.359217,-5477.523971,-842.705048
277.682383,1850.514855,-5033.400406,-1608.800546
277.682705,-888.247130,-7328.038826,-1762.019645
277.683027,-4219.173869,-9844.739029,-1838.629195
277.683348,-7105.977043,-11695.253884,-919.314598
277.683670,-7994.224174,-12361.439231,459.657299
277.683992,-7105.977043,-10955.047942,995.924147
277.684314,-6217.729913,-8216.285956,-306.438199
277.684635,-5847.626942,-5329.482782,0.000000
277.684957,-4885.359217,-4737.318029,-1378.971896
277.685279,-2368.659014,-6661.853478,-4213.525239
277.685601,888.247130,-10066.800811,-5362.668486
277.685922,2590.720797,-13619.789333,-1762.019645
277.686244,3478.967927,-13471.748144,919.314598
277.686566,5847.626942,-12879.583391,-766.095498
277.686888,8512.368333,-13175.665768,-3600.648841
277.687209,9474.636058,-11621.233289,-3753.867940
277.687531,6069.688724,-8290.306550,-2604.724693
277.687853,962.267725,-6587.832884,-1532.190996
277.688174,-2294.638420,-7550.100608,-612.876398
277.688496,-4071.132681,-9252.574275,-1608.800546
277.688818,-6809.894666,-10140.821405,-2757.943793
277.689140,-9770.718434,-11695.253884,-1072.533697
277.689461,-11473.192101,-12361.439231,1455.581446
277.689783,-10732.986159,-10658.965565,995.924147
277.690105,-8512.368333,-7994.224174,-919.314598
277.690427,-5921.647536,-6217.729913,-1762.019645
277.690748,-3775.050304,-5181.441594,-2374.896044
277.691070,-1406.391290,-5477.523971,-2451.505594
277.691392,1480.411884,-6735.874072,-1915.238745
277.691714,5181.441594,-9104.533087,-1455.581446
277.692035,7550.100608,-11473.192101,-2068.457845
277.692357,9030.512492,-13175.665768,-2451.505594
277.692679,9326.594869,-12435.459826,-1685.410096
277.693001,8512.368333,-10436.903782,-383.047749
277.693322,5847.626942,-8068.244768,-306.438199
277.693644,2368.659014,-6143.709319,-1149.143247
277.693966,-222.061783,-5699.585753,-2451.505594
277.694288,-2812.782580,-7624.121203,-2911.162892
277.694609,-5329.482782,-9474.636058,-1225.752797
277.694931,-7624.121203,-10214.842000,1302.362347
277.695253,-7920.203579,-9770.718434,1378.971896
277.695574,-7476.080014,-10140.821405,-612.876398
277.695896,-6883.915261,-9252.574275,0.000000
277.696218,-6587.832884,-6365.771101,-1378.971896
277.696540,-4071.132681,-5847.626942,-3370.820191
277.696861,222.061783,-8216.285956,-5669.106685
277.697183,4441.235652,-12139.377449,-4213.525239
277.697505,5107.421000,-14359.995275,-766.095498
277.697827,6513.812290,-13175.665768,1455.581446
277.698148,8438.347739,-12435.459826,-306.438199
277.698470,9770.718434,-12583.501014,-3447.429741
277.698792,7994.224174,-10807.006753,-3753.867940
277.699114,3182.885551,-8512.368333,-2068.457845
277.699435,-740.205942,-7105.977043,-1378.971896
277.699757,-2960.823768,-7550.100608,-536.266849
277.700079,-3923.091493,-9030.512492,-1225.752797
277.700401,-7031.956449,-9844.739029,-1685.410096
277.700722,-9474.636058,-11769.274478,306.438199
277.701044,-10510.924376,-11473.192101,2757.943793
277.701366,-9844.739029,-9030.512492,1302.362347
277.701688,-6957.935855,-6735.874072,-1455.581446
277.702009,-4515.256246,-5847.626942,-2604.724693
277.702331,-2368.659014,-6291.750507,-2911.162892
277.702653,0.000000,-7624.121203,-2374.896044
277.702975,2812.782580,-9252.574275,-1149.143247
277.703296,6291.750507,-10584.944971,-1149.143247
277.703618,8882.471304,-11843.295072,-2834.553343
277.703940,10140.821405,-11769.274478,-3064.381992
277.704261,9548.656652,-10955.047942,-1072.533697
277.704583,7328.038826,-8364.327145,229.828649
277.704905,3849.070898,-5625.565159,0.000000
277.705227,1702.473667,-4885.359217,-1762.019645
277.705548,-888.247130,-6809.894666,-3140.991542
277.705870,-4293.194464,-9474.636058,-2911.162892
277.706192,-7031.956449,-11695.253884,229.828649
277.706514,-7031.956449,-10881.027347,2451.505594
277.706835,-6883.915261,-10510.924376,0.000000
277.707157,-6365.771101,-9696.697840,-536.266849
277.707479,-6069.688724,-6957.935855,-76.609550
277.707801,-4885.359217,-4737.318029,-2221.676944
277.708122,-962.267725,-6439.791695,-4903.011187
277.708444,3256.906145,-10066.800811,-4443.353888
277.708766,4959.379811,-13175.665768,-1838.629195
277.709088,5773.606348,-13249.686362,919.314598
277.709409,7476.080014,-12731.542202,536.266849
277.709731,9844.739029,-12805.562797,-2911.162892
277.710053,9770.718434,-11325.150913,-4596.572988
277.710375,4737.318029,-9326.594869,-2451.505594
277.710696,-666.185348,-7402.059420,-1302.362347
277.711018,-2812.782580,-7624.121203,-1532.190996
277.711340,-3627.009116,-8364.327145,-2451.505594
277.711661,-6217.729913,-9030.512492,-1685.410096
277.711983,-9252.574275,-11473.192101,-766.095498
277.712305,-11251.130318,-12139.377449,1455.581446
277.712627,-11695.253884,-10881.027347,1072.533697
277.712948,-9844.739029,-7846.182985,-383.047749
277.713270,-6957.935855,-5477.523971,-2451.505594
277.713592,-4071.132681,-5995.668130,-4596.572988
277.713914,-518.144159,-7254.018232,-4290.134789
277.714235,3034.844362,-9474.636058,-2145.067394
277.714557,6661.853478,-11177.109724,-766.095498
277.714879,9474.636058,-11769.274478,-306.438199
277.715201,10584.944971,-11177.109724,-1685.410096
277.715522,9474.636058,-9844.739029,-2221.676944
277.715844,7476.080014,-8290.306550,-2298.286494
277.716166,4663.297435,-7105.977043,-1838.629195
277.716488,1702.473667,-6661.853478,-2068.457845
277.716809,-666.185348,-6587.832884,-995.924147
277.717131,-2664.741391,-8216.285956,-995.924147
277.717453,-5033.400406,-10140.821405,-536.266849
277.717775,-6587.832884,-10881.027347,689.485948
277.718096,-7846.182985,-10658.965565,-153.219100
277.718418,-8216.285956,-8882.471304,-842.705048
277.718740,-7254.018232,-6957.935855,-1149.143247
277.719061,-5995.668130,-6217.729913,-2681.334243
277.719383,-2664.741391,-7402.059420,-4366.744339
277.719705,2072.576638,-9696.697840,-3907.087040
277.720027,5477.523971,-12509.480420,-3217.601092
277.720348,8364.327145,-14804.118840,-306.438199
277.720670,9844.739029,-13397.727550,1915.238745
277.720992,11103.089130,-11473.192101,-919.314598
277.721314,9992.780217,-9622.677246,-3217.601092
277.721635,6809.894666,-8956.491898,-2451.505594
277.721957,1480.411884,-6883.915261,-1455.581446
277.722279,-2220.617826,-6661.853478,-1991.848295
277.722601,-4219.173869,-7624.121203,-1608.800546
277.722922,-5921.647536,-10288.862594,-1455.581446
277.723244,-8734.430116,-12583.501014,0.000000
277.723566,-11621.233289,-12657.521608,1532.190996
277.723888,-12583.501014,-11621.233289,612.876398
277.724209,-10807.006753,-9400.615463,-919.314598
277.724531,-9104.533087,-6957.935855,-1915.238745
277.724853,-7105.977043,-5033.400406,-3064.381992
277.725175,-3478.967927,-5995.668130,-3600.648841
277.725496,1110.308913,-8586.388927,-2911.162892
277.725818,4959.379811,-11251.130318,-2221.676944
277.726140,7179.997637,-12065.356855,0.000000
277.726461,8882.471304,-11325.150913,612.876398
277.726783,9326.594869,-10807.006753,-689.485948
277.727105,8660.409521,-9400.615463,-1532.190996
277.727427,6143.709319,-7698.141797,-766.095498
277.727748,2590.720797,-5403.503377,-1149.143247
277.728070,148.041188,-5699.585753,-1225.752797
277.728392,-1110.308913,-7254.018232,-612.876398
277.728714,-3256.906145,-9252.574275,-383.047749
277.729035,-5329.482782,-11251.130318,919.314598
277.729357,-7698.141797,-11917.315666,2145.067394
277.729679,-9474.636058,-9326.594869,766.095498
277.730001,-9400.615463,-6735.874072,-1838.629195
277.730322,-7772.162391,-6587.832884,-3830.477490
277.730644,-4515.256246,-7624.121203,-4519.963438
277.730966,-962.267725,-8808.450710,-4596.572988
277.731288,2442.679609,-11325.150913,-3524.039291
277.731609,6143.709319,-14730.098246,-919.314598
277.731931,8660.409521,-14952.160028,919.314598
277.732253,9178.553681,-11843.295072,-306.438199
277.732575,7846.182985,-8364.327145,-2604.724693
277.732896,5773.606348,-8512.368333,-2451.505594
277.733218,2368.659014,-7624.121203,-1915.238745
277.733540,-666.185348,-5625.565159,-2068.457845
277.733862,-2368.659014,-6587.832884,-1685.410096
277.734183,-2812.782580,-9622.677246,-536.266849
277.734505,-4367.215058,-12435.459826,689.485948
277.734827,-7328.038826,-12583.501014,1378.971896
277.735148,-9548.656652,-11177.109724,1532.190996
277.735470,-9474.636058,-9474.636058,-153.219100
277.735792,-8586.388927,-7254.018232,-2681.334243
277.736114,-7031.956449,-5921.647536,-4979.620737
277.736435,-3256.906145,-5921.647536,-4519.963438
277.736757,1554.432478,-9104.533087,-3983.696590
277.737079,5625.565159,-13027.624579,-2451.505594
277.737401,8438.347739,-14285.974681,689.485948
277.737722,10584.944971,-11547.212695,1455.581446
277.738044,11695.253884,-8882.471304,-1378.971896
277.738366,10955.047942,-7476.080014,-3524.039291
277.738688,8068.244768,-6069.688724,-3217.601092
277.739009,3923.091493,-4367.215058,-2068.457845
277.739331,888.247130,-4885.359217,-995.924147
277.739653,-1036.288319,-7624.121203,-1991.848295
277.739975,-2886.803174,-11547.212695,-1838.629195
277.740296,-6291.750507,-14063.912898,-689.485948
277.740618,-9622.677246,-13323.706956,1072.533697
277.740940,-10732.986159,-10214.842000,383.047749
277.741262,-9252.574275,-7105.977043,-2451.505594
277.741583,-6513.812290,-6291.750507,-5286.058936
277.741905,-4293.194464,-6661.853478,-4749.792088
277.742227,-1776.494261,-8512.368333,-3677.258390
277.742548,1850.514855,-12139.377449,-3064.381992
277.742870,5847.626942,-14878.139434,-919.314598
277.743192,9474.636058,-15692.365970,76.609550
277.743514,10362.883188,-12139.377449,-383.047749
277.743835,9770.718434,-9918.759623,-1915.238745
277.744157,8068.244768,-8438.347739,-1991.848295
277.744479,4885.359217,-6291.750507,-995.924147
277.744801,1184.329507,-4663.297435,-919.314598
277.745122,-1628.453072,-6143.709319,-2298.286494
277.745444,-3034.844362,-9252.574275,-2068.457845
277.745766,-5477.523971,-12583.501014,-229.828649
277.746088,-7994.224174,-13397.727550,1838.629195
277.746410,-9844.739029,-12213.398043,1991.848295
277.746731,-11177.109724,-9696.697840,229.828649
277.747053,-12213.398043,-6957.935855,-2374.896044
277.747375,-11695.253884,-5181.441594,-3600.648841
277.747697,-9178.553681,-5403.503377,-5132.839837
277.748018,-4589.276840,-8216.285956,-4979.620737
277.748340,444.123565,-11251.130318,-2604.724693
277.748662,4811.338623,-12361.439231,-383.047749
277.748984,8142.265362,-12213.398043,1532.190996
277.749306,9918.759623,-9918.759623,153.219100
277.749627,10658.965565,-7624.121203,-2987.772442
277.749949,9326.594869,-6513.812290,-2834.553343
277.750271,5255.462188,-5699.585753,-766.095498
277.750593,962.267725,-5773.606348,459.657299
277.750914,-666.185348,-6291.750507,-229.828649
277.751236,-666.185348,-8660.409521,-1762.019645
277.751558,-1702.473667,-11695.253884,-766.095498
277.751880,-5329.482782,-12435.459826,2145.067394
277.752201,-7402.059420,-10584.944971,2834.553343
277.752523,-7994.224174,-9474.636058,-229.828649
277.752845,-7254.018232,-8142.265362,-2451.505594
277.753167,-6661.853478,-6291.750507,-3447.429741
277.753489,-5773.606348,-6069.688724,-4366.744339
277.753810,-1776.494261,-9622.677246,-3907.087040
277.754132,3034.844362,-12435.459826,-2528.115143
277.754454,6513.812290,-13767.830521,-1608.800546
277.754776,8660.409521,-13545.768739,536.266849
277.755097,9548.656652,-11769.274478,383.047749
277.755419,9474.636058,-9622.677246,-2987.772442
277.755741,8364.327145,-8068.244768,-3907.087040
277.756063,5107.421000,-7698.141797,-2068.457845
277.756385,444.123565,-7179.997637,-1532.190996
277.756706,-2664.741391,-7994.224174,-1608.800546
277.757028,-4959.379811,-10140.821405,-306.438199
277.757350,-6883.915261,-11843.295072,-459.657299
277.757672,-9252.574275,-12287.418637,-229.828649
277.757993,-11251.130318,-11917.315666,229.828649
277.758315,-11621.233289,-9918.759623,383.047749
277.758637,-9770.718434,-7402.059420,-766.095498
277.758959,-7550.100608,-4589.276840,-2604.724693
277.759280,-4071.132681,-5181.441594,-4443.353888
277.759602,222.061783,-8438.347739,-4136.915689
277.759924,3701.029710,-11325.150913,-1991.848295
277.760246,6809.894666,-11695.253884,-153.219100
277.760568,9548.656652,-11843.295072,612.876398
277.760889,10732.986159,-11029.068536,-1532.190996
277.761211,10288.862594,-9770.718434,-3064.381992
277.761533,7624.121203,-7698.141797,-2145.067394
277.761855,3108.864956,-5995.668130,-383.047749
277.762176,444.123565,-5921.647536,-1072.533697
277.762498,-370.102971,-7105.977043,-2451.505594
277.762820,-1924.535449,-9474.636058,-2681.334243
277.763142,-5329.482782,-11399.171507,-153.219100
277.763464,-7920.203579,-11325.150913,2221.676944
277.763785,-9474.636058,-9400.615463,766.095498
277.764107,-8956.491898,-7476.080014,-1532.190996
277.764429,-8586.388927,-6587.832884,-2757.943793
277.764751,-7402.059420,-6661.853478,-3983.696590
277.765072,-3775.050304,-7624.121203,-3830.477490
277.765394,1554.432478,-10066.800811,-3830.477490
277.765716,5773.606348,-12879.583391,-2911.162892
277.766038,8290.306550,-14804.118840,153.219100
277.766359,9326.594869,-13323.706956,1915.238745
277.766681,9770.718434,-11177.109724,-1302.362347
277.767003,9030.512492,-9844.739029,-3983.696590
277.767325,5847.626942,-8364.327145,-2145.067394
277.767647,1332.370696,-6661.853478,-1455.581446
277.767968,-1776.494261,-6513.812290,-1225.752797
277.768290,-2442.679609,-8364.327145,-919.314598
277.768612,-3330.926739,-10362.883188,-306.438199
277.768934,-5995.668130,-12139.377449,153.219100
277.769255,-8586.388927,-12657.521608,1149.143247
277.769577,-10362.883188,-10436.903782,1225.752797
277.769899,-9992.780217,-7920.203579,-612.876398
277.770221,-8808.450710,-6291.750507,-3064.381992
277.770543,-6513.812290,-4811.338623,-4903.011187
277.770864,-3182.885551,-6661.853478,-5286.058936
277.771186,1258.350101,-11103.089130,-3447.429741
277.771508,4737.318029,-13323.706956,-689.485948
277.771830,7920.203579,-12583.501014,383.047749
277.772151,10066.800811,-10807.006753,-229.828649
277.772473,11177.109724,-9326.594869,-1838.629195
277.772795,9400.615463,-7772.162391,-2987.772442
277.773117,6069.688724,-6291.750507,-2298.286494
277.773439,2738.761985,-5773.606348,-842.705048
277.773760,370.102971,-6291.750507,-766.095498
277.774082,-814.226536,-8068.244768,-1149.143247
277.774404,-3330.926739,-10658.965565,306.438199
277.774726,-5551.544565,-11917.315666,689.485948
277.775047,-7698.141797,-11843.295072,842.705048
277.775369,-8290.306550,-9844.739029,612.876398
277.775691,-7698.141797,-7254.018232,-1225.752797
277.776013,-6439.791695,-5699.585753,-2681.334243
277.776334,-3923.091493,-6513.812290,-4290.134789
277.776656,-296.082377,-8808.450710,-3983.696590
277.776978,3108.864956,-12139.377449,-3447.429741
277.777300,5625.565159,-14582.057057,-1608.800546
277.777622,8290.306550,-14359.995275,383.047749
277.777943,9400.615463,-11695.253884,-536.266849
277.778265,9400.615463,-10214.842000,-3524.039291
277.778587,7772.162391,-9326.594869,-3370.820191
277.778909,3923.091493,-7179.997637,-1915.238745
277.779230,-518.144159,-5921.647536,-1915.238745
277.779552,-3478.967927,-7031.956449,-1685.410096
277.779874,-4885.359217,-9770.718434,-1532.190996
277.780196,-7105.977043,-12139.377449,-1072.533697
277.780518,-10066.800811,-12731.542202,0.000000
277.780839,-11473.192101,-11473.192101,1302.362347
277.781161,-11621.233289,-9030.512492,0.000000
277.781483,-10214.842000,-7476.080014,-1302.362347
277.781805,-8808.450710,-5477.523971,-2451.505594
277.782126,-6217.729913,-4885.359217,-4060.306139
277.782448,-2072.576638,-7772.162391,-4519.963438
277.782770,2442.679609,-10955.047942,-2451.505594
277.783092,5921.647536,-11695.253884,-306.438199
277.783413,8660.409521,-11769.274478,0.000000
277.783735,10362.883188,-11843.295072,-995.924147
277.784057,10362.883188,-11029.068536,-1838.629195
277.784379,7772.162391,-7550.100608,-1149.143247
277.784701,3997.112087,-5551.544565,-766.095498
277.785022,1406.391290,-6217.729913,-1302.362347
277.785344,-296.082377,-7624.121203,-1532.190996
277.785666,-1850.514855,-9030.512492,-1378.971896
277.785988,-4071.132681,-11325.150913,76.609550
277.786309,-5329.482782,-11917.315666,2298.286494
277.786631,-7402.059420,-9696.697840,1149.143247
277.786953,-8290.306550,-7920.203579,-306.438199
277.787275,-8142.265362,-6439.791695,-1302.362347
277.787597,-7031.956449,-5033.400406,-3217.601092
277.787918,-3701.029710,-6809.894666,-5286.058936
277.788240,1184.329507,-9992.780217,-4673.182538
277.788562,4515.256246,-13693.809927,-2451.505594
277.788884,6661.853478,-15174.221811,229.828649
277.789205,7994.224174,-14063.912898,2451.505594
277.789527,8956.491898,-11843.295072,0.000000
277.789849,8290.306550,-9030.512492,-4136.915689
277.790171,5551.544565,-7846.182985,-3983.696590
277.790492,2220.617826,-7254.018232,-2298.286494
277.790814,-592.164754,-6587.832884,-1302.362347
277.791136,-2072.576638,-7994.224174,-459.657299
277.791458,-3701.029710,-10066.800811,459.657299
277.791780,-6069.688724,-11695.253884,1149.143247
277.792101,-8068.244768,-12213.398043,0.000000
277.792423,-9474.636058,-11473.192101,0.000000
277.792745,-9326.594869,-9474.636058,-229.828649
277.793067,-7476.080014,-6513.812290,-1532.190996
277.793388,-4663.297435,-4589.276840,-3064.381992
277.793710,-1184.329507,-5699.585753,-3524.039291
277.794032,2442.679609,-9770.718434,-3140.991542
277.794354,5403.503377,-12509.480420,-1302.362347
277.794676,7624.121203,-12509.480420,306.438199
277.794997,9252.574275,-11399.171507,612.876398
277.795319,9400.615463,-9844.739029,-995.924147
277.795641,8216.285956,-7254.018232,-2298.286494
277.795963,4737.318029,-5181.441594,-3140.991542
277.796284,1480.411884,-5551.544565,-2451.505594
277.796606,-888.247130,-5995.668130,-1149.143247
277.796928,-2146.597232,-8142.265362,-1838.629195
277.797250,-4367.215058,-11473.192101,-1072.533697
277.797572,-6069.688724,-13767.830521,1149.143247
277.797893,-8438.347739,-12287.418637,536.266849
277.798215,-9696.697840,-8068.244768,-1149.143247
277.798537,-9030.512492,-5255.462188,-612.876398
277.798859,-8142.265362,-4145.153275,-3294.210641
277.799180,-5625.565159,-5773.606348,-5745.716235
277.799502,-592.164754,-9326.594869,-5592.497135
277.799824,3478.967927,-13471.748144,-4060.306139
277.800146,6809.894666,-16358.551318,-1378.971896
277.800467,9400.615463,-16062.468941,1838.629195
277.800789,10214.842000,-12435.459826,1072.533697
277.801111,9548.656652,-8808.450710,-2145.067394
277.801433,7328.038826,-7105.977043,-3677.258390
277.801755,4145.153275,-7624.121203,-2987.772442
277.802076,1184.329507,-6291.750507,-2374.896044
277.802398,-888.247130,-6661.853478,-2145.067394
277.802720,-1998.556043,-9992.780217,-612.876398
277.803042,-3478.967927,-13767.830521,1608.800546
277.803363,-6439.791695,-13545.768739,1762.019645
277.803685,-9326.594869,-11029.068536,153.219100
277.804007,-10732.986159,-8660.409521,-383.047749
277.804329,-11029.068536,-6957.935855,-2298.286494
277.804651,-10436.903782,-4959.379811,-4213.525239
277.804972,-6587.832884,-5033.400406,-5669.106685
277.805294,-1184.329507,-8882.471304,-5286.058936
277.805616,3108.864956,-13323.706956,-3064.381992
277.805938,5699.585753,-14952.160028,459.657299
277.806259,7179.997637,-12435.459826,2298.286494
277.806581,8364.327145,-9622.677246,-306.438199
277.806903,8290.306550,-8068.244768,-3447.429741
277.807225,6365.771101,-6883.915261,-3907.087040
277.807546,3256.906145,-4737.318029,-2145.067394
277.807868,1184.329507,-4589.276840,-842.705048
277.808190,962.267725,-7105.977043,76.609550
277.808512,148.041188,-10510.924376,612.876398
277.808834,-1850.514855,-12139.377449,1608.800546
277.809155,-4663.297435,-12361.439231,1225.752797
277.809477,-7105.977043,-11177.109724,1302.362347
277.809799,-7772.162391,-7920.203579,0.000000
277.810121,-7698.141797,-5995.668130,-2757.943793
277.810442,-5551.544565,-5699.585753,-4060.306139
277.810764,-1406.391290,-8216.285956,-4060.306139
277.811086,2294.638420,-11251.130318,-3524.039291
277.811408,5255.462188,-14063.912898,-1072.533697
277.811730,7846.182985,-14582.057057,1915.238745
277.812051,9104.533087,-11843.295072,1455.581446
277.812373,8142.265362,-9326.594869,-1378.971896
277.812695,5847.626942,-8142.265362,-3064.381992
277.813017,2590.720797,-7031.956449,-2451.505594
277.813338,0.000000,-5255.462188,-2451.505594
277.813660,-2072.576638,-6587.832884,-2451.505594
277.813982,-2886.803174,-9030.512492,-1608.800546
277.814304,-4219.173869,-12657.521608,-306.438199
277.814625,-7105.977043,-13101.645173,1532.190996
277.814947,-9918.759623,-11843.295072,995.924147
277.815269,-10955.047942,-10288.862594,-995.924147
277.815591,-11399.171507,-7772.162391,-2221.676944
277.815913,-10732.986159,-5625.565159,-2451.505594
277.816234,-7920.203579,-4885.359217,-4060.306139
277.816556,-3034.844362,-7920.203579,-4596.572988
277.816878,2220.617826,-11843.295072,-3370.820191
277.817200,5033.400406,-13989.892304,-1149.143247
277.817521,7105.977043,-12805.562797,2221.676944
277.817843,9474.636058,-10288.862594,1225.752797
277.818165,9918.759623,-8142.265362,-2757.943793
277.818487,8660.409521,-6365.771101,-4290.134789
277.818809,6069.688724,-5773.606348,-2528.115143
277.819130,2072.576638,-6069.688724,-1225.752797
277.819452,0.000000,-7624.121203,229.828649
277.819774,-1184.329507,-9770.718434,153.219100
277.820096,-2368.659014,-11843.295072,-612.876398
277.820417,-4367.215058,-12953.603985,-612.876398
277.820739,-6661.853478,-11621.233289,-229.828649
277.821061,-9252.574275,-8142.265362,-229.828649
277.821383,-9178.553681,-6217.729913,-919.314598
277.821705,-8956.491898,-4885.359217,-3217.601092
277.822026,-6883.915261,-5847.626942,-5669.106685
277.822348,-2442.679609,-9474.636058,-6128.763984
277.822670,1628.453072,-13397.727550,-3983.696590
277.822992,4737.318029,-15174.221811,-612.876398
277.823313,8068.244768,-14582.057057,1762.019645
277.823635,9770.718434,-11843.295072,1455.581446
277.823957,9992.780217,-9030.512492,-1225.752797
277.824279,8142.265362,-6883.915261,-3217.601092
277.824600,5403.503377,-6661.853478,-2681.334243
277.824922,2738.761985,-6513.812290,-2451.505594
277.825244,1036.288319,-7772.162391,-1991.848295
277.825566,-814.226536,-9992.780217,229.828649
277.825888,-2590.720797,-12435.459826,2221.676944
277.826209,-5107.421000,-12583.501014,1608.800546
277.826531,-7179.997637,-11325.150913,-459.657299
277.826853,-8808.450710,-10214.842000,-842.705048
277.827175,-9548.656652,-7772.162391,-306.438199
277.827496,-8882.471304,-4737.318029,-2068.457845
277.827818,-5477.523971,-4959.379811,-4060.306139
277.828140,0.000000,-8068.244768,-4290.134789
277.828462,3701.029710,-11473.192101,-3370.820191
277.828784,5033.400406,-12879.583391,-383.047749
277.829105,6143.709319,-11695.253884,2681.334243
277.829427,7846.182985,-9548.656652,1149.143247
277.829749,8882.471304,-7920.203579,-3140.991542
277.830071,7624.121203,-7105.977043,-5209.449386
277.830392,4663.297435,-6069.688724,-2604.724693
277.830714,1480.411884,-5921.647536,-842.705048
277.831036,-148.041188,-7402.059420,0.000000
277.831358,-1036.288319,-10362.883188,-459.657299
277.831679,-2738.761985,-12287.418637,-383.047749
277.832001,-5403.503377,-12731.542202,-1225.752797
277.832323,-8142.265362,-12435.459826,-383.047749
277.832645,-8660.409521,-9252.574275,459.657299
277.832967,-8068.244768,-5847.626942,-766.095498
277.833288,-6291.750507,-3923.091493,-3447.429741
277.833610,-2590.720797,-6957.935855,-4903.011187
277.833932,1332.370696,-10140.821405,-4213.525239
277.834254,4145.153275,-13175.665768,-2987.772442
277.834575,6957.935855,-16136.489536,306.438199
277.834897,8808.450710,-14508.036463,3140.991542
277.835219,9030.512492,-9844.739029,1149.143247
277.835541,8068.244768,-7179.997637,-3830.477490
277.835863,6291.750507,-7328.038826,-4443.353888
277.836184,3108.864956,-6735.874072,-3677.258390
277.836506,-296.082377,-6439.791695,-3677.258390
277.836828,-2220.617826,-8882.471304,-995.924147
277.837150,-4145.153275,-12583.501014,995.924147
277.837471,-6957.935855,-13767.830521,1532.190996
277.837793,-10510.924376,-11843.295072,0.000000
277.838115,-12213.398043,-9696.697840,-1225.752797
277.838437,-11769.274478,-8216.285956,-2221.676944
277.838758,-11769.274478,-6587.832884,-2604.724693
277.839080,-9918.759623,-4737.318029,-1915.238745
277.839402,-5551.544565,-4441.235652,-3140.991542
277.839724,-740.205942,-8364.327145,-4213.525239
277.840046,2738.761985,-12361.439231,-2145.067394
277.840367,4071.132681,-11621.233289,612.876398
277.840689,6069.688724,-10288.862594,-229.828649
277.841011,8142.265362,-11251.130318,-1915.238745
277.841333,8882.471304,-11103.089130,-2451.505594
277.841654,7105.977043,-7846.182985,-2528.115143
277.841976,4589.276840,-6143.709319,-2528.115143
277.842298,2294.638420,-6957.935855,0.000000
277.842620,444.123565,-9030.512492,-229.828649
277.842942,-1776.494261,-10140.821405,-689.485948
277.843263,-3627.009116,-11843.295072,-612.876398
277.843585,-4663.297435,-13027.624579,-153.219100
277.843907,-6217.729913,-11177.109724,689.485948
277.844229,-7846.182985,-7105.977043,1302.362347
277.844550,-7994.224174,-3849.070898,153.219100
277.844872,-5921.647536,-2960.823768,-3217.601092
277.845194,-1776.494261,-5995.668130,-5745.716235
277.845516,2368.659014,-10140.821405,-4749.792088
277.845838,4589.276840,-14434.015869,-1685.410096
277.846160,6365.771101,-15988.448347,1991.848295
277.846481,7624.121203,-14211.954086,3217.601092
277.846803,8290.306550,-11103.089130,0.000000
277.847125,7105.977043,-8586.388927,-4290.134789
277.847447,4293.194464,-7328.038826,-4979.620737
277.847769,1850.514855,-6513.812290,-3907.087040
277.848090,-148.041188,-6587.832884,-2604.724693
277.848412,-1184.329507,-9770.718434,-229.828649
277.848734,-2812.782580,-12583.501014,1991.848295
277.849056,-5255.462188,-12583.501014,1762.019645
277.849378,-7328.038826,-11769.274478,-612.876398
277.849700,-9030.512492,-10584.944971,-689.485948
277.850021,-9474.636058,-7624.121203,383.047749
277.850343,-8956.491898,-4145.153275,-995.924147
