#time,accel_x,accel_y,accel_z
467.240907,-370.102971,-9178.553681,-1762.019645
467.241230,-296.082377,-9104.533087,-1685.410096
467.241552,-222.061783,-9104.533087,-1915.238745
467.241874,-518.144159,-9030.512492,-1608.800546
467.242196,-296.082377,-9548.656652,-1762.019645
467.242519,-444.123565,-9474.636058,-1991.848295
467.242841,-592.164754,-9474.636058,-1455.581446
467.243163,-740.205942,-9326.594869,-1762.019645
467.243486,-666.185348,-9326.594869,-1685.410096
467.243808,-296.082377,-9400.615463,-1532.190996
467.244130,-296.082377,-9030.512492,-1532.190996
467.244452,-370.102971,-8956.491898,-1762.019645
467.244775,0.000000,-9252.574275,-1915.238745
467.245097,-370.102971,-9548.656652,-1608.800546
467.245419,-666.185348,-9548.656652,-1685.410096
467.245741,-592.164754,-9548.656652,-1378.971896
467.246064,-518.144159,-9548.656652,-1532.190996
467.246386,-370.102971,-9252.574275,-1302.362347
467.246708,-444.123565,-9252.574275,-1225.752797
467.247030,-518.144159,-9252.574275,-1378.971896
467.247353,-518.144159,-9252.574275,-1455.581446
467.247675,-666.185348,-9474.636058,-1608.800546
467.247997,-370.102971,-9474.636058,-1532.190996
467.248319,-666.185348,-9770.718434,-1302.362347
467.248642,-592.164754,-9474.636058,-1455.581446
467.248964,-740.205942,-9474.636058,-1378.971896
467.249286,-148.041188,-9474.636058,-1225.752797
467.249609,0.000000,-9326.594869,-1455.581446
467.249931,-296.082377,-9622.677246,-1302.362347
467.250253,-592.164754,-9252.574275,-1455.581446
467.250575,-444.123565,-9770.718434,-1149.143247
467.250898,-592.164754,-9474.636058,-1378.971896
467.251220,-666.185348,-9622.677246,-919.314598
467.251542,0.000000,-9326.594869,-1072.533697
467.251864,-148.041188,-9178.553681,-1072.533697
467.252187,-370.102971,-9104.533087,-1072.533697
467.252509,-148.041188,-9252.574275,-1455.581446
467.252831,-296.082377,-9400.615463,-1149.143247
467.253153,-592.164754,-8956.491898,-995.924147
467.253476,-296.082377,-9326.594869,-1225.752797
467.253798,-370.102971,-9326.594869,-1225.752797
467.254120,-518.144159,-9326.594869,-1225.752797
467.254442,-296.082377,-9030.512492,-1378.971896
467.254765,-296.082377,-9030.512492,-1072.533697
467.255087,-518.144159,-9030.512492,-1302.362347
467.255409,-370.102971,-9326.594869,-1685.410096
467.255731,-666.185348,-9252.574275,-1608.800546
467.256054,-814.226536,-9474.636058,-1532.190996
467.256376,-666.185348,-9030.512492,-1685.410096
467.256698,-370.102971,-9104.533087,-1915.238745
467.257021,-444.123565,-9030.512492,-1838.629195
467.257343,-222.061783,-9252.574275,-1762.019645
467.257665,-222.061783,-9104.533087,-1762.019645
467.257987,-518.144159,-9252.574275,-1838.629195
467.258310,0.000000,-9474.636058,-2298.286494
467.258632,-592.164754,-8882.471304,-1685.410096
467.258954,-296.082377,-9548.656652,-2068.457845
467.259276,-444.123565,-9474.636058,-2068.457845
467.259599,74.020594,-9252.574275,-1991.848295
467.259921,1480.411884,-9474.636058,-2451.505594
467.260243,2590.720797,-9474.636058,-2298.286494
467.260565,2590.720797,-9622.677246,-1225.752797
467.260888,1554.432478,-9030.512492,-766.095498
467.261210,444.123565,-9178.553681,-1762.019645
467.261532,-444.123565,-9474.636058,-2757.943793
467.261854,-2072.576638,-9474.636058,-3064.381992
467.262177,-3108.864956,-9918.759623,-2681.334243
467.262499,-3775.050304,-9770.718434,-2757.943793
467.262821,-2812.782580,-9548.656652,-3217.601092
467.263144,-296.082377,-10362.883188,-2911.162892
467.263466,2294.638420,-11103.089130,-1455.581446
467.263788,3108.864956,-10807.006753,-306.438199
467.264110,2442.679609,-9252.574275,0.000000
467.264433,1998.556043,-8512.368333,-1072.533697
467.264755,2590.720797,-9326.594869,-2298.286494
467.265077,2590.720797,-9770.718434,-2604.724693
467.265399,1554.432478,-9178.553681,-306.438199
467.265722,-222.061783,-7476.080014,0.000000
467.266044,444.123565,-7550.100608,-995.924147
467.266366,1776.494261,-9474.636058,-2451.505594
467.266688,1258.350101,-10288.862594,-1685.410096
467.267011,-814.226536,-9474.636058,-153.219100
467.267333,-1332.370696,-8512.368333,-919.314598
467.267655,-444.123565,-9400.615463,-3217.601092
467.267977,148.041188,-9474.636058,-2987.772442
467.268300,296.082377,-10288.862594,-995.924147
467.268622,740.205942,-10436.903782,-536.266849
467.268944,2220.617826,-8956.491898,-1838.629195
467.269267,3108.864956,-9326.594869,-1455.581446
467.269589,4293.194464,-10955.047942,0.000000
467.269911,3997.112087,-11177.109724,153.219100
467.270233,2664.741391,-9030.512492,-766.095498
467.270556,2516.700203,-7328.038826,-612.876398
467.270878,2812.782580,-8438.347739,-459.657299
467.271200,2516.700203,-8364.327145,-995.924147
467.271522,1776.494261,-7476.080014,-919.314598
467.271845,1406.391290,-8068.244768,-842.705048
467.272167,2368.659014,-9992.780217,-459.657299
467.272489,3034.844362,-10732.986159,-842.705048
467.272811,2368.659014,-9474.636058,-1225.752797
467.273134,1924.535449,-9844.739029,-1762.019645
467.273456,2590.720797,-10214.842000,-459.657299
467.273778,3182.885551,-9400.615463,-1225.752797
467.274100,3182.885551,-8512.368333,-2145.067394
467.274423,2368.659014,-9252.574275,-1915.238745
467.274745,2664.741391,-9696.697840,-842.705048
467.275067,3182.885551,-9400.615463,-1149.143247
467.275390,2664.741391,-9400.615463,-2374.896044
467.275712,2072.576638,-9400.615463,-1532.190996
467.276034,1702.473667,-9178.553681,-689.485948
467.276356,962.267725,-7994.224174,-995.924147
467.276679,148.041188,-8290.306550,-1915.238745
467.277001,-296.082377,-9178.553681,-2298.286494
467.277323,-444.123565,-9844.739029,-1991.848295
467.277645,-518.144159,-10214.842000,-1532.190996
467.277968,-370.102971,-11177.109724,-1532.190996
467.278290,370.102971,-11843.295072,-1378.971896
467.278612,1480.411884,-11325.150913,-766.095498
467.278934,2072.576638,-10362.883188,-689.485948
467.279257,2368.659014,-9104.533087,0.000000
467.279579,2294.638420,-8290.306550,-1762.019645
467.279901,2220.617826,-7846.182985,-995.924147
467.280223,2220.617826,-7698.141797,-766.095498
467.280546,1924.535449,-8290.306550,-1762.019645
467.280868,1924.535449,-8586.388927,-1915.238745
467.281190,1628.453072,-8290.306550,-1608.800546
467.281513,1850.514855,-8438.347739,-1378.971896
467.281835,1924.535449,-8068.244768,-2298.286494
467.282157,1998.556043,-7994.224174,-2604.724693
467.282479,1406.391290,-9030.512492,-2604.724693
467.282802,962.267725,-9844.739029,-2221.676944
467.283124,148.041188,-10214.842000,-2221.676944
467.283446,0.000000,-11325.150913,-2987.772442
467.283768,0.000000,-11991.336260,-2834.553343
467.284091,296.082377,-11547.212695,-1838.629195
467.284413,740.205942,-10732.986159,-766.095498
467.284735,1110.308913,-10066.800811,-766.095498
467.285057,2220.617826,-9696.697840,-842.705048
467.285380,2738.761985,-9252.574275,-536.266849
467.285702,2738.761985,-8660.409521,-383.047749
467.286024,3108.864956,-8364.327145,-536.266849
467.286346,4219.173869,-7476.080014,-766.095498
467.286669,5477.523971,-7920.203579,-1991.848295
467.286991,6365.771101,-8438.347739,-1532.190996
467.287313,5699.585753,-8882.471304,-766.095498
467.287635,4811.338623,-9548.656652,-1302.362347
467.287958,4219.173869,-10881.027347,-2068.457845
467.288280,2738.761985,-12731.542202,-2604.724693
467.288602,1110.308913,-12953.603985,-2298.286494
467.288925,296.082377,-12361.439231,-1455.581446
467.289247,0.000000,-10955.047942,-689.485948
467.289569,148.041188,-9252.574275,153.219100
467.289891,222.061783,-7698.141797,0.000000
467.290214,222.061783,-6957.935855,0.000000
467.290536,148.041188,-6143.709319,153.219100
467.290858,444.123565,-5995.668130,-459.657299
467.291180,814.226536,-6143.709319,-1072.533697
467.291503,1628.453072,-7698.141797,-1149.143247
467.291825,962.267725,-8438.347739,-1225.752797
467.292147,666.185348,-9474.636058,-1149.143247
467.292469,444.123565,-10140.821405,-1302.362347
467.292792,444.123565,-11177.109724,-2604.724693
467.293114,-222.061783,-10436.903782,-2911.162892
467.293436,-1036.288319,-11103.089130,-2681.334243
467.293758,-1850.514855,-11177.109724,-1991.848295
467.294081,-2368.659014,-11769.274478,-2068.457845
467.294403,-2886.803174,-11843.295072,-1762.019645
467.294725,-3256.906145,-11103.089130,-995.924147
467.295048,-2738.761985,-10807.006753,0.000000
467.295370,-1850.514855,-9918.759623,0.000000
467.295692,-518.144159,-9326.594869,76.609550
467.296014,740.205942,-7846.182985,153.219100
467.296337,2738.761985,-6513.812290,-306.438199
467.296659,5255.462188,-5699.585753,-689.485948
467.296981,6513.812290,-5847.626942,-1072.533697
467.297303,6809.894666,-6143.709319,-612.876398
467.297626,6587.832884,-6513.812290,-1608.800546
467.297948,6069.688724,-7772.162391,-3064.381992
467.298270,6069.688724,-11177.109724,-3677.258390
467.298592,5551.544565,-13915.871710,-3983.696590
467.298915,3108.864956,-13545.768739,-2221.676944
467.299237,444.123565,-12435.459826,-919.314598
467.299559,-1184.329507,-11103.089130,-1225.752797
467.299881,-3034.844362,-10807.006753,-2604.724693
467.300204,-4441.235652,-9474.636058,-1915.238745
467.300526,-6365.771101,-6957.935855,-842.705048
467.300848,-6809.894666,-5403.503377,-2528.115143
467.301171,-4219.173869,-7846.182985,-2451.505594
467.301493,0.000000,-9030.512492,-1685.410096
467.301815,3775.050304,-9030.512492,-3064.381992
467.302137,6883.915261,-10510.924376,-3064.381992
467.302460,10436.903782,-10955.047942,-766.095498
467.302782,13471.748144,-10436.903782,-383.047749
467.303104,14656.077652,-8956.491898,-2221.676944
467.303426,14211.954086,-9030.512492,-2221.676944
467.303749,11843.295072,-8586.388927,-1838.629195
467.304071,9030.512492,-9918.759623,-1685.410096
467.304393,4737.318029,-9992.780217,-766.095498
467.304715,74.020594,-11843.295072,-919.314598
467.305038,-2738.761985,-13471.748144,-1225.752797
467.305360,-5033.400406,-13767.830521,-306.438199
467.305682,-8290.306550,-12287.418637,1838.629195
467.306004,-9918.759623,-7550.100608,2451.505594
467.306327,-9474.636058,-3478.967927,995.924147
467.306649,-7105.977043,-2812.782580,-1991.848295
467.306971,-2664.741391,-3627.009116,-2528.115143
467.307294,2146.597232,-6069.688724,-3983.696590
467.307616,4885.359217,-8956.491898,-2757.943793
467.307938,7698.141797,-11103.089130,-919.314598
467.308260,9474.636058,-12953.603985,-1302.362347
467.308582,9474.636058,-12731.542202,-3140.991542
467.308905,7476.080014,-11769.274478,-3753.867940
467.309227,4219.173869,-9622.677246,-4903.011187
467.309549,2220.617826,-9326.594869,-6052.154434
467.309871,1258.350101,-9918.759623,-4749.792088
467.310193,-148.041188,-10436.903782,-1072.533697
467.310515,-2886.803174,-11917.315666,1762.019645
467.310837,-5847.626942,-12287.418637,4290.134789
467.311160,-6217.729913,-10436.903782,4366.744339
467.311482,-5625.565159,-6957.935855,536.266849
467.311804,-3552.988522,-6735.874072,-689.485948
467.312126,1110.308913,-7179.997637,459.657299
467.312448,6513.812290,-4811.338623,0.000000
467.312770,10807.006753,-4811.338623,-1685.410096
467.313093,13323.706956,-8142.265362,-689.485948
467.313415,12287.418637,-10732.986159,919.314598
467.313737,7994.224174,-10881.027347,-766.095498
467.314059,2368.659014,-12213.398043,-4673.182538
467.314381,-2812.782580,-15692.365970,-7124.688131
467.314703,-5847.626942,-17394.839637,-5975.544884
467.315025,-8882.471304,-11917.315666,-2834.553343
467.315348,-11029.068536,-5995.668130,-1915.238745
467.315670,-7624.121203,-5403.503377,-2834.553343
467.315992,-2516.700203,-5995.668130,-2298.286494
467.316314,-222.061783,-8956.491898,-1532.190996
467.316636,-1406.391290,-9548.656652,2757.943793
467.316958,-1702.473667,-8068.244768,4903.011187
467.317280,74.020594,-6217.729913,995.924147
467.317603,3108.864956,-4885.359217,-1991.848295
467.317925,4367.215058,-5921.647536,-2987.772442
467.318247,4367.215058,-6957.935855,-3064.381992
467.318569,4441.235652,-10066.800811,-1991.848295
467.318891,5181.441594,-10881.027347,0.000000
467.319213,5773.606348,-10658.965565,-2374.896044
467.319535,5181.441594,-12361.439231,-6435.202183
467.319858,3034.844362,-13989.892304,-5745.716235
467.320180,74.020594,-13027.624579,-2451.505594
467.320502,-1924.535449,-10584.944971,-689.485948
467.320824,-2294.638420,-9992.780217,-1915.238745
467.321146,-2368.659014,-10214.842000,-3140.991542
467.321468,-2812.782580,-10955.047942,-1072.533697
467.321790,-2442.679609,-11325.150913,2068.457845
467.322113,-740.205942,-9770.718434,2528.115143
467.322435,1702.473667,-6587.832884,842.705048
467.322757,5181.441594,-4663.297435,383.047749
467.323079,6143.709319,-4071.132681,1225.752797
467.323401,4885.359217,-3923.091493,383.047749
467.323723,3108.864956,-4663.297435,-1991.848295
467.324046,2368.659014,-6735.874072,-3983.696590
467.324368,1702.473667,-8734.430116,-5209.449386
467.324690,-962.267725,-11103.089130,-5669.106685
467.325012,-4219.173869,-14211.954086,-5515.887586
467.325334,-5995.668130,-16358.551318,-4136.915689
467.325656,-5255.462188,-16358.551318,-3447.429741
467.325978,-3997.112087,-14211.954086,-4596.572988
467.326301,-4515.256246,-10362.883188,-5132.839837
467.326623,-4441.235652,-9474.636058,-3294.210641
467.326945,-2442.679609,-9326.594869,0.000000
467.327267,814.226536,-9548.656652,1915.238745
467.327589,4071.132681,-9548.656652,919.314598
467.327911,5033.400406,-8216.285956,229.828649
467.328233,4959.379811,-8068.244768,2298.286494
467.328556,2812.782580,-6809.894666,4903.011187
467.328878,962.267725,-5551.544565,3907.087040
467.329200,888.247130,-5477.523971,-842.705048
467.329522,2960.823768,-6587.832884,-4060.306139
467.329844,3182.885551,-7994.224174,-3140.991542
467.330166,1406.391290,-9326.594869,-842.705048
467.330488,148.041188,-11251.130318,766.095498
467.330811,222.061783,-11917.315666,-842.705048
467.331133,-296.082377,-11251.130318,-4443.353888
467.331455,-2812.782580,-10436.903782,-6281.983084
467.331777,-6587.832884,-9770.718434,-5439.278036
467.332099,-8586.388927,-10436.903782,-3447.429741
467.332421,-7846.182985,-10807.006753,-1302.362347
467.332744,-5699.585753,-9696.697840,-995.924147
467.333066,-3478.967927,-8586.388927,-2221.676944
467.333388,-1554.432478,-8068.244768,-2528.115143
467.333710,0.000000,-7920.203579,459.657299
467.334032,1184.329507,-7179.997637,2451.505594
467.334354,1628.453072,-5773.606348,919.314598
467.334676,1036.288319,-5329.482782,-1149.143247
467.334999,0.000000,-8142.265362,-2298.286494
467.335321,-1258.350101,-11029.068536,-995.924147
467.335643,-2664.741391,-11843.295072,0.000000
467.335965,-2072.576638,-11177.109724,0.000000
467.336287,1258.350101,-10584.944971,-1685.410096
467.336609,4737.318029,-11103.089130,-3294.210641
467.336931,6069.688724,-11547.212695,-2068.457845
467.337254,5477.523971,-10140.821405,842.705048
467.337576,4367.215058,-8882.471304,1149.143247
467.337898,3256.906145,-8882.471304,-1225.752797
467.338220,814.226536,-8290.306550,-3447.429741
467.338542,-2960.823768,-8438.347739,-3677.258390
467.338864,-5921.647536,-10066.800811,-2604.724693
467.339186,-6661.853478,-9844.739029,-1149.143247
467.339509,-5773.606348,-8216.285956,-2451.505594
467.339831,-3627.009116,-6735.874072,-4749.792088
467.340153,-2072.576638,-8956.491898,-4749.792088
467.340475,-2738.761985,-9918.759623,-1532.190996
467.340797,-4219.173869,-8290.306550,-612.876398
467.341119,-4441.235652,-7772.162391,-3140.991542
467.341442,-2146.597232,-10510.924376,-5209.449386
467.341764,0.000000,-11917.315666,-5975.544884
467.342086,-814.226536,-13027.624579,-3983.696590
467.342408,-1110.308913,-14434.015869,536.266849
467.342730,888.247130,-12361.439231,3753.867940
467.343052,5033.400406,-8142.265362,1378.971896
467.343374,8438.347739,-5699.585753,-2451.505594
467.343697,9252.574275,-6735.874072,-2374.896044
467.344019,7846.182985,-8068.244768,1149.143247
467.344341,6957.935855,-7550.100608,3983.696590
467.344663,5181.441594,-5921.647536,3140.991542
467.344985,3478.967927,-6587.832884,-919.314598
467.345307,962.267725,-7031.956449,-3217.601092
467.345629,-2146.597232,-8586.388927,-4060.306139
467.345952,-5477.523971,-10658.965565,-2604.724693
467.346274,-5847.626942,-12213.398043,-2604.724693
467.346596,-5181.441594,-12509.480420,-4519.963438
467.346918,-4737.318029,-10955.047942,-4443.353888
467.347240,-5551.544565,-9326.594869,-3753.867940
467.347562,-6809.894666,-10658.965565,-3753.867940
467.347884,-5181.441594,-13545.768739,-3064.381992
467.348207,-2516.700203,-12139.377449,-3064.381992
467.348529,-2442.679609,-9622.677246,-3907.087040
467.348851,-1850.514855,-11029.068536,-1762.019645
467.349173,-1036.288319,-11991.336260,2145.067394
467.349495,-1110.308913,-9548.656652,2757.943793
467.349817,0.000000,-4737.318029,1762.019645
467.350139,2294.638420,-2738.761985,0.000000
467.350462,5403.503377,-5403.503377,-2834.553343
467.350784,6069.688724,-8438.347739,-306.438199
467.351106,5329.482782,-8512.368333,3983.696590
467.351428,4145.153275,-7846.182985,2987.772442
467.351750,3552.988522,-8290.306550,-612.876398
467.352072,1924.535449,-9474.636058,-2681.334243
467.352395,-2368.659014,-10288.862594,-2911.162892
467.352717,-5255.462188,-11399.171507,-3370.820191
467.353039,-6587.832884,-12435.459826,-1915.238745
467.353361,-6143.709319,-11399.171507,-1685.410096
467.353683,-4515.256246,-9030.512492,-4290.134789
467.354005,-3552.988522,-8216.285956,-5515.887586
467.354327,-2960.823768,-9918.759623,-3677.258390
467.354650,-2664.741391,-11177.109724,-689.485948
467.354972,-2516.700203,-10510.924376,689.485948
467.355294,-2738.761985,-8438.347739,-536.266849
467.355616,-2960.823768,-7698.141797,-2757.943793
467.355938,-2738.761985,-8586.388927,-2604.724693
467.356260,-2294.638420,-9474.636058,-459.657299
467.356582,-1406.391290,-7624.121203,306.438199
467.356905,666.185348,-6365.771101,-612.876398
467.357227,3775.050304,-7624.121203,-383.047749
467.357549,5773.606348,-10658.965565,-1072.533697
467.357871,5847.626942,-10955.047942,-459.657299
467.358193,5625.565159,-9844.739029,-689.485948
467.358515,5625.565159,-8956.491898,-1302.362347
467.358837,5033.400406,-9474.636058,-2068.457845
467.359160,2442.679609,-8882.471304,-689.485948
467.359482,-1628.453072,-9326.594869,-1762.019645
467.359804,-3330.926739,-10510.924376,-2298.286494
467.360126,-3108.864956,-11103.089130,-3064.381992
467.360448,-2220.617826,-10214.842000,-4136.915689
467.360770,-2220.617826,-9474.636058,-5132.839837
467.361093,-2812.782580,-9770.718434,-3447.429741
467.361415,-2368.659014,-10436.903782,306.438199
467.361737,-1998.556043,-8216.285956,76.609550
467.362059,-1924.535449,-7179.997637,-3753.867940
467.362381,-1628.453072,-8364.327145,-6358.592633
467.362703,-2072.576638,-9844.739029,-4596.572988
467.363025,-2738.761985,-12583.501014,-612.876398
467.363348,-2886.803174,-12139.377449,2145.067394
467.363670,-444.123565,-9622.677246,842.705048
467.363992,3552.988522,-6957.935855,-2374.896044
467.364314,6661.853478,-7328.038826,-4443.353888
467.364636,5921.647536,-8364.327145,-766.095498
467.364958,4663.297435,-8512.368333,1838.629195
467.365280,4071.132681,-7179.997637,1608.800546
467.365603,3108.864956,-7254.018232,-536.266849
467.365925,370.102971,-7698.141797,-2528.115143
467.366247,-2886.803174,-9178.553681,-3524.039291
467.366569,-4959.379811,-10881.027347,-2987.772442
467.366891,-5847.626942,-11177.109724,-1608.800546
467.367213,-5107.421000,-9474.636058,-1302.362347
467.367535,-3552.988522,-8956.491898,-4136.915689
467.367858,-2590.720797,-9622.677246,-5056.230287
467.368180,-2812.782580,-11251.130318,-3677.258390
467.368502,-3330.926739,-12213.398043,-689.485948
467.368824,-3034.844362,-11399.171507,-459.657299
467.369146,-2738.761985,-9844.739029,-2221.676944
467.369468,-3552.988522,-9178.553681,-2221.676944
467.369790,-3923.091493,-9178.553681,-536.266849
467.370113,-3034.844362,-9400.615463,0.000000
467.370435,-740.205942,-8734.430116,-1225.752797
467.370757,1628.453072,-8068.244768,-1378.971896
467.371079,2960.823768,-8438.347739,0.000000
467.371401,2368.659014,-8512.368333,2374.896044
467.371723,1406.391290,-8142.265362,2834.553343
467.372046,1258.350101,-7031.956449,153.219100
467.372368,1184.329507,-6735.874072,-3677.258390
467.372690,370.102971,-7105.977043,-4749.792088
467.373012,-2368.659014,-8438.347739,-2374.896044
467.373334,-3849.070898,-10955.047942,-995.924147
467.373656,-4071.132681,-12435.459826,-1225.752797
467.373978,-2590.720797,-12139.377449,-2374.896044
467.374301,-1184.329507,-11029.068536,-4673.182538
467.374623,-370.102971,-10510.924376,-5362.668486
467.374945,-370.102971,-11177.109724,-2221.676944
467.375267,-1110.308913,-9918.759623,1225.752797
467.375589,-296.082377,-7476.080014,995.924147
467.375911,740.205942,-6809.894666,-2068.457845
467.376233,1184.329507,-8290.306550,-3294.210641
467.376556,-370.102971,-9622.677246,-1225.752797
467.376878,-1924.535449,-10436.903782,1915.238745
467.377200,-1184.329507,-9548.656652,3447.429741
467.377522,1998.556043,-7698.141797,766.095498
467.377844,4959.379811,-6883.915261,-2834.553343
467.378166,6513.812290,-7476.080014,-2604.724693
467.378488,5255.462188,-7698.141797,229.828649
467.378811,4441.235652,-7920.203579,1685.410096
467.379133,3478.967927,-8512.368333,0.000000
467.379455,2442.679609,-9178.553681,-2987.772442
467.379777,518.144159,-9474.636058,-4979.620737
467.380099,-2812.782580,-11029.068536,-5286.058936
467.380421,-4737.318029,-13027.624579,-2834.553343
467.380744,-4885.359217,-12287.418637,-2374.896044
467.381066,-4071.132681,-10584.944971,-4213.525239
467.381388,-2664.741391,-9770.718434,-4749.792088
467.381710,-2960.823768,-9400.615463,-3217.601092
467.382032,-2812.782580,-8734.430116,-1762.019645
467.382354,-2590.720797,-8512.368333,-766.095498
467.382676,-148.041188,-9030.512492,-1455.581446
467.382999,1406.391290,-8882.471304,-3370.820191
467.383321,1036.288319,-9622.677246,-2298.286494
467.383643,-962.267725,-10732.986159,1685.410096
467.383965,-962.267725,-10362.883188,3140.991542
467.384287,1332.370696,-8438.347739,-1378.971896
467.384609,4071.132681,-8364.327145,-4213.525239
467.384931,4441.235652,-9474.636058,-2145.067394
467.385254,3256.906145,-9400.615463,1149.143247
467.385576,1036.288319,-8438.347739,2451.505594
467.385898,74.020594,-7179.997637,612.876398
467.386220,0.000000,-7402.059420,-3677.258390
467.386542,-1850.514855,-7476.080014,-5975.544884
467.386864,-5699.585753,-9104.533087,-4136.915689
467.387186,-8808.450710,-10732.986159,-2068.457845
467.387509,-9252.574275,-12213.398043,-1302.362347
467.387831,-6513.812290,-11251.130318,-2987.772442
467.388153,-3923.091493,-9918.759623,-6741.640382
467.388475,-3923.091493,-10140.821405,-6435.202183
467.388797,-4219.173869,-10658.965565,-1225.752797
467.389119,-3775.050304,-8956.491898,2068.457845
467.389441,-2220.617826,-7179.997637,0.000000
467.389764,0.000000,-7846.182985,-3217.601092
467.390086,1554.432478,-9696.697840,-4213.525239
467.390408,518.144159,-10732.986159,-2604.724693
467.390730,-1332.370696,-11843.295072,2834.553343
467.391052,0.000000,-10214.842000,5592.497135
467.391374,4737.318029,-7402.059420,612.876398
467.391697,8290.306550,-6513.812290,-3830.477490
467.392019,8808.450710,-8586.388927,-1378.971896
467.392341,5847.626942,-8660.409521,3677.258390
467.392663,3330.926739,-7994.224174,3983.696590
467.392985,2738.761985,-7402.059420,919.314598
467.393307,1850.514855,-7920.203579,-3064.381992
467.393629,-962.267725,-8290.306550,-5056.230287
467.393952,-5477.523971,-8882.471304,-3600.648841
467.394274,-7476.080014,-11251.130318,-1685.410096
467.394596,-6957.935855,-13101.645173,-3217.601092
467.394918,-5181.441594,-11177.109724,-4366.744339
467.395240,-5699.585753,-9326.594869,-4366.744339
467.395562,-6291.750507,-9030.512492,-3753.867940
467.395884,-4145.153275,-12139.377449,-3370.820191
467.396207,-444.123565,-11621.233289,-2451.505594
467.396529,1998.556043,-8882.471304,-3217.601092
467.396851,2812.782580,-9030.512492,-2528.115143
467.397173,2812.782580,-10807.006753,842.705048
467.397495,2960.823768,-11843.295072,2681.334243
467.397817,2368.659014,-8956.491898,2451.505594
467.398139,3404.947333,-6291.750507,-689.485948
467.398462,5699.585753,-6439.791695,-2451.505594
467.398784,7179.997637,-6661.853478,306.438199
467.399106,5477.523971,-6365.771101,3600.648841
467.399428,3330.926739,-6513.812290,4136.915689
467.399750,3849.070898,-7698.141797,536.266849
467.400072,3701.029710,-8216.285956,-3217.601092
467.400395,296.082377,-8660.409521,-4519.963438
467.400717,-4367.215058,-11029.068536,-3217.601092
467.401039,-7254.018232,-13175.665768,-2451.505594
467.401361,-7698.141797,-12361.439231,-3294.210641
467.401683,-7105.977043,-10436.903782,-5592.497135
467.402005,-5181.441594,-10066.800811,-7967.393179
467.402327,-3701.029710,-11473.192101,-7814.174080
467.402650,-2146.597232,-11843.295072,-3907.087040
467.402972,-1184.329507,-10881.027347,-459.657299
467.403294,740.205942,-10584.944971,-459.657299
467.403616,2294.638420,-9326.594869,-2221.676944
467.403938,1702.473667,-8142.265362,-2757.943793
467.404260,-370.102971,-7328.038826,-229.828649
467.404582,-1702.473667,-8068.244768,2221.676944
467.404905,0.000000,-7328.038826,1225.752797
467.405227,2368.659014,-6735.874072,-1225.752797
467.405549,3997.112087,-6883.915261,-306.438199
467.405871,3997.112087,-6809.894666,536.266849
467.406193,2960.823768,-8142.265362,1915.238745
467.406515,2368.659014,-9252.574275,919.314598
467.406837,1628.453072,-8956.491898,-536.266849
467.407160,-296.082377,-8956.491898,-3983.696590
467.407482,-2960.823768,-9918.759623,-5515.887586
467.407804,-5847.626942,-12509.480420,-4060.306139
467.408126,-8290.306550,-13471.748144,-3753.867940
467.408448,-7994.224174,-13175.665768,-3600.648841
467.408771,-6143.709319,-11917.315666,-5592.497135
467.409093,-5107.421000,-11177.109724,-6435.202183
467.409416,-3034.844362,-11399.171507,-3907.087040
467.409738,-1776.494261,-10066.800811,-1225.752797
467.410060,-370.102971,-8660.409521,-1149.143247
467.410383,1850.514855,-7402.059420,-1762.019645
467.410705,2738.761985,-7476.080014,-1225.752797
467.411027,888.247130,-8290.306550,842.705048
467.411350,0.000000,-8660.409521,3447.429741
467.411672,222.061783,-7772.162391,4136.915689
467.411995,3775.050304,-6883.915261,-306.438199
467.412317,6957.935855,-7624.121203,-2834.553343
467.412639,7031.956449,-7846.182985,1149.143247
467.412962,4663.297435,-5477.523971,3753.867940
467.413284,2812.782580,-7105.977043,3370.820191
467.413606,3182.885551,-8956.491898,536.266849
467.413929,2368.659014,-8734.430116,-3524.039291
467.414251,-888.247130,-9548.656652,-6128.763984
467.414574,-4441.235652,-11991.336260,-2757.943793
467.414896,-7105.977043,-12139.377449,-1072.533697
467.415218,-7920.203579,-11473.192101,-2757.943793
467.415541,-6365.771101,-11325.150913,-5056.230287
467.415863,-5625.565159,-9548.656652,-6281.983084
467.416185,-4737.318029,-8734.430116,-7277.907231
467.416508,-2294.638420,-11029.068536,-3524.039291
467.416830,296.082377,-11621.233289,-842.705048
467.417153,3478.967927,-9622.677246,-1225.752797
467.417475,5033.400406,-9030.512492,-1685.410096
467.417797,4737.318029,-9844.739029,383.047749
467.418120,2960.823768,-9844.739029,2221.676944
467.418442,1924.535449,-8512.368333,2451.505594
467.418764,2590.720797,-5995.668130,1991.848295
467.419087,4737.318029,-5477.523971,-1685.410096
467.419409,6735.874072,-7476.080014,-2451.505594
467.419732,5921.647536,-8438.347739,612.876398
467.420054,3923.091493,-8290.306550,2451.505594
467.420376,1998.556043,-8216.285956,1991.848295
467.420699,1406.391290,-8882.471304,-1149.143247
467.421021,-962.267725,-9474.636058,-5362.668486
467.421343,-4885.359217,-10436.903782,-6435.202183
467.421666,-8956.491898,-12213.398043,-3753.867940
467.421988,-11177.109724,-12805.562797,-1608.800546
467.422311,-9548.656652,-11621.233289,-4213.525239
467.422633,-7624.121203,-9770.718434,-7507.735880
467.422955,-6069.688724,-9844.739029,-7584.345430
467.423278,-4293.194464,-12065.356855,-4596.572988
467.423600,-2294.638420,-12213.398043,-306.438199
467.423923,0.000000,-9696.697840,-842.705048
467.424245,1776.494261,-7402.059420,-2834.553343
467.424567,2664.741391,-8068.244768,-2221.676944
467.424890,1702.473667,-9400.615463,919.314598
467.425212,222.061783,-8290.306550,3983.696590
467.425534,888.247130,-7105.977043,2068.457845
467.425857,4145.153275,-6143.709319,-1608.800546
467.426179,6883.915261,-6809.894666,-1532.190996
467.426502,6587.832884,-7179.997637,1532.190996
467.426824,3997.112087,-7105.977043,3217.601092
467.427146,2664.741391,-8808.450710,1762.019645
467.427469,1850.514855,-8956.491898,-612.876398
467.427791,0.000000,-8216.285956,-3753.867940
467.428113,-3330.926739,-9400.615463,-4903.011187
467.428436,-5403.503377,-12583.501014,-4290.134789
467.428758,-7254.018232,-13915.871710,-1685.410096
467.429081,-7920.203579,-11399.171507,-1685.410096
467.429403,-7698.141797,-9030.512492,-4673.182538
467.429725,-6735.874072,-9918.759623,-7277.907231
467.430048,-5403.503377,-10658.965565,-5898.935335
467.430370,-3627.009116,-10881.027347,-3217.601092
467.430692,-888.247130,-10436.903782,-1838.629195
467.431015,2294.638420,-9326.594869,-2145.067394
467.431337,4663.297435,-9400.615463,-2068.457845
467.431660,4663.297435,-9844.739029,-153.219100
467.431982,3256.906145,-10066.800811,2681.334243
467.432304,2442.679609,-9178.553681,3447.429741
467.432627,4293.194464,-7476.080014,2068.457845
467.432949,7031.956449,-5995.668130,-459.657299
467.433271,7994.224174,-6217.729913,-1378.971896
467.433594,7772.162391,-6809.894666,2145.067394
467.433916,6957.935855,-7550.100608,4519.963438
467.434239,5255.462188,-8290.306550,1762.019645
467.434561,4219.173869,-9474.636058,-1991.848295
467.434883,1998.556043,-10288.862594,-3983.696590
467.435206,-1850.514855,-11325.150913,-3677.258390
467.435528,-5477.523971,-12731.542202,-1991.848295
467.435850,-7994.224174,-12287.418637,-1072.533697
467.436173,-7994.224174,-9696.697840,-3294.210641
467.436495,-6957.935855,-8068.244768,-6894.859482
467.436818,-5403.503377,-9770.718434,-7584.345430
467.437140,-4663.297435,-11769.274478,-4519.963438
467.437462,-3034.844362,-11843.295072,-1991.848295
467.437785,-1480.411884,-11325.150913,-842.705048
467.438107,0.000000,-10658.965565,-1302.362347
467.438429,222.061783,-9474.636058,-1608.800546
467.438752,-1776.494261,-8438.347739,229.828649
467.439074,-2294.638420,-6809.894666,2145.067394
467.439397,370.102971,-5551.544565,0.000000
467.439719,4071.132681,-5551.544565,-3064.381992
467.440041,5847.626942,-6365.771101,-229.828649
467.440364,5699.585753,-6883.915261,3294.210641
467.440686,4959.379811,-8734.430116,3064.381992
467.441008,4811.338623,-10510.924376,612.876398
467.441331,2886.803174,-9622.677246,-1149.143247
467.441653,-962.267725,-8290.306550,-2451.505594
467.441976,-4885.359217,-9400.615463,-2987.772442
467.442298,-6513.812290,-11843.295072,-3217.601092
467.442620,-7476.080014,-12509.480420,-4290.134789
467.442943,-8734.430116,-11547.212695,-3753.867940
467.443265,-9104.533087,-10510.924376,-3677.258390
467.443587,-7920.203579,-10955.047942,-5745.716235
467.443910,-6735.874072,-11547.212695,-5362.668486
467.444232,-5033.400406,-11251.130318,-2987.772442
467.444555,-2516.700203,-9770.718434,-3447.429741
467.444877,370.102971,-9844.739029,-4673.182538
467.445199,2738.761985,-9918.759623,-2451.505594
467.445522,2886.803174,-9178.553681,842.705048
467.445844,2072.576638,-7698.141797,2911.162892
467.446167,2368.659014,-7994.224174,2451.505594
467.446489,4293.194464,-7624.121203,1072.533697
467.446811,5255.462188,-6661.853478,-995.924147
467.447134,5995.668130,-5477.523971,-766.095498
467.447456,6217.729913,-6069.688724,1149.143247
467.447778,6513.812290,-6735.874072,2451.505594
467.448101,5403.503377,-6513.812290,1838.629195
467.448423,2886.803174,-7994.224174,-766.095498
467.448746,962.267725,-11547.212695,-2834.553343
467.449068,-2146.597232,-14359.995275,-3753.867940
467.449390,-6069.688724,-13767.830521,-1762.019645
467.449713,-9622.677246,-10807.006753,-536.266849
467.450035,-9622.677246,-9326.594869,-4673.182538
467.450357,-6587.832884,-10214.842000,-8656.879127
467.450680,-3404.947333,-10881.027347,-7431.126331
467.451002,-1702.473667,-10362.883188,-4290.134789
467.451325,296.082377,-11029.068536,-2681.334243
467.451647,3330.926739,-12361.439231,0.000000
467.451969,5625.565159,-12583.501014,-306.438199
467.452292,5033.400406,-10658.965565,-1608.800546
467.452614,2812.782580,-9474.636058,689.485948
467.452936,1406.391290,-7920.203579,3907.087040
467.453259,2146.597232,-5107.421000,2451.505594
467.453581,3997.112087,-2886.803174,0.000000
467.453904,4885.359217,-3404.947333,0.000000
467.454226,4589.276840,-5551.544565,2298.286494
467.454548,3849.070898,-7179.997637,3677.258390
467.454871,2886.803174,-8586.388927,1608.800546
467.455193,1776.494261,-9104.533087,-459.657299
467.455515,74.020594,-9918.759623,-2757.943793
467.455838,-2812.782580,-12361.439231,-3447.429741
467.456160,-6291.750507,-13323.706956,-1762.019645
467.456483,-10066.800811,-11547.212695,-1532.190996
467.456805,-11325.150913,-9400.615463,-4903.011187
467.457127,-9770.718434,-9918.759623,-7507.735880
467.457450,-6883.915261,-12805.562797,-7890.783629
467.457772,-5403.503377,-12879.583391,-4673.182538
467.458094,-4219.173869,-10881.027347,-1072.533697
467.458417,-1258.350101,-10140.821405,-766.095498
467.458739,1998.556043,-9400.615463,-2374.896044
467.459062,2812.782580,-8512.368333,-2451.505594
467.459384,888.247130,-7550.100608,-383.047749
467.459706,-888.247130,-7328.038826,2145.067394
467.460029,0.000000,-7550.100608,3370.820191
467.460351,2368.659014,-5699.585753,842.705048
467.460673,4441.235652,-5403.503377,-1762.019645
467.460996,5255.462188,-6587.832884,-229.828649
467.461318,5773.606348,-8364.327145,1455.581446
467.461641,6069.688724,-9178.553681,2451.505594
467.461963,4219.173869,-7994.224174,-306.438199
467.462285,-740.205942,-7402.059420,-1762.019645
467.462608,-4663.297435,-10140.821405,-2834.553343
467.462930,-6291.750507,-13027.624579,-5822.325785
467.463252,-7328.038826,-14508.036463,-6971.469032
467.463575,-9992.780217,-12953.603985,-4903.011187
467.463897,-10510.924376,-9844.739029,-1762.019645
467.464220,-7846.182985,-10066.800811,-4213.525239
467.464542,-4515.256246,-10881.027347,-6281.983084
467.464864,-2886.803174,-10658.965565,-4596.572988
467.465187,-1110.308913,-9844.739029,-4060.306139
467.465509,1036.288319,-9992.780217,-3524.039291
467.465831,3627.009116,-10955.047942,-1225.752797
467.466154,3997.112087,-9622.677246,459.657299
467.466476,3404.947333,-9104.533087,2068.457845
467.466799,3627.009116,-8068.244768,3217.601092
467.467121,5181.441594,-5995.668130,1838.629195
467.467443,7550.100608,-5181.441594,-1149.143247
467.467766,8142.265362,-5921.647536,-842.705048
467.468088,7476.080014,-6661.853478,2681.334243
467.468410,6513.812290,-6957.935855,4749.792088
467.468733,4589.276840,-6809.894666,1302.362347
467.469055,2960.823768,-8290.306550,-3217.601092
467.469378,148.041188,-10881.027347,-4673.182538
467.469700,-4145.153275,-13027.624579,-3677.258390
467.470022,-8068.244768,-13767.830521,-919.314598
467.470345,-9622.677246,-12435.459826,-612.876398
467.470667,-8956.491898,-10955.047942,-4366.744339
467.470990,-6513.812290,-10066.800811,-7354.516781
467.471312,-4589.276840,-9696.697840,-6665.030833
467.471634,-3478.967927,-10362.883188,-2757.943793
467.471957,-2294.638420,-9918.759623,76.609550
467.472279,0.000000,-9918.759623,-842.705048
467.472601,1628.453072,-10510.924376,-2757.943793
467.472924,1702.473667,-10732.986159,-2757.943793
467.473246,148.041188,-10214.842000,1072.533697
467.473569,-296.082377,-8290.306550,3983.696590
467.473891,592.164754,-5625.565159,2298.286494
467.474213,3256.906145,-3923.091493,-766.095498
467.474536,4885.359217,-4441.235652,-1608.800546
467.474858,5551.544565,-6513.812290,0.000000
467.475180,4515.256246,-7846.182985,1378.971896
467.475503,2812.782580,-7994.224174,1225.752797
467.475825,1332.370696,-9252.574275,-459.657299
467.476148,-370.102971,-11103.089130,-2528.115143
467.476470,-2812.782580,-12805.562797,-4213.525239
467.476792,-6069.688724,-13767.830521,-4749.792088
467.477115,-8956.491898,-12583.501014,-2834.553343
467.477437,-9326.594869,-10288.862594,-2451.505594
467.477759,-7772.162391,-8882.471304,-4366.744339
467.478082,-6291.750507,-9696.697840,-6818.249932
467.478404,-5403.503377,-11177.109724,-4443.353888
467.478727,-4441.235652,-10732.986159,-919.314598
467.479049,-1776.494261,-9030.512492,-1915.238745
467.479371,370.102971,-9400.615463,-2987.772442
467.479694,1776.494261,-9992.780217,-2451.505594
467.480016,1110.308913,-10214.842000,-306.438199
467.480338,148.041188,-9326.594869,1915.238745
467.480661,888.247130,-7550.100608,2451.505594
467.480983,2886.803174,-6439.791695,-689.485948
467.481306,4737.318029,-5403.503377,-2298.286494
467.481628,4959.379811,-5329.482782,-383.047749
467.481950,4663.297435,-6883.915261,1225.752797
467.482273,4737.318029,-8660.409521,919.314598
467.482595,4071.132681,-8364.327145,-459.657299
467.482917,2516.700203,-8142.265362,-2834.553343
467.483240,444.123565,-10955.047942,-4136.915689
467.483562,-1924.535449,-14211.954086,-4213.525239
467.483885,-4293.194464,-14211.954086,-2451.505594
467.484207,-7179.997637,-11029.068536,-1685.410096
467.484529,-7846.182985,-8438.347739,-3830.477490
467.484852,-5921.647536,-8882.471304,-6281.983084
467.485174,-4071.132681,-9770.718434,-6435.202183
467.485496,-3108.864956,-9918.759623,-4060.306139
467.485819,-1110.308913,-10732.986159,-2528.115143
467.486141,2664.741391,-11621.233289,-1838.629195
467.486464,5033.400406,-12361.439231,-766.095498
467.486786,4959.379811,-11621.233289,0.000000
467.487108,2664.741391,-10066.800811,1455.581446
467.487431,1480.411884,-9326.594869,2221.676944
467.487753,2738.761985,-6513.812290,1072.533697
467.488075,3997.112087,-4293.194464,-842.705048
467.488398,4515.256246,-3478.967927,-919.314598
467.488720,4441.235652,-4811.338623,1072.533697
467.489043,4367.215058,-7846.182985,2068.457845
467.489365,4071.132681,-8882.471304,1149.143247
467.489687,1480.411884,-8956.491898,-689.485948
467.490010,-1850.514855,-10066.800811,-2221.676944
467.490332,-4293.194464,-11991.336260,-3294.210641
467.490654,-6291.750507,-13471.748144,-3753.867940
467.490977,-9030.512492,-12139.377449,-3217.601092
467.491299,-10584.944971,-10362.883188,-3140.991542
467.491622,-9548.656652,-9992.780217,-5132.839837
467.491944,-8290.306550,-9400.615463,-6971.469032
467.492266,-6809.894666,-10066.800811,-4979.620737
467.492589,-4515.256246,-11251.130318,-2451.505594
467.492911,-1110.308913,-11843.295072,-2451.505594
467.493234,666.185348,-11029.068536,-2451.505594
467.493556,1924.535449,-10288.862594,-766.095498
467.493878,2220.617826,-10066.800811,1302.362347
467.494201,2442.679609,-8586.388927,2757.943793
467.494523,3552.988522,-6217.729913,2987.772442
467.494845,4811.338623,-3478.967927,0.000000
467.495168,6291.750507,-4959.379811,-536.266849
467.495490,6291.750507,-5847.626942,2451.505594
467.495813,5551.544565,-6957.935855,3524.039291
467.496135,6365.771101,-8586.388927,459.657299
467.496457,6587.832884,-9326.594869,-1455.581446
467.496780,3775.050304,-8882.471304,-1532.190996
467.497102,-1628.453072,-9400.615463,-536.266849
467.497424,-4811.338623,-11843.295072,-1532.190996
467.497747,-6883.915261,-13323.706956,-3907.087040
467.498069,-8364.327145,-12065.356855,-5056.230287
467.498392,-10955.047942,-9326.594869,-4443.353888
467.498714,-11621.233289,-9030.512492,-5745.716235
467.499036,-9178.553681,-10881.027347,-6205.373534
467.499359,-5329.482782,-11547.212695,-4673.182538
467.499681,-2294.638420,-9400.615463,-3140.991542
467.500003,-148.041188,-10140.821405,-4060.306139
467.500326,2220.617826,-11695.253884,-2834.553343
467.500648,3256.906145,-12287.418637,-153.219100
467.500971,2886.803174,-9992.780217,1072.533697
467.501293,2960.823768,-7624.121203,1762.019645
467.501615,4071.132681,-6143.709319,1225.752797
467.501938,5255.462188,-5847.626942,-1149.143247
467.502260,5255.462188,-5403.503377,459.657299
467.502582,4959.379811,-4737.318029,2298.286494
467.502905,6365.771101,-6513.812290,1378.971896
467.503227,8068.244768,-8882.471304,-995.924147
467.503550,6439.791695,-8808.450710,-536.266849
467.503872,2664.741391,-9178.553681,0.000000
467.504194,-370.102971,-13175.665768,-1762.019645
467.504517,-3108.864956,-15766.386565,-2604.724693
467.504839,-6809.894666,-12065.356855,-2604.724693
467.505161,-9992.780217,-7402.059420,-5439.278036
467.505484,-10288.862594,-8216.285956,-7354.516781
467.505806,-6883.915261,-12065.356855,-7354.516781
467.506129,-3997.112087,-12953.603985,-5822.325785
467.506451,-2738.761985,-11843.295072,-3140.991542
467.506773,-1110.308913,-10955.047942,-2451.505594
467.507096,1258.350101,-11843.295072,-2221.676944
467.507418,1924.535449,-12139.377449,-2298.286494
467.507740,-666.185348,-10066.800811,0.000000
467.508063,-2886.803174,-6735.874072,1685.410096
467.508385,-1480.411884,-4589.276840,536.266849
467.508708,2072.576638,-3404.947333,-383.047749
467.509030,4663.297435,-3256.906145,-919.314598
467.509352,4885.359217,-5477.523971,536.266849
467.509675,5625.565159,-8734.430116,3294.210641
467.509997,6217.729913,-9474.636058,3217.601092
467.510319,5329.482782,-9474.636058,153.219100
467.510642,1850.514855,-8734.430116,-1915.238745
467.510964,-1554.432478,-9474.636058,-3140.991542
467.511287,-3404.947333,-11917.315666,-4060.306139
467.511609,-5255.462188,-12509.480420,-3140.991542
467.511931,-7105.977043,-10214.842000,-2604.724693
467.512254,-7994.224174,-9474.636058,-4903.011187
467.512576,-6883.915261,-10955.047942,-5515.887586
467.512898,-5625.565159,-12657.521608,-3370.820191
467.513221,-5699.585753,-10881.027347,-1991.848295
467.513543,-4515.256246,-9252.574275,-3217.601092
467.513865,-1850.514855,-8956.491898,-4673.182538
467.514188,666.185348,-9844.739029,-3830.477490
467.514510,592.164754,-10881.027347,-229.828649
467.514833,74.020594,-9770.718434,2911.162892
467.515155,1332.370696,-7920.203579,2145.067394
467.515477,4737.318029,-6809.894666,459.657299
467.515800,6735.874072,-5625.565159,-459.657299
467.516122,6661.853478,-6143.709319,-612.876398
467.516444,6365.771101,-7402.059420,1455.581446
467.516767,5995.668130,-7179.997637,2451.505594
467.517089,4959.379811,-6587.832884,-229.828649
467.517412,2442.679609,-7698.141797,-2528.115143
467.517734,-666.185348,-11029.068536,-2604.724693
467.518056,-3108.864956,-13841.851115,-2834.553343
467.518379,-5551.544565,-14285.974681,-1915.238745
467.518701,-6809.894666,-12213.398043,-995.924147
467.519023,-7624.121203,-9474.636058,-3983.696590
467.519346,-6217.729913,-9030.512492,-5362.668486
467.519668,-5107.421000,-8882.471304,-4596.572988
467.519990,-4811.338623,-8290.306550,-2757.943793
467.520313,-2886.803174,-8808.450710,-2451.505594
467.520635,370.102971,-9992.780217,-3753.867940
467.520958,2072.576638,-12139.377449,-3447.429741
467.521280,1776.494261,-13989.892304,-1072.533697
467.521602,962.267725,-13027.624579,2298.286494
467.521925,1776.494261,-9474.636058,2451.505594
467.522247,3701.029710,-5329.482782,-1072.533697
467.522569,5403.503377,-3627.009116,-766.095498
467.522892,5773.606348,-3997.112087,0.000000
467.523214,5625.565159,-5921.647536,842.705048
467.523537,5033.400406,-7402.059420,1838.629195
467.523859,4663.297435,-7994.224174,536.266849
467.524181,3108.864956,-8882.471304,-995.924147
467.524504,1258.350101,-10881.027347,-1915.238745
467.524826,-1924.535449,-12731.542202,-1991.848295
467.525148,-4811.338623,-12583.501014,-1302.362347
467.525471,-6439.791695,-10510.924376,-1685.410096
467.525793,-7105.977043,-8142.265362,-3830.477490
467.526116,-5995.668130,-7846.182985,-5898.935335
467.526438,-5699.585753,-9104.533087,-5898.935335
467.526760,-5107.421000,-10066.800811,-3983.696590
467.527083,-4293.194464,-11325.150913,-2298.286494
467.527405,-2516.700203,-11473.192101,-2145.067394
467.527727,-1258.350101,-11251.130318,-3447.429741
467.528050,-222.061783,-11473.192101,-3983.696590
467.528372,-888.247130,-11473.192101,-1762.019645
467.528694,-444.123565,-10510.924376,689.485948
467.529017,1258.350101,-7920.203579,1455.581446
467.529339,3034.844362,-5477.523971,995.924147
467.529662,5181.441594,-5625.565159,-612.876398
467.529984,5625.565159,-7254.018232,-612.876398
467.530306,4885.359217,-8586.388927,1991.848295
467.530629,3923.091493,-8660.409521,1915.238745
467.530951,3404.947333,-7994.224174,-612.876398
467.531273,3256.906145,-8512.368333,-3140.991542
467.531596,1110.308913,-9622.677246,-2834.553343
467.531918,-962.267725,-11177.109724,-1455.581446
467.532241,-3330.926739,-11621.233289,-1302.362347
467.532563,-4663.297435,-10510.924376,-2757.943793
467.532885,-5033.400406,-9178.553681,-4596.572988
467.533208,-5699.585753,-9104.533087,-6205.373534
467.533530,-5921.647536,-9918.759623,-4673.182538
467.533852,-4367.215058,-11029.068536,-3600.648841
467.534175,-2442.679609,-10362.883188,-3524.039291
467.534497,-370.102971,-10584.944971,-4213.525239
467.534819,518.144159,-11399.171507,-2604.724693
467.535142,444.123565,-11843.295072,-153.219100
467.535464,-666.185348,-10732.986159,995.924147
467.535787,-888.247130,-8142.265362,919.314598
467.536109,592.164754,-6439.791695,-1378.971896
467.536431,2812.782580,-5181.441594,-1991.848295
467.536754,3775.050304,-5773.606348,0.000000
467.537076,3923.091493,-6365.771101,3064.381992
467.537398,3997.112087,-6513.812290,2604.724693
467.537721,4811.338623,-7550.100608,0.000000
467.538043,4885.359217,-8956.491898,-1302.362347
467.538366,3182.885551,-11325.150913,-1838.629195
467.538688,0.000000,-12435.459826,-1302.362347
467.539010,-3034.844362,-12805.562797,-612.876398
467.539333,-4959.379811,-11325.150913,-1225.752797
467.539655,-5255.462188,-8734.430116,-3217.601092
467.539977,-5403.503377,-8142.265362,-5898.935335
467.540300,-4959.379811,-9474.636058,-5439.278036
467.540622,-4959.379811,-10288.862594,-3140.991542
467.540944,-3108.864956,-10362.883188,-1378.971896
467.541267,-1480.411884,-10436.903782,-1991.848295
467.541589,-518.144159,-11103.089130,-2374.896044
467.541912,-962.267725,-11695.253884,-1915.238745
467.542234,-2072.576638,-11177.109724,-536.266849
467.542556,-1924.535449,-9030.512492,766.095498
467.542879,0.000000,-6661.853478,306.438199
467.543201,2442.679609,-5181.441594,-153.219100
467.543523,4589.276840,-5847.626942,0.000000
467.543846,4885.359217,-6587.832884,1378.971896
467.544168,4515.256246,-7624.121203,1608.800546
467.544491,4071.132681,-9326.594869,995.924147
467.544813,2590.720797,-8882.471304,-536.266849
467.545135,1110.308913,-8956.491898,-2528.115143
467.545458,-1998.556043,-9918.759623,-2528.115143
467.545780,-3701.029710,-11843.295072,-1685.410096
467.546102,-4515.256246,-11399.171507,-1915.238745
467.546425,-4515.256246,-10066.800811,-3140.991542
467.546747,-4219.173869,-9548.656652,-4060.306139
467.547069,-4663.297435,-10066.800811,-3753.867940
467.547392,-4737.318029,-10214.842000,-2528.115143
467.547714,-4145.153275,-9844.739029,-2145.067394
467.548037,-2368.659014,-9474.636058,-2757.943793
467.548359,0.000000,-9030.512492,-4443.353888
467.548681,592.164754,-10140.821405,-3600.648841
467.549004,-740.205942,-12065.356855,-229.828649
467.549326,-1480.411884,-11843.295072,2604.724693
467.549648,-222.061783,-9474.636058,919.314598
467.549971,2516.700203,-7105.977043,-2145.067394
467.550293,4441.235652,-6513.812290,-2911.162892
467.550616,4885.359217,-6883.915261,-153.219100
467.550938,4811.338623,-6661.853478,2068.457845
467.551260,4959.379811,-7105.977043,2145.067394
467.551583,4959.379811,-7772.162391,76.609550
467.551905,4071.132681,-8216.285956,-2987.772442
467.552227,1480.411884,-9918.759623,-4519.963438
467.552550,-1406.391290,-13101.645173,-2604.724693
467.552872,-3330.926739,-13175.665768,-229.828649
467.553195,-4737.318029,-10584.944971,-1225.752797
467.553517,-4737.318029,-8216.285956,-4060.306139
467.553839,-4515.256246,-8512.368333,-5592.497135
467.554162,-4737.318029,-9178.553681,-4979.620737
467.554484,-4515.256246,-9326.594869,-2987.772442
467.554806,-2960.823768,-9844.739029,-2451.505594
467.555129,-592.164754,-10140.821405,-3370.820191
467.555451,888.247130,-9770.718434,-2987.772442
467.555773,222.061783,-12139.377449,-2298.286494
467.556096,-1110.308913,-13101.645173,0.000000
467.556418,-1184.329507,-10881.027347,919.314598
467.556741,0.000000,-7105.977043,-383.047749
467.557063,2294.638420,-5181.441594,-766.095498
467.557385,3997.112087,-6365.771101,-1072.533697
467.557708,4293.194464,-7105.977043,-229.828649
467.558030,4219.173869,-7698.141797,1915.238745
467.558352,4959.379811,-8068.244768,1838.629195
467.558675,4219.173869,-7846.182985,-1302.362347
467.558997,2294.638420,-8586.388927,-2681.334243
467.559320,-1110.308913,-10436.903782,-1838.629195
467.559642,-3923.091493,-12139.377449,-1378.971896
467.559964,-5329.482782,-11473.192101,-1991.848295
467.560287,-4737.318029,-8734.430116,-3830.477490
467.560609,-3775.050304,-8882.471304,-5822.325785
467.560931,-2886.803174,-10807.006753,-3524.039291
467.561254,-3775.050304,-10955.047942,0.000000
467.561576,-4589.276840,-9696.697840,459.657299
467.561898,-3478.967927,-9622.677246,-2451.505594
467.562221,-1184.329507,-9622.677246,-4519.963438
467.562543,-740.205942,-10362.883188,-4596.572988
467.562866,-2368.659014,-10732.986159,-1225.752797
467.563188,-2442.679609,-10658.965565,2528.115143
467.563510,-222.061783,-8882.471304,2298.286494
467.563833,2886.803174,-6809.894666,229.828649
467.564155,4589.276840,-6217.729913,-1149.143247
467.564477,4441.235652,-7624.121203,-306.438199
467.564800,4145.153275,-8438.347739,919.314598
467.565122,4367.215058,-7920.203579,1455.581446
467.565445,3997.112087,-7476.080014,-459.657299
467.565767,3182.885551,-8956.491898,-2987.772442
467.566089,1184.329507,-10732.986159,-2987.772442
467.566412,-1776.494261,-12879.583391,-2221.676944
467.566734,-4219.173869,-13249.686362,-1149.143247
467.567056,-4737.318029,-11917.315666,-1685.410096
467.567379,-3627.009116,-10436.903782,-4596.572988
467.567701,-3034.844362,-9030.512492,-4903.011187
467.568023,-3108.864956,-8216.285956,-2834.553343
467.568346,-2664.741391,-7105.977043,-1838.629195
467.568668,-1036.288319,-7846.182985,-2221.676944
467.568991,888.247130,-8808.450710,-3294.210641
467.569313,1036.288319,-10436.903782,-2987.772442
467.569635,-370.102971,-12879.583391,-919.314598
467.569958,-1850.514855,-13323.706956,1608.800546
467.570280,-1184.329507,-11029.068536,689.485948
467.570602,1184.329507,-7105.977043,-766.095498
467.570925,3108.864956,-5033.400406,-1532.190996
467.571247,3627.009116,-4515.256246,-995.924147
467.571570,3182.885551,-5773.606348,153.219100
467.571892,2960.823768,-6957.935855,1149.143247
467.572214,2442.679609,-8068.244768,-995.924147
467.572537,1998.556043,-9844.739029,-3447.429741
467.572859,-592.164754,-11325.150913,-3064.381992
467.573181,-3997.112087,-13323.706956,-1608.800546
467.573504,-6365.771101,-13323.706956,0.000000
467.573826,-7105.977043,-10510.924376,-1149.143247
467.574148,-5847.626942,-8290.306550,-4596.572988
467.574471,-4293.194464,-7105.977043,-6741.640382
467.574793,-3627.009116,-8364.327145,-4060.306139
467.575116,-3330.926739,-8956.491898,-995.924147
467.575438,-1850.514855,-8808.450710,-536.266849
467.575760,-222.061783,-9696.697840,-2757.943793
467.576083,370.102971,-11399.171507,-3600.648841
467.576405,-1406.391290,-12213.398043,-2451.505594
467.576727,-3182.885551,-12287.418637,-459.657299
467.577050,-2738.761985,-10955.047942,536.266849
467.577372,-148.041188,-8290.306550,-383.047749
467.577695,2886.803174,-5773.606348,-1838.629195
467.578017,4441.235652,-6217.729913,-919.314598
467.578339,3997.112087,-7476.080014,1072.533697
467.578662,3404.947333,-8660.409521,1532.190996
467.578984,3404.947333,-8438.347739,0.000000
467.579306,2664.741391,-7846.182985,-2068.457845
467.579629,814.226536,-8660.409521,-3830.477490
467.579951,-1036.288319,-10881.027347,-3064.381992
467.580274,-2590.720797,-12065.356855,-1762.019645
467.580596,-3552.988522,-11917.315666,-1225.752797
467.580918,-3108.864956,-10066.800811,-1608.800546
467.581241,-2590.720797,-8734.430116,-3524.039291
467.581563,-2886.803174,-8142.265362,-3983.696590
467.581885,-2960.823768,-9400.615463,-3140.991542
467.582208,-1628.453072,-9622.677246,-1838.629195
467.582530,-296.082377,-9326.594869,-1762.019645
467.582852,1110.308913,-9326.594869,-2451.505594
467.583175,1332.370696,-9992.780217,-1225.752797
467.583497,296.082377,-11991.336260,76.609550
467.583820,-296.082377,-11251.130318,1762.019645
467.584142,370.102971,-9252.574275,995.924147
467.584464,2516.700203,-7254.018232,-766.095498
467.584787,4959.379811,-6365.771101,-766.095498
467.585109,5107.421000,-6143.709319,459.657299
467.585431,4515.256246,-6809.894666,2068.457845
467.585754,4219.173869,-7994.224174,1762.019645
467.586076,4441.235652,-8216.285956,-766.095498
467.586399,3701.029710,-9474.636058,-3753.867940
467.586721,814.226536,-11399.171507,-3524.039291
467.587043,-2664.741391,-14285.974681,-1455.581446
467.587366,-5551.544565,-14063.912898,-229.828649
467.587688,-6217.729913,-11177.109724,-1149.143247
467.588010,-5107.421000,-7994.224174,-4903.011187
467.588333,-3034.844362,-7698.141797,-6052.154434
467.588655,-2516.700203,-8290.306550,-4366.744339
467.588977,-2146.597232,-8882.471304,-1302.362347
467.589300,-2146.597232,-9770.718434,-383.047749
467.589622,-666.185348,-10510.924376,-1072.533697
467.589945,370.102971,-11103.089130,-2834.553343
467.590267,-1480.411884,-11325.150913,-3524.039291
467.590589,-3849.070898,-11029.068536,153.219100
467.590912,-4367.215058,-8438.347739,2757.943793
467.591234,-1554.432478,-5255.462188,153.219100
467.591556,1998.556043,-4071.132681,-2604.724693
467.591879,3182.885551,-6217.729913,-2834.553343
467.592201,3256.906145,-8068.244768,0.000000
467.592524,2368.659014,-9104.533087,1378.971896
467.592846,1554.432478,-9844.739029,306.438199
467.593168,592.164754,-10214.842000,-1532.190996
467.593491,-888.247130,-9844.739029,-3753.867940
467.593813,-4145.153275,-9326.594869,-4903.011187
467.594135,-6217.729913,-10436.903782,-3294.210641
467.594458,-6809.894666,-11177.109724,-2834.553343
467.594780,-5107.421000,-11029.068536,-4596.572988
467.595102,-3330.926739,-11177.109724,-4979.620737
467.595425,-3478.967927,-9918.759623,-2374.896044
467.595747,-3034.844362,-9622.677246,-1685.410096
467.596070,-2368.659014,-9474.636058,-1149.143247
467.596392,-962.267725,-8882.471304,-2451.505594
467.596714,370.102971,-7328.038826,-4443.353888
467.597037,666.185348,-8512.368333,-4136.915689
467.597359,0.000000,-11843.295072,306.438199
467.597681,-814.226536,-12213.398043,3294.210641
467.598004,148.041188,-9104.533087,1991.848295
467.598326,2738.761985,-6957.935855,-1532.190996
467.598649,4737.318029,-6809.894666,-2145.067394
467.598971,5403.503377,-7846.182985,-1378.971896
467.599293,5329.482782,-7772.162391,459.657299
467.599616,4515.256246,-6883.915261,306.438199
467.599938,3849.070898,-7105.977043,-459.657299
467.600260,2664.741391,-8956.491898,-2451.505594
467.600583,-296.082377,-10732.986159,-4136.915689
467.600905,-3552.988522,-12435.459826,-3294.210641
467.601227,-4737.318029,-13693.809927,-2298.286494
467.601550,-3997.112087,-12953.603985,-2221.676944
467.601872,-2590.720797,-10510.924376,-2757.943793
467.602195,-2664.741391,-6883.915261,-2068.457845
467.602517,-2812.782580,-5403.503377,-2451.505594
467.602839,-1480.411884,-7624.121203,-1608.800546
467.603162,592.164754,-9622.677246,-2374.896044
467.603484,1554.432478,-9326.594869,-3294.210641
467.603806,1554.432478,-11399.171507,-2528.115143
467.604129,1628.453072,-14359.995275,766.095498
467.604451,1036.288319,-13693.809927,3294.210641
467.604774,814.226536,-9400.615463,1225.752797
467.605096,2072.576638,-6217.729913,-229.828649
467.605418,4367.215058,-5329.482782,-995.924147
467.605741,5033.400406,-5551.544565,-1225.752797
467.606063,3404.947333,-5921.647536,459.657299
467.606385,2442.679609,-8216.285956,1762.019645
467.606708,2960.823768,-9696.697840,-383.047749
467.607030,2368.659014,-9770.718434,-3217.601092
467.607352,0.000000,-11251.130318,-3447.429741
467.607675,-3775.050304,-13101.645173,-919.314598
467.607997,-6513.812290,-11991.336260,459.657299
467.608320,-7624.121203,-9918.759623,-1915.238745
467.608642,-6587.832884,-8586.388927,-4903.011187
467.608964,-4737.318029,-8438.347739,-6511.811733
467.609287,-4071.132681,-8512.368333,-4443.353888
467.609609,-4885.359217,-8438.347739,0.000000
467.609931,-4515.256246,-9326.594869,1149.143247
467.610254,-3108.864956,-10658.965565,-1838.629195
467.610576,-1628.453072,-11029.068536,-4290.134789
467.610899,-2072.576638,-11325.150913,-4366.744339
467.611221,-3404.947333,-11621.233289,-1685.410096
467.611543,-3182.885551,-10436.903782,2068.457845
467.611866,-148.041188,-7105.977043,2451.505594
467.612188,3627.009116,-4811.338623,-1072.533697
467.612510,6365.771101,-6587.832884,-3370.820191
467.612833,5773.606348,-8808.450710,-919.314598
467.613155,4145.153275,-8734.430116,1378.971896
467.613477,2516.700203,-7994.224174,383.047749
467.613800,1776.494261,-8956.491898,-2298.286494
467.614122,592.164754,-9622.677246,-3217.601092
467.614445,-2072.576638,-9326.594869,-4060.306139
467.614767,-4959.379811,-9770.718434,-2834.553343
467.615089,-5625.565159,-10732.986159,-1838.629195
467.615412,-5107.421000,-10807.006753,-3370.820191
467.615734,-4589.276840,-10436.903782,-5362.668486
467.616056,-4293.194464,-9696.697840,-3447.429741
467.616379,-4515.256246,-9178.553681,-1915.238745
467.616701,-3330.926739,-8216.285956,-3140.991542
467.617023,-592.164754,-9104.533087,-4060.306139
467.617346,1258.350101,-9326.594869,-3753.867940
467.617668,1554.432478,-10066.800811,-2451.505594
467.617991,592.164754,-11843.295072,-612.876398
467.618313,592.164754,-11917.315666,2068.457845
467.618635,1776.494261,-9400.615463,459.657299
467.618958,4367.215058,-6291.750507,-1532.190996
467.619280,6809.894666,-5699.585753,-766.095498
467.619602,7772.162391,-6291.750507,459.657299
467.619925,7254.018232,-7698.141797,1225.752797
467.620247,6809.894666,-8068.244768,2757.943793
467.620569,5773.606348,-7550.100608,306.438199
467.620892,4441.235652,-8660.409521,-3217.601092
467.621214,2590.720797,-11103.089130,-4213.525239
467.621537,-1480.411884,-13101.645173,-2145.067394
467.621859,-5033.400406,-13027.624579,536.266849
467.622181,-6587.832884,-10955.047942,76.609550
467.622504,-5551.544565,-8290.306550,-4290.134789
467.622826,-3627.009116,-8586.388927,-6971.469032
467.623148,-3034.844362,-8364.327145,-5745.716235
467.623471,-3404.947333,-9104.533087,-2834.553343
467.623793,-2146.597232,-10658.965565,-1455.581446
467.624115,-370.102971,-12435.459826,-842.705048
467.624438,0.000000,-12583.501014,-2145.067394
467.624760,-1554.432478,-11843.295072,-2911.162892
467.625082,-3478.967927,-10881.027347,-1149.143247
467.625405,-3108.864956,-9252.574275,536.266849
467.625727,-962.267725,-6661.853478,153.219100
467.626050,1998.556043,-4293.194464,-612.876398
467.626372,3256.906145,-3552.988522,76.609550
467.626694,4589.276840,-6513.812290,689.485948
467.627017,4367.215058,-9548.656652,1685.410096
467.627339,3404.947333,-10362.883188,1149.143247
467.627661,1702.473667,-9474.636058,-1225.752797
467.627984,222.061783,-10214.842000,-2451.505594
467.628306,-1554.432478,-11325.150913,-1685.410096
467.628628,-4515.256246,-11251.130318,-766.095498
467.628951,-6069.688724,-10436.903782,-1608.800546
467.629273,-5625.565159,-10584.944971,-3524.039291
467.629596,-3997.112087,-11177.109724,-4826.401637
467.629918,-3256.906145,-10732.986159,-3600.648841
467.630240,-3404.947333,-9104.533087,-2068.457845
467.630563,-3478.967927,-8882.471304,-995.924147
467.630885,-1554.432478,-9844.739029,-2068.457845
467.631207,-370.102971,-9326.594869,-3294.210641
467.631530,-1702.473667,-9252.574275,-3064.381992
467.631852,-2738.761985,-10732.986159,-306.438199
467.632174,-2812.782580,-10288.862594,1685.410096
467.632497,-740.205942,-8068.244768,612.876398
467.632819,2294.638420,-6291.750507,-1149.143247
467.633142,4737.318029,-6883.915261,-2068.457845
467.633464,5699.585753,-7031.956449,-1072.533697
467.633786,4589.276840,-7105.977043,2145.067394
467.634109,3701.029710,-7105.977043,2221.676944
467.634431,3256.906145,-7105.977043,-1532.190996
467.634753,2368.659014,-8808.450710,-4749.792088
467.635076,-222.061783,-10658.965565,-4213.525239
467.635398,-3182.885551,-12805.562797,-2681.334243
467.635720,-5329.482782,-12879.583391,-612.876398
467.636043,-5181.441594,-11029.068536,-1455.581446
467.636365,-3627.009116,-9104.533087,-4826.401637
467.636688,-1702.473667,-9622.677246,-6511.811733
467.637010,-1406.391290,-9178.553681,-4213.525239
467.637332,-222.061783,-9474.636058,-1991.848295
467.637655,1110.308913,-9696.697840,-1378.971896
467.637977,3182.885551,-11029.068536,-1225.752797
467.638299,3552.988522,-11917.315666,-1915.238745
467.638622,1776.494261,-12139.377449,-1608.800546
467.638944,-814.226536,-10584.944971,1455.581446
467.639266,-666.185348,-8956.491898,1838.629195
467.639589,1702.473667,-5847.626942,-995.924147
467.639911,3997.112087,-3552.988522,-2374.896044
467.640234,5181.441594,-4441.235652,-1455.581446
467.640556,4441.235652,-6439.791695,1762.019645
467.640878,3849.070898,-8068.244768,1685.410096
467.641201,2516.700203,-8586.388927,-536.266849
467.641523,592.164754,-10362.883188,-3294.210641
467.641845,-2294.638420,-12065.356855,-3983.696590
467.642168,-5403.503377,-13323.706956,-4136.915689
467.642490,-8290.306550,-12953.603985,-2987.772442
467.642812,-8734.430116,-11621.233289,-2451.505594
467.643135,-6883.915261,-9104.533087,-3983.696590
467.643457,-4071.132681,-9104.533087,-6128.763984
467.643780,-2368.659014,-10066.800811,-4443.353888
467.644102,-1776.494261,-10510.924376,-995.924147
467.644424,-370.102971,-9992.780217,1072.533697
467.644747,1776.494261,-9918.759623,-1302.362347
467.645069,2960.823768,-9252.574275,-2528.115143
467.645391,1406.391290,-9844.739029,-919.314598
467.645714,-1480.411884,-9474.636058,3064.381992
467.646036,-1924.535449,-8364.327145,3983.696590
467.646358,296.082377,-5995.668130,0.000000
467.646681,3552.988522,-6069.688724,-2528.115143
467.647003,4589.276840,-7179.997637,-1225.752797
467.647326,3404.947333,-7254.018232,1225.752797
467.647648,2294.638420,-8290.306550,2221.676944
467.647970,1406.391290,-8438.347739,153.219100
467.648293,0.000000,-8734.430116,-2681.334243
467.648615,-2368.659014,-9474.636058,-4903.011187
467.648937,-4885.359217,-11399.171507,-4903.011187
467.649260,-6735.874072,-12731.542202,-3830.477490
467.649582,-7254.018232,-13397.727550,-1762.019645
467.649904,-6883.915261,-11177.109724,-2068.457845
467.650227,-5625.565159,-8956.491898,-3830.477490
467.650549,-3849.070898,-8956.491898,-4596.572988
467.650872,-2886.803174,-8512.368333,-2987.772442
467.651194,-1924.535449,-8512.368333,-1302.362347
467.651516,518.144159,-8660.409521,-1072.533697
467.651839,3108.864956,-9030.512492,-2298.286494
467.652161,4145.153275,-10881.027347,-1685.410096
467.652483,3108.864956,-11473.192101,995.924147
467.652806,1258.350101,-10584.944971,2681.334243
467.653128,2072.576638,-8882.471304,766.095498
467.653450,4367.215058,-7698.141797,-1072.533697
467.653773,5921.647536,-6735.874072,-1225.752797
467.654095,5773.606348,-6439.791695,153.219100
467.654418,5033.400406,-6365.771101,2145.067394
467.654740,4737.318029,-7920.203579,1378.971896
467.655062,4441.235652,-9030.512492,-919.314598
467.655385,2738.761985,-9548.656652,-3140.991542
467.655707,-888.247130,-11325.150913,-3907.087040
467.656029,-4515.256246,-13027.624579,-1838.629195
467.656352,-7179.997637,-12879.583391,-612.876398
467.656674,-8438.347739,-9770.718434,-1991.848295
467.656996,-7402.059420,-7476.080014,-6205.373534
467.657319,-5551.544565,-8216.285956,-7967.393179
467.657641,-3034.844362,-9252.574275,-4903.011187
467.657964,-2442.679609,-8882.471304,-1072.533697
467.658286,-740.205942,-10214.842000,-995.924147
467.658608,1332.370696,-11473.192101,-1991.848295
467.658931,2220.617826,-11917.315666,-2757.943793
467.659253,518.144159,-11177.109724,-1915.238745
467.659575,-1406.391290,-10881.027347,1072.533697
467.659898,-1850.514855,-8586.388927,2221.676944
467.660220,1702.473667,-5255.462188,0.000000
467.660542,4885.359217,-3478.967927,-1838.629195
467.660865,5921.647536,-4441.235652,-383.047749
467.661187,5699.585753,-6735.874072,2528.115143
467.661510,4737.318029,-8068.244768,2757.943793
467.661832,3701.029710,-8660.409521,459.657299
467.662154,2220.617826,-9548.656652,-2221.676944
467.662477,-518.144159,-10732.986159,-3524.039291
467.662799,-3552.988522,-11843.295072,-3677.258390
467.663121,-5995.668130,-13027.624579,-3447.429741
467.663444,-7402.059420,-12361.439231,-2451.505594
467.663766,-6735.874072,-11103.089130,-3294.210641
467.664088,-5625.565159,-10658.965565,-5439.278036
467.664411,-4589.276840,-9918.759623,-5132.839837
467.664733,-4515.256246,-9918.759623,-2757.943793
467.665056,-3627.009116,-10732.986159,-2451.505594
467.665378,-1480.411884,-10658.965565,-3447.429741
467.665700,592.164754,-9992.780217,-3524.039291
467.666023,592.164754,-9622.677246,-1608.800546
467.666345,-222.061783,-9474.636058,842.705048
467.666667,-592.164754,-9400.615463,2987.772442
467.666990,592.164754,-7920.203579,1838.629195
467.667312,3034.844362,-5921.647536,-459.657299
467.667634,4959.379811,-5551.544565,-1685.410096
467.667957,5699.585753,-5329.482782,-306.438199
467.668279,5255.462188,-6217.729913,1915.238745
467.668602,5033.400406,-7105.977043,1608.800546
467.668924,4367.215058,-8364.327145,-612.876398
467.669246,2368.659014,-10955.047942,-2834.553343
467.669569,-1184.329507,-12509.480420,-2757.943793
467.669891,-4663.297435,-14211.954086,-1685.410096
467.670213,-6809.894666,-14137.933492,-1685.410096
467.670536,-6661.853478,-12065.356855,-3064.381992
467.670858,-5625.565159,-9622.677246,-4596.572988
467.671180,-4737.318029,-7624.121203,-4519.963438
467.671503,-3849.070898,-6587.832884,-2834.553343
467.671825,-2516.700203,-8068.244768,-1991.848295
467.672148,-370.102971,-9770.718434,-2451.505594
467.672470,1332.370696,-11177.109724,-2911.162892
467.672792,1184.329507,-11843.295072,-2298.286494
467.673115,74.020594,-11917.315666,0.000000
467.673437,-666.185348,-10881.027347,1532.190996
467.673759,0.000000,-8142.265362,1225.752797
467.674082,2294.638420,-5107.421000,-229.828649
467.674404,4811.338623,-4737.318029,-2068.457845
467.674726,5847.626942,-5551.544565,-1072.533697
467.675049,5107.421000,-6365.771101,2221.676944
467.675371,4071.132681,-7624.121203,2145.067394
467.675694,3849.070898,-8956.491898,229.828649
467.676016,3330.926739,-10362.883188,-2451.505594
467.676338,592.164754,-11621.233289,-3907.087040
467.676661,-2886.803174,-12805.562797,-2298.286494
467.676983,-5625.565159,-12361.439231,0.000000
467.677305,-6291.750507,-10955.047942,-306.438199
467.677628,-5477.523971,-8586.388927,-3753.867940
467.677950,-4737.318029,-7624.121203,-6511.811733
467.678272,-4367.215058,-8808.450710,-5056.230287
467.678595,-4293.194464,-10140.821405,-2298.286494
467.678917,-3404.947333,-10732.986159,-1225.752797
467.679240,-1776.494261,-10807.006753,-2911.162892
467.679562,-370.102971,-11103.089130,-4519.963438
467.679884,-1258.350101,-12287.418637,-3753.867940
467.680207,-2960.823768,-11843.295072,-383.047749
467.680529,-3182.885551,-9548.656652,2221.676944
467.680851,-296.082377,-7254.018232,306.438199
467.681174,3330.926739,-5847.626942,-1838.629195
467.681496,5551.544565,-5181.441594,-919.314598
467.681818,4737.318029,-5181.441594,612.876398
467.682141,4219.173869,-6069.688724,2987.772442
467.682463,4219.173869,-7328.038826,1532.190996
467.682786,3997.112087,-8438.347739,-1455.581446
467.683108,1628.453072,-10066.800811,-3370.820191
467.683430,-2072.576638,-11843.295072,-2298.286494
467.683753,-4293.194464,-13397.727550,-689.485948
467.684075,-4959.379811,-13249.686362,-1991.848295
467.684397,-5403.503377,-9918.759623,-3753.867940
467.684720,-5625.565159,-7920.203579,-3983.696590
467.685042,-5995.668130,-7772.162391,-4749.792088
467.685364,-5477.523971,-9474.636058,-3753.867940
467.685687,-3552.988522,-11029.068536,-3447.429741
467.686009,-2146.597232,-10658.965565,-3677.258390
467.686332,296.082377,-11473.192101,-4673.182538
467.686654,1184.329507,-12953.603985,-2451.505594
467.686976,444.123565,-12139.377449,919.314598
467.687299,0.000000,-9548.656652,1915.238745
467.687621,1406.391290,-7328.038826,842.705048
467.687943,4219.173869,-5551.544565,-689.485948
467.688266,6069.688724,-4589.276840,-2068.457845
467.688588,5551.544565,-4441.235652,-153.219100
467.688910,5033.400406,-6069.688724,2681.334243
467.689233,5107.421000,-7105.977043,2298.286494
467.689555,5551.544565,-8660.409521,-1608.800546
467.689878,4219.173869,-10288.862594,-3447.429741
467.690200,148.041188,-12213.398043,-2987.772442
467.690522,-3478.967927,-13619.789333,-1225.752797
467.690845,-5847.626942,-12805.562797,-842.705048
467.691167,-6365.771101,-10881.027347,-3140.991542
467.691489,-4737.318029,-8956.491898,-6358.592633
467.691812,-2886.803174,-9030.512492,-7048.078582
467.692134,-1702.473667,-9474.636058,-4136.915689
467.692456,-814.226536,-10658.965565,-612.876398
467.692779,74.020594,-11103.089130,612.876398
467.693101,1258.350101,-10881.027347,-536.266849
467.693424,1480.411884,-10510.924376,-2911.162892
467.693746,-1036.288319,-10214.842000,-1762.019645
467.694068,-3701.029710,-9844.739029,919.314598
467.694391,-4219.173869,-7328.038826,2451.505594
467.694713,-1036.288319,-4589.276840,1149.143247
467.695035,1850.514855,-3108.864956,-1302.362347
467.695358,2664.741391,-4219.173869,-1455.581446
467.695680,2664.741391,-6957.935855,0.000000
467.696002,3034.844362,-9252.574275,1225.752797
467.696325,2220.617826,-10436.903782,-842.705048
467.696647,592.164754,-11399.171507,-2374.896044
467.696970,-1776.494261,-12509.480420,-3524.039291
467.697292,-4071.132681,-13471.748144,-4366.744339
467.697614,-5625.565159,-13397.727550,-3447.429741
467.697937,-5625.565159,-11991.336260,-2681.334243
467.698259,-4441.235652,-9474.636058,-3524.039291
467.698581,-2516.700203,-7550.100608,-3600.648841
467.698904,-2590.720797,-7031.956449,-2068.457845
467.699226,-2738.761985,-8142.265362,-842.705048
467.699548,-2146.597232,-9252.574275,-229.828649
467.699871,-296.082377,-9474.636058,-2298.286494
467.700193,592.164754,-9030.512492,-3140.991542
467.700516,0.000000,-10066.800811,-1072.533697
467.700838,-1480.411884,-10881.027347,1915.238745
467.701160,-1776.494261,-10288.862594,2221.676944
467.701483,-518.144159,-7698.141797,0.000000
467.701805,1850.514855,-6513.812290,-2681.334243
467.702127,3182.885551,-6735.874072,-3753.867940
467.702450,3256.906145,-7476.080014,-1532.190996
467.702772,2738.761985,-8216.285956,1225.752797
467.703094,2738.761985,-9030.512492,0.000000
467.703417,2590.720797,-10584.944971,-2451.505594
467.703739,592.164754,-10955.047942,-3217.601092
467.704062,-2146.597232,-11843.295072,-3370.820191
467.704384,-4293.194464,-12287.418637,-3064.381992
467.704706,-4811.338623,-11843.295072,-2757.943793
467.705029,-5181.441594,-9326.594869,-1072.533697
467.705351,-4885.359217,-6069.688724,-3294.210641
467.705673,-3552.988522,-5329.482782,-5056.230287
467.705996,-2146.597232,-7476.080014,-4519.963438
467.706318,-296.082377,-9622.677246,-2528.115143
467.706640,1406.391290,-11103.089130,-2604.724693
467.706963,3330.926739,-12435.459826,-2221.676944
467.707285,4663.297435,-13619.789333,-1838.629195
467.707608,3775.050304,-12583.501014,-153.219100
467.707930,2146.597232,-10436.903782,842.705048
467.708252,1850.514855,-8586.388927,766.095498
467.708575,2738.761985,-6883.915261,-1072.533697
467.708897,4145.153275,-5551.544565,-2145.067394
467.709219,4219.173869,-6217.729913,-612.876398
467.709542,3627.009116,-7254.018232,1762.019645
467.709864,4367.215058,-7846.182985,1302.362347
467.710186,5255.462188,-8216.285956,383.047749
467.710509,4515.256246,-9918.759623,-1378.971896
467.710831,1554.432478,-11251.130318,-1915.238745
467.711154,-3108.864956,-10955.047942,-1302.362347
467.711476,-6883.915261,-10362.883188,-842.705048
467.711798,-8364.327145,-8512.368333,-2451.505594
467.712121,-7846.182985,-8660.409521,-7124.688131
467.712443,-6587.832884,-8882.471304,-7737.564530
467.712765,-5107.421000,-9696.697840,-5362.668486
467.713087,-3404.947333,-11621.233289,-2298.286494
467.713410,-1850.514855,-13323.706956,153.219100
467.713732,-888.247130,-12583.501014,0.000000
467.714054,-592.164754,-11029.068536,-3447.429741
467.714377,-2146.597232,-9992.780217,-4366.744339
467.714699,-3627.009116,-9844.739029,-229.828649
467.715021,-3701.029710,-8364.327145,2374.896044
467.715344,-1628.453072,-5699.585753,2068.457845
467.715666,1924.535449,-3256.906145,766.095498
467.715988,4737.318029,-3849.070898,0.000000
467.716311,5329.482782,-5921.647536,0.000000
467.716633,5551.544565,-8956.491898,1378.971896
467.716955,5699.585753,-9326.594869,1838.629195
467.717278,4663.297435,-9400.615463,-995.924147
467.717600,1924.535449,-10140.821405,-1838.629195
467.717922,-1184.329507,-11473.192101,-1455.581446
467.718245,-4441.235652,-11695.253884,-2451.505594
467.718567,-5403.503377,-11399.171507,-4060.306139
467.718889,-5255.462188,-10658.965565,-4136.915689
467.719212,-3923.091493,-10288.862594,-4596.572988
467.719534,-3775.050304,-10066.800811,-2374.896044
467.719856,-4811.338623,-8660.409521,-766.095498
467.720179,-4737.318029,-9178.553681,-1455.581446
467.720501,-3552.988522,-9622.677246,-2757.943793
467.720823,-2294.638420,-9104.533087,-4443.353888
467.721146,-2664.741391,-9326.594869,-4826.401637
467.721468,-3478.967927,-10362.883188,-1378.971896
467.721790,-2368.659014,-11103.089130,2145.067394
467.722112,1184.329507,-9104.533087,919.314598
467.722435,3627.009116,-6587.832884,-1991.848295
467.722757,4589.276840,-7031.956449,-2757.943793
467.723079,4515.256246,-8216.285956,-995.924147
467.723402,4441.235652,-8290.306550,1532.190996
467.723724,4589.276840,-6883.915261,1378.971896
467.724046,4737.318029,-6661.853478,-1991.848295
467.724369,5181.441594,-9474.636058,-3677.258390
467.724691,3330.926739,-12213.398043,-3677.258390
467.725013,814.226536,-14063.912898,0.000000
467.725336,-814.226536,-14285.974681,1762.019645
467.725658,-1184.329507,-11547.212695,-229.828649
467.725980,-962.267725,-8290.306550,-2911.162892
467.726303,-2072.576638,-6217.729913,-4903.011187
467.726625,-3182.885551,-7402.059420,-4290.134789
467.726947,-2664.741391,-9252.574275,-2298.286494
467.727270,-1184.329507,-9400.615463,-2681.334243
467.727592,296.082377,-9918.759623,-4826.401637
467.727914,814.226536,-11917.315666,-3217.601092
467.728237,148.041188,-14063.912898,-689.485948
467.728559,-1702.473667,-13027.624579,-306.438199
467.728881,-2664.741391,-9474.636058,536.266849
467.729204,-1776.494261,-6957.935855,-229.828649
467.729526,-296.082377,-5477.523971,-2681.334243
467.729848,222.061783,-4737.318029,-995.924147
467.730171,-370.102971,-4589.276840,1225.752797
467.730493,814.226536,-6439.791695,842.705048
467.730815,3775.050304,-8734.430116,-1149.143247
467.731138,4737.318029,-10140.821405,-1685.410096
467.731460,2738.761985,-11251.130318,-1225.752797
467.731782,-370.102971,-12065.356855,689.485948
467.732104,-3404.947333,-11843.295072,995.924147
467.732427,-4441.235652,-10362.883188,-1149.143247
467.732749,-3701.029710,-8216.285956,-5056.230287
467.733071,-3627.009116,-8068.244768,-6358.592633
467.733394,-3478.967927,-9104.533087,-2604.724693
467.733716,-3256.906145,-9696.697840,1149.143247
467.734038,-2294.638420,-9770.718434,536.266849
467.734361,-962.267725,-9696.697840,-2451.505594
467.734683,-888.247130,-10955.047942,-3907.087040
467.735005,-2368.659014,-11695.253884,-3907.087040
467.735328,-4367.215058,-11251.130318,-766.095498
467.735650,-4737.318029,-9474.636058,1991.848295
467.735972,-2442.679609,-7476.080014,-76.609550
467.736295,740.205942,-6217.729913,-2068.457845
467.736617,2590.720797,-6661.853478,-995.924147
467.736939,2664.741391,-6365.771101,0.000000
467.737262,2590.720797,-7772.162391,-612.876398
467.737584,3997.112087,-9770.718434,0.000000
467.737906,4145.153275,-9918.759623,-1072.533697
467.738229,2368.659014,-9918.759623,-3907.087040
467.738551,-814.226536,-11769.274478,-3447.429741
467.738873,-3330.926739,-12509.480420,-1225.752797
467.739196,-3701.029710,-11029.068536,-2145.067394
467.739518,-2738.761985,-10066.800811,-5132.839837
467.739840,-2516.700203,-9770.718434,-4596.572988
467.740163,-2590.720797,-9770.718434,-1149.143247
467.740485,-2442.679609,-7772.162391,-1225.752797
467.740807,-1628.453072,-7105.977043,-2221.676944
467.741129,888.247130,-8364.327145,-2221.676944
467.741452,2072.576638,-9178.553681,-3907.087040
467.741774,962.267725,-10584.944971,-3753.867940
467.742096,-1110.308913,-12879.583391,-153.219100
467.742419,-1258.350101,-13101.645173,2298.286494
467.742741,592.164754,-10214.842000,-766.095498
467.743063,2516.700203,-7105.977043,-2068.457845
467.743386,3627.009116,-6217.729913,-2221.676944
467.743708,3701.029710,-6809.894666,-306.438199
467.744030,3182.885551,-7179.997637,1302.362347
467.744353,3404.947333,-7402.059420,842.705048
467.744675,3404.947333,-7254.018232,-1532.190996
467.744997,2664.741391,-8882.471304,-4673.182538
467.745320,666.185348,-11695.253884,-3983.696590
467.745642,-1998.556043,-14508.036463,-1225.752797
467.745964,-4219.173869,-13693.809927,919.314598
467.746287,-5181.441594,-9844.739029,459.657299
467.746609,-4367.215058,-6291.750507,-2757.943793
467.746931,-3034.844362,-6291.750507,-5745.716235
467.747254,-1702.473667,-7550.100608,-4903.011187
467.747576,-1554.432478,-8660.409521,-2451.505594
467.747898,74.020594,-9918.759623,383.047749
467.748221,1258.350101,-11473.192101,383.047749
467.748543,2220.617826,-11843.295072,-1378.971896
467.748865,296.082377,-12435.459826,-2451.505594
467.749188,-2664.741391,-12213.398043,-153.219100
467.749510,-4071.132681,-10584.944971,1532.190996
467.749832,-2960.823768,-6661.853478,153.219100
467.750155,-666.185348,-3849.070898,-1991.848295
467.750477,888.247130,-4367.215058,-1532.190996
467.750799,1776.494261,-6291.750507,-306.438199
467.751121,2960.823768,-8808.450710,612.876398
467.751444,3997.112087,-10214.842000,306.438199
467.751766,3997.112087,-10732.986159,-1455.581446
467.752088,2294.638420,-11621.233289,-1608.800546
467.752411,-592.164754,-11991.336260,-1225.752797
467.752733,-3034.844362,-11843.295072,-1532.190996
467.753055,-4367.215058,-10288.862594,-2604.724693
467.753378,-3627.009116,-8142.265362,-3830.477490
467.753700,-2072.576638,-7920.203579,-4826.401637
467.754022,-1554.432478,-8660.409521,-2987.772442
467.754345,-2590.720797,-9622.677246,1072.533697
467.754667,-2664.741391,-9622.677246,1991.848295
467.754989,-2368.659014,-8660.409521,-1838.629195
467.755312,-1776.494261,-9178.553681,-4826.401637
467.755634,-3182.885551,-10214.842000,-4443.353888
467.755956,-4885.359217,-11251.130318,-1608.800546
467.756279,-4737.318029,-10955.047942,1302.362347
467.756601,-2220.617826,-9104.533087,842.705048
467.756923,1776.494261,-7772.162391,-2374.896044
467.757246,3404.947333,-7179.997637,-2911.162892
467.757568,2960.823768,-7402.059420,-842.705048
467.757890,2664.741391,-7994.224174,536.266849
467.758213,3775.050304,-8364.327145,0.000000
467.758535,4515.256246,-7476.080014,-1685.410096
467.758857,3404.947333,-7254.018232,-3983.696590
467.759180,1406.391290,-9844.739029,-3830.477490
467.759502,-1036.288319,-12287.418637,-1532.190996
467.759824,-2368.659014,-11991.336260,689.485948
467.760147,-2368.659014,-11399.171507,-1838.629195
467.760469,-1924.535449,-10362.883188,-3983.696590
467.760791,-1628.453072,-9474.636058,-2987.772442
467.761113,-2220.617826,-7476.080014,-842.705048
467.761436,-2442.679609,-6217.729913,-919.314598
467.761758,-962.267725,-7031.956449,-1225.752797
467.762080,1258.350101,-7698.141797,-3600.648841
467.762403,1480.411884,-9474.636058,-4903.011187
467.762725,-370.102971,-13397.727550,-2221.676944
467.763047,-1702.473667,-15766.386565,1608.800546
467.763370,-1332.370696,-12879.583391,153.219100
467.763692,740.205942,-8512.368333,-3447.429741
467.764014,3034.844362,-7179.997637,-3753.867940
467.764337,3552.988522,-7105.977043,-1762.019645
467.764659,2368.659014,-6365.771101,0.000000
467.764981,2294.638420,-5995.668130,1072.533697
467.765304,2812.782580,-7328.038826,-766.095498
467.765626,3330.926739,-9548.656652,-3907.087040
467.765948,814.226536,-11769.274478,-3370.820191
467.766271,-2886.803174,-13323.706956,-1149.143247
467.766593,-5033.400406,-13693.809927,766.095498
467.766915,-5033.400406,-10955.047942,76.609550
467.767238,-4145.153275,-7328.038826,-2604.724693
467.767560,-3256.906145,-5699.585753,-4673.182538
467.767882,-1850.514855,-7550.100608,-3983.696590
467.768205,-740.205942,-9326.594869,-612.876398
467.768527,444.123565,-10436.903782,536.266849
467.768849,1332.370696,-10066.800811,-229.828649
467.769172,1036.288319,-10881.027347,-1838.629195
467.769494,0.000000,-11991.336260,-1915.238745
467.769816,-2368.659014,-11843.295072,-1149.143247
467.770138,-3997.112087,-9696.697840,153.219100
467.770461,-3404.947333,-7031.956449,306.438199
467.770783,-1258.350101,-4293.194464,-459.657299
467.771105,962.267725,-4737.318029,-1608.800546
467.771428,1776.494261,-7105.977043,-536.266849
467.771750,2812.782580,-9400.615463,229.828649
467.772072,3923.091493,-9770.718434,-153.219100
467.772395,3849.070898,-8808.450710,-536.266849
467.772717,2146.597232,-9252.574275,-842.705048
467.773039,-888.247130,-9992.780217,-2221.676944
467.773362,-3775.050304,-10881.027347,-2604.724693
467.773684,-5181.441594,-11473.192101,-2911.162892
467.774006,-5033.400406,-10955.047942,-3983.696590
467.774329,-4145.153275,-9622.677246,-3447.429741
467.774651,-3404.947333,-9326.594869,-2145.067394
467.774973,-2146.597232,-9918.759623,612.876398
467.775296,-1998.556043,-8734.430116,229.828649
467.775618,-962.267725,-7698.141797,-1532.190996
467.775940,0.000000,-7624.121203,-3677.258390
467.776263,0.000000,-8660.409521,-4213.525239
467.776585,-2072.576638,-10436.903782,-2451.505594
467.776907,-3182.885551,-11769.274478,1149.143247
467.777230,-2516.700203,-11399.171507,2374.896044
467.777552,222.061783,-9474.636058,-612.876398
467.777874,2812.782580,-7476.080014,-2757.943793
467.778197,3849.070898,-6735.874072,-1225.752797
467.778519,3627.009116,-7179.997637,76.609550
467.778841,3404.947333,-7846.182985,229.828649
467.779164,3330.926739,-8512.368333,0.000000
467.779486,1924.535449,-7476.080014,-3217.601092
467.779808,-814.226536,-9326.594869,-5056.230287
467.780130,-3849.070898,-12583.501014,-2987.772442
467.780453,-6587.832884,-13471.748144,-766.095498
467.780775,-8364.327145,-11325.150913,-1685.410096
467.781097,-7772.162391,-9030.512492,-3907.087040
467.781420,-5625.565159,-8364.327145,-5362.668486
467.781742,-4589.276840,-8734.430116,-5439.278036
467.782064,-4145.153275,-8364.327145,-2451.505594
467.782387,-3701.029710,-7031.956449,-459.657299
467.782709,-1850.514855,-7179.997637,-1225.752797
467.783031,-1258.350101,-9030.512492,-3140.991542
467.783354,-2368.659014,-11621.233289,-4136.915689
467.783676,-4515.256246,-13175.665768,-2604.724693
467.783998,-5329.482782,-12583.501014,-153.219100
467.784321,-3849.070898,-10362.883188,459.657299
467.784643,-888.247130,-7031.956449,-383.047749
467.784965,2072.576638,-5255.462188,-2221.676944
467.785288,3182.885551,-5847.626942,-2451.505594
467.785610,3330.926739,-8734.430116,-229.828649
467.785932,2516.700203,-9548.656652,1532.190996
467.786255,1258.350101,-9400.615463,-76.609550
467.786577,0.000000,-10288.862594,-2451.505594
467.786899,-2516.700203,-11177.109724,-2834.553343
467.787222,-5255.462188,-11843.295072,-3064.381992
467.787544,-6809.894666,-11251.130318,-2757.943793
467.787866,-7105.977043,-9844.739029,-2374.896044
467.788189,-6069.688724,-9178.553681,-2834.553343
467.788511,-5033.400406,-8882.471304,-3217.601092
467.788833,-4515.256246,-8364.327145,-3217.601092
467.789155,-4811.338623,-8808.450710,-2298.286494
467.789478,-4515.256246,-10066.800811,-1149.143247
467.789800,-3478.967927,-9770.718434,-1072.533697
467.790122,-3034.844362,-8512.368333,-2604.724693
467.790445,-2516.700203,-7920.203579,-3064.381992
467.790767,-2072.576638,-8512.368333,-2374.896044
467.791089,-2146.597232,-9548.656652,-1072.533697
467.791412,-2294.638420,-9992.780217,-229.828649
467.791734,-1702.473667,-11029.068536,-1608.800546
467.792056,-592.164754,-11621.233289,-1225.752797
467.792379,-666.185348,-10658.965565,76.609550
467.792701,-1554.432478,-8956.491898,689.485948
467.793023,-2146.597232,-6809.894666,76.609550
467.793346,-962.267725,-6439.791695,-459.657299
467.793668,148.041188,-6143.709319,-1915.238745
467.793990,518.144159,-6439.791695,-2451.505594
467.794313,444.123565,-8216.285956,-1915.238745
467.794635,518.144159,-10362.883188,-766.095498
467.794957,1258.350101,-11103.089130,76.609550
467.795280,0.000000,-10510.924376,-383.047749
467.795602,-1184.329507,-8882.471304,-1685.410096
467.795924,-2368.659014,-7846.182985,-3677.258390
467.796247,-2886.803174,-9030.512492,-4903.011187
467.796569,-3997.112087,-11695.253884,-2757.943793
467.796891,-6217.729913,-12287.418637,-383.047749
467.797214,-8216.285956,-11695.253884,-383.047749
467.797536,-8290.306550,-10510.924376,-1149.143247
467.797858,-6291.750507,-8808.450710,-2604.724693
467.798181,-4145.153275,-7105.977043,-3370.820191
467.798503,-2738.761985,-6513.812290,-2987.772442
467.798825,-666.185348,-7179.997637,-383.047749
467.799147,148.041188,-7550.100608,1532.190996
467.799470,1850.514855,-7105.977043,1608.800546
467.799792,3552.988522,-8586.388927,-1685.410096
467.800114,3997.112087,-10732.986159,-4979.620737
467.800437,2812.782580,-13101.645173,-2604.724693
467.800759,0.000000,-12361.439231,306.438199
467.801081,-3256.906145,-11621.233289,0.000000
467.801404,-5995.668130,-12213.398043,-995.924147
467.801726,-7624.121203,-10584.944971,-2145.067394
467.802048,-10066.800811,-7476.080014,-3830.477490
467.802371,-11473.192101,-6217.729913,-4903.011187
467.802693,-9992.780217,-7624.121203,-2374.896044
467.803015,-7105.977043,-7846.182985,-842.705048
467.803338,-2886.803174,-6809.894666,-995.924147
467.803660,592.164754,-5477.523971,-1378.971896
467.803982,2738.761985,-6069.688724,-2374.896044
467.804305,3182.885551,-7994.224174,-3064.381992
467.804627,2590.720797,-10807.006753,-2604.724693
467.804949,1110.308913,-12361.439231,-2604.724693
467.805272,0.000000,-12805.562797,-2834.553343
467.805594,-814.226536,-13397.727550,-3370.820191
467.805916,-2146.597232,-12139.377449,-3064.381992
467.806239,-3997.112087,-10807.006753,-2221.676944
467.806561,-5921.647536,-9918.759623,-1225.752797
467.806883,-7550.100608,-8586.388927,-1072.533697
467.807206,-7698.141797,-7994.224174,-1685.410096
467.807528,-8216.285956,-7846.182985,-2757.943793
467.807850,-6587.832884,-9474.636058,-2757.943793
467.808173,-4515.256246,-10362.883188,0.000000
467.808495,-2294.638420,-8660.409521,1455.581446
467.808817,0.000000,-7254.018232,1072.533697
467.809139,2368.659014,-6439.791695,-612.876398
467.809462,4737.318029,-6661.853478,-2145.067394
467.809784,5995.668130,-6513.812290,-3064.381992
467.810106,5773.606348,-7624.121203,-4366.744339
467.810429,4737.318029,-10955.047942,-3447.429741
467.810751,3330.926739,-12361.439231,-2221.676944
467.811073,0.000000,-13027.624579,-1762.019645
467.811385,-3552.988522,-13915.871710,-2221.676944
467.811708,-5699.585753,-14730.098246,-2374.896044
467.812030,-7105.977043,-13175.665768,-2528.115143
467.812353,-7920.203579,-9770.718434,-3064.381992
467.812675,-7698.141797,-7698.141797,-1149.143247
467.812998,-6513.812290,-5995.668130,0.000000
467.813320,-4441.235652,-5329.482782,-306.438199
467.813643,-3701.029710,-4293.194464,-229.828649
467.813965,-3256.906145,-4663.297435,-153.219100
467.814288,-2590.720797,-6661.853478,-919.314598
467.814610,-2664.741391,-8660.409521,-1685.410096
467.814933,-2590.720797,-10066.800811,-1915.238745
467.815255,-2516.700203,-11399.171507,-2451.505594
467.815577,-2072.576638,-11695.253884,-2834.553343
467.815900,-1258.350101,-11843.295072,-2145.067394
467.816222,-740.205942,-10807.006753,-2145.067394
467.816545,-444.123565,-10066.800811,-2374.896044
467.816867,0.000000,-10584.944971,-1685.410096
467.817190,-740.205942,-10140.821405,-689.485948
467.817512,-1480.411884,-9104.533087,-229.828649
467.817835,-2886.803174,-7550.100608,-612.876398
467.818157,-3627.009116,-6143.709319,-689.485948
467.818480,-3997.112087,-5403.503377,-689.485948
467.818802,-4071.132681,-5107.421000,-766.095498
467.819125,-4737.318029,-5403.503377,-1302.362347
467.819447,-4959.379811,-7031.956449,-1915.238745
467.819770,-4441.235652,-8882.471304,-2681.334243
467.820092,-4441.235652,-10510.924376,-3447.429741
467.820415,-4219.173869,-11843.295072,-3524.039291
467.820737,-4441.235652,-12805.562797,-3600.648841
467.821060,-4071.132681,-13619.789333,-3600.648841
467.821382,-4219.173869,-13027.624579,-3677.258390
467.821705,-3330.926739,-12731.542202,-3677.258390
467.822027,-2146.597232,-11621.233289,-3753.867940
467.822350,-1184.329507,-10436.903782,-3064.381992
467.822672,-370.102971,-9622.677246,-1608.800546
467.822995,-444.123565,-7920.203579,-689.485948
467.823317,-444.123565,-7402.059420,-306.438199
467.823640,-74.020594,-6735.874072,-383.047749
467.823962,-296.082377,-5995.668130,-1302.362347
467.824285,-666.185348,-6143.709319,-1608.800546
467.824607,-592.164754,-7846.182985,-1455.581446
467.824930,0.000000,-9178.553681,-689.485948
467.825252,222.061783,-10362.883188,-1378.971896
467.825575,888.247130,-11399.171507,-1378.971896
467.825897,592.164754,-11991.336260,-612.876398
467.826220,148.041188,-11843.295072,0.000000
467.826542,-666.185348,-10732.986159,-995.924147
467.826865,-1554.432478,-10510.924376,-919.314598
467.827187,-2368.659014,-9770.718434,-1378.971896
467.827510,-2516.700203,-9474.636058,-1302.362347
467.827832,-3034.844362,-8364.327145,-766.095498
467.828155,-2812.782580,-8142.265362,-229.828649
467.828477,-3182.885551,-8142.265362,-612.876398
467.828800,-3478.967927,-7772.162391,-1225.752797
467.829122,-4219.173869,-6883.915261,-1225.752797
467.829445,-4663.297435,-7031.956449,-2221.676944
467.829767,-4811.338623,-7105.977043,-3447.429741
467.830090,-5477.523971,-7994.224174,-3370.820191
467.830412,-5847.626942,-9178.553681,-2911.162892
467.830735,-4959.379811,-10955.047942,-3753.867940
467.831057,-3923.091493,-12435.459826,-3294.210641
467.831380,-3182.885551,-12731.542202,-1838.629195
467.831702,-2368.659014,-11769.274478,-919.314598
467.832025,-1628.453072,-10436.903782,-1225.752797
467.832347,-888.247130,-9548.656652,-1608.800546
467.832670,-1184.329507,-8068.244768,-383.047749
467.832992,-2146.597232,-7105.977043,766.095498
467.833315,-2368.659014,-7402.059420,153.219100
467.833637,-2294.638420,-7846.182985,-383.047749
467.833960,-2368.659014,-7920.203579,-612.876398
467.834282,-2072.576638,-8660.409521,-153.219100
467.834605,-1554.432478,-9252.574275,229.828649
467.834927,-1332.370696,-9178.553681,-153.219100
467.835250,-962.267725,-8364.327145,-842.705048
467.835572,-1110.308913,-8956.491898,-2374.896044
467.835895,-1036.288319,-10584.944971,-3064.381992
467.836217,-1480.411884,-11843.295072,-2987.772442
467.836540,-1998.556043,-12583.501014,-2604.724693
467.836862,-2220.617826,-12583.501014,-2681.334243
467.837185,-2072.576638,-13693.809927,-2068.457845
467.837507,-1998.556043,-13397.727550,-995.924147
467.837830,-2442.679609,-11621.233289,0.000000
467.838152,-1850.514855,-9474.636058,-229.828649
467.838475,-814.226536,-7772.162391,-1072.533697
467.838797,148.041188,-6735.874072,0.000000
467.839120,1480.411884,-6291.750507,919.314598
467.839442,2146.597232,-7105.977043,1225.752797
467.839765,2664.741391,-7920.203579,1532.190996
467.840087,2738.761985,-8956.491898,1685.410096
467.840410,2664.741391,-10510.924376,1378.971896
467.840732,2368.659014,-11029.068536,1302.362347
467.841055,1850.514855,-10436.903782,1072.533697
467.841377,1924.535449,-9622.677246,995.924147
467.841700,2146.597232,-9474.636058,1225.752797
467.842022,1702.473667,-9252.574275,1915.238745
467.842345,888.247130,-9252.574275,2451.505594
467.842667,74.020594,-9104.533087,2298.286494
467.842990,-370.102971,-9104.533087,1838.629195
467.843312,-888.247130,-9400.615463,1762.019645
467.843635,-1702.473667,-8512.368333,2068.457845
467.843957,-1924.535449,-8142.265362,2528.115143
467.844280,-2146.597232,-7550.100608,3140.991542
467.844602,-1776.494261,-7402.059420,3064.381992
467.844925,-1850.514855,-7624.121203,2298.286494
467.845247,-2146.597232,-8438.347739,2145.067394
467.845570,-1776.494261,-9474.636058,2451.505594
467.845892,-1850.514855,-9918.759623,2451.505594
467.846215,-2072.576638,-10955.047942,2528.115143
467.846537,-2590.720797,-11251.130318,3064.381992
467.846860,-2812.782580,-11177.109724,3140.991542
467.847182,-3256.906145,-10807.006753,2604.724693
467.847505,-3404.947333,-10436.903782,2068.457845
467.847827,-2664.741391,-10362.883188,1838.629195
467.848149,-1998.556043,-9474.636058,2298.286494
467.848472,-1036.288319,-9400.615463,2604.724693
467.848794,-222.061783,-9992.780217,2834.553343
467.849117,-222.061783,-9770.718434,2298.286494
467.849439,-666.185348,-9696.697840,1685.410096
467.849762,-1554.432478,-9474.636058,689.485948
467.850084,-2368.659014,-9548.656652,153.219100
467.850407,-2368.659014,-9400.615463,0.000000
467.850729,-3478.967927,-9844.739029,-459.657299
467.851052,-3775.050304,-10288.862594,-1072.533697
467.851374,-3182.885551,-10732.986159,-1149.143247
467.851697,-2886.803174,-10658.965565,-1378.971896
467.852019,-2516.700203,-10807.006753,-1149.143247
467.852342,-1924.535449,-10436.903782,-689.485948
467.852664,-888.247130,-10140.821405,-766.095498
467.852987,444.123565,-9770.718434,-383.047749
467.853309,1998.556043,-9474.636058,0.000000
467.853632,3330.926739,-8290.306550,229.828649
467.853954,4737.318029,-6883.915261,0.000000
467.854277,6365.771101,-6217.729913,-306.438199
467.854599,7031.956449,-6069.688724,-1225.752797
467.854922,7105.977043,-6883.915261,-1608.800546
467.855244,4959.379811,-8438.347739,-2145.067394
467.855567,1628.453072,-9474.636058,-1378.971896
467.855889,-2220.617826,-9770.718434,-1685.410096
467.856212,-6069.688724,-10140.821405,-3370.820191
467.856534,-7105.977043,-11473.192101,-5209.449386
467.856857,-7179.997637,-11695.253884,-6358.592633
467.857179,-4811.338623,-11029.068536,-5669.106685
467.857502,-1036.288319,-11769.274478,-4443.353888
467.857824,1776.494261,-13249.686362,-306.438199
467.858147,3997.112087,-13397.727550,1072.533697
467.858469,5699.585753,-12435.459826,612.876398
467.858792,5699.585753,-10881.027347,1455.581446
467.859114,5847.626942,-9252.574275,2221.676944
467.859437,5995.668130,-5551.544565,1685.410096
467.859759,5699.585753,-3849.070898,1149.143247
467.860082,3849.070898,-3330.926739,1991.848295
467.860404,0.000000,-3701.029710,2604.724693
467.860727,-3701.029710,-5847.626942,1302.362347
467.861049,-6809.894666,-9326.594869,-2221.676944
467.861372,-7994.224174,-12731.542202,-3217.601092
467.861694,-8734.430116,-13989.892304,-4749.792088
467.862017,-7550.100608,-15544.324782,-4366.744339
467.862339,-5625.565159,-15544.324782,-1532.190996
467.862662,-3627.009116,-14211.954086,383.047749
467.862984,-3478.967927,-12213.398043,-1149.143247
467.863307,-2886.803174,-11029.068536,-1608.800546
467.863629,-3182.885551,-9770.718434,-2374.896044
467.863952,-3330.926739,-8956.491898,-2145.067394
467.864274,-3256.906145,-9326.594869,766.095498
467.864597,-2886.803174,-9252.574275,3524.039291
467.864919,-2368.659014,-8956.491898,4979.620737
467.865242,-1998.556043,-8512.368333,5669.106685
467.865564,-1850.514855,-9104.533087,6665.030833
467.865887,-2516.700203,-8512.368333,6052.154434
467.866209,-2294.638420,-6587.832884,5132.839837
467.866532,-1036.288319,-5329.482782,4443.353888
467.866854,888.247130,-4589.276840,3294.210641
467.867177,2738.761985,-5255.462188,2451.505594
467.867499,4145.153275,-6365.771101,2757.943793
467.867822,4441.235652,-7920.203579,3140.991542
467.868144,5255.462188,-10066.800811,3064.381992
467.868467,5625.565159,-11843.295072,1608.800546
467.868789,5625.565159,-12361.439231,1149.143247
467.869112,4293.194464,-11103.089130,1378.971896
467.869434,2886.803174,-9622.677246,1685.410096
467.869757,148.041188,-11399.171507,919.314598
467.870079,-3552.988522,-10510.924376,3524.039291
467.870402,-7624.121203,-8290.306550,5132.839837
467.870724,-10140.821405,-6661.853478,1838.629195
467.871047,-8956.491898,-9104.533087,-612.876398
467.871369,-4663.297435,-10436.903782,-612.876398
467.871692,-1258.350101,-9770.718434,-153.219100
467.872014,1924.535449,-10214.842000,842.705048
467.872337,5773.606348,-10658.965565,3524.039291
467.872659,9474.636058,-11251.130318,2604.724693
467.872982,10066.800811,-11029.068536,-766.095498
467.873304,8660.409521,-9622.677246,995.924147
467.873627,8216.285956,-7624.121203,2145.067394
467.873949,8512.368333,-7476.080014,-3983.696590
467.874272,7698.141797,-12361.439231,-4673.182538
467.874594,5181.441594,-14063.912898,0.000000
467.874917,-518.144159,-10214.842000,919.314598
467.875239,-7402.059420,-11621.233289,766.095498
467.875562,-11029.068536,-14211.954086,1072.533697
467.875884,-14063.912898,-14656.077652,-4366.744339
467.876207,-17468.860231,-11177.109724,-7124.688131
467.876529,-19985.560434,-9030.512492,-153.219100
467.876852,-17098.757260,-4515.256246,1685.410096
467.877174,-10510.924376,-4219.173869,-3830.477490
467.877497,-1702.473667,-6587.832884,-4673.182538
467.877819,5403.503377,-6735.874072,-3217.601092
467.878142,8512.368333,-9770.718434,-3907.087040
467.878464,11473.192101,-12213.398043,2451.505594
467.878787,12287.418637,-9918.759623,6588.421283
467.879109,10140.821405,-5181.441594,-995.924147
467.879432,7846.182985,-6661.853478,-6665.030833
467.879754,5847.626942,-11547.212695,-2145.067394
467.880077,814.226536,-11621.233289,1608.800546
467.880399,-6069.688724,-9622.677246,2681.334243
467.880721,-10362.883188,-10436.903782,4903.011187
467.881044,-9844.739029,-9844.739029,4060.306139
467.881366,-8364.327145,-9918.759623,-2834.553343
467.881689,-7476.080014,-9400.615463,-4213.525239
467.882011,-5995.668130,-8290.306550,2681.334243
467.882334,-2960.823768,-3701.029710,4826.401637
467.882656,1702.473667,-2146.597232,536.266849
467.882979,5921.647536,-3330.926739,-1149.143247
467.883301,6883.915261,-5403.503377,-3294.210641
467.883624,5921.647536,-10658.965565,-4673.182538
467.883946,4737.318029,-15396.283594,0.000000
467.884269,2294.638420,-17024.736666,2681.334243
467.884591,0.000000,-16136.489536,0.000000
467.884914,-2146.597232,-15988.448347,-1532.190996
467.885236,-2960.823768,-15618.345376,0.000000
467.885559,-4219.173869,-10436.903782,-842.705048
467.885881,-3404.947333,-7105.977043,-919.314598
467.886204,-1480.411884,-5181.441594,0.000000
467.886526,888.247130,-5551.544565,2221.676944
467.886849,2294.638420,-7698.141797,2068.457845
467.887171,3182.885551,-10362.883188,2451.505594
467.887494,3701.029710,-10214.842000,2451.505594
467.887816,4145.153275,-9104.533087,766.095498
467.888139,2442.679609,-7624.121203,919.314598
467.888461,-222.061783,-7994.224174,3140.991542
467.888784,-2294.638420,-8068.244768,1838.629195
467.889106,-1332.370696,-9548.656652,-3294.210641
467.889429,1702.473667,-10807.006753,-4673.182538
467.889751,1998.556043,-11103.089130,-3677.258390
467.890074,296.082377,-11399.171507,-306.438199
467.890396,-2146.597232,-12213.398043,3064.381992
467.890719,-3701.029710,-12953.603985,2757.943793
467.891041,-4811.338623,-12065.356855,-1149.143247
467.891364,-5181.441594,-10881.027347,-3217.601092
467.891686,-5033.400406,-9622.677246,-1915.238745
467.892009,-3923.091493,-7476.080014,1149.143247
467.892331,-1924.535449,-6883.915261,3907.087040
467.892654,814.226536,-7031.956449,4213.525239
467.892976,4293.194464,-6587.832884,1455.581446
467.893299,6217.729913,-5329.482782,-995.924147
467.893621,6513.812290,-4811.338623,-1225.752797
467.893944,5551.544565,-5625.565159,-612.876398
467.894266,4367.215058,-7846.182985,-536.266849
467.894589,2368.659014,-9474.636058,-689.485948
467.894911,-444.123565,-11103.089130,-1378.971896
467.895234,-4071.132681,-12657.521608,-1455.581446
467.895556,-7179.997637,-13175.665768,-1915.238745
467.895879,-8216.285956,-13027.624579,-3140.991542
467.896201,-9622.677246,-12435.459826,-3983.696590
467.896524,-8290.306550,-11177.109724,-1991.848295
467.896846,-6143.709319,-9252.574275,-1838.629195
467.897169,-4737.318029,-7328.038826,-1378.971896
467.897491,-3627.009116,-6957.935855,-1532.190996
467.897814,-1998.556043,-8216.285956,-1915.238745
467.898136,-444.123565,-8216.285956,-2681.334243
467.898459,1110.308913,-7402.059420,-1915.238745
467.898781,1924.535449,-5921.647536,-995.924147
467.899104,2738.761985,-4737.318029,-383.047749
467.899426,2442.679609,-7402.059420,-612.876398
467.899749,1850.514855,-11621.233289,-1685.410096
467.900071,1850.514855,-14804.118840,-2068.457845
467.900394,3182.885551,-14359.995275,-1532.190996
467.900716,5107.421000,-10288.862594,-1685.410096
467.901039,7179.997637,-7402.059420,-2528.115143
467.901361,8808.450710,-7179.997637,-3447.429741
467.901684,8512.368333,-9844.739029,-1915.238745
467.902006,4885.359217,-12139.377449,153.219100
467.902329,-296.082377,-12361.439231,1608.800546
467.902651,-4293.194464,-10955.047942,306.438199
467.902974,-5699.585753,-9622.677246,-2604.724693
467.903296,-3849.070898,-8660.409521,-4366.744339
467.903619,-962.267725,-7772.162391,-2604.724693
467.903941,740.205942,-6513.812290,383.047749
467.904264,296.082377,-5107.421000,2374.896044
467.904586,-1110.308913,-6587.832884,1072.533697
467.904909,-3552.988522,-9104.533087,-2604.724693
467.905231,-4071.132681,-12065.356855,-6358.592633
467.905554,-4589.276840,-13175.665768,-7201.297681
467.905876,-5107.421000,-12213.398043,-4673.182538
467.906199,-4737.318029,-10362.883188,-842.705048
467.906521,-3404.947333,-10881.027347,612.876398
467.906844,-370.102971,-12139.377449,-459.657299
467.907166,1036.288319,-10955.047942,-2374.896044
467.907489,2812.782580,-7846.182985,-3677.258390
467.907811,4441.235652,-4737.318029,-4443.353888
467.908134,5551.544565,-4885.359217,-2987.772442
467.908456,5773.606348,-7994.224174,459.657299
467.908779,4145.153275,-9770.718434,2834.553343
467.909101,148.041188,-9696.697840,1762.019645
467.909424,-3478.967927,-9104.533087,-1378.971896
467.909746,-5181.441594,-8586.388927,-2068.457845
467.910069,-4515.256246,-8808.450710,-2681.334243
467.910391,-2294.638420,-8882.471304,-1685.410096
467.910714,-592.164754,-9104.533087,-536.266849
467.911036,1110.308913,-8586.388927,1149.143247
467.911359,1702.473667,-8734.430116,0.000000
467.911681,-296.082377,-8290.306550,-3064.381992
467.912004,-1628.453072,-9474.636058,-6128.763984
467.912326,-1924.535449,-11547.212695,-6894.859482
467.912649,-2368.659014,-12287.418637,-5132.839837
467.912971,-3923.091493,-11843.295072,-1685.410096
467.913294,-4885.359217,-11177.109724,153.219100
467.913616,-4811.338623,-10214.842000,-842.705048
467.913939,-3034.844362,-9622.677246,-2834.553343
467.914261,-1628.453072,-7105.977043,-4060.306139
467.914584,-666.185348,-3552.988522,-3294.210641
467.914906,814.226536,-4663.297435,-3370.820191
467.915229,1554.432478,-8734.430116,-1608.800546
467.915551,1702.473667,-12953.603985,-383.047749
467.915874,-814.226536,-14508.036463,0.000000
467.916196,-3627.009116,-13693.809927,-689.485948
467.916519,-4441.235652,-12509.480420,-1685.410096
467.916841,-2960.823768,-10066.800811,-2604.724693
467.917164,296.082377,-8142.265362,-2374.896044
467.917486,3923.091493,-7994.224174,229.828649
467.917809,6069.688724,-7105.977043,2298.286494
467.918131,7105.977043,-7105.977043,2987.772442
467.918454,5551.544565,-7179.997637,1915.238745
467.918776,3923.091493,-9400.615463,0.000000
467.919099,1628.453072,-11103.089130,-995.924147
467.919421,0.000000,-11177.109724,0.000000
467.919744,-1702.473667,-9326.594869,1225.752797
467.920066,-2516.700203,-7624.121203,1149.143247
467.920389,-2368.659014,-7698.141797,229.828649
467.920711,-740.205942,-8734.430116,536.266849
467.921034,-740.205942,-8068.244768,-306.438199
467.921356,-740.205942,-6069.688724,-919.314598
467.921679,-518.144159,-6217.729913,-995.924147
467.922002,0.000000,-7254.018232,-1225.752797
467.922324,-740.205942,-9104.533087,-1608.800546
467.922647,-2294.638420,-11251.130318,-1762.019645
467.922969,-4663.297435,-12287.418637,-1225.752797
467.923292,-5551.544565,-11547.212695,-1762.019645
467.923614,-4885.359217,-10362.883188,-2451.505594
467.923937,-2442.679609,-10436.903782,-2757.943793
467.924259,888.247130,-11177.109724,-689.485948
467.924582,3849.070898,-9400.615463,689.485948
467.924904,4515.256246,-6439.791695,1608.800546
467.925227,4145.153275,-5699.585753,919.314598
467.925549,3478.967927,-6809.894666,-1532.190996
467.925872,2516.700203,-9252.574275,-3140.991542
467.926194,888.247130,-11325.150913,-3524.039291
467.926517,-296.082377,-11917.315666,-2145.067394
467.926839,-666.185348,-11769.274478,-1149.143247
467.927162,-296.082377,-12139.377449,-1762.019645
467.927484,444.123565,-12583.501014,-2221.676944
467.927807,0.000000,-9992.780217,-2757.943793
467.928129,-814.226536,-6883.915261,-3753.867940
467.928452,-1702.473667,-4885.359217,-4136.915689
467.928774,-2368.659014,-5477.523971,-5209.449386
467.929097,-3997.112087,-7698.141797,-5132.839837
467.929419,-4885.359217,-11029.068536,-4826.401637
467.929742,-5995.668130,-13545.768739,-4136.915689
467.930064,-6291.750507,-13915.871710,-4443.353888
467.930387,-5403.503377,-13101.645173,-3907.087040
467.930709,-4441.235652,-10955.047942,-3217.601092
467.931032,-2368.659014,-9696.697840,-2604.724693
467.931354,0.000000,-8290.306550,-1762.019645
467.931677,962.267725,-5477.523971,-383.047749
467.931999,1406.391290,-3997.112087,-1838.629195
467.932322,3552.988522,-6513.812290,-2528.115143
467.932644,4441.235652,-9548.656652,-2451.505594
467.932967,4219.173869,-11695.253884,-995.924147
467.933289,2812.782580,-11917.315666,689.485948
467.933612,1406.391290,-11473.192101,1225.752797
467.933935,814.226536,-10140.821405,-919.314598
467.934257,1036.288319,-8142.265362,-2834.553343
467.934580,1702.473667,-6291.750507,-3677.258390
467.934902,2294.638420,-4811.338623,-2987.772442
467.935225,2738.761985,-4515.256246,-1378.971896
467.935547,2516.700203,-5921.647536,-1072.533697
467.935870,962.267725,-8734.430116,-1455.581446
467.936192,-962.267725,-13249.686362,-2451.505594
467.936515,-3256.906145,-15026.180623,-3217.601092
467.936837,-6291.750507,-13249.686362,-3447.429741
467.937160,-7846.182985,-9622.677246,-3294.210641
467.937482,-7031.956449,-7179.997637,-3524.039291
467.937805,-4367.215058,-7550.100608,-3064.381992
467.938127,-814.226536,-9252.574275,-1762.019645
467.938450,592.164754,-8660.409521,0.000000
467.938772,962.267725,-8512.368333,842.705048
467.939095,1776.494261,-8068.244768,0.000000
467.939417,3478.967927,-9178.553681,-1302.362347
467.939740,3478.967927,-11029.068536,-1532.190996
467.940062,1776.494261,-11103.089130,0.000000
467.940385,-148.041188,-10214.842000,919.314598
467.940707,-370.102971,-9400.615463,76.609550
467.941030,1258.350101,-9622.677246,-2068.457845
467.941352,3108.864956,-9918.759623,-2834.553343
467.941675,3775.050304,-9252.574275,-1991.848295
467.941997,4219.173869,-8734.430116,229.828649
467.942320,2442.679609,-7402.059420,1608.800546
467.942642,-814.226536,-8216.285956,76.609550
467.942965,-3330.926739,-10288.862594,-1991.848295
467.943287,-5699.585753,-10955.047942,-3524.039291
467.943610,-6883.915261,-9992.780217,-4290.134789
467.943932,-6957.935855,-8734.430116,-3140.991542
467.944255,-6217.729913,-8512.368333,-1762.019645
467.944577,-3923.091493,-10362.883188,0.000000
467.944900,-2072.576638,-11177.109724,0.000000
467.945223,-1702.473667,-9992.780217,536.266849
467.945545,-1924.535449,-7698.141797,-306.438199
467.945868,-814.226536,-5625.565159,-2757.943793
467.946190,1036.288319,-5181.441594,-4903.011187
467.946513,2590.720797,-7402.059420,-3370.820191
467.946835,2886.803174,-10436.903782,-1455.581446
467.947158,1406.391290,-12361.439231,306.438199
467.947480,-740.205942,-13101.645173,612.876398
467.947803,-2516.700203,-12879.583391,-1532.190996
467.948125,-2146.597232,-11621.233289,-3830.477490
467.948448,0.000000,-8956.491898,-4519.963438
467.948770,1850.514855,-4737.318029,-3677.258390
467.949093,2886.803174,-1924.535449,-2145.067394
467.949415,3182.885551,-3627.009116,-1838.629195
467.949738,2072.576638,-8438.347739,-1762.019645
467.950060,148.041188,-13841.851115,-2681.334243
467.950383,-2812.782580,-16136.489536,-3140.991542
467.950705,-5033.400406,-15840.407159,-2834.553343
467.951028,-5551.544565,-12509.480420,-2451.505594
467.951350,-3108.864956,-8364.327145,-2757.943793
467.951673,-74.020594,-5181.441594,-3370.820191
467.951995,4145.153275,-6143.709319,-2987.772442
467.952318,4885.359217,-5699.585753,-2528.115143
467.952640,4219.173869,-8142.265362,-1685.410096
467.952963,2516.700203,-11769.274478,-766.095498
467.953285,1776.494261,-13915.871710,0.000000
467.953608,1036.288319,-13989.892304,-842.705048
467.953930,0.000000,-9770.718434,-689.485948
467.954253,-1184.329507,-6513.812290,-1378.971896
467.954575,-1554.432478,-4737.318029,-1378.971896
467.954898,-518.144159,-5921.647536,-1991.848295
467.955220,518.144159,-8438.347739,-2298.286494
467.955543,962.267725,-9400.615463,-1685.410096
467.955865,1184.329507,-9474.636058,-612.876398
467.956188,740.205942,-8734.430116,-689.485948
467.956511,740.205942,-8734.430116,-1685.410096
467.956833,74.020594,-10066.800811,-2681.334243
467.957156,-1924.535449,-10436.903782,-2298.286494
467.957478,-4219.173869,-9770.718434,-1378.971896
467.957801,-5921.647536,-8808.450710,-1532.190996
467.958123,-5773.606348,-9030.512492,-2068.457845
467.958446,-2664.741391,-9992.780217,-1762.019645
467.958768,-1332.370696,-10214.842000,-842.705048
467.959091,370.102971,-9252.574275,153.219100
467.959413,888.247130,-7328.038826,612.876398
467.959736,370.102971,-6069.688724,-153.219100
467.960058,-148.041188,-5921.647536,-1915.238745
467.960381,148.041188,-7920.203579,-3524.039291
467.960703,-222.061783,-10214.842000,-4443.353888
467.961026,-1554.432478,-11769.274478,-3064.381992
467.961348,-2368.659014,-11991.336260,-689.485948
467.961671,-1998.556043,-11991.336260,-766.095498
467.961993,-222.061783,-11843.295072,-3370.820191
467.962316,-518.144159,-10881.027347,-4443.353888
467.962638,-592.164754,-8808.450710,-4673.182538
467.962961,-1702.473667,-5773.606348,-4519.963438
467.963283,-1628.453072,-6809.894666,-4443.353888
467.963606,-740.205942,-9992.780217,-4903.011187
467.963928,-444.123565,-12213.398043,-3983.696590
467.964251,-1184.329507,-13027.624579,-2757.943793
467.964573,-2516.700203,-13027.624579,-1838.629195
467.964896,-3108.864956,-12805.562797,-1225.752797
467.965218,-2442.679609,-11769.274478,-1455.581446
467.965541,-2072.576638,-9844.739029,-1302.362347
467.965863,-592.164754,-7846.182985,-766.095498
467.966186,1554.432478,-4737.318029,-842.705048
467.966508,3701.029710,-3330.926739,-1302.362347
467.966831,5181.441594,-5551.544565,-766.095498
467.967153,4885.359217,-9474.636058,-306.438199
467.967476,3256.906145,-11251.130318,536.266849
467.967798,814.226536,-11103.089130,766.095498
467.968121,-1776.494261,-10140.821405,-459.657299
467.968444,-3182.885551,-9252.574275,-2298.286494
467.968766,-2960.823768,-8512.368333,-3064.381992
467.969089,-2146.597232,-8142.265362,-2451.505594
467.969411,-1554.432478,-7105.977043,-1991.848295
467.969734,-592.164754,-6587.832884,-2374.896044
467.970056,-1258.350101,-6957.935855,-2528.115143
467.970379,-1850.514855,-8438.347739,-2451.505594
467.970701,-2960.823768,-9548.656652,-2451.505594
467.971024,-4219.173869,-10881.027347,-2374.896044
467.971346,-5033.400406,-10362.883188,-1685.410096
467.971669,-4589.276840,-8660.409521,-1225.752797
467.971991,-2442.679609,-7550.100608,-2221.676944
467.972314,1110.308913,-9104.533087,-1149.143247
467.972636,4663.297435,-11843.295072,612.876398
467.972959,6735.874072,-11325.150913,2451.505594
467.973281,7328.038826,-9178.553681,2528.115143
467.973604,7624.121203,-7698.141797,2451.505594
467.973926,7328.038826,-7476.080014,842.705048
467.974249,6587.832884,-8290.306550,-1302.362347
467.974571,4885.359217,-9844.739029,-1072.533697
467.974894,2442.679609,-10066.800811,-383.047749
467.975216,370.102971,-11769.274478,536.266849
467.975539,-1406.391290,-13027.624579,995.924147
467.975861,-3182.885551,-11843.295072,766.095498
467.976184,-4219.173869,-10362.883188,-1149.143247
467.976506,-5625.565159,-7402.059420,-2911.162892
467.976829,-6513.812290,-5181.441594,-3370.820191
467.977151,-7179.997637,-4811.338623,-4826.401637
467.977474,-7328.038826,-7920.203579,-5056.230287
467.977796,-8068.244768,-12065.356855,-4979.620737
467.978119,-8808.450710,-14656.077652,-3140.991542
467.978441,-9622.677246,-14508.036463,-2298.286494
467.978764,-9104.533087,-13323.706956,-3064.381992
467.979086,-6069.688724,-12657.521608,-4290.134789
467.979409,-3256.906145,-9918.759623,-2451.505594
467.979732,0.000000,-7254.018232,-1225.752797
467.980054,2220.617826,-3775.050304,76.609550
467.980377,4811.338623,-3256.906145,0.000000
467.980699,6809.894666,-4663.297435,-1225.752797
467.981022,8216.285956,-7920.203579,-612.876398
467.981344,8068.244768,-11029.068536,229.828649
467.981667,7105.977043,-12361.439231,383.047749
467.981989,5625.565159,-12657.521608,1225.752797
467.982312,4737.318029,-10362.883188,1149.143247
467.982634,3775.050304,-7031.956449,-383.047749
467.982957,4071.132681,-5773.606348,-1991.848295
467.983279,3552.988522,-4145.153275,-1991.848295
467.983602,1628.453072,-3404.947333,-2068.457845
467.983924,370.102971,-5107.421000,-2681.334243
467.984247,-296.082377,-10807.006753,-5209.449386
467.984569,-1776.494261,-16728.654289,-5056.230287
467.984892,-4737.318029,-18209.066173,-2834.553343
467.985214,-9326.594869,-13545.768739,-229.828649
467.985537,-12287.418637,-8586.388927,-2374.896044
467.985859,-10584.944971,-6957.935855,-6358.592633
467.986182,-6809.894666,-7179.997637,-7660.954980
467.986504,-2516.700203,-7105.977043,-6435.202183
467.986827,-592.164754,-7179.997637,-3064.381992
467.987149,1480.411884,-10436.903782,766.095498
467.987472,3108.864956,-13915.871710,2221.676944
467.987794,4145.153275,-14582.057057,995.924147
467.988117,2960.823768,-12509.480420,-153.219100
467.988439,1554.432478,-9474.636058,-612.876398
467.988762,1036.288319,-5329.482782,-1302.362347
467.989084,1998.556043,-3108.864956,-2068.457845
467.989407,4293.194464,-4885.359217,-1762.019645
467.989729,6513.812290,-9844.739029,-995.924147
467.990052,6439.791695,-12509.480420,1225.752797
467.990374,4219.173869,-12065.356855,3370.820191
467.990697,1628.453072,-10658.965565,2068.457845
467.991020,0.000000,-9844.739029,-1378.971896
467.991342,-962.267725,-8882.471304,-3600.648841
467.991665,-3034.844362,-7920.203579,-3907.087040
467.991987,-5033.400406,-7328.038826,-2681.334243
467.992310,-6439.791695,-7994.224174,-1532.190996
467.992632,-6735.874072,-9918.759623,-459.657299
467.992955,-5995.668130,-12435.459826,0.000000
467.993277,-4293.194464,-12953.603985,-153.219100
467.993600,-2664.741391,-11029.068536,0.000000
467.993922,-1258.350101,-6513.812290,-229.828649
467.994245,-296.082377,-3701.029710,-229.828649
467.994567,222.061783,-3627.009116,-383.047749
467.994890,666.185348,-6217.729913,-689.485948
467.995212,-370.102971,-9622.677246,-689.485948
467.995535,-1776.494261,-11547.212695,-766.095498
467.995857,-3034.844362,-11843.295072,-689.485948
467.996180,-2368.659014,-12139.377449,-1225.752797
467.996502,518.144159,-12509.480420,-2298.286494
467.996825,962.267725,-10436.903782,-1762.019645
467.997147,296.082377,-7772.162391,-842.705048
467.997470,-1480.411884,-5033.400406,-612.876398
467.997792,-1776.494261,-4885.359217,-3524.039291
467.998115,-370.102971,-7920.203579,-6741.640382
467.998437,814.226536,-11991.336260,-5669.106685
467.998760,-666.185348,-14434.015869,-2298.286494
467.999082,-2886.803174,-13767.830521,536.266849
467.999405,-4219.173869,-13841.851115,229.828649
467.999727,-3997.112087,-12583.501014,-1455.581446
468.000050,-2590.720797,-10362.883188,-3217.601092
468.000372,-1702.473667,-6439.791695,-4519.963438
468.000695,1184.329507,-4367.215058,-3447.429741
468.001017,5255.462188,-4737.318029,-1838.629195
468.001340,7698.141797,-6291.750507,-459.657299
468.001662,8142.265362,-9548.656652,1532.190996
468.001985,6143.709319,-12879.583391,2068.457845
468.002307,2812.782580,-13397.727550,536.266849
468.002630,-592.164754,-11991.336260,-1685.410096
468.002953,-2368.659014,-9622.677246,-3140.991542
468.003275,-962.267725,-7920.203579,-3907.087040
468.003598,3552.988522,-5699.585753,-2681.334243
468.003920,4663.297435,-3552.988522,-1991.848295
468.004243,4441.235652,-5329.482782,-612.876398
468.004565,2442.679609,-8438.347739,-612.876398
468.004888,0.000000,-12657.521608,-2528.115143
468.005210,-2516.700203,-14952.160028,-2757.943793
468.005533,-5329.482782,-13397.727550,-2528.115143
468.005855,-7550.100608,-9696.697840,-2681.334243
468.006178,-7624.121203,-7105.977043,-2987.772442
468.006500,-5107.421000,-6143.709319,-2528.115143
468.006823,-2590.720797,-8068.244768,-2528.115143
468.007145,74.020594,-11325.150913,-1302.362347
468.007468,1332.370696,-13027.624579,689.485948
468.007790,1480.411884,-11621.233289,1685.410096
468.008113,2072.576638,-9178.553681,1225.752797
468.008435,2886.803174,-7624.121203,919.314598
468.008758,2960.823768,-5921.647536,612.876398
468.009080,1406.391290,-4737.318029,-383.047749
468.009403,222.061783,-6291.750507,-612.876398
468.009725,296.082377,-9548.656652,-459.657299
468.010048,1406.391290,-12213.398043,153.219100
468.010370,2368.659014,-12805.562797,919.314598
468.010693,2738.761985,-11991.336260,1455.581446
468.011015,1184.329507,-7994.224174,1149.143247
468.011338,-1850.514855,-3552.988522,-689.485948
468.011660,-4589.276840,-3627.009116,-3064.381992
468.011983,-6143.709319,-7402.059420,-4443.353888
468.012305,-6069.688724,-11843.295072,-4060.306139
468.012627,-6365.771101,-13619.789333,-3217.601092
468.012950,-6217.729913,-14063.912898,-2374.896044
468.013272,-5255.462188,-14508.036463,-1302.362347
468.013595,-3478.967927,-14508.036463,-459.657299
468.013917,-1850.514855,-12065.356855,-766.095498
468.014240,-2146.597232,-8364.327145,-1225.752797
468.014562,-1554.432478,-4885.359217,-1225.752797
468.014884,-370.102971,-2738.761985,-1915.238745
468.015207,2146.597232,-4441.235652,-2298.286494
468.015529,4145.153275,-8142.265362,-766.095498
468.015852,4737.318029,-11621.233289,229.828649
468.016174,4441.235652,-14137.933492,919.314598
468.016497,3108.864956,-14063.912898,1685.410096
468.016819,1628.453072,-11473.192101,459.657299
468.017141,740.205942,-8808.450710,-2374.896044
468.017464,2072.576638,-6069.688724,-4213.525239
468.017786,1184.329507,-2516.700203,-4213.525239
468.018109,518.144159,-2516.700203,-3064.381992
468.018431,0.000000,-5625.565159,-1532.190996
468.018754,-222.061783,-11251.130318,-2987.772442
468.019076,-148.041188,-16950.716072,-4519.963438
468.019398,-2664.741391,-18653.189738,-3217.601092
468.019721,-5847.626942,-14582.057057,-306.438199
468.020043,-8068.244768,-8808.450710,-229.828649
468.020366,-6809.894666,-4811.338623,-2681.334243
468.020688,-3034.844362,-4219.173869,-4903.011187
468.021011,444.123565,-3923.091493,-4826.401637
468.021333,2886.803174,-4663.297435,-3447.429741
468.021655,5107.421000,-7920.203579,-612.876398
468.021978,7254.018232,-11991.336260,842.705048
468.022300,7105.977043,-14878.139434,919.314598
468.022623,4071.132681,-14359.995275,1149.143247
468.022945,-222.061783,-11917.315666,842.705048
468.023267,-2664.741391,-8512.368333,-1378.971896
468.023590,-2664.741391,-5181.441594,-4903.011187
468.023912,0.000000,-4145.153275,-5439.278036
468.024235,3997.112087,-5995.668130,-4290.134789
468.024557,5033.400406,-8808.450710,-919.314598
468.024880,4737.318029,-12435.459826,2987.772442
468.025202,1332.370696,-13101.645173,2528.115143
468.025524,-2220.617826,-12213.398043,-2068.457845
468.025847,-4589.276840,-12435.459826,-5056.230287
468.026169,-5921.647536,-11029.068536,-6511.811733
468.026492,-6809.894666,-8808.450710,-4903.011187
468.026814,-6587.832884,-7105.977043,-2604.724693
468.027137,-5255.462188,-8438.347739,-383.047749
468.027459,-2664.741391,-11843.295072,612.876398
468.027781,-1332.370696,-12953.603985,689.485948
468.028104,-962.267725,-12805.562797,0.000000
468.028426,-888.247130,-9474.636058,-612.876398
468.028749,0.000000,-6217.729913,-1072.533697
