#time,accel_x,accel_y,accel_z
524.274697,-666.185348,-9696.697840,-1991.848295
524.275019,-666.185348,-9844.739029,-1991.848295
524.275342,-518.144159,-9622.677246,-1915.238745
524.275664,-148.041188,-9622.677246,-1838.629195
524.275986,0.000000,-9252.574275,-1991.848295
524.276308,0.000000,-9326.594869,-1915.238745
524.276631,-222.061783,-9326.594869,-1991.848295
524.276953,-370.102971,-9474.636058,-1762.019645
524.277275,-592.164754,-9178.553681,-1838.629195
524.277597,-444.123565,-9992.780217,-2221.676944
524.277919,-740.205942,-9474.636058,-1991.848295
524.278242,-518.144159,-9474.636058,-1608.800546
524.278564,-444.123565,-9326.594869,-1608.800546
524.278886,0.000000,-8956.491898,-1608.800546
524.279208,0.000000,-9326.594869,-919.314598
524.279530,-592.164754,-8956.491898,-1072.533697
524.279853,-592.164754,-9474.636058,-1378.971896
524.280175,-740.205942,-9474.636058,-1378.971896
524.280497,-592.164754,-9548.656652,-1302.362347
524.280819,-444.123565,-9252.574275,-1149.143247
524.281142,0.000000,-9104.533087,-1302.362347
524.281464,-148.041188,-8808.450710,-1225.752797
524.281786,-222.061783,-8808.450710,-1302.362347
524.282108,-370.102971,-8882.471304,-1302.362347
524.282430,-518.144159,-9178.553681,-995.924147
524.282753,-592.164754,-9178.553681,-1532.190996
524.283075,-666.185348,-9548.656652,-1225.752797
524.283397,-444.123565,-9400.615463,-1225.752797
524.283719,-148.041188,-9326.594869,-1225.752797
524.284042,0.000000,-9252.574275,-1302.362347
524.284364,0.000000,-8882.471304,-1225.752797
524.284686,-222.061783,-9104.533087,-1608.800546
524.285008,-518.144159,-9400.615463,-1455.581446
524.285330,-518.144159,-9770.718434,-1378.971896
524.285653,-740.205942,-9770.718434,-1455.581446
524.285975,-888.247130,-9400.615463,-1608.800546
524.286297,-888.247130,-9178.553681,-1378.971896
524.286619,-296.082377,-9326.594869,-1915.238745
524.286941,-370.102971,-9252.574275,-1378.971896
524.287264,-370.102971,-9400.615463,-1532.190996
524.287586,-444.123565,-9474.636058,-1608.800546
524.287908,-592.164754,-9326.594869,-1608.800546
524.288230,-370.102971,-9918.759623,-1685.410096
524.288553,-444.123565,-9770.718434,-1532.190996
524.288875,-444.123565,-9548.656652,-1685.410096
524.289197,-296.082377,-9400.615463,-1685.410096
524.289519,222.061783,-9400.615463,-1838.629195
524.289841,0.000000,-9104.533087,-1608.800546
524.290164,-444.123565,-9326.594869,-1762.019645
524.290486,-296.082377,-9622.677246,-1762.019645
524.290808,-592.164754,-9548.656652,-1685.410096
524.291130,-370.102971,-9400.615463,-1532.190996
524.291453,-296.082377,-8956.491898,-1838.629195
524.291775,-222.061783,-9030.512492,-1608.800546
524.292097,-148.041188,-8882.471304,-1532.190996
524.292419,-296.082377,-9104.533087,-1532.190996
524.292741,-370.102971,-9252.574275,-1608.800546
524.293064,-592.164754,-9104.533087,-1302.362347
524.293386,-444.123565,-9474.636058,-1838.629195
524.293708,-666.185348,-9474.636058,-1608.800546
524.294030,-666.185348,-9474.636058,-1685.410096
524.294353,-370.102971,-9326.594869,-1685.410096
524.294675,-148.041188,-8808.450710,-1991.848295
524.294997,-370.102971,-8512.368333,-1532.190996
524.295319,-370.102971,-9030.512492,-1685.410096
524.295641,-444.123565,-9474.636058,-1838.629195
524.295964,-518.144159,-9696.697840,-1608.800546
524.296286,-740.205942,-9770.718434,-1685.410096
524.296608,296.082377,-9474.636058,-1149.143247
524.296930,1406.391290,-9622.677246,-2221.676944
524.297252,2590.720797,-9622.677246,-1762.019645
524.297575,2516.700203,-8956.491898,-689.485948
524.297897,1776.494261,-8438.347739,0.000000
524.298219,666.185348,-8660.409521,-1455.581446
524.298541,0.000000,-9474.636058,-2834.553343
524.298864,-1924.535449,-9992.780217,-2374.896044
524.299186,-3330.926739,-10140.821405,-2068.457845
524.299508,-3997.112087,-9992.780217,-2451.505594
524.299830,-2664.741391,-9474.636058,-2681.334243
524.300152,-222.061783,-10288.862594,-2374.896044
524.300475,2368.659014,-11103.089130,-1455.581446
524.300797,2812.782580,-10140.821405,0.000000
524.301119,2072.576638,-8512.368333,0.000000
524.301441,1776.494261,-8660.409521,-842.705048
524.301764,2590.720797,-9770.718434,-2145.067394
524.302086,2368.659014,-9992.780217,-2221.676944
524.302408,888.247130,-9178.553681,-536.266849
524.302730,0.000000,-7698.141797,76.609550
524.303052,518.144159,-7402.059420,-1455.581446
524.303375,2294.638420,-9400.615463,-3140.991542
524.303697,1998.556043,-9844.739029,-1608.800546
524.304019,-444.123565,-9326.594869,76.609550
524.304341,-740.205942,-9178.553681,-995.924147
524.304664,0.000000,-9178.553681,-3370.820191
524.304986,518.144159,-9474.636058,-2681.334243
524.305308,444.123565,-9992.780217,-229.828649
524.305630,666.185348,-10140.821405,-842.705048
524.305952,1998.556043,-9252.574275,-2221.676944
524.306275,3182.885551,-9474.636058,-1532.190996
524.306597,4293.194464,-11029.068536,-229.828649
524.306919,3923.091493,-11029.068536,0.000000
524.307241,2664.741391,-8956.491898,-1072.533697
524.307563,2368.659014,-7476.080014,-919.314598
524.307886,2516.700203,-8216.285956,-766.095498
524.308208,2664.741391,-8364.327145,-1608.800546
524.308530,1924.535449,-7550.100608,-1149.143247
524.308852,1554.432478,-8290.306550,-383.047749
524.309175,2146.597232,-10214.842000,-459.657299
524.309497,3108.864956,-10584.944971,-1149.143247
524.309819,2886.803174,-9474.636058,-1608.800546
524.310141,2738.761985,-9770.718434,-1762.019645
524.310463,3330.926739,-9548.656652,-229.828649
524.310786,3849.070898,-8956.491898,-1685.410096
524.311108,3182.885551,-8660.409521,-2451.505594
524.311430,2516.700203,-9548.656652,-1685.410096
524.311752,2664.741391,-9992.780217,-842.705048
524.312075,2590.720797,-9252.574275,-995.924147
524.312397,2146.597232,-9474.636058,-2221.676944
524.312719,1628.453072,-9400.615463,-1378.971896
524.313041,1406.391290,-8956.491898,-995.924147
524.313363,666.185348,-7624.121203,-1225.752797
524.313686,148.041188,-8290.306550,-2451.505594
524.314008,-370.102971,-9178.553681,-2451.505594
524.314330,-444.123565,-10214.842000,-1762.019645
524.314652,-592.164754,-10881.027347,-1302.362347
524.314974,-296.082377,-11769.274478,-1455.581446
524.315297,740.205942,-12139.377449,-1378.971896
524.315619,1924.535449,-11621.233289,-689.485948
524.315941,1850.514855,-10066.800811,-766.095498
524.316263,1776.494261,-9178.553681,-1149.143247
524.316586,2072.576638,-8216.285956,-1378.971896
524.316908,1702.473667,-7402.059420,-842.705048
524.317230,1776.494261,-7772.162391,-229.828649
524.317552,1480.411884,-7920.203579,-1838.629195
524.317874,1110.308913,-8142.265362,-1608.800546
524.318197,1110.308913,-8882.471304,-1149.143247
524.318519,1258.350101,-9104.533087,-1378.971896
524.318841,1258.350101,-8808.450710,-2145.067394
524.319163,888.247130,-8364.327145,-2604.724693
524.319486,1628.453072,-9252.574275,-2068.457845
524.319808,1332.370696,-9400.615463,-2068.457845
524.320130,1036.288319,-9622.677246,-2757.943793
524.320452,1036.288319,-10658.965565,-2374.896044
524.320774,814.226536,-11473.192101,-1915.238745
524.321097,666.185348,-11473.192101,-1149.143247
524.321419,444.123565,-11325.150913,-842.705048
524.321741,740.205942,-10362.883188,-842.705048
524.322063,1110.308913,-9474.636058,-842.705048
524.322386,1924.535449,-8290.306550,-459.657299
524.322708,2442.679609,-7254.018232,0.000000
524.323030,3552.988522,-7328.038826,-1378.971896
524.323352,4737.318029,-7624.121203,-1838.629195
524.323674,5773.606348,-8512.368333,-1532.190996
524.323997,5995.668130,-9326.594869,-1149.143247
524.324319,5625.565159,-9696.697840,-1302.362347
524.324641,4811.338623,-10362.883188,-2451.505594
524.324963,3997.112087,-11325.150913,-2987.772442
524.325285,2590.720797,-12287.418637,-2987.772442
524.325608,1480.411884,-12435.459826,-1838.629195
524.325930,888.247130,-11399.171507,-1149.143247
524.326252,148.041188,-10214.842000,-995.924147
524.326574,370.102971,-8882.471304,-459.657299
524.326897,0.000000,-7698.141797,76.609550
524.327219,-148.041188,-6587.832884,76.609550
524.327541,-148.041188,-5773.606348,-306.438199
524.327863,296.082377,-5403.503377,-459.657299
524.328185,666.185348,-5995.668130,-995.924147
524.328508,666.185348,-7846.182985,-1378.971896
524.328830,222.061783,-9474.636058,-1225.752797
524.329152,148.041188,-10732.986159,-1302.362347
524.329474,888.247130,-11325.150913,-2451.505594
524.329797,1332.370696,-10955.047942,-2604.724693
524.330119,814.226536,-10584.944971,-2987.772442
524.330441,666.185348,-10658.965565,-2834.553343
524.330763,518.144159,-11251.130318,-2757.943793
524.331085,-592.164754,-12361.439231,-1915.238745
524.331408,-1628.453072,-12731.542202,-2221.676944
524.331730,-2442.679609,-11843.295072,-689.485948
524.332052,-2146.597232,-11695.253884,-306.438199
524.332374,-888.247130,-10066.800811,153.219100
524.332697,74.020594,-8068.244768,536.266849
524.333019,1406.391290,-6365.771101,689.485948
524.333341,2442.679609,-4219.173869,689.485948
524.333663,4589.276840,-4367.215058,-459.657299
524.333985,5773.606348,-6143.709319,-1608.800546
524.334308,5255.462188,-7624.121203,-995.924147
524.334630,4737.318029,-8364.327145,-1072.533697
524.334952,4811.338623,-9918.759623,-2757.943793
524.335274,5329.482782,-11843.295072,-4136.915689
524.335596,4959.379811,-13101.645173,-3830.477490
524.335919,2960.823768,-12361.439231,-2145.067394
524.336241,148.041188,-11325.150913,-689.485948
524.336563,-1332.370696,-10436.903782,-1532.190996
524.336885,-2960.823768,-10955.047942,-3217.601092
524.337208,-4737.318029,-9770.718434,-2068.457845
524.337530,-6217.729913,-7698.141797,-766.095498
524.337852,-6587.832884,-6661.853478,-1915.238745
524.338174,-4367.215058,-7550.100608,-1455.581446
524.338496,0.000000,-7846.182985,-919.314598
524.338819,4441.235652,-7772.162391,-3140.991542
524.339141,7994.224174,-9548.656652,-3064.381992
524.339463,11103.089130,-10584.944971,0.000000
524.339785,13471.748144,-11103.089130,459.657299
524.340108,13841.851115,-9918.759623,-229.828649
524.340430,13471.748144,-9770.718434,-1225.752797
524.340752,10881.027347,-9178.553681,-1685.410096
524.341074,7846.182985,-9992.780217,-2757.943793
524.341396,3923.091493,-10436.903782,-1532.190996
524.341719,-296.082377,-10807.006753,-1072.533697
524.342041,-3034.844362,-11695.253884,-1608.800546
524.342363,-5033.400406,-12583.501014,-1072.533697
524.342685,-7846.182985,-11917.315666,612.876398
524.343007,-10066.800811,-8956.491898,3370.820191
524.343330,-10362.883188,-3182.885551,766.095498
524.343652,-7698.141797,-2960.823768,-2298.286494
524.343974,-2294.638420,-4737.318029,-3524.039291
524.344296,2368.659014,-5625.565159,-4366.744339
524.344619,5625.565159,-8734.430116,-3677.258390
524.344941,8438.347739,-12583.501014,-1225.752797
524.345264,9918.759623,-14211.954086,383.047749
524.345586,10288.862594,-13323.706956,-2145.067394
524.345909,7920.203579,-11843.295072,-4749.792088
524.346231,4663.297435,-9844.739029,-4903.011187
524.346554,2442.679609,-8068.244768,-5592.497135
524.346876,1332.370696,-7476.080014,-4596.572988
524.347199,-1110.308913,-8586.388927,-1149.143247
524.347521,-4441.235652,-11695.253884,2145.067394
524.347844,-6587.832884,-12805.562797,2681.334243
524.348167,-6513.812290,-11843.295072,2987.772442
524.348489,-5847.626942,-7920.203579,0.000000
524.348812,-3478.967927,-6735.874072,-1532.190996
524.349134,1850.514855,-7476.080014,229.828649
524.349457,7624.121203,-4367.215058,689.485948
524.349779,11029.068536,-3923.091493,-2374.896044
524.350102,12657.521608,-9326.594869,-2528.115143
524.350424,11473.192101,-14285.974681,0.000000
524.350747,7624.121203,-13767.830521,229.828649
524.351069,2442.679609,-11991.336260,-3447.429741
524.351392,-2146.597232,-12139.377449,-5975.544884
524.351715,-4885.359217,-13767.830521,-5669.106685
524.352037,-6513.812290,-11547.212695,-2911.162892
524.352360,-8734.430116,-6439.791695,-1378.971896
524.352682,-7772.162391,-5181.441594,-2987.772442
524.353005,-3997.112087,-6439.791695,-919.314598
524.353327,-1110.308913,-8290.306550,383.047749
524.353650,0.000000,-8068.244768,1378.971896
524.353972,1258.350101,-8290.306550,1225.752797
524.354295,2886.803174,-7550.100608,1072.533697
524.354617,4293.194464,-6069.688724,229.828649
524.354940,3182.885551,-6291.750507,-919.314598
524.355262,1850.514855,-7550.100608,-2528.115143
524.355585,2368.659014,-11325.150913,-3677.258390
524.355908,3923.091493,-12361.439231,-2911.162892
524.356230,5773.606348,-12509.480420,-4060.306139
524.356553,6365.771101,-12065.356855,-4749.792088
524.356875,5995.668130,-12805.562797,-2451.505594
524.357198,3923.091493,-11917.315666,1608.800546
524.357520,1628.453072,-11103.089130,76.609550
524.357843,-148.041188,-10288.862594,-4673.182538
524.358165,-962.267725,-10881.027347,-4903.011187
524.358488,-1702.473667,-10955.047942,306.438199
524.358810,-370.102971,-10510.924376,4213.525239
524.359133,2368.659014,-8068.244768,3677.258390
524.359456,6439.791695,-6069.688724,689.485948
524.359778,9400.615463,-4885.359217,-229.828649
524.360101,9696.697840,-4737.318029,1455.581446
524.360423,7772.162391,-4145.153275,995.924147
524.360746,5995.668130,-4811.338623,-1225.752797
524.361068,4219.173869,-7402.059420,-2298.286494
524.361391,2368.659014,-9696.697840,-3370.820191
524.361713,-740.205942,-11843.295072,-5898.935335
524.362036,-4367.215058,-13767.830521,-6128.763984
524.362358,-5699.585753,-14285.974681,-2604.724693
524.362681,-3552.988522,-13397.727550,-1532.190996
524.363003,-3108.864956,-11917.315666,-4673.182538
524.363326,-3256.906145,-11251.130318,-4903.011187
524.363649,-2590.720797,-10214.842000,-2757.943793
524.363971,74.020594,-10584.944971,-1072.533697
524.364294,2960.823768,-11473.192101,-689.485948
524.364616,5403.503377,-11917.315666,-306.438199
524.364939,5477.523971,-10214.842000,1762.019645
524.365261,5773.606348,-7698.141797,5209.449386
524.365584,7772.162391,-5255.462188,4903.011187
524.365906,9696.697840,-3923.091493,0.000000
524.366229,10658.965565,-3404.947333,-3524.039291
524.366551,9770.718434,-5107.421000,-612.876398
524.366874,7476.080014,-6809.894666,2911.162892
524.367197,4367.215058,-8512.368333,2145.067394
524.367519,518.144159,-11695.253884,-2068.457845
524.367842,-3404.947333,-11991.336260,-4366.744339
524.368164,-7994.224174,-11325.150913,-5056.230287
524.368487,-10362.883188,-9622.677246,-4903.011187
524.368809,-9770.718434,-10955.047942,-6588.421283
524.369132,-7031.956449,-12731.542202,-6588.421283
524.369454,-4959.379811,-11547.212695,-3294.210641
524.369777,-4811.338623,-8734.430116,153.219100
524.370099,-3701.029710,-10510.924376,0.000000
524.370422,-962.267725,-13545.768739,-3600.648841
524.370744,0.000000,-12213.398043,-4749.792088
524.371067,-148.041188,-8512.368333,-995.924147
524.371390,1924.535449,-6513.812290,2374.896044
524.371712,5403.503377,-6365.771101,1455.581446
524.372035,8068.244768,-4367.215058,0.000000
524.372357,8512.368333,-3108.864956,-459.657299
524.372680,8734.430116,-6661.853478,-306.438199
524.373002,8734.430116,-11177.109724,1378.971896
524.373325,5699.585753,-10510.924376,459.657299
524.373647,1332.370696,-10510.924376,-1608.800546
524.373970,-1110.308913,-11029.068536,-2068.457845
524.374292,-1110.308913,-10955.047942,-1915.238745
524.374615,-1554.432478,-9844.739029,-3983.696590
524.374938,-3182.885551,-10140.821405,-5362.668486
524.375260,-4737.318029,-10436.903782,-2681.334243
524.375583,-4589.276840,-11769.274478,-842.705048
524.375905,-3997.112087,-13989.892304,-1991.848295
524.376228,-4441.235652,-13767.830521,-2528.115143
524.376550,-5403.503377,-9548.656652,-1991.848295
524.376873,-4441.235652,-5477.523971,-1378.971896
524.377195,222.061783,-5995.668130,-2068.457845
524.377518,4293.194464,-6587.832884,-3217.601092
524.377840,5403.503377,-6143.709319,-2145.067394
524.378163,6365.771101,-6217.729913,1532.190996
524.378485,7031.956449,-7846.182985,1991.848295
524.378808,6217.729913,-9326.594869,-1225.752797
524.379131,2960.823768,-9918.759623,-2834.553343
524.379453,370.102971,-9770.718434,-1072.533697
524.379776,222.061783,-10066.800811,-1302.362347
524.380098,1850.514855,-9548.656652,-3830.477490
524.380421,1702.473667,-8660.409521,-3753.867940
524.380743,296.082377,-9030.512492,-689.485948
524.381066,0.000000,-13101.645173,919.314598
524.381388,-1036.288319,-15396.283594,459.657299
524.381711,-2664.741391,-15692.365970,-766.095498
524.382033,-3404.947333,-13027.624579,153.219100
524.382356,-1554.432478,-8956.491898,306.438199
524.382679,1924.535449,-5625.565159,-1149.143247
524.383001,3701.029710,-3701.029710,-2298.286494
524.383324,3997.112087,-3404.947333,612.876398
524.383646,3627.009116,-4145.153275,2451.505594
524.383969,2590.720797,-7254.018232,-1225.752797
524.384291,-814.226536,-10881.027347,-4903.011187
524.384614,-4959.379811,-11843.295072,-4749.792088
524.384936,-5995.668130,-12065.356855,-3140.991542
524.385259,-5847.626942,-10807.006753,-4213.525239
524.385581,-6069.688724,-8882.471304,-4749.792088
524.385904,-8660.409521,-7994.224174,-3370.820191
524.386226,-8956.491898,-9844.739029,-1838.629195
524.386549,-7624.121203,-13249.686362,-2451.505594
524.386872,-6513.812290,-14878.139434,-2604.724693
524.387194,-4589.276840,-11843.295072,-1302.362347
524.387517,-740.205942,-8512.368333,-919.314598
524.387839,3701.029710,-6365.771101,-689.485948
524.388162,6957.935855,-5329.482782,1225.752797
524.388484,7105.977043,-4737.318029,2757.943793
524.388807,7179.997637,-4293.194464,1532.190996
524.389129,6069.688724,-5625.565159,-1302.362347
524.389452,2664.741391,-8438.347739,-3447.429741
524.389774,-1406.391290,-10288.862594,-2068.457845
524.390097,-3478.967927,-10807.006753,-1072.533697
524.390420,-3256.906145,-11621.233289,-4979.620737
524.390742,-3182.885551,-11769.274478,-6894.859482
524.391065,-5329.482782,-11917.315666,-5209.449386
524.391387,-6661.853478,-12509.480420,-1378.971896
524.391710,-6291.750507,-14359.995275,-1225.752797
524.392032,-5329.482782,-14359.995275,-2604.724693
524.392355,-3330.926739,-12953.603985,-2145.067394
524.392677,518.144159,-11029.068536,-459.657299
524.393000,4367.215058,-8438.347739,459.657299
524.393322,7179.997637,-7402.059420,1455.581446
524.393645,9252.574275,-3775.050304,4596.572988
524.393968,9992.780217,-814.226536,3140.991542
524.394290,8734.430116,-1850.514855,-919.314598
524.394613,5181.441594,-6069.688724,-2298.286494
524.394935,666.185348,-8068.244768,-2145.067394
524.395258,-2072.576638,-9326.594869,-2451.505594
524.395580,-2368.659014,-10436.903782,-3677.258390
524.395903,-2516.700203,-10584.944971,-5439.278036
524.396225,-3552.988522,-9918.759623,-5592.497135
524.396548,-5255.462188,-11251.130318,-4136.915689
524.396870,-6291.750507,-14656.077652,-1762.019645
524.397193,-6883.915261,-16580.613101,-1225.752797
524.397515,-6143.709319,-13989.892304,-1608.800546
524.397838,-3997.112087,-11621.233289,-1762.019645
524.398161,1702.473667,-10584.944971,-2604.724693
524.398483,6069.688724,-8956.491898,-612.876398
524.398806,8660.409521,-5625.565159,3677.258390
524.399128,10881.027347,-3034.844362,5209.449386
524.399451,11029.068536,-1554.432478,2374.896044
524.399773,8068.244768,-4515.256246,-1302.362347
524.400096,3108.864956,-7031.956449,-1072.533697
524.400418,-2072.576638,-8438.347739,-995.924147
524.400741,-4441.235652,-10288.862594,-3830.477490
524.401063,-5625.565159,-9770.718434,-5669.106685
524.401386,-6661.853478,-9030.512492,-5745.716235
524.401709,-7772.162391,-10140.821405,-4826.401637
524.402031,-8882.471304,-15026.180623,-2681.334243
524.402354,-9030.512492,-18505.148550,-1072.533697
524.402676,-9030.512492,-17320.819043,-2298.286494
524.402999,-6217.729913,-13471.748144,-3524.039291
524.403321,-1406.391290,-10807.006753,-3217.601092
524.403644,2886.803174,-8068.244768,-536.266849
524.403966,5625.565159,-4737.318029,2757.943793
524.404289,7179.997637,-1628.453072,3140.991542
524.404611,6587.832884,-1110.308913,1685.410096
524.404934,3182.885551,-3997.112087,0.000000
524.405256,-2220.617826,-7254.018232,-1762.019645
524.405579,-6217.729913,-7994.224174,-3064.381992
524.405902,-6439.791695,-9548.656652,-5745.716235
524.406224,-3923.091493,-11991.336260,-5745.716235
524.406547,-4367.215058,-10807.006753,-4596.572988
524.406869,-4441.235652,-11251.130318,-2528.115143
524.407192,-4737.318029,-13397.727550,-2298.286494
524.407514,-3775.050304,-17098.757260,-1455.581446
524.407837,-3552.988522,-17024.736666,-1225.752797
524.408159,-2886.803174,-13767.830521,-1762.019645
524.408482,1184.329507,-11325.150913,-1915.238745
524.408804,6365.771101,-9622.677246,-1072.533697
524.409127,10066.800811,-6735.874072,3064.381992
524.409450,10658.965565,-2294.638420,5898.935335
524.409772,9326.594869,-222.061783,3907.087040
524.410095,5995.668130,-2072.576638,306.438199
524.410417,1036.288319,-4515.256246,-689.485948
524.410740,-4589.276840,-5625.565159,-1762.019645
524.411062,-7772.162391,-6957.935855,-4290.134789
524.411385,-7772.162391,-9178.553681,-6358.592633
524.411707,-7846.182985,-11251.130318,-7048.078582
524.412030,-7402.059420,-12435.459826,-4366.744339
524.412352,-7402.059420,-14211.954086,-2068.457845
524.412675,-6587.832884,-16358.551318,-2834.553343
524.412997,-4367.215058,-17394.839637,-3753.867940
524.413320,-1184.329507,-16506.592507,-2757.943793
524.413643,2072.576638,-12879.583391,-2451.505594
524.413965,6957.935855,-8438.347739,-153.219100
524.414288,10881.027347,-5255.462188,3294.210641
524.414610,13471.748144,-2294.638420,4213.525239
524.414933,12361.439231,-1406.391290,3677.258390
524.415255,9030.512492,-2294.638420,2757.943793
524.415578,2960.823768,-4737.318029,1149.143247
524.415900,-1924.535449,-8438.347739,0.000000
524.416223,-4219.173869,-7846.182985,-2298.286494
524.416545,-5699.585753,-8142.265362,-6358.592633
524.416868,-6957.935855,-8882.471304,-6818.249932
524.417191,-6513.812290,-11843.295072,-4903.011187
524.417513,-6365.771101,-14878.139434,-1915.238745
524.417836,-6809.894666,-17246.798449,-2987.772442
524.418158,-6439.791695,-17394.839637,-3600.648841
524.418481,-3627.009116,-17394.839637,-4596.572988
524.418803,814.226536,-14211.954086,-3370.820191
524.419126,5329.482782,-11029.068536,-3064.381992
524.419448,7550.100608,-8364.327145,-766.095498
524.419771,8290.306550,-4293.194464,3983.696590
524.420093,7031.956449,222.061783,5362.668486
524.420416,3108.864956,-888.247130,842.705048
524.420738,-1702.473667,-4811.338623,-2451.505594
524.421061,-5699.585753,-6661.853478,-2068.457845
524.421384,-7105.977043,-7254.018232,-2528.115143
524.421706,-6143.709319,-8290.306550,-3600.648841
524.422029,-6957.935855,-8660.409521,-4366.744339
524.422351,-7698.141797,-10214.842000,-2451.505594
524.422674,-7105.977043,-12731.542202,-2374.896044
524.422996,-5403.503377,-15618.345376,-4136.915689
524.423319,-4145.153275,-16950.716072,-5592.497135
524.423641,-1554.432478,-15988.448347,-4290.134789
524.423964,1850.514855,-15100.201217,-1532.190996
524.424286,6513.812290,-12805.562797,766.095498
524.424609,10732.986159,-9474.636058,1991.848295
524.424932,11547.212695,-4811.338623,2451.505594
524.425254,9992.780217,-888.247130,3830.477490
524.425577,6291.750507,-1036.288319,2221.676944
524.425899,518.144159,-3034.844362,153.219100
524.426222,-4589.276840,-4737.318029,766.095498
524.426544,-6587.832884,-6069.688724,-995.924147
524.426867,-6661.853478,-7624.121203,-4136.915689
524.427189,-7550.100608,-8438.347739,-5515.887586
524.427512,-9178.553681,-11177.109724,-3064.381992
524.427834,-9326.594869,-12731.542202,-1149.143247
524.428157,-7772.162391,-15618.345376,-3600.648841
524.428479,-6513.812290,-16802.674883,-5515.887586
524.428802,-4071.132681,-14878.139434,-4903.011187
524.429125,-148.041188,-13471.748144,-3294.210641
524.429447,4663.297435,-12435.459826,-2374.896044
524.429770,8364.327145,-10362.883188,-612.876398
524.430092,10214.842000,-6587.832884,2987.772442
524.430415,10214.842000,-3404.947333,3753.867940
524.430737,7994.224174,-2960.823768,1302.362347
524.431060,3997.112087,-3775.050304,-1455.581446
524.431382,-148.041188,-5773.606348,-766.095498
524.431705,-2590.720797,-6883.915261,-153.219100
524.432027,-3330.926739,-8438.347739,-2757.943793
524.432350,-4663.297435,-10066.800811,-4136.915689
524.432673,-6439.791695,-9326.594869,-2298.286494
524.432995,-6365.771101,-11325.150913,-1838.629195
524.433318,-4663.297435,-15248.242405,-3753.867940
524.433640,-2664.741391,-17098.757260,-4366.744339
524.433963,-1332.370696,-15396.283594,-2987.772442
524.434285,2146.597232,-14137.933492,-1991.848295
524.434608,6661.853478,-12657.521608,0.000000
524.434930,9400.615463,-9696.697840,459.657299
524.435253,9400.615463,-5033.400406,919.314598
524.435575,8290.306550,-2960.823768,2681.334243
524.435898,5255.462188,-2590.720797,1762.019645
524.436221,74.020594,-3775.050304,-2145.067394
524.436543,-5181.441594,-5181.441594,-1072.533697
524.436866,-8068.244768,-6365.771101,-306.438199
524.437188,-7920.203579,-7031.956449,-3600.648841
524.437511,-7994.224174,-8068.244768,-5592.497135
524.437833,-10362.883188,-8660.409521,-3370.820191
524.438156,-10881.027347,-11177.109724,-1762.019645
524.438478,-9326.594869,-14434.015869,-3677.258390
524.438801,-7031.956449,-16358.551318,-5056.230287
524.439123,-4737.318029,-14952.160028,-4673.182538
524.439446,0.000000,-13767.830521,-3753.867940
524.439768,6809.894666,-13101.645173,-1991.848295
524.440091,11473.192101,-10955.047942,-153.219100
524.440414,12213.398043,-7105.977043,2528.115143
524.440736,10881.027347,-3404.947333,5745.716235
524.441059,8956.491898,-2294.638420,2911.162892
524.441381,4811.338623,-4441.235652,-2298.286494
524.441704,-444.123565,-6735.874072,-2068.457845
524.442026,-4737.318029,-6809.894666,536.266849
524.442349,-6587.832884,-5921.647536,-995.924147
524.442671,-8142.265362,-6217.729913,-3140.991542
524.442994,-9474.636058,-7846.182985,-4979.620737
524.443316,-9548.656652,-12139.377449,-4290.134789
524.443639,-8364.327145,-15470.304188,-4443.353888
524.443962,-6661.853478,-17394.839637,-4213.525239
524.444284,-3478.967927,-17098.757260,-3524.039291
524.444607,1406.391290,-15618.345376,-3064.381992
524.444929,6365.771101,-13841.851115,-2221.676944
524.445251,8290.306550,-10807.006753,-919.314598
524.445574,8734.430116,-7105.977043,995.924147
524.445896,8734.430116,-3552.988522,1225.752797
524.446218,7402.059420,-2072.576638,459.657299
524.446541,3997.112087,-4737.318029,-1532.190996
524.446863,-1036.288319,-6883.915261,0.000000
524.447185,-3849.070898,-7105.977043,842.705048
524.447508,-5033.400406,-7105.977043,-1225.752797
524.447830,-6143.709319,-6809.894666,-3677.258390
524.448152,-6735.874072,-7846.182985,-3983.696590
524.448475,-7179.997637,-9326.594869,-2528.115143
524.448797,-5847.626942,-14582.057057,-2451.505594
524.449119,-4589.276840,-17172.777854,-3217.601092
524.449442,-1850.514855,-16284.530724,-3294.210641
524.449764,2886.803174,-14434.015869,-2681.334243
524.450087,7402.059420,-12731.542202,-1072.533697
524.450409,9696.697840,-10658.965565,842.705048
524.450731,9474.636058,-6069.688724,2451.505594
524.451054,7846.182985,-2442.679609,3217.601092
524.451376,6661.853478,-2072.576638,1149.143247
524.451698,2812.782580,-3404.947333,-2757.943793
524.452021,-2294.638420,-5773.606348,-2451.505594
524.452343,-6587.832884,-6661.853478,153.219100
524.452665,-7920.203579,-6883.915261,0.000000
524.452988,-8808.450710,-7698.141797,-2987.772442
524.453310,-9992.780217,-8882.471304,-5898.935335
524.453632,-11547.212695,-10584.944971,-5056.230287
524.453955,-10510.924376,-14730.098246,-4903.011187
524.454277,-7105.977043,-17616.901420,-5362.668486
524.454599,-2738.761985,-18209.066173,-4673.182538
524.454922,2664.741391,-15692.365970,-2221.676944
524.455244,9474.636058,-12731.542202,-1915.238745
524.455566,14211.954086,-11103.089130,-306.438199
524.455889,14730.098246,-7476.080014,3677.258390
524.456211,12509.480420,-2368.659014,5056.230287
524.456534,9622.677246,74.020594,1455.581446
524.456856,6809.894666,-3627.009116,-2221.676944
524.457178,1332.370696,-7179.997637,-383.047749
524.457501,-4885.359217,-7920.203579,1302.362347
524.457823,-8290.306550,-7179.997637,0.000000
524.458145,-9400.615463,-7254.018232,-2451.505594
524.458468,-11991.336260,-7254.018232,-4519.963438
524.458790,-13471.748144,-10436.903782,-4519.963438
524.459112,-12509.480420,-13915.871710,-4979.620737
524.459435,-10288.862594,-16728.654289,-5056.230287
524.459757,-5921.647536,-17764.942608,-5056.230287
524.460079,148.041188,-15692.365970,-3447.429741
524.460402,5773.606348,-14359.995275,-2681.334243
524.460724,10436.903782,-11769.274478,-1455.581446
524.461046,11991.336260,-7846.182985,1762.019645
524.461369,11177.109724,-3627.009116,3294.210641
524.461691,9252.574275,-2146.597232,2221.676944
524.462013,5847.626942,-3330.926739,-1378.971896
524.462336,962.267725,-4885.359217,-919.314598
524.462658,-3923.091493,-6069.688724,1455.581446
524.462980,-6217.729913,-6365.771101,689.485948
524.463303,-6069.688724,-7105.977043,-1685.410096
524.463625,-8216.285956,-7624.121203,-2068.457845
524.463948,-10140.821405,-9622.677246,-1072.533697
524.464270,-9992.780217,-11917.315666,-2604.724693
524.464592,-8438.347739,-14359.995275,-4596.572988
524.464915,-4811.338623,-15618.345376,-5439.278036
524.465237,962.267725,-14804.118840,-4673.182538
524.465559,6883.915261,-14878.139434,-2757.943793
524.465882,11843.295072,-13545.768739,0.000000
524.466204,14211.954086,-10362.883188,2374.896044
524.466526,12657.521608,-6291.750507,3830.477490
524.466849,10362.883188,-2664.741391,2681.334243
524.467171,6513.812290,-3330.926739,-2987.772442
524.467493,1036.288319,-4737.318029,-3907.087040
524.467816,-5329.482782,-5625.565159,-229.828649
524.468138,-8290.306550,-5033.400406,0.000000
524.468460,-9548.656652,-5403.503377,-2604.724693
524.468783,-11029.068536,-7476.080014,-4673.182538
524.469105,-12805.562797,-10732.986159,-2681.334243
524.469427,-11547.212695,-13101.645173,-2834.553343
524.469750,-8216.285956,-16358.551318,-4366.744339
524.470072,-3997.112087,-16654.633695,-4979.620737
524.470395,1850.514855,-14434.015869,-3983.696590
524.470717,6957.935855,-13249.686362,-1838.629195
524.471039,10807.006753,-11399.171507,-153.219100
524.471362,12879.583391,-8882.471304,919.314598
524.471684,12065.356855,-6217.729913,1302.362347
524.472006,9622.677246,-3923.091493,459.657299
524.472329,7402.059420,-6439.791695,-1915.238745
524.472651,2368.659014,-8364.327145,-1685.410096
524.472973,-2886.803174,-8364.327145,536.266849
524.473296,-6291.750507,-5699.585753,153.219100
524.473618,-8586.388927,-4885.359217,-2451.505594
524.473940,-10140.821405,-7624.121203,-5056.230287
524.474263,-12583.501014,-9104.533087,-2604.724693
524.474585,-12287.418637,-12731.542202,-2145.067394
524.474907,-9474.636058,-15174.221811,-4366.744339
524.475230,-3775.050304,-17172.777854,-5898.935335
524.475552,1406.391290,-15396.283594,-2068.457845
524.475874,6809.894666,-12953.603985,995.924147
524.476197,10807.006753,-10362.883188,1455.581446
524.476519,11695.253884,-6587.832884,1149.143247
524.476842,10584.944971,-3701.029710,459.657299
524.477164,8068.244768,-2590.720797,-1072.533697
524.477486,4737.318029,-4219.173869,-2068.457845
524.477809,814.226536,-7031.956449,-536.266849
524.478131,-3256.906145,-7772.162391,612.876398
524.478453,-4219.173869,-7476.080014,-689.485948
524.478776,-5477.523971,-8438.347739,-1532.190996
524.479098,-10140.821405,-7550.100608,-842.705048
524.479420,-14211.954086,-8068.244768,-2451.505594
524.479743,-14434.015869,-10584.944971,-4826.401637
524.480065,-11325.150913,-14211.954086,-6128.763984
524.480387,-6957.935855,-16358.551318,-5362.668486
524.480710,-1110.308913,-15174.221811,-2681.334243
524.481032,5699.585753,-13767.830521,-689.485948
524.481354,12213.398043,-11769.274478,612.876398
524.481677,15396.283594,-8364.327145,1685.410096
524.481999,13767.830521,-5403.503377,3294.210641
524.482321,10362.883188,-3404.947333,1532.190996
524.482644,6513.812290,-3478.967927,-3753.867940
524.482966,2516.700203,-6513.812290,-4903.011187
524.483288,-2664.741391,-8142.265362,-612.876398
524.483611,-6587.832884,-7179.997637,0.000000
524.483933,-7920.203579,-7550.100608,-2604.724693
524.484256,-8586.388927,-10066.800811,-3447.429741
524.484578,-11547.212695,-10658.965565,-2451.505594
524.484900,-13767.830521,-11473.192101,-2604.724693
524.485223,-11991.336260,-13989.892304,-5209.449386
524.485545,-6809.894666,-16950.716072,-6052.154434
524.485867,-370.102971,-14804.118840,-3447.429741
524.486190,5107.421000,-11769.274478,0.000000
524.486512,10807.006753,-9918.759623,995.924147
524.486834,15174.221811,-8290.306550,1532.190996
524.487157,14952.160028,-6661.853478,2911.162892
524.487479,11843.295072,-4663.297435,3677.258390
524.487801,6957.935855,-4219.173869,-919.314598
524.488124,2590.720797,-5551.544565,-4673.182538
524.488446,-1924.535449,-7179.997637,-2451.505594
524.488768,-6069.688724,-6291.750507,-689.485948
524.489091,-8142.265362,-6513.812290,-1608.800546
524.489413,-11251.130318,-7550.100608,-3600.648841
524.489735,-13767.830521,-9696.697840,-2834.553343
524.490058,-12953.603985,-13915.871710,-4213.525239
524.490380,-10658.965565,-17098.757260,-5439.278036
524.490703,-8068.244768,-17987.004391,-5822.325785
524.491025,-2886.803174,-13841.851115,-2911.162892
524.491347,4293.194464,-9696.697840,459.657299
524.491670,11769.274478,-8808.450710,842.705048
524.491992,15248.242405,-6587.832884,1072.533697
524.492314,13693.809927,-3775.050304,2911.162892
524.492637,11473.192101,-2664.741391,3753.867940
524.492959,8290.306550,-4737.318029,689.485948
524.493281,5255.462188,-7402.059420,-2068.457845
524.493604,0.000000,-8956.491898,-1991.848295
524.493926,-4071.132681,-7920.203579,-995.924147
524.494248,-6069.688724,-7846.182985,-1762.019645
524.494571,-7846.182985,-8586.388927,-2145.067394
524.494893,-11621.233289,-8512.368333,-3217.601092
524.495215,-14434.015869,-11917.315666,-4443.353888
524.495538,-13989.892304,-16210.510130,-5898.935335
524.495860,-9474.636058,-18949.272115,-5286.058936
524.496182,-4441.235652,-16876.695478,-4060.306139
524.496505,2738.761985,-12731.542202,-1762.019645
524.496827,9770.718434,-9918.759623,689.485948
524.497149,14137.933492,-8364.327145,2298.286494
524.497472,13693.809927,-4737.318029,3064.381992
524.497794,10658.965565,-2072.576638,2604.724693
524.498117,7402.059420,-1702.473667,-229.828649
524.498439,4145.153275,-5921.647536,-3753.867940
524.498761,-296.082377,-9030.512492,-2451.505594
524.499084,-4515.256246,-8364.327145,0.000000
524.499406,-6513.812290,-7846.182985,-919.314598
524.499728,-7254.018232,-9696.697840,-3370.820191
524.500051,-7402.059420,-11251.130318,-3064.381992
524.500373,-10214.842000,-10881.027347,-2451.505594
524.500695,-11769.274478,-13841.851115,-3370.820191
524.501018,-10066.800811,-16432.571912,-3677.258390
524.501340,-5329.482782,-15100.201217,-2451.505594
524.501662,-518.144159,-10881.027347,-2604.724693
524.501985,5181.441594,-9474.636058,-995.924147
524.502307,11251.130318,-9474.636058,1608.800546
524.502629,14508.036463,-7031.956449,2834.553343
524.502952,13101.645173,-2738.761985,3983.696590
524.503274,8290.306550,-2664.741391,3294.210641
524.503596,4367.215058,-5181.441594,-1072.533697
524.503919,222.061783,-7846.182985,-4903.011187
524.504241,-4885.359217,-6809.894666,-4213.525239
524.504564,-9474.636058,-6217.729913,-3370.820191
524.504886,-10436.903782,-8660.409521,-3677.258390
524.505208,-11473.192101,-10362.883188,-3140.991542
524.505531,-11029.068536,-12805.562797,-3983.696590
524.505853,-9770.718434,-16284.530724,-4213.525239
524.506175,-7624.121203,-18579.169144,-2451.505594
524.506498,-3627.009116,-16210.510130,-1915.238745
524.506820,814.226536,-9992.780217,-2451.505594
524.507142,4885.359217,-7698.141797,-1685.410096
524.507465,10140.821405,-7698.141797,383.047749
524.507787,12583.501014,-6291.750507,2068.457845
524.508109,11547.212695,-2812.782580,3140.991542
524.508432,8660.409521,-2590.720797,1532.190996
524.508754,5477.523971,-6587.832884,-1302.362347
524.509076,2146.597232,-9622.677246,-2604.724693
524.509399,-2960.823768,-9252.574275,-2604.724693
524.509721,-6217.729913,-8438.347739,-4213.525239
524.510043,-7624.121203,-8586.388927,-5439.278036
524.510366,-8438.347739,-10066.800811,-5669.106685
524.510688,-9696.697840,-11473.192101,-3830.477490
524.511011,-9252.574275,-15914.427753,-3830.477490
524.511333,-6513.812290,-18505.148550,-3217.601092
524.511655,-3034.844362,-17098.757260,-2145.067394
524.511978,444.123565,-11917.315666,-1608.800546
524.512300,4959.379811,-9030.512492,0.000000
524.512622,8956.491898,-8438.347739,1762.019645
524.512945,10140.821405,-4811.338623,2451.505594
524.513267,8290.306550,-666.185348,3524.039291
524.513589,6513.812290,370.102971,2987.772442
524.513912,4959.379811,-3923.091493,-2221.676944
524.514234,1554.432478,-7328.038826,-4213.525239
524.514556,-2664.741391,-9326.594869,-2528.115143
524.514879,-5033.400406,-10510.924376,-1149.143247
524.515201,-5403.503377,-10955.047942,-3064.381992
524.515523,-8216.285956,-9918.759623,-5515.887586
524.515846,-10436.903782,-11177.109724,-4903.011187
524.516168,-9696.697840,-14285.974681,-4136.915689
524.516490,-8068.244768,-16284.530724,-4136.915689
524.516813,-5477.523971,-15692.365970,-3677.258390
524.517135,-1480.411884,-13323.706956,-1608.800546
524.517457,3627.009116,-10436.903782,842.705048
524.517780,8290.306550,-8364.327145,2987.772442
524.518102,9548.656652,-6217.729913,4366.744339
524.518425,8586.388927,-2220.617826,4136.915689
524.518747,7994.224174,148.041188,2145.067394
524.519069,6513.812290,-1184.329507,-919.314598
524.519392,3552.988522,-5033.400406,-1608.800546
524.519714,-740.205942,-7920.203579,-842.705048
524.520036,-3034.844362,-10436.903782,-1149.143247
524.520359,-3923.091493,-11621.233289,-3370.820191
524.520681,-6809.894666,-12287.418637,-4979.620737
524.521003,-9104.533087,-13471.748144,-4596.572988
524.521326,-9474.636058,-15322.262999,-3294.210641
524.521648,-7994.224174,-16876.695478,-4979.620737
524.521970,-5625.565159,-15322.262999,-4826.401637
524.522293,-2442.679609,-12509.480420,-1762.019645
524.522615,1332.370696,-9548.656652,76.609550
524.522937,5625.565159,-8142.265362,0.000000
524.523260,7476.080014,-7254.018232,1225.752797
524.523582,6809.894666,-4737.318029,3753.867940
524.523904,5995.668130,-2664.741391,3447.429741
524.524227,4811.338623,-3108.864956,-995.924147
524.524549,1554.432478,-4441.235652,-2528.115143
524.524872,-2368.659014,-6069.688724,-1225.752797
524.525194,-4441.235652,-7254.018232,-995.924147
524.525516,-4071.132681,-9474.636058,-3753.867940
524.525839,-4885.359217,-11695.253884,-6052.154434
524.526161,-7698.141797,-13471.748144,-3830.477490
524.526483,-9104.533087,-15174.221811,-2604.724693
524.526806,-7476.080014,-17394.839637,-3524.039291
524.527128,-4737.318029,-17172.777854,-3753.867940
524.527450,-1702.473667,-13175.665768,-2911.162892
524.527773,1924.535449,-8586.388927,-1149.143247
524.528095,6291.750507,-6661.853478,306.438199
524.528417,8586.388927,-5773.606348,1915.238745
524.528740,7846.182985,-4219.173869,3370.820191
524.529062,6365.771101,-3108.864956,3370.820191
524.529384,4367.215058,-3404.947333,0.000000
524.529707,1776.494261,-4959.379811,-3753.867940
524.530029,-2442.679609,-6809.894666,-3294.210641
524.530351,-6069.688724,-8586.388927,-1378.971896
524.530674,-6587.832884,-9474.636058,-2528.115143
524.530996,-6513.812290,-9622.677246,-6128.763984
524.531318,-7846.182985,-11177.109724,-6511.811733
524.531641,-8216.285956,-14359.995275,-4290.134789
524.531963,-6291.750507,-16432.571912,-3983.696590
524.532286,-3108.864956,-17616.901420,-3677.258390
524.532608,-296.082377,-14359.995275,-1302.362347
524.532930,3701.029710,-9918.759623,0.000000
524.533253,7920.203579,-8142.265362,0.000000
524.533575,9992.780217,-7328.038826,1532.190996
524.533897,9696.697840,-5181.441594,4136.915689
524.534220,7328.038826,-2812.782580,3753.867940
524.534542,6217.729913,-2664.741391,689.485948
524.534864,4219.173869,-3923.091493,-1685.410096
524.535187,-222.061783,-5477.523971,-3677.258390
524.535509,-4219.173869,-7624.121203,-2221.676944
524.535831,-5773.606348,-9844.739029,-2298.286494
524.536154,-6661.853478,-10732.986159,-5209.449386
524.536476,-8808.450710,-11103.089130,-7048.078582
524.536798,-9548.656652,-15544.324782,-5592.497135
524.537121,-7772.162391,-18875.251521,-4213.525239
524.537443,-5477.523971,-18875.251521,-3907.087040
524.537765,-3330.926739,-14952.160028,-2987.772442
524.538088,888.247130,-11843.295072,-1302.362347
524.538410,5255.462188,-9474.636058,229.828649
524.538733,7328.038826,-7031.956449,1532.190996
524.539055,6735.874072,-4737.318029,3677.258390
524.539377,5551.544565,-2294.638420,4443.353888
524.539700,5551.544565,-1332.370696,2374.896044
524.540022,4441.235652,-2294.638420,-229.828649
524.540344,1628.453072,-5033.400406,-536.266849
524.540667,-592.164754,-6735.874072,-383.047749
524.540989,-1924.535449,-7920.203579,-1762.019645
524.541311,-3552.988522,-9770.718434,-3907.087040
524.541634,-7105.977043,-11547.212695,-4136.915689
524.541956,-9474.636058,-14211.954086,-3600.648841
524.542278,-9326.594869,-16506.592507,-4596.572988
524.542601,-7550.100608,-17320.819043,-5592.497135
524.542923,-5551.544565,-16210.510130,-3600.648841
524.543245,-1628.453072,-12287.418637,-689.485948
524.543568,3404.947333,-9474.636058,-459.657299
524.543890,7402.059420,-8068.244768,459.657299
524.544212,8290.306550,-6069.688724,3217.601092
524.544535,7031.956449,-2368.659014,4060.306139
524.544857,5551.544565,-370.102971,1072.533697
524.545180,3627.009116,-2960.823768,-1378.971896
524.545502,370.102971,-6365.771101,-919.314598
524.545824,-2738.761985,-7624.121203,229.828649
524.546147,-3849.070898,-7698.141797,-1302.362347
524.546469,-2368.659014,-9622.677246,-3677.258390
524.546791,-2960.823768,-11251.130318,-5439.278036
524.547114,-4071.132681,-13619.789333,-3983.696590
524.547436,-5033.400406,-15174.221811,-3983.696590
524.547758,-4219.173869,-17172.777854,-3524.039291
524.548081,-1924.535449,-16062.468941,-2681.334243
524.548403,518.144159,-11991.336260,-2145.067394
524.548725,2886.803174,-8808.450710,-2451.505594
524.549047,4589.276840,-7550.100608,-383.047749
524.549370,5773.606348,-6809.894666,2221.676944
524.549692,6365.771101,-5033.400406,2681.334243
524.550014,6217.729913,-3849.070898,919.314598
524.550336,3701.029710,-3923.091493,-1685.410096
524.550659,-592.164754,-5773.606348,-1915.238745
524.550981,-5033.400406,-7550.100608,-536.266849
524.551303,-7254.018232,-7920.203579,-1608.800546
524.551626,-9178.553681,-7179.997637,-6281.983084
524.551948,-9400.615463,-10807.006753,-9422.974625
524.552270,-8956.491898,-14285.974681,-6052.154434
524.552592,-7476.080014,-17320.819043,-3677.258390
524.552915,-4367.215058,-18061.024985,-3677.258390
524.553237,-148.041188,-17320.819043,-2834.553343
524.553559,3627.009116,-13323.706956,-536.266849
524.553881,6735.874072,-9474.636058,0.000000
524.554204,7476.080014,-7402.059420,612.876398
524.554526,7550.100608,-5403.503377,2145.067394
524.554848,6587.832884,-2886.803174,2451.505594
524.555171,5699.585753,-1702.473667,1302.362347
524.555493,4663.297435,-2294.638420,-536.266849
524.555815,2146.597232,-4145.153275,-1378.971896
524.556137,0.000000,-7105.977043,-229.828649
524.556460,-1776.494261,-9474.636058,76.609550
524.556782,-3330.926739,-10362.883188,-2911.162892
524.557104,-7920.203579,-9326.594869,-4979.620737
524.557427,-12287.418637,-9844.739029,-4749.792088
524.557749,-12731.542202,-13249.686362,-5209.449386
524.558071,-9474.636058,-17172.777854,-6741.640382
524.558393,-6439.791695,-16654.633695,-6588.421283
524.558716,-2294.638420,-14582.057057,-4519.963438
524.559038,3108.864956,-12509.480420,-1302.362347
524.559360,8882.471304,-11547.212695,2451.505594
524.559682,10288.862594,-7846.182985,2451.505594
524.560005,7846.182985,-2960.823768,2451.505594
524.560327,7105.977043,-444.123565,2451.505594
524.560649,6217.729913,-1258.350101,-1149.143247
524.560972,3478.967927,-4737.318029,-1302.362347
524.561294,-1110.308913,-7179.997637,1685.410096
524.561616,-3182.885551,-8882.471304,1532.190996
524.561938,-1702.473667,-11177.109724,-1225.752797
524.562261,-2294.638420,-11769.274478,-3753.867940
524.562583,-5403.503377,-11769.274478,-3217.601092
524.562905,-7254.018232,-12213.398043,-3064.381992
524.563227,-5847.626942,-15470.304188,-3600.648841
524.563550,-4293.194464,-15470.304188,-3370.820191
524.563872,-2294.638420,-13545.768739,-2757.943793
524.564194,814.226536,-10658.965565,-2298.286494
524.564517,4663.297435,-9992.780217,-1838.629195
524.564839,6883.915261,-9030.512492,1455.581446
524.565161,6661.853478,-6809.894666,3830.477490
524.565483,4959.379811,-3701.029710,2604.724693
524.565806,3478.967927,-3627.009116,-1225.752797
524.566128,814.226536,-4441.235652,-3064.381992
524.566450,-2960.823768,-6069.688724,-2221.676944
524.566772,-5847.626942,-6661.853478,-1072.533697
524.567095,-6365.771101,-7772.162391,-2374.896044
524.567417,-6143.709319,-9474.636058,-3294.210641
524.567739,-6957.935855,-9844.739029,-2681.334243
524.568062,-7550.100608,-13249.686362,-2604.724693
524.568384,-7254.018232,-16358.551318,-3600.648841
524.568706,-5403.503377,-15988.448347,-3064.381992
524.569028,-1776.494261,-13027.624579,-2911.162892
524.569351,2812.782580,-10140.821405,-3064.381992
524.569673,7254.018232,-9474.636058,-842.705048
524.569995,9400.615463,-7846.182985,2451.505594
524.570317,9918.759623,-5699.585753,3217.601092
524.570640,9622.677246,-4885.359217,1455.581446
524.570962,8512.368333,-4811.338623,-612.876398
524.571284,4663.297435,-5551.544565,-1915.238745
524.571607,-1480.411884,-6291.750507,-1532.190996
524.571929,-5551.544565,-7031.956449,-1608.800546
524.572251,-7402.059420,-8586.388927,-3983.696590
524.572573,-8364.327145,-10214.842000,-5975.544884
524.572896,-10214.842000,-10732.986159,-4979.620737
524.573218,-10732.986159,-11843.295072,-3524.039291
524.573540,-8586.388927,-16062.468941,-4366.744339
524.573862,-4811.338623,-17542.880825,-3600.648841
524.574185,-1332.370696,-14804.118840,-3447.429741
524.574507,1924.535449,-11103.089130,-2528.115143
524.574829,5181.441594,-9622.677246,-1072.533697
524.575152,8216.285956,-9104.533087,459.657299
524.575474,8808.450710,-5625.565159,2298.286494
524.575796,8660.409521,-2072.576638,1838.629195
524.576118,8734.430116,-2812.782580,-995.924147
524.576441,7179.997637,-6587.832884,-2834.553343
524.576763,2516.700203,-7550.100608,-229.828649
524.577085,-2220.617826,-8438.347739,1149.143247
524.577407,-4219.173869,-10066.800811,-2221.676944
524.577730,-5921.647536,-11325.150913,-4749.792088
524.578052,-9548.656652,-10436.903782,-4060.306139
524.578374,-10658.965565,-10436.903782,-3370.820191
524.578697,-9030.512492,-13841.851115,-3524.039291
524.579019,-5477.523971,-16136.489536,-2604.724693
524.579341,-2220.617826,-14582.057057,-1072.533697
524.579663,1406.391290,-11325.150913,-842.705048
524.579986,5329.482782,-8882.471304,0.000000
524.580308,7105.977043,-7624.121203,1915.238745
524.580630,7772.162391,-4737.318029,1915.238745
524.580952,7550.100608,-2516.700203,153.219100
524.581275,6513.812290,-2960.823768,-229.828649
524.581597,3552.988522,-5329.482782,-995.924147
524.581919,-1258.350101,-7254.018232,-383.047749
524.582242,-5033.400406,-8882.471304,-383.047749
524.582564,-5773.606348,-9326.594869,-2451.505594
524.582886,-6143.709319,-10510.924376,-6358.592633
524.583208,-7550.100608,-10510.924376,-5362.668486
524.583531,-9622.677246,-12583.501014,-1072.533697
524.583853,-9474.636058,-14137.933492,-1149.143247
524.584175,-7179.997637,-14730.098246,-3064.381992
524.584498,-3997.112087,-13471.748144,-3217.601092
524.584820,148.041188,-10362.883188,-2145.067394
524.585142,5699.585753,-8660.409521,-1072.533697
524.585464,10732.986159,-8512.368333,919.314598
524.585787,12583.501014,-7105.977043,3753.867940
524.586109,11251.130318,-3849.070898,5209.449386
524.586431,9252.574275,-3108.864956,2528.115143
524.586753,5551.544565,-6217.729913,-2068.457845
524.587076,0.000000,-8364.327145,-2757.943793
524.587398,-4811.338623,-7698.141797,-2451.505594
524.587720,-6809.894666,-9030.512492,-4060.306139
524.588043,-6883.915261,-11473.192101,-4213.525239
524.588365,-8882.471304,-11325.150913,-2987.772442
524.588687,-10140.821405,-11399.171507,-2987.772442
524.589009,-9326.594869,-15100.201217,-4443.353888
524.589332,-7105.977043,-16728.654289,-5209.449386
524.589654,-4367.215058,-14730.098246,-5056.230287
524.589976,-1184.329507,-11177.109724,-2604.724693
524.590298,3923.091493,-9474.636058,-842.705048
524.590621,8290.306550,-9030.512492,1072.533697
524.590943,10140.821405,-5995.668130,2451.505594
524.591265,10510.924376,-2368.659014,2987.772442
524.591588,9548.656652,-1776.494261,842.705048
524.591910,7254.018232,-4737.318029,-1455.581446
524.592232,3701.029710,-7328.038826,0.000000
524.592554,-1110.308913,-7772.162391,383.047749
524.592877,-4441.235652,-8290.306550,-1991.848295
524.593199,-6735.874072,-9770.718434,-4136.915689
524.593521,-9178.553681,-11103.089130,-4443.353888
524.593843,-11621.233289,-10881.027347,-4673.182538
524.594166,-11177.109724,-14359.995275,-4060.306139
524.594488,-9178.553681,-16802.674883,-2987.772442
524.594810,-5625.565159,-16210.510130,-2757.943793
524.595133,-962.267725,-12953.603985,-2451.505594
524.595455,5477.523971,-10362.883188,-2604.724693
524.595777,10288.862594,-9252.574275,-766.095498
524.596099,11769.274478,-6735.874072,1378.971896
524.596422,11029.068536,-3256.906145,3830.477490
524.596744,9622.677246,-1406.391290,2298.286494
524.597066,7105.977043,-4515.256246,-459.657299
524.597388,1776.494261,-6809.894666,-1762.019645
524.597711,-3701.029710,-7105.977043,-1991.848295
524.598033,-7105.977043,-8142.265362,-3217.601092
524.598355,-7254.018232,-10732.986159,-2987.772442
524.598678,-9844.739029,-11769.274478,-3830.477490
524.599000,-11399.171507,-11399.171507,-3294.210641
524.599322,-10732.986159,-12953.603985,-3830.477490
524.599644,-7476.080014,-16358.551318,-3370.820191
524.599967,-4293.194464,-15914.427753,-3370.820191
524.600289,0.000000,-12731.542202,-2604.724693
524.600611,5107.421000,-9548.656652,-1225.752797
524.600933,10510.924376,-9104.533087,459.657299
524.601256,13249.686362,-7846.182985,3370.820191
524.601578,12731.542202,-4145.153275,4290.134789
524.601900,9992.780217,-2220.617826,2298.286494
524.602223,7476.080014,-3701.029710,-383.047749
524.602545,2220.617826,-6291.750507,-2221.676944
524.602867,-3330.926739,-7105.977043,-1915.238745
524.603189,-7402.059420,-8290.306550,-2374.896044
524.603512,-8882.471304,-10140.821405,-3294.210641
524.603834,-11177.109724,-11843.295072,-4443.353888
524.604156,-11769.274478,-12583.501014,-4213.525239
524.604478,-12509.480420,-14582.057057,-3524.039291
524.604801,-11177.109724,-17394.839637,-2681.334243
524.605123,-7402.059420,-15840.407159,-3524.039291
524.605445,-2664.741391,-11399.171507,-3753.867940
524.605768,2368.659014,-8660.409521,-2911.162892
524.606090,7920.203579,-8364.327145,306.438199
524.606412,10288.862594,-6587.832884,2911.162892
524.606734,10362.883188,-3404.947333,3677.258390
524.607057,9844.739029,-1406.391290,2145.067394
524.607379,8142.265362,-4071.132681,-766.095498
524.607701,4811.338623,-6439.791695,-1455.581446
524.608023,-592.164754,-7105.977043,-1225.752797
524.608346,-5107.421000,-7179.997637,-1455.581446
524.608668,-6957.935855,-9030.512492,-3064.381992
524.608990,-9030.512492,-11621.233289,-4443.353888
524.609313,-10658.965565,-11991.336260,-4596.572988
524.609635,-10881.027347,-14582.057057,-4443.353888
524.609957,-8882.471304,-17690.922014,-3907.087040
524.610279,-4589.276840,-16728.654289,-2374.896044
524.610602,74.020594,-13249.686362,-1225.752797
524.610924,5477.523971,-9622.677246,-1455.581446
524.611246,9474.636058,-7698.141797,536.266849
524.611569,11399.171507,-6365.771101,2068.457845
524.611891,11251.130318,-3478.967927,2757.943793
524.612213,9696.697840,-1850.514855,2221.676944
524.612535,7254.018232,-3627.009116,-306.438199
524.612858,2516.700203,-6365.771101,-2145.067394
524.613180,-1850.514855,-7920.203579,-919.314598
524.613502,-4589.276840,-8808.450710,-2068.457845
524.613824,-4811.338623,-10732.986159,-4826.401637
524.614147,-7846.182985,-11695.253884,-5515.887586
524.614469,-10584.944971,-11251.130318,-3907.087040
524.614791,-11695.253884,-13915.871710,-3983.696590
524.615114,-10214.842000,-17098.757260,-3294.210641
524.615436,-7328.038826,-17024.736666,-4979.620737
524.615758,-3256.906145,-14582.057057,-5056.230287
524.616080,1036.288319,-11029.068536,-1762.019645
524.616403,7105.977043,-8956.491898,1455.581446
524.616725,11029.068536,-6661.853478,3140.991542
524.617047,11843.295072,-2960.823768,3983.696590
524.617369,10732.986159,-740.205942,3830.477490
524.617692,8660.409521,-1036.288319,459.657299
524.618014,4515.256246,-4219.173869,-1608.800546
524.618336,-370.102971,-6883.915261,-1455.581446
524.618659,-4219.173869,-7846.182985,-1532.190996
524.618981,-5403.503377,-9918.759623,-3370.820191
524.619303,-5551.544565,-12879.583391,-4903.011187
524.619625,-8882.471304,-13619.789333,-4136.915689
524.619948,-10807.006753,-15322.262999,-3370.820191
524.620270,-11325.150913,-17098.757260,-3600.648841
524.620592,-9474.636058,-16728.654289,-2911.162892
524.620914,-6217.729913,-13027.624579,-3907.087040
524.621237,-444.123565,-9474.636058,-5362.668486
524.621559,5625.565159,-8216.285956,-2834.553343
524.621881,9992.780217,-8142.265362,2221.676944
524.622204,10807.006753,-5625.565159,5439.278036
524.622526,10732.986159,-2516.700203,4903.011187
524.622848,9326.594869,-1924.535449,1608.800546
524.623170,5847.626942,-4663.297435,-1762.019645
524.623493,592.164754,-6809.894666,-2298.286494
524.623815,-4219.173869,-7254.018232,-1608.800546
524.624137,-6217.729913,-7476.080014,-3447.429741
524.624459,-6069.688724,-10066.800811,-4673.182538
524.624782,-8734.430116,-11177.109724,-4443.353888
524.625104,-9992.780217,-14359.995275,-2834.553343
524.625426,-9178.553681,-18653.189738,-3524.039291
524.625749,-7031.956449,-19689.478057,-3907.087040
524.626071,-3775.050304,-15470.304188,-3064.381992
524.626393,444.123565,-10584.944971,-1455.581446
524.626715,4959.379811,-7402.059420,-306.438199
524.627038,8216.285956,-4737.318029,306.438199
524.627360,10362.883188,-2516.700203,2145.067394
524.627682,10214.842000,-1184.329507,3064.381992
524.628004,8142.265362,-3627.009116,2145.067394
524.628327,3997.112087,-6365.771101,383.047749
524.628649,-666.185348,-8364.327145,-1608.800546
524.628971,-3552.988522,-9400.615463,-2681.334243
524.629294,-4811.338623,-8882.471304,-4596.572988
524.629616,-5921.647536,-9770.718434,-5669.106685
524.629938,-7624.121203,-9696.697840,-3983.696590
524.630260,-8808.450710,-12509.480420,-3064.381992
524.630583,-9030.512492,-16506.592507,-3294.210641
524.630905,-7624.121203,-18653.189738,-3217.601092
524.631227,-5921.647536,-16654.633695,-2987.772442
524.631549,-1850.514855,-12213.398043,-2221.676944
524.631872,4367.215058,-8216.285956,-459.657299
524.632194,8808.450710,-5773.606348,1149.143247
524.632516,10288.862594,-2442.679609,4366.744339
524.632839,9474.636058,0.000000,5362.668486
524.633161,7550.100608,0.000000,2374.896044
524.633483,4959.379811,-4663.297435,-1915.238745
524.633805,740.205942,-8438.347739,-3294.210641
524.634128,-3552.988522,-9622.677246,-2374.896044
524.634450,-4959.379811,-11251.130318,-2604.724693
524.634772,-4737.318029,-11917.315666,-4443.353888
524.635094,-7550.100608,-11621.233289,-5286.058936
524.635417,-8660.409521,-13249.686362,-4903.011187
524.635739,-7698.141797,-16062.468941,-5132.839837
524.636061,-6143.709319,-17987.004391,-4826.401637
524.636384,-4589.276840,-16728.654289,-2987.772442
524.636706,-1702.473667,-12657.521608,-1685.410096
524.637028,3182.885551,-9992.780217,-229.828649
524.637350,7994.224174,-7550.100608,1532.190996
524.637673,10362.883188,-4959.379811,3294.210641
524.637995,10214.842000,-370.102971,4903.011187
524.638317,8216.285956,1332.370696,3677.258390
524.638639,4737.318029,-1924.535449,919.314598
524.638962,592.164754,-5625.565159,-1302.362347
524.639284,-2294.638420,-8660.409521,-2911.162892
524.639606,-3627.009116,-10807.006753,-4443.353888
524.639929,-3552.988522,-12065.356855,-5362.668486
524.640251,-5921.647536,-12213.398043,-4826.401637
524.640573,-7254.018232,-13915.871710,-3524.039291
524.640895,-7920.203579,-16802.674883,-3753.867940
524.641218,-7402.059420,-18875.251521,-4826.401637
524.641540,-6809.894666,-16654.633695,-4366.744339
524.641862,-3701.029710,-11769.274478,-3524.039291
524.642185,1776.494261,-8512.368333,-1838.629195
524.642507,6439.791695,-7105.977043,1302.362347
524.642829,8734.430116,-5033.400406,4979.620737
524.643151,8882.471304,-1998.556043,6128.763984
524.643474,8216.285956,0.000000,3140.991542
524.643796,5699.585753,-1036.288319,-1072.533697
524.644118,1480.411884,-5181.441594,-2374.896044
524.644440,-2442.679609,-7698.141797,-1378.971896
524.644763,-4367.215058,-9104.533087,-2374.896044
524.645085,-4441.235652,-10732.986159,-4749.792088
524.645407,-5551.544565,-12287.418637,-4903.011187
524.645730,-6365.771101,-13397.727550,-4060.306139
524.646052,-7105.977043,-15766.386565,-3677.258390
524.646374,-6513.812290,-18209.066173,-3524.039291
524.646696,-5551.544565,-16802.674883,-2451.505594
524.647019,-3552.988522,-12805.562797,-1991.848295
524.647341,74.020594,-8586.388927,-2451.505594
524.647663,4367.215058,-6217.729913,-536.266849
524.647986,6587.832884,-4737.318029,2298.286494
524.648308,7772.162391,-2368.659014,4443.353888
524.648630,7254.018232,-1258.350101,2911.162892
524.648953,5329.482782,-3108.864956,76.609550
524.649275,2146.597232,-6069.688724,-1532.190996
524.649598,-1850.514855,-8290.306550,-1762.019645
524.649920,-4663.297435,-8586.388927,-3064.381992
524.650243,-5773.606348,-9252.574275,-6818.249932
524.650565,-6291.750507,-11325.150913,-7737.564530
524.650887,-7105.977043,-12953.603985,-5822.325785
524.651210,-6735.874072,-16728.654289,-3830.477490
524.651532,-6143.709319,-19245.354492,-3447.429741
524.651855,-4811.338623,-18357.107362,-2757.943793
524.652177,-2146.597232,-15100.201217,-1608.800546
524.652499,2812.782580,-11029.068536,-995.924147
524.652822,7031.956449,-6957.935855,153.219100
524.653144,9030.512492,-3108.864956,3294.210641
524.653467,10584.944971,296.082377,5132.839837
524.653789,9622.677246,518.144159,4673.182538
524.654112,7328.038826,-2146.597232,1991.848295
524.654434,2960.823768,-5847.626942,-1149.143247
524.654756,-1110.308913,-9030.512492,-2681.334243
524.655079,-3478.967927,-9918.759623,-2987.772442
524.655401,-4515.256246,-10807.006753,-4749.792088
524.655724,-5995.668130,-11251.130318,-6435.202183
524.656046,-6661.853478,-12361.439231,-6511.811733
524.656368,-6365.771101,-14582.057057,-4903.011187
524.656691,-7179.997637,-17764.942608,-5209.449386
524.657013,-7772.162391,-17246.798449,-4366.744339
524.657336,-6439.791695,-15174.221811,-3370.820191
524.657658,-2442.679609,-12509.480420,-2298.286494
524.657981,3256.906145,-9326.594869,-1072.533697
524.658303,6439.791695,-6587.832884,2221.676944
524.658625,7550.100608,-2294.638420,5362.668486
524.658948,8142.265362,1924.535449,5209.449386
524.659270,7179.997637,2072.576638,2068.457845
524.659593,4145.153275,-2220.617826,-995.924147
524.659915,-888.247130,-6513.812290,-1378.971896
524.660238,-4145.153275,-8068.244768,-2451.505594
524.660560,-4367.215058,-11325.150913,-5132.839837
524.660882,-3997.112087,-14359.995275,-5975.544884
524.661205,-6069.688724,-14656.077652,-3753.867940
524.661527,-7920.203579,-14434.015869,-2374.896044
524.661850,-7328.038826,-16358.551318,-3447.429741
524.662172,-6883.915261,-17098.757260,-3677.258390
524.662494,-5699.585753,-14804.118840,-3294.210641
524.662817,-2220.617826,-11917.315666,-3983.696590
524.663139,3108.864956,-9696.697840,-2374.896044
524.663462,6291.750507,-8438.347739,2068.457845
524.663784,7846.182985,-5255.462188,5592.497135
524.664107,9178.553681,-1406.391290,4290.134789
524.664429,8882.471304,-888.247130,1302.362347
524.664751,5773.606348,-3034.844362,383.047749
524.665074,814.226536,-5255.462188,0.000000
524.665396,-2664.741391,-6735.874072,-2068.457845
524.665719,-2886.803174,-9030.512492,-4443.353888
524.666041,-2368.659014,-11399.171507,-5975.544884
524.666363,-3034.844362,-12435.459826,-4443.353888
524.666686,-4293.194464,-14211.954086,-3370.820191
524.667008,-4737.318029,-17468.860231,-3140.991542
524.667331,-5773.606348,-18505.148550,-2528.115143
524.667653,-5921.647536,-15692.365970,-1608.800546
524.667976,-4071.132681,-11029.068536,-2834.553343
524.668298,444.123565,-7698.141797,-3753.867940
524.668620,4145.153275,-5181.441594,-153.219100
524.668943,6883.915261,-2442.679609,4826.401637
524.669265,8290.306550,-814.226536,5362.668486
524.669588,8290.306550,-1628.453072,3140.991542
524.669910,5625.565159,-4737.318029,612.876398
524.670232,962.267725,-7105.977043,-383.047749
524.670555,-3330.926739,-8364.327145,-995.924147
524.670877,-5551.544565,-7772.162391,-4136.915689
524.671200,-6069.688724,-8882.471304,-7277.907231
524.671522,-6957.935855,-10362.883188,-6511.811733
524.671845,-6143.709319,-13619.789333,-5209.449386
524.672167,-5033.400406,-16728.654289,-4826.401637
524.672489,-4441.235652,-19689.478057,-3370.820191
524.672812,-3997.112087,-18061.024985,-995.924147
524.673134,-1332.370696,-14508.036463,-2145.067394
524.673457,2442.679609,-10732.986159,-2987.772442
524.673779,5329.482782,-6883.915261,0.000000
524.674102,6513.812290,-2590.720797,5209.449386
524.674424,7994.224174,2368.659014,4596.572988
524.674746,8438.347739,1554.432478,1072.533697
524.675069,6439.791695,-3627.009116,919.314598
524.675391,1628.453072,-7328.038826,2451.505594
524.675714,-3182.885551,-9326.594869,76.609550
524.676036,-4515.256246,-11991.336260,-4519.963438
524.676358,-4441.235652,-12509.480420,-7124.688131
524.676681,-6439.791695,-12509.480420,-7201.297681
524.677003,-9844.739029,-12213.398043,-4596.572988
524.677326,-11621.233289,-13693.809927,-3600.648841
524.677648,-10436.903782,-15322.262999,-5439.278036
524.677971,-6439.791695,-16284.530724,-7660.954980
524.678293,-2664.741391,-14878.139434,-6894.859482
524.678615,2146.597232,-13101.645173,-3600.648841
524.678938,6661.853478,-12435.459826,1608.800546
524.679260,9696.697840,-7846.182985,4826.401637
524.679583,11399.171507,-2442.679609,4596.572988
524.679905,10510.924376,1406.391290,2911.162892
524.680227,6217.729913,740.205942,229.828649
524.680550,888.247130,-3552.988522,229.828649
524.680872,-4811.338623,-7402.059420,-306.438199
524.681195,-6587.832884,-9178.553681,-2451.505594
524.681517,-5699.585753,-10955.047942,-5056.230287
524.681840,-4367.215058,-13471.748144,-4903.011187
524.682162,-4737.318029,-13471.748144,-3217.601092
524.682484,-4737.318029,-14878.139434,-1685.410096
524.682807,-4885.359217,-14508.036463,-2757.943793
524.683129,-3701.029710,-14508.036463,-2604.724693
524.683452,-1184.329507,-13027.624579,-2987.772442
524.683774,1628.453072,-10807.006753,-3294.210641
524.684096,4663.297435,-8364.327145,-2298.286494
524.684419,7402.059420,-6735.874072,2681.334243
524.684741,9696.697840,-4071.132681,5286.058936
524.685064,9400.615463,-3182.885551,3524.039291
524.685386,6735.874072,-3849.070898,919.314598
524.685709,1554.432478,-4959.379811,-1455.581446
524.686031,-3108.864956,-6809.894666,-1991.848295
524.686353,-6217.729913,-8364.327145,-3600.648841
524.686676,-7550.100608,-9104.533087,-5132.839837
524.686998,-9474.636058,-9252.574275,-5056.230287
524.687321,-11695.253884,-9918.759623,-3753.867940
524.687643,-10584.944971,-13915.871710,-2834.553343
524.687966,-7698.141797,-17172.777854,-4060.306139
524.688288,-5699.585753,-17172.777854,-4443.353888
524.688610,-3330.926739,-14508.036463,-3753.867940
524.688933,370.102971,-12287.418637,-1608.800546
524.689255,5255.462188,-8808.450710,2451.505594
524.689578,8808.450710,-5329.482782,3140.991542
524.689900,10214.842000,-2812.782580,919.314598
524.690222,9474.636058,-3552.988522,459.657299
524.690545,6809.894666,-5329.482782,1991.848295
524.690867,1036.288319,-6069.688724,1302.362347
524.691190,-4663.297435,-6587.832884,-459.657299
524.691512,-7105.977043,-7624.121203,-1532.190996
524.691835,-5699.585753,-9030.512492,-6281.983084
524.692157,-6587.832884,-10436.903782,-8197.221829
524.692479,-10510.924376,-11103.089130,-3907.087040
524.692802,-12139.377449,-13323.706956,-383.047749
524.693124,-10362.883188,-16654.633695,-3217.601092
524.693447,-7254.018232,-17172.777854,-4136.915689
524.693769,-6365.771101,-13841.851115,-4213.525239
524.694091,-3997.112087,-10066.800811,-3524.039291
524.694414,1110.308913,-8956.491898,-1072.533697
524.694736,5255.462188,-7624.121203,2145.067394
524.695059,6439.791695,-3997.112087,2298.286494
524.695381,6217.729913,-1850.514855,2221.676944
524.695704,5625.565159,-2072.576638,1762.019645
524.696026,3256.906145,-4737.318029,-1685.410096
524.696348,-2368.659014,-7920.203579,-2834.553343
524.696671,-7179.997637,-10436.903782,-995.924147
524.696993,-8586.388927,-11177.109724,-995.924147
524.697316,-6365.771101,-10732.986159,-4903.011187
524.697638,-6143.709319,-11103.089130,-7507.735880
524.697961,-8364.327145,-11769.274478,-3677.258390
524.698283,-9030.512492,-11991.336260,-229.828649
524.698605,-6069.688724,-13397.727550,-2374.896044
524.698928,-2960.823768,-14952.160028,-4290.134789
524.699250,-2072.576638,-13767.830521,-2374.896044
524.699573,-2590.720797,-10362.883188,536.266849
524.699895,-814.226536,-6735.874072,1915.238745
524.700217,3034.844362,-5329.482782,1532.190996
524.700540,5255.462188,-3923.091493,0.000000
524.700862,4071.132681,-2516.700203,-383.047749
524.701185,1110.308913,-2960.823768,1762.019645
524.701507,-1258.350101,-3627.009116,1455.581446
524.701830,-2146.597232,-7254.018232,-3983.696590
524.702152,-3997.112087,-12139.377449,-8810.098227
524.702474,-6883.915261,-15174.221811,-8120.612279
524.702797,-9326.594869,-16062.468941,-4673.182538
524.703119,-8956.491898,-14359.995275,-2834.553343
524.703442,-7105.977043,-13397.727550,-4213.525239
524.703764,-4663.297435,-13101.645173,-6205.373534
524.704086,-2294.638420,-12435.459826,-4749.792088
524.704409,-222.061783,-11103.089130,-1762.019645
524.704731,1258.350101,-9252.574275,0.000000
524.705054,1850.514855,-8956.491898,2221.676944
524.705376,1924.535449,-7846.182985,4290.134789
524.705699,1184.329507,-5033.400406,4596.572988
524.706021,592.164754,-2516.700203,3294.210641
524.706343,740.205942,-2146.597232,1608.800546
524.706666,1406.391290,-4441.235652,-383.047749
524.706988,1480.411884,-5921.647536,-2221.676944
524.707311,1184.329507,-7698.141797,-1149.143247
524.707633,1036.288319,-10066.800811,-842.705048
524.707955,444.123565,-11843.295072,-3217.601092
524.708278,-1332.370696,-12287.418637,-4673.182538
524.708600,-4515.256246,-13545.768739,-6205.373534
524.708923,-7994.224174,-15174.221811,-5209.449386
524.709245,-9696.697840,-15692.365970,-3140.991542
524.709568,-9918.759623,-13101.645173,-2834.553343
524.709890,-7920.203579,-9918.759623,-4366.744339
524.710212,-5033.400406,-7031.956449,-4213.525239
524.710535,-2146.597232,-6883.915261,-459.657299
524.710857,-1480.411884,-6365.771101,3524.039291
524.711180,-1998.556043,-4367.215058,4443.353888
524.711502,-2442.679609,-3478.967927,919.314598
524.711825,-2886.803174,-4737.318029,-2451.505594
524.712147,-5033.400406,-7254.018232,-3140.991542
524.712469,-7254.018232,-9474.636058,-2374.896044
524.712792,-7698.141797,-10732.986159,-1149.143247
524.713114,-4885.359217,-11621.233289,-1532.190996
524.713437,-444.123565,-11991.336260,-3217.601092
524.713759,3108.864956,-12879.583391,-2911.162892
524.714081,3478.967927,-12287.418637,-2374.896044
524.714404,4367.215058,-11769.274478,-1991.848295
524.714726,4885.359217,-11843.295072,-1838.629195
524.715049,5033.400406,-11399.171507,-766.095498
524.715371,2664.741391,-9178.553681,-383.047749
524.715694,-518.144159,-7402.059420,-459.657299
524.716016,-3775.050304,-7772.162391,229.828649
524.716338,-5699.585753,-7846.182985,229.828649
524.716661,-7179.997637,-6365.771101,-1302.362347
524.716983,-7920.203579,-5255.462188,-2834.553343
524.717306,-7624.121203,-6217.729913,-3907.087040
524.717628,-6291.750507,-8808.450710,-2834.553343
524.717950,-5403.503377,-8512.368333,-2145.067394
524.718273,-4737.318029,-9548.656652,-3753.867940
524.718595,-3330.926739,-11473.192101,-4596.572988
524.718918,-2220.617826,-13323.706956,-4596.572988
524.719240,-2590.720797,-14137.933492,-4903.011187
524.719563,-3330.926739,-12879.583391,-3064.381992
524.719885,-2368.659014,-11991.336260,-1455.581446
524.720207,0.000000,-11843.295072,-1991.848295
524.720530,518.144159,-10732.986159,-1685.410096
524.720852,-1110.308913,-9400.615463,229.828649
524.721175,-2738.761985,-6883.915261,2374.896044
524.721497,-2368.659014,-4737.318029,995.924147
524.721820,-888.247130,-4293.194464,-612.876398
524.722142,0.000000,-3997.112087,-689.485948
524.722464,222.061783,-4663.297435,-1685.410096
524.722787,518.144159,-6217.729913,-1302.362347
524.723109,1332.370696,-9252.574275,-1225.752797
524.723432,1406.391290,-11399.171507,-1608.800546
524.723754,222.061783,-11547.212695,-3140.991542
524.724076,-1406.391290,-11029.068536,-3907.087040
524.724399,-2294.638420,-11991.336260,-4903.011187
524.724721,-2516.700203,-14063.912898,-4903.011187
524.725044,-3552.988522,-14359.995275,-3600.648841
524.725366,-5033.400406,-13323.706956,-1532.190996
524.725689,-7179.997637,-10807.006753,-1149.143247
524.726011,-6957.935855,-8438.347739,-1378.971896
524.726333,-6809.894666,-6587.832884,-1378.971896
524.726656,-5699.585753,-5551.544565,-1762.019645
524.726978,-4589.276840,-5107.421000,-1532.190996
524.727301,-2738.761985,-5773.606348,-536.266849
524.727623,-1332.370696,-7179.997637,383.047749
524.727945,-962.267725,-8660.409521,842.705048
524.728268,962.267725,-9400.615463,919.314598
524.728590,3256.906145,-9844.739029,-2298.286494
524.728913,4219.173869,-10807.006753,-4903.011187
524.729235,3404.947333,-11991.336260,-2451.505594
524.729558,148.041188,-12361.439231,612.876398
524.729880,-4293.194464,-12213.398043,-383.047749
524.730202,-7550.100608,-12509.480420,-1838.629195
524.730525,-9474.636058,-10807.006753,-2298.286494
524.730847,-11029.068536,-7920.203579,-4673.182538
524.731170,-10881.027347,-6069.688724,-4673.182538
524.731492,-8438.347739,-5921.647536,-919.314598
524.731814,-4293.194464,-5773.606348,306.438199
524.732137,-962.267725,-5403.503377,76.609550
524.732459,518.144159,-5255.462188,-1072.533697
524.732782,1480.411884,-7328.038826,-2911.162892
524.733104,888.247130,-9548.656652,-2834.553343
524.733427,888.247130,-11917.315666,-2068.457845
524.733749,296.082377,-12805.562797,-2528.115143
524.734071,74.020594,-12435.459826,-2451.505594
524.734394,0.000000,-11843.295072,-1685.410096
524.734716,-1258.350101,-11029.068536,-1455.581446
524.735039,-2960.823768,-10436.903782,-1532.190996
524.735361,-4811.338623,-10140.821405,-1532.190996
524.735684,-5921.647536,-9844.739029,-1072.533697
524.736006,-5773.606348,-8882.471304,-383.047749
524.736328,-5477.523971,-8734.430116,-306.438199
524.736651,-4293.194464,-8290.306550,766.095498
524.736973,-2664.741391,-7179.997637,1378.971896
524.737296,0.000000,-6143.709319,842.705048
524.737618,1998.556043,-6143.709319,-76.609550
524.737940,3775.050304,-7179.997637,-689.485948
524.738263,4367.215058,-7994.224174,-2068.457845
524.738585,3552.988522,-9400.615463,-2681.334243
524.738908,2146.597232,-10510.924376,-2834.553343
524.739230,0.000000,-11177.109724,-3677.258390
524.739553,-2220.617826,-11547.212695,-4903.011187
524.739875,-5033.400406,-11991.336260,-4136.915689
524.740197,-7698.141797,-12657.521608,-3677.258390
524.740520,-8512.368333,-12213.398043,-3064.381992
524.740842,-7328.038826,-11621.233289,-3370.820191
524.741165,-5995.668130,-10658.965565,-3753.867940
524.741487,-5625.565159,-9992.780217,-2145.067394
524.741809,-5477.523971,-7846.182985,383.047749
524.742132,-4959.379811,-5107.421000,1149.143247
524.742454,-3775.050304,-3997.112087,-919.314598
524.742777,-2960.823768,-5033.400406,-2451.505594
524.743099,-2812.782580,-7179.997637,-2451.505594
524.743422,-2886.803174,-9252.574275,-1302.362347
524.743744,-2368.659014,-10807.006753,-153.219100
524.744066,-148.041188,-12139.377449,-612.876398
524.744389,1998.556043,-12583.501014,-2451.505594
524.744711,3182.885551,-12287.418637,-2528.115143
524.745034,2664.741391,-11621.233289,-153.219100
524.745356,814.226536,-10362.883188,229.828649
524.745679,-1036.288319,-9178.553681,0.000000
524.746001,-2960.823768,-7624.121203,-1149.143247
524.746323,-4441.235652,-6069.688724,-3064.381992
524.746646,-5403.503377,-6069.688724,-3447.429741
524.746968,-5847.626942,-7476.080014,-2604.724693
524.747291,-6291.750507,-8290.306550,-459.657299
524.747613,-5847.626942,-8142.265362,-766.095498
524.747936,-5329.482782,-7698.141797,-2068.457845
524.748258,-4589.276840,-8512.368333,-3217.601092
524.748580,-3849.070898,-10658.965565,-5209.449386
524.748903,-4515.256246,-11547.212695,-4903.011187
524.749225,-4441.235652,-11769.274478,-3600.648841
524.749548,-3478.967927,-11843.295072,-2528.115143
524.749870,-2146.597232,-11917.315666,-1838.629195
524.750193,-814.226536,-11029.068536,-2221.676944
524.750515,148.041188,-10510.924376,-2068.457845
524.750838,1110.308913,-10066.800811,-1455.581446
524.751160,1850.514855,-8882.471304,153.219100
524.751483,2294.638420,-7031.956449,1532.190996
524.751805,2146.597232,-5033.400406,766.095498
524.752128,1924.535449,-5403.503377,76.609550
524.752450,1184.329507,-6735.874072,383.047749
524.752773,0.000000,-7772.162391,-306.438199
524.753095,-1258.350101,-8586.388927,-1225.752797
524.753418,-1184.329507,-10140.821405,-1762.019645
524.753740,-1184.329507,-10881.027347,-1455.581446
524.754063,-962.267725,-11621.233289,-2068.457845
524.754385,-1480.411884,-11991.336260,-1838.629195
524.754708,-1998.556043,-11695.253884,-1685.410096
524.755030,-2368.659014,-11325.150913,-919.314598
524.755353,-2516.700203,-10732.986159,-2221.676944
524.755675,-3775.050304,-9844.739029,-1685.410096
524.755998,-4145.153275,-9548.656652,-1072.533697
524.756320,-4219.173869,-8882.471304,-689.485948
524.756643,-3923.091493,-8216.285956,-459.657299
524.756965,-3552.988522,-7476.080014,-536.266849
524.757288,-3923.091493,-6809.894666,-1225.752797
524.757610,-4737.318029,-6217.729913,-1149.143247
524.757933,-5107.421000,-6143.709319,-2221.676944
524.758255,-5181.441594,-7772.162391,-3753.867940
524.758578,-4737.318029,-9030.512492,-3753.867940
524.758900,-4959.379811,-10362.883188,-2528.115143
524.759223,-4959.379811,-10658.965565,-2987.772442
524.759545,-3478.967927,-12287.418637,-3370.820191
524.759868,-2590.720797,-12731.542202,-2528.115143
524.760190,-2368.659014,-12139.377449,-1378.971896
524.760513,-1924.535449,-10288.862594,-842.705048
524.760835,-1702.473667,-9622.677246,-1915.238745
524.761158,-2072.576638,-8512.368333,-1302.362347
524.761480,-3330.926739,-8068.244768,0.000000
524.761803,-4367.215058,-8068.244768,536.266849
524.762125,-4515.256246,-7698.141797,459.657299
524.762448,-4589.276840,-7920.203579,-1225.752797
524.762770,-4663.297435,-7476.080014,-1302.362347
524.763093,-3552.988522,-8660.409521,-995.924147
524.763415,-2516.700203,-9326.594869,-995.924147
524.763738,-1702.473667,-9326.594869,-1762.019645
524.764060,0.000000,-9844.739029,-2298.286494
524.764383,962.267725,-11325.150913,-3064.381992
524.764705,1184.329507,-12509.480420,-2604.724693
524.765028,222.061783,-12287.418637,-2528.115143
524.765350,-370.102971,-12435.459826,-2145.067394
524.765673,0.000000,-12583.501014,-2145.067394
524.765995,148.041188,-13249.686362,-1532.190996
524.766318,-518.144159,-11103.089130,612.876398
524.766640,-740.205942,-9474.636058,1455.581446
524.766963,0.000000,-8216.285956,1072.533697
524.767285,888.247130,-6661.853478,1608.800546
524.767607,1554.432478,-5107.421000,2145.067394
524.767930,1850.514855,-5921.647536,1225.752797
524.768252,2664.741391,-7031.956449,1225.752797
524.768575,3182.885551,-8216.285956,1072.533697
524.768897,3108.864956,-9548.656652,919.314598
524.769220,2886.803174,-11325.150913,1149.143247
524.769542,2442.679609,-12361.439231,1072.533697
524.769865,2146.597232,-12139.377449,766.095498
524.770187,2072.576638,-11251.130318,689.485948
524.770510,1776.494261,-10066.800811,995.924147
524.770832,1110.308913,-9918.759623,2068.457845
524.771155,0.000000,-8586.388927,2911.162892
524.771477,-740.205942,-8142.265362,2911.162892
524.771800,-1258.350101,-7772.162391,2374.896044
524.772122,-1702.473667,-7550.100608,2374.896044
524.772445,-2294.638420,-7105.977043,3217.601092
524.772767,-2590.720797,-7402.059420,3983.696590
524.773090,-2664.741391,-7476.080014,4136.915689
524.773412,-2738.761985,-7772.162391,3294.210641
524.773735,-2738.761985,-8290.306550,2757.943793
524.774057,-3034.844362,-9252.574275,2681.334243
524.774380,-2664.741391,-9844.739029,2145.067394
524.774702,-2590.720797,-10510.924376,1991.848295
524.775025,-2738.761985,-11547.212695,2298.286494
524.775347,-2738.761985,-11769.274478,2757.943793
524.775670,-2812.782580,-11399.171507,2604.724693
524.775992,-2664.741391,-11695.253884,2451.505594
524.776315,-2442.679609,-11103.089130,2757.943793
524.776637,-2368.659014,-10584.944971,3370.820191
524.776960,-2072.576638,-9474.636058,3600.648841
524.777282,-962.267725,-8364.327145,3907.087040
524.777605,-296.082377,-7550.100608,3677.258390
524.777927,0.000000,-6957.935855,3217.601092
524.778250,0.000000,-7031.956449,2068.457845
524.778572,-1258.350101,-7994.224174,1762.019645
524.778895,-2220.617826,-9474.636058,919.314598
524.779217,-3552.988522,-10584.944971,153.219100
524.779540,-4515.256246,-10955.047942,0.000000
524.779862,-4145.153275,-10288.862594,-766.095498
524.780185,-3034.844362,-10140.821405,-2298.286494
524.780507,-2072.576638,-9474.636058,-2145.067394
524.780830,-1850.514855,-8586.388927,-1225.752797
524.781152,-1406.391290,-8882.471304,-2068.457845
524.781475,-518.144159,-9992.780217,-2221.676944
524.781797,1036.288319,-11547.212695,-1532.190996
524.782120,2960.823768,-11621.233289,-1455.581446
524.782442,4737.318029,-9622.677246,-1072.533697
524.782765,6587.832884,-7698.141797,0.000000
524.783087,7994.224174,-6365.771101,229.828649
524.783410,8512.368333,-6365.771101,-1532.190996
524.783732,6809.894666,-7476.080014,-2528.115143
524.784055,3849.070898,-8808.450710,-2834.553343
524.784377,-148.041188,-9400.615463,-2298.286494
524.784700,-3997.112087,-9770.718434,-3370.820191
524.785022,-5847.626942,-12139.377449,-5132.839837
524.785345,-6735.874072,-12583.501014,-5209.449386
524.785667,-4959.379811,-12731.542202,-5975.544884
524.785989,-1406.391290,-12361.439231,-5515.887586
524.786312,1924.535449,-14211.954086,-3064.381992
524.786634,4293.194464,-13915.871710,612.876398
524.786957,4959.379811,-11917.315666,1455.581446
524.787279,4811.338623,-9474.636058,229.828649
524.787602,5329.482782,-7994.224174,0.000000
524.787924,5403.503377,-7254.018232,-995.924147
524.788247,3404.947333,-5773.606348,-689.485948
524.788569,740.205942,-5033.400406,2068.457845
524.788892,-2812.782580,-4293.194464,2757.943793
524.789214,-5921.647536,-5403.503377,229.828649
524.789537,-7698.141797,-7698.141797,-2604.724693
524.789859,-8512.368333,-10140.821405,-3370.820191
524.790182,-9030.512492,-10881.027347,-4290.134789
524.790504,-7846.182985,-11621.233289,-3983.696590
524.790827,-4663.297435,-13101.645173,-2528.115143
524.791149,-2294.638420,-14508.036463,-612.876398
524.791472,-1480.411884,-12879.583391,0.000000
524.791794,0.000000,-11103.089130,-1608.800546
524.792117,1110.308913,-10140.821405,-3294.210641
524.792439,1332.370696,-10140.821405,-1455.581446
524.792762,-296.082377,-9326.594869,2221.676944
524.793084,-2368.659014,-8216.285956,4443.353888
524.793407,-2368.659014,-7920.203579,3370.820191
524.793729,-1998.556043,-7698.141797,2221.676944
524.794052,-2146.597232,-7328.038826,2374.896044
524.794374,-2590.720797,-8216.285956,3983.696590
524.794697,-3552.988522,-8142.265362,5669.106685
524.795019,-3627.009116,-8364.327145,5898.935335
524.795342,-3034.844362,-7994.224174,3907.087040
524.795664,-1480.411884,-7846.182985,995.924147
524.795987,148.041188,-7550.100608,-919.314598
524.796309,2294.638420,-7920.203579,0.000000
524.796632,4515.256246,-9400.615463,2298.286494
524.796954,6143.709319,-10214.842000,3830.477490
524.797277,5773.606348,-10510.924376,4136.915689
524.797599,5033.400406,-12361.439231,2834.553343
524.797922,3404.947333,-13323.706956,1378.971896
524.798244,962.267725,-12509.480420,1302.362347
524.798567,-2294.638420,-9844.739029,3140.991542
524.798889,-4441.235652,-7402.059420,5209.449386
524.799212,-4885.359217,-7920.203579,5209.449386
524.799534,-4737.318029,-9252.574275,3677.258390
524.799857,-3330.926739,-9548.656652,2911.162892
524.800179,-1480.411884,-9696.697840,2145.067394
524.800502,1554.432478,-9992.780217,3294.210641
524.800824,4959.379811,-10658.965565,4519.963438
524.801147,7624.121203,-9474.636058,2987.772442
524.801469,8364.327145,-8882.471304,1838.629195
524.801792,7254.018232,-9104.533087,3064.381992
524.802114,6809.894666,-7698.141797,4290.134789
524.802437,5773.606348,-5403.503377,1838.629195
524.802759,4811.338623,-8142.265362,-2987.772442
524.803082,3923.091493,-13989.892304,-2528.115143
524.803404,1776.494261,-13249.686362,995.924147
524.803727,-4071.132681,-9918.759623,2451.505594
524.804049,-9104.533087,-11325.150913,2681.334243
524.804372,-10881.027347,-13841.851115,1072.533697
524.804694,-12953.603985,-11991.336260,-4979.620737
524.805016,-17024.736666,-11251.130318,-5592.497135
524.805339,-18431.127956,-8734.430116,1685.410096
524.805661,-13989.892304,-5255.462188,1225.752797
524.805984,-5255.462188,-4367.215058,-4673.182538
524.806306,2368.659014,-7031.956449,-4060.306139
524.806629,7624.121203,-8956.491898,-2298.286494
524.806951,9326.594869,-10288.862594,-1072.533697
524.807274,10584.944971,-10584.944971,3370.820191
524.807596,10510.924376,-8438.347739,2145.067394
524.807919,8660.409521,-7402.059420,-5515.887586
524.808241,7105.977043,-10658.965565,-7737.564530
524.808564,3849.070898,-13175.665768,-2221.676944
524.808886,-2368.659014,-12805.562797,1302.362347
524.809209,-9030.512492,-14211.954086,2528.115143
524.809531,-10881.027347,-13545.768739,4290.134789
524.809854,-11991.336260,-9326.594869,-766.095498
524.810176,-10510.924376,-7105.977043,-7584.345430
524.810499,-6365.771101,-7846.182985,-5132.839837
524.810821,-2812.782580,-6587.832884,1532.190996
524.811144,370.102971,-3478.967927,2834.553343
524.811466,4145.153275,-3923.091493,1455.581446
524.811789,6069.688724,-7031.956449,-536.266849
524.812111,6143.709319,-9030.512492,-3677.258390
524.812434,4515.256246,-10362.883188,-4749.792088
524.812756,2886.803174,-12213.398043,-3370.820191
524.813079,1406.391290,-14508.036463,-1302.362347
524.813401,888.247130,-14063.912898,-766.095498
524.813724,-444.123565,-12065.356855,-459.657299
524.814046,-3478.967927,-11251.130318,-1455.581446
524.814369,-2664.741391,-13397.727550,-2604.724693
524.814691,-2664.741391,-10955.047942,-2374.896044
524.815014,-2664.741391,-7328.038826,1225.752797
524.815336,-2516.700203,-3923.091493,2068.457845
524.815659,0.000000,-5625.565159,1149.143247
524.815981,3330.926739,-7402.059420,153.219100
524.816304,3849.070898,-5773.606348,1072.533697
524.816626,2146.597232,-6661.853478,1915.238745
524.816949,814.226536,-9252.574275,3830.477490
524.817271,1036.288319,-11399.171507,4290.134789
524.817594,1332.370696,-11177.109724,1608.800546
524.817916,2294.638420,-11621.233289,-383.047749
524.818239,4293.194464,-11843.295072,153.219100
524.818561,3034.844362,-10510.924376,995.924147
524.818884,740.205942,-9918.759623,3140.991542
524.819206,-1480.411884,-10214.842000,3907.087040
524.819529,-2072.576638,-10140.821405,2298.286494
524.819851,-2072.576638,-11325.150913,-612.876398
524.820174,-3997.112087,-11547.212695,1149.143247
524.820496,-6809.894666,-11621.233289,4290.134789
524.820819,-7179.997637,-11473.192101,5822.325785
524.821141,-5551.544565,-10732.986159,4519.963438
524.821464,-3330.926739,-8586.388927,2911.162892
524.821786,-1036.288319,-5255.462188,2298.286494
524.822109,518.144159,-1480.411884,1149.143247
524.822431,2664.741391,-1406.391290,383.047749
524.822754,3404.947333,-5255.462188,1378.971896
524.823076,2368.659014,-10436.903782,2221.676944
524.823398,-444.123565,-14063.912898,2451.505594
524.823721,-3997.112087,-15692.365970,1915.238745
524.824043,-6365.771101,-16210.510130,536.266849
524.824366,-6439.791695,-16210.510130,-383.047749
524.824688,-4145.153275,-13175.665768,1608.800546
524.825011,-2516.700203,-8438.347739,2681.334243
524.825333,-148.041188,-3849.070898,3830.477490
524.825656,2146.597232,-4145.153275,1838.629195
524.825978,2812.782580,-6809.894666,306.438199
524.826301,592.164754,-10288.862594,1149.143247
524.826623,-1924.535449,-13249.686362,3907.087040
524.826946,-3627.009116,-11769.274478,4749.792088
524.827268,-1184.329507,-8216.285956,1378.971896
524.827591,3108.864956,-5033.400406,-1378.971896
524.827913,6365.771101,-4737.318029,-536.266849
524.828236,7624.121203,-5921.647536,2068.457845
524.828558,6217.729913,-6291.750507,1762.019645
524.828881,5107.421000,-9030.512492,-1225.752797
524.829203,2516.700203,-13323.706956,-2987.772442
524.829526,-1480.411884,-16654.633695,-2604.724693
524.829848,-6217.729913,-16506.592507,-1532.190996
524.830171,-7772.162391,-13397.727550,-1455.581446
524.830493,-5921.647536,-11547.212695,-2834.553343
524.830816,-3701.029710,-10140.821405,-2298.286494
524.831138,-1554.432478,-8808.450710,1072.533697
524.831461,-666.185348,-6291.750507,2987.772442
524.831783,0.000000,-5403.503377,229.828649
524.832106,1406.391290,-7031.956449,-1378.971896
524.832428,1258.350101,-7772.162391,229.828649
524.832751,-740.205942,-7105.977043,689.485948
524.833073,-1036.288319,-6513.812290,-383.047749
524.833396,296.082377,-8216.285956,-1455.581446
524.833718,2072.576638,-8956.491898,-2604.724693
524.834041,2442.679609,-9326.594869,-3370.820191
524.834363,2960.823768,-9770.718434,-3064.381992
524.834686,3923.091493,-10510.924376,-3907.087040
524.835008,2738.761985,-11103.089130,-3983.696590
524.835331,-1406.391290,-11621.233289,-2221.676944
524.835653,-5773.606348,-12657.521608,-1838.629195
524.835976,-7105.977043,-12953.603985,-3830.477490
524.836298,-6883.915261,-12287.418637,-5439.278036
524.836621,-6291.750507,-12065.356855,-2528.115143
524.836943,-4885.359217,-9696.697840,1149.143247
524.837266,-1776.494261,-7179.997637,1072.533697
524.837588,1776.494261,-4737.318029,1378.971896
524.837911,2812.782580,-4219.173869,1608.800546
524.838233,2072.576638,-3849.070898,459.657299
524.838556,1628.453072,-4663.297435,-1762.019645
524.838878,1628.453072,-7550.100608,-2145.067394
524.839201,1332.370696,-11029.068536,-1915.238745
524.839523,888.247130,-12287.418637,-1378.971896
524.839846,1110.308913,-12065.356855,-2298.286494
524.840168,1480.411884,-12435.459826,-3907.087040
524.840491,0.000000,-13767.830521,-4213.525239
524.840813,-3923.091493,-13767.830521,-2068.457845
524.841136,-6513.812290,-12509.480420,-2374.896044
524.841458,-6217.729913,-11917.315666,-4903.011187
524.841781,-5033.400406,-12139.377449,-3753.867940
524.842103,-5107.421000,-10362.883188,842.705048
524.842425,-4515.256246,-8734.430116,2604.724693
524.842748,-2664.741391,-7254.018232,1915.238745
524.843070,0.000000,-7031.956449,1838.629195
524.843393,740.205942,-6365.771101,3524.039291
524.843715,1776.494261,-5255.462188,2451.505594
524.844038,3330.926739,-4737.318029,766.095498
524.844360,5033.400406,-4367.215058,153.219100
524.844683,6069.688724,-3923.091493,995.924147
524.845005,6143.709319,-5255.462188,-153.219100
524.845328,5329.482782,-9252.574275,-1685.410096
524.845650,3330.926739,-13249.686362,-995.924147
524.845973,-666.185348,-15174.221811,612.876398
524.846295,-4441.235652,-16210.510130,-459.657299
524.846618,-5329.482782,-16580.613101,-2681.334243
524.846940,-4145.153275,-12361.439231,-1991.848295
524.847263,-3849.070898,-5255.462188,689.485948
524.847585,-2368.659014,-2294.638420,1685.410096
524.847908,-222.061783,-3997.112087,1455.581446
524.848230,0.000000,-6661.853478,1378.971896
524.848553,-1480.411884,-8808.450710,2451.505594
524.848875,-2368.659014,-11177.109724,3447.429741
524.849198,296.082377,-12139.377449,919.314598
524.849520,3552.988522,-8586.388927,-1302.362347
524.849843,5329.482782,-3923.091493,0.000000
524.850165,5995.668130,-3627.009116,-383.047749
524.850488,6735.874072,-7031.956449,-3217.601092
524.850810,4959.379811,-11621.233289,-4903.011187
524.851130,-222.061783,-14063.912898,-3294.210641
524.851453,-5107.421000,-16210.510130,-4596.572988
524.851775,-5921.647536,-18357.107362,-7277.907231
524.852098,-4959.379811,-18357.107362,-7354.516781
524.852420,-5255.462188,-16062.468941,-3370.820191
524.852743,-6513.812290,-11769.274478,1149.143247
524.853066,-5625.565159,-9030.512492,1915.238745
524.853388,-3923.091493,-6513.812290,-229.828649
524.853711,-3404.947333,-4293.194464,-1302.362347
524.854033,-2812.782580,-3849.070898,-612.876398
524.854356,1332.370696,-5921.647536,-229.828649
524.854678,6069.688724,-5699.585753,-766.095498
524.855001,7105.977043,-5477.523971,1378.971896
524.855323,5255.462188,-6587.832884,2987.772442
524.855646,4293.194464,-7994.224174,766.095498
524.855968,3182.885551,-8142.265362,-4903.011187
524.856291,296.082377,-8808.450710,-7354.516781
524.856613,-2220.617826,-11103.089130,-6741.640382
524.856936,-3701.029710,-12657.521608,-5362.668486
524.857258,-3923.091493,-13693.809927,-4213.525239
524.857581,-4219.173869,-14211.954086,-2298.286494
524.857904,-4145.153275,-12731.542202,-2298.286494
524.858226,-4071.132681,-11325.150913,-4366.744339
524.858549,-4589.276840,-9770.718434,-3447.429741
524.858871,-5329.482782,-8956.491898,-306.438199
524.859194,-4293.194464,-8586.388927,1838.629195
524.859516,-740.205942,-6365.771101,2374.896044
524.859839,3701.029710,-2442.679609,0.000000
524.860161,6587.832884,1480.411884,-1991.848295
524.860484,7772.162391,814.226536,-2987.772442
524.860806,7698.141797,-4737.318029,-2221.676944
524.861129,5625.565159,-8734.430116,-1838.629195
524.861451,444.123565,-11695.253884,-3370.820191
524.861774,-5773.606348,-16284.530724,-4519.963438
524.862096,-9178.553681,-19393.395680,-6205.373534
524.862419,-9326.594869,-18431.127956,-9116.536426
524.862742,-8734.430116,-14211.954086,-9422.974625
524.863064,-5255.462188,-11399.171507,-5745.716235
524.863387,-444.123565,-10807.006753,-3370.820191
524.863709,1406.391290,-9992.780217,-2451.505594
524.864032,-592.164754,-9474.636058,1532.190996
524.864354,-2664.741391,-10732.986159,3217.601092
524.864677,-814.226536,-11029.068536,0.000000
524.864999,3330.926739,-7179.997637,-2987.772442
524.865322,6217.729913,-2368.659014,-1991.848295
524.865644,9474.636058,-222.061783,612.876398
524.865967,11473.192101,-2516.700203,3217.601092
524.866289,10955.047942,-5847.626942,3370.820191
524.866612,5995.668130,-8808.450710,842.705048
524.866934,-1554.432478,-12287.418637,-2911.162892
524.867257,-5551.544565,-15470.304188,-5822.325785
524.867580,-6365.771101,-16506.592507,-7660.954980
524.867902,-6809.894666,-14730.098246,-6281.983084
524.868225,-5625.565159,-13027.624579,-1149.143247
524.868547,-3775.050304,-11177.109724,1532.190996
524.868870,-2738.761985,-11917.315666,995.924147
524.869192,-4589.276840,-10288.862594,1378.971896
524.869515,-7105.977043,-8586.388927,1072.533697
524.869837,-4959.379811,-8290.306550,0.000000
524.870160,-666.185348,-5329.482782,-1072.533697
524.870482,2886.803174,0.000000,1302.362347
524.870805,4367.215058,3404.947333,3524.039291
524.871127,5551.544565,0.000000,2451.505594
524.871450,4959.379811,-7254.018232,766.095498
524.871772,740.205942,-11843.295072,0.000000
524.872095,-4589.276840,-13397.727550,-1225.752797
524.872418,-5033.400406,-16136.489536,-4366.744339
524.872740,-2220.617826,-16654.633695,-5362.668486
524.873063,0.000000,-11769.274478,-2681.334243
524.873385,0.000000,-6883.915261,0.000000
524.873708,222.061783,-9326.594869,612.876398
524.874030,0.000000,-13027.624579,-689.485948
524.874353,-2294.638420,-11843.295072,-459.657299
524.874675,-4737.318029,-10362.883188,0.000000
524.874998,-1554.432478,-10288.862594,-612.876398
524.875320,6069.688724,-9992.780217,-1302.362347
524.875643,10140.821405,-5995.668130,459.657299
524.875965,9030.512492,-2368.659014,3677.258390
524.876288,6365.771101,-2664.741391,2987.772442
524.876610,3923.091493,-5847.626942,-1762.019645
524.876933,-1184.329507,-8660.409521,-5669.106685
524.877256,-7402.059420,-11251.130318,-6894.859482
524.877578,-9918.759623,-13693.809927,-6281.983084
524.877901,-7698.141797,-16358.551318,-6818.249932
524.878223,-5403.503377,-17172.777854,-5362.668486
524.878546,-4885.359217,-14730.098246,-766.095498
524.878868,-5033.400406,-12657.521608,0.000000
524.879191,-5033.400406,-11843.295072,-2528.115143
524.879513,-5033.400406,-10732.986159,-3217.601092
524.879836,-5181.441594,-8142.265362,-612.876398
524.880158,-2072.576638,-5255.462188,-842.705048
524.880481,4959.379811,-2368.659014,-919.314598
524.880803,9696.697840,-222.061783,612.876398
524.881126,10288.862594,0.000000,2298.286494
524.881448,8882.471304,-3404.947333,1762.019645
524.881771,6957.935855,-8068.244768,76.609550
524.882094,2664.741391,-9918.759623,-1302.362347
524.882416,-2886.803174,-11473.192101,-4213.525239
524.882739,-5551.544565,-12435.459826,-5898.935335
524.883061,-4515.256246,-11991.336260,-7354.516781
524.883384,-4367.215058,-9992.780217,-7124.688131
524.883706,-5033.400406,-10658.965565,-3983.696590
524.884029,-4589.276840,-12435.459826,-2451.505594
524.884351,-2516.700203,-13323.706956,-2987.772442
524.884674,-2442.679609,-11843.295072,-3907.087040
524.884996,-2368.659014,-10436.903782,-2298.286494
524.885319,296.082377,-8660.409521,-1685.410096
524.885641,6513.812290,-6143.709319,-3447.429741
524.885964,10436.903782,-3775.050304,-3524.039291
524.886286,10066.800811,-3108.864956,0.000000
524.886609,6735.874072,-4737.318029,3064.381992
524.886932,3256.906145,-8438.347739,919.314598
524.887254,-370.102971,-10881.027347,-4060.306139
524.887577,-4145.153275,-12879.583391,-7048.078582
524.887899,-6587.832884,-13989.892304,-7354.516781
524.888222,-6217.729913,-14211.954086,-7660.954980
524.888544,-5847.626942,-14582.057057,-6588.421283
524.888867,-5329.482782,-15766.386565,-3217.601092
524.889189,-5107.421000,-15396.283594,-995.924147
524.889512,-6143.709319,-14508.036463,-1991.848295
524.889834,-6365.771101,-13397.727550,-2834.553343
524.890157,-5403.503377,-11621.233289,-2068.457845
524.890479,-2960.823768,-9252.574275,-689.485948
524.890802,1628.453072,-4885.359217,612.876398
524.891124,5403.503377,-666.185348,1532.190996
524.891447,6661.853478,1258.350101,2757.943793
524.891770,6587.832884,-1258.350101,2451.505594
524.892092,5773.606348,-6439.791695,766.095498
524.892415,3330.926739,-8808.450710,-919.314598
524.892737,-1110.308913,-9622.677246,-1378.971896
524.893060,-2738.761985,-11695.253884,-1302.362347
524.893382,-2590.720797,-11547.212695,-3447.429741
524.893705,-2294.638420,-10584.944971,-3830.477490
524.894027,-4811.338623,-11029.068536,-689.485948
524.894350,-5403.503377,-11843.295072,2298.286494
524.894672,-3256.906145,-11547.212695,689.485948
524.894995,-1110.308913,-9252.574275,-1225.752797
524.895317,-148.041188,-6513.812290,536.266849
524.895640,2368.659014,-4959.379811,3064.381992
524.895962,7476.080014,-4589.276840,3217.601092
524.896285,9844.739029,-2960.823768,1991.848295
524.896608,9104.533087,-1776.494261,1455.581446
524.896930,6735.874072,-3775.050304,1838.629195
524.897253,4959.379811,-7105.977043,766.095498
524.897575,1406.391290,-10066.800811,-1608.800546
524.897898,-2886.803174,-12213.398043,-2987.772442
524.898220,-5773.606348,-13323.706956,-3370.820191
524.898543,-5921.647536,-13989.892304,-6435.202183
524.898865,-5255.462188,-15914.427753,-8656.879127
524.899188,-7254.018232,-17024.736666,-4903.011187
524.899510,-10140.821405,-16210.510130,-1991.848295
524.899833,-9844.739029,-15988.448347,-3830.477490
524.900155,-7994.224174,-14211.954086,-5362.668486
524.900478,-7179.997637,-11547.212695,-4060.306139
524.900800,-4737.318029,-8956.491898,-1915.238745
524.901123,-148.041188,-6587.832884,-459.657299
524.901446,5995.668130,-3627.009116,0.000000
524.901768,8438.347739,-3182.885551,1149.143247
524.902091,9326.594869,-3997.112087,1072.533697
524.902413,9104.533087,-6735.874072,-1072.533697
524.902736,7105.977043,-8660.409521,-2604.724693
524.903058,2886.803174,-9104.533087,-689.485948
524.903381,-1480.411884,-11621.233289,-1762.019645
524.903703,-3256.906145,-12879.583391,-4443.353888
524.904026,-4219.173869,-12287.418637,-6281.983084
524.904348,-6439.791695,-11843.295072,-4903.011187
524.904671,-5255.462188,-12287.418637,-995.924147
524.904993,-2886.803174,-11695.253884,-1685.410096
524.905316,-1332.370696,-10288.862594,-2911.162892
524.905638,-1036.288319,-7772.162391,0.000000
524.905961,-444.123565,-6365.771101,2068.457845
524.906284,2442.679609,-5773.606348,306.438199
524.906606,5995.668130,-3923.091493,-1378.971896
524.906929,5477.523971,-1480.411884,-919.314598
524.907251,4589.276840,-888.247130,0.000000
524.907574,4737.318029,-3330.926739,536.266849
524.907896,3627.009116,-5699.585753,-689.485948
524.908219,222.061783,-7328.038826,-2145.067394
524.908541,-3478.967927,-10510.924376,-3370.820191
524.908864,-5995.668130,-13767.830521,-5362.668486
524.909186,-5921.647536,-17246.798449,-6894.859482
524.909509,-6957.935855,-17394.839637,-4596.572988
524.909831,-7402.059420,-16506.592507,-2757.943793
524.910154,-6513.812290,-13545.768739,-3370.820191
524.910476,-3330.926739,-11991.336260,-4290.134789
524.910799,-2368.659014,-10658.965565,-2834.553343
524.911122,-1998.556043,-9844.739029,76.609550
524.911444,444.123565,-9844.739029,1149.143247
524.911767,5033.400406,-7031.956449,459.657299
524.912089,7328.038826,-3627.009116,-229.828649
524.912412,8734.430116,-2368.659014,-1302.362347
524.912734,9252.574275,-4737.318029,-919.314598
524.913057,7550.100608,-6661.853478,-383.047749
524.913379,3256.906145,-8882.471304,0.000000
524.913702,-2590.720797,-12509.480420,-1302.362347
524.914024,-6883.915261,-15692.365970,-4519.963438
524.914347,-8882.471304,-16580.613101,-6511.811733
524.914669,-9474.636058,-15914.427753,-6128.763984
524.914992,-7772.162391,-13397.727550,-3064.381992
524.915314,-5403.503377,-11325.150913,-383.047749
524.915637,-2886.803174,-9252.574275,0.000000
524.915960,-2146.597232,-7179.997637,1608.800546
524.916282,-3034.844362,-6439.791695,1991.848295
524.916605,-888.247130,-7328.038826,766.095498
524.916927,3627.009116,-5699.585753,76.609550
524.917250,5033.400406,-2072.576638,-229.828649
524.917572,6291.750507,-370.102971,1378.971896
524.917895,8808.450710,-2368.659014,3753.867940
524.918217,9178.553681,-3330.926739,2451.505594
524.918540,4589.276840,-5477.523971,0.000000
524.918862,-1998.556043,-10584.944971,-459.657299
524.919185,-5551.544565,-14730.098246,-2681.334243
524.919507,-6291.750507,-16876.695478,-6588.421283
524.919830,-5699.585753,-17987.004391,-5898.935335
524.920152,-5255.462188,-15026.180623,-383.047749
524.920475,-3775.050304,-11325.150913,-766.095498
524.920798,-1406.391290,-9400.615463,-1991.848295
524.921120,-1480.411884,-9474.636058,-995.924147
524.921443,-3923.091493,-11029.068536,536.266849
524.921765,-3182.885551,-11843.295072,0.000000
524.922088,148.041188,-8808.450710,-1608.800546
524.922410,4293.194464,-2590.720797,-1072.533697
524.922733,7254.018232,2072.576638,306.438199
524.923055,9622.677246,518.144159,536.266849
524.923378,9178.553681,-4959.379811,-995.924147
524.923700,4145.153275,-10362.883188,-1149.143247
524.924023,-3256.906145,-13915.871710,-1838.629195
524.924345,-7550.100608,-18209.066173,-5132.839837
524.924668,-7105.977043,-20503.704593,-8350.440928
524.924990,-5403.503377,-16580.613101,-7967.393179
524.925313,-5847.626942,-11029.068536,-4749.792088
524.925636,-3552.988522,-9030.512492,612.876398
524.925958,-962.267725,-10510.924376,-459.657299
524.926281,-1480.411884,-10436.903782,-1378.971896
524.926603,-4441.235652,-9030.512492,459.657299
524.926926,-2146.597232,-8438.347739,76.609550
524.927248,4589.276840,-8142.265362,-3447.429741
524.927571,9252.574275,-5921.647536,-2604.724693
524.927893,9252.574275,-2368.659014,3830.477490
524.928216,7550.100608,-1628.453072,6971.469032
524.928538,6217.729913,-3034.844362,3370.820191
524.928861,2368.659014,-5551.544565,-2451.505594
524.929183,-4515.256246,-8660.409521,-6665.030833
524.929506,-9104.533087,-11547.212695,-6741.640382
524.929828,-9474.636058,-13471.748144,-6128.763984
524.930151,-5847.626942,-15766.386565,-5286.058936
524.930474,-4737.318029,-14878.139434,-1762.019645
524.930796,-5921.647536,-13175.665768,153.219100
524.931119,-6957.935855,-12065.356855,-689.485948
524.931441,-7031.956449,-11251.130318,-3140.991542
524.931764,-7179.997637,-9918.759623,-3140.991542
524.932086,-4959.379811,-8438.347739,-2451.505594
524.932409,592.164754,-4885.359217,-1762.019645
524.932731,6809.894666,296.082377,689.485948
524.933054,10881.027347,1184.329507,2374.896044
524.933376,12879.583391,-3256.906145,0.000000
524.933699,11621.233289,-8586.388927,-1991.848295
524.934021,6365.771101,-11325.150913,-1685.410096
524.934344,0.000000,-14211.954086,-1225.752797
524.934666,-3552.988522,-17468.860231,-2451.505594
524.934989,-2664.741391,-16728.654289,-5439.278036
524.935312,-2368.659014,-11843.295072,-7354.516781
524.935634,-3108.864956,-9030.512492,-5056.230287
524.935957,-3330.926739,-11621.233289,-229.828649
524.936279,-2368.659014,-12657.521608,-689.485948
524.936602,-2886.803174,-13323.706956,-2451.505594
524.936924,-4737.318029,-11991.336260,-306.438199
524.937247,-4293.194464,-11325.150913,459.657299
524.937569,518.144159,-10436.903782,-1149.143247
524.937892,4145.153275,-5921.647536,306.438199
524.938214,4589.276840,-592.164754,2145.067394
524.938537,4515.256246,-444.123565,1532.190996
524.938859,5403.503377,-3108.864956,-229.828649
524.939182,3108.864956,-5255.462188,-1991.848295
524.939504,-1554.432478,-8438.347739,-2757.943793
524.939827,-4293.194464,-12583.501014,-3140.991542
524.940150,-5329.482782,-15692.365970,-5056.230287
524.940472,-6143.709319,-17690.922014,-4673.182538
524.940795,-7920.203579,-16654.633695,-1072.533697
524.941117,-8956.491898,-13693.809927,689.485948
524.941440,-7179.997637,-11029.068536,-1455.581446
524.941762,-3923.091493,-8660.409521,-1608.800546
524.942085,-2590.720797,-6957.935855,536.266849
524.942407,-1036.288319,-6143.709319,3064.381992
524.942730,2590.720797,-5921.647536,4903.011187
524.943052,6365.771101,-4367.215058,4290.134789
524.943375,7105.977043,-666.185348,3370.820191
524.943697,7920.203579,296.082377,1532.190996
524.944020,9770.718434,-3108.864956,-1378.971896
524.944342,8364.327145,-7031.956449,-2298.286494
524.944665,2738.761985,-10436.903782,1149.143247
524.944988,-2812.782580,-14137.933492,2298.286494
524.945310,-4811.338623,-16210.510130,-1685.410096
524.945633,-4293.194464,-16358.551318,-7201.297681
524.945955,-6217.729913,-14582.057057,-7737.564530
524.946278,-6957.935855,-12213.398043,-3677.258390
524.946600,-5551.544565,-11177.109724,-2221.676944
524.946923,-4219.173869,-11991.336260,-1225.752797
524.947245,-4071.132681,-12139.377449,612.876398
524.947568,-4441.235652,-10584.944971,689.485948
524.947890,-2294.638420,-9252.574275,-2221.676944
524.948213,2590.720797,-6439.791695,-2221.676944
524.948535,5847.626942,-3627.009116,-536.266849
524.948858,7846.182985,-1776.494261,689.485948
524.949180,9326.594869,-4071.132681,1378.971896
524.949503,8512.368333,-5403.503377,0.000000
524.949826,3108.864956,-8290.306550,-1685.410096
524.950148,-2812.782580,-13471.748144,-3524.039291
524.950471,-5773.606348,-16432.571912,-5515.887586
524.950793,-6661.853478,-16136.489536,-8963.317327
524.951116,-5921.647536,-14434.015869,-7201.297681
524.951438,-3404.947333,-13915.871710,-2374.896044
524.951760,-1850.514855,-12731.542202,-842.705048
524.952083,-2516.700203,-10955.047942,-1532.190996
524.952405,-5255.462188,-9770.718434,459.657299
524.952728,-6217.729913,-9400.615463,612.876398
524.953050,-2220.617826,-8290.306550,-1302.362347
524.953372,3330.926739,-4737.318029,-1915.238745
524.953695,6735.874072,-1406.391290,76.609550
524.954017,8586.388927,-148.041188,4060.306139
524.954340,9326.594869,-888.247130,4443.353888
524.954662,7105.977043,-2072.576638,383.047749
524.954984,1110.308913,-6069.688724,-3907.087040
524.955307,-4959.379811,-10510.924376,-4903.011187
524.955629,-7476.080014,-13249.686362,-6358.592633
524.955952,-6883.915261,-14285.974681,-7890.783629
524.956274,-6587.832884,-14211.954086,-6511.811733
524.956596,-5403.503377,-14804.118840,-2221.676944
524.956919,-3997.112087,-13471.748144,-1838.629195
524.957241,-3997.112087,-11695.253884,-2221.676944
524.957564,-4885.359217,-11917.315666,-2374.896044
524.957886,-4959.379811,-12953.603985,-1455.581446
524.958208,-2590.720797,-10584.944971,-1762.019645
524.958531,1480.411884,-6365.771101,-1685.410096
524.958853,5477.523971,-1110.308913,995.924147
524.959176,9326.594869,1776.494261,2528.115143
524.959498,11473.192101,-888.247130,612.876398
524.959820,9696.697840,-6217.729913,-689.485948
524.960143,4293.194464,-10955.047942,689.485948
524.960465,-1850.514855,-15026.180623,229.828649
524.960788,-3627.009116,-17987.004391,-3677.258390
524.961110,-2738.761985,-18209.066173,-7354.516781
524.961432,-2072.576638,-15100.201217,-7354.516781
524.961755,-2738.761985,-11695.253884,-3140.991542
524.962077,-1850.514855,-10510.924376,1225.752797
524.962400,-814.226536,-11695.253884,-689.485948
524.962722,-1850.514855,-11473.192101,-1532.190996
524.963045,-4145.153275,-11325.150913,-766.095498
524.963367,-4737.318029,-11991.336260,-1072.533697
524.963689,-1554.432478,-10066.800811,0.000000
524.964012,1628.453072,-5551.544565,2604.724693
524.964334,3627.009116,-444.123565,3830.477490
524.964657,4663.297435,148.041188,2528.115143
524.964979,4589.276840,-2368.659014,1072.533697
524.965301,740.205942,-4219.173869,383.047749
524.965624,-2590.720797,-8142.265362,-536.266849
524.965946,-4737.318029,-12731.542202,-3447.429741
524.966269,-4515.256246,-15470.304188,-5439.278036
524.966591,-4663.297435,-15174.221811,-3753.867940
524.966913,-5699.585753,-14137.933492,229.828649
524.967236,-4663.297435,-13323.706956,1072.533697
524.967558,-2516.700203,-12361.439231,-919.314598
524.967881,-1776.494261,-9918.759623,-536.266849
524.968203,-1702.473667,-7846.182985,1838.629195
524.968525,444.123565,-7179.997637,2068.457845
524.968848,5477.523971,-6513.812290,1149.143247
524.969170,8068.244768,-5033.400406,2528.115143
524.969493,6587.832884,-888.247130,4903.011187
524.969815,5773.606348,0.000000,3983.696590
524.970137,4441.235652,-3108.864956,0.000000
524.970460,814.226536,-5995.668130,-1762.019645
524.970782,-3923.091493,-8660.409521,-2298.286494
524.971105,-7031.956449,-10658.965565,-5209.449386
524.971427,-6883.915261,-13619.789333,-6665.030833
524.971749,-4589.276840,-16580.613101,-5669.106685
524.972072,-4663.297435,-16950.716072,-3217.601092
524.972394,-5551.544565,-16284.530724,-2834.553343
524.972717,-4663.297435,-14804.118840,-4366.744339
524.973039,-3849.070898,-13989.892304,-5745.716235
524.973362,-3330.926739,-12139.377449,-4673.182538
524.973684,-1332.370696,-10807.006753,-3524.039291
524.974006,1998.556043,-8956.491898,-2145.067394
524.974329,5773.606348,-5255.462188,459.657299
524.974651,8142.265362,-2812.782580,1991.848295
524.974974,9326.594869,-2294.638420,459.657299
524.975296,8586.388927,-2960.823768,-1455.581446
524.975618,5033.400406,-4663.297435,-1532.190996
524.975941,518.144159,-7772.162391,-1455.581446
524.976263,-2220.617826,-11103.089130,-3600.648841
524.976586,-3404.947333,-12657.521608,-6741.640382
524.976908,-3404.947333,-14063.912898,-7507.735880
524.977230,-3849.070898,-14656.077652,-4903.011187
524.977553,-3108.864956,-13915.871710,-3447.429741
524.977875,-1924.535449,-12657.521608,-4443.353888
524.978198,-1554.432478,-11547.212695,-3753.867940
524.978520,-2442.679609,-10436.903782,-1532.190996
524.978842,-3404.947333,-10436.903782,-306.438199
524.979165,-814.226536,-9400.615463,-1072.533697
524.979487,2812.782580,-4885.359217,-1532.190996
524.979810,4071.132681,-2072.576638,-1225.752797
524.980132,4663.297435,-1036.288319,76.609550
524.980454,4367.215058,-2812.782580,-153.219100
524.980777,1184.329507,-5477.523971,-766.095498
524.981099,-2886.803174,-9992.780217,-1072.533697
524.981422,-5625.565159,-14137.933492,-3064.381992
524.981744,-6069.688724,-13989.892304,-6435.202183
524.982066,-5107.421000,-12361.439231,-7507.735880
524.982389,-3404.947333,-10510.924376,-4366.744339
524.982711,-1406.391290,-9918.759623,-2911.162892
524.983034,-666.185348,-11473.192101,-2451.505594
524.983356,-1258.350101,-13471.748144,-1302.362347
524.983679,-3552.988522,-14359.995275,612.876398
524.984001,-3330.926739,-14656.077652,229.828649
524.984323,740.205942,-13249.686362,-1991.848295
524.984646,5551.544565,-7846.182985,-1838.629195
524.984968,7254.018232,-1258.350101,2298.286494
524.985291,8438.347739,2220.617826,5056.230287
524.985613,7105.977043,518.144159,4213.525239
524.985935,2812.782580,-4145.153275,1532.190996
524.986258,-3775.050304,-9178.553681,-383.047749
524.986580,-7698.141797,-13323.706956,-3217.601092
524.986903,-7031.956449,-15692.365970,-6281.983084
524.987225,-3775.050304,-15396.283594,-5822.325785
524.987547,-1036.288319,-12731.542202,-1991.848295
524.987870,-1036.288319,-10288.862594,1991.848295
524.988192,-1406.391290,-10066.800811,1302.362347
524.988515,-2590.720797,-11843.295072,-1532.190996
524.988837,-4737.318029,-12657.521608,-2451.505594
524.989159,-5403.503377,-12435.459826,-3140.991542
524.989482,-1776.494261,-11547.212695,-2451.505594
524.989804,3997.112087,-7772.162391,1838.629195
524.990127,7179.997637,-3627.009116,5362.668486
524.990449,8660.409521,-1998.556043,5439.278036
524.990771,7624.121203,-3256.906145,2451.505594
524.991094,3997.112087,-4737.318029,0.000000
524.991416,-592.164754,-6513.812290,-1149.143247
524.991739,-3701.029710,-8882.471304,-2145.067394
524.992061,-3478.967927,-11843.295072,-4519.963438
524.992383,-2442.679609,-11843.295072,-4060.306139
524.992706,-2738.761985,-11991.336260,-612.876398
524.993028,-2960.823768,-12361.439231,1455.581446
524.993351,-2664.741391,-13249.686362,-536.266849
524.993673,-2886.803174,-12879.583391,-4136.915689
524.993995,-4145.153275,-11547.212695,-3064.381992
524.994318,-3552.988522,-10732.986159,-1225.752797
524.994640,740.205942,-9918.759623,-2298.286494
524.994963,5625.565159,-7031.956449,-1302.362347
524.995285,5625.565159,-2960.823768,1991.848295
524.995608,3404.947333,-1776.494261,2451.505594
524.995930,2368.659014,-4737.318029,153.219100
524.996252,888.247130,-7476.080014,-3370.820191
524.996575,-2368.659014,-9400.615463,-5515.887586
524.996897,-4811.338623,-10658.965565,-4596.572988
524.997220,-3923.091493,-11843.295072,-4979.620737
524.997542,-2442.679609,-12361.439231,-5745.716235
524.997864,-2442.679609,-12731.542202,-3370.820191
524.998187,-2886.803174,-11991.336260,-2298.286494
524.998509,-3330.926739,-10658.965565,-4673.182538
524.998832,-1924.535449,-11399.171507,-6818.249932
524.999154,-1924.535449,-12509.480420,-4596.572988
524.999476,-2294.638420,-12879.583391,-1762.019645
524.999799,592.164754,-11547.212695,-766.095498
525.000121,5477.523971,-8586.388927,-1225.752797
525.000444,8808.450710,-5033.400406,-1762.019645
525.000766,8216.285956,-2442.679609,-153.219100
525.001088,5625.565159,-2072.576638,76.609550
525.001411,1924.535449,-4441.235652,-1378.971896
525.001733,-2516.700203,-7698.141797,-2451.505594
525.002056,-5847.626942,-10584.944971,-3217.601092
525.002378,-7550.100608,-11917.315666,-6665.030833
525.002700,-6439.791695,-11991.336260,-8120.612279
525.003023,-5255.462188,-11843.295072,-6358.592633
525.003345,-3552.988522,-12361.439231,-2528.115143
525.003668,-1332.370696,-12361.439231,-2374.896044
525.003990,-518.144159,-11621.233289,-3294.210641
525.004312,-1332.370696,-12139.377449,-2911.162892
525.004635,-1554.432478,-11843.295072,-842.705048
525.004957,518.144159,-10436.903782,-1838.629195
525.005280,4737.318029,-7846.182985,-3064.381992
525.005602,7328.038826,-3701.029710,229.828649
525.005925,7328.038826,-2072.576638,3830.477490
525.006247,6365.771101,-3404.947333,3907.087040
525.006569,2664.741391,-6217.729913,1378.971896
525.006892,-2664.741391,-8734.430116,-153.219100
525.007214,-6883.915261,-10436.903782,-2451.505594
525.007537,-7105.977043,-12287.418637,-5975.544884
525.007859,-6291.750507,-13249.686362,-6894.859482
525.008181,-4811.338623,-12583.501014,-2528.115143
525.008504,-4145.153275,-11325.150913,919.314598
525.008826,-2442.679609,-12953.603985,995.924147
525.009149,-1850.514855,-14285.974681,-1685.410096
525.009471,-2516.700203,-14211.954086,-1532.190996
525.009793,-3552.988522,-11621.233289,-153.219100
525.010116,-222.061783,-8882.471304,306.438199
525.010438,5773.606348,-4737.318029,536.266849
525.010761,10066.800811,-1258.350101,2145.067394
525.011083,10066.800811,-1702.473667,4213.525239
525.011405,8216.285956,-5107.421000,5132.839837
525.011728,5033.400406,-7920.203579,3140.991542
525.012050,1036.288319,-9844.739029,1225.752797
525.012373,-2516.700203,-11399.171507,0.000000
525.012695,-4959.379811,-10732.986159,-3753.867940
525.013017,-4737.318029,-9178.553681,-5209.449386
525.013340,-4663.297435,-9474.636058,-2681.334243
525.013662,-5551.544565,-10362.883188,842.705048
525.013985,-5921.647536,-11621.233289,459.657299
525.014307,-4663.297435,-12953.603985,-3140.991542
525.014629,-4811.338623,-13619.789333,-3677.258390
525.014952,-4737.318029,-11769.274478,-2528.115143
525.015274,-1924.535449,-9696.697840,-2987.772442
525.015597,3330.926739,-7402.059420,-2604.724693
525.015919,6069.688724,-4515.256246,-919.314598
525.016242,5699.585753,-3923.091493,1225.752797
525.016564,3997.112087,-5995.668130,766.095498
525.016886,2368.659014,-8364.327145,-1532.190996
525.017209,-592.164754,-9992.780217,-3753.867940
525.017531,-2886.803174,-11399.171507,-3524.039291
525.017854,-4293.194464,-11547.212695,-3294.210641
525.018176,-3701.029710,-10807.006753,-4060.306139
525.018498,-2590.720797,-9918.759623,-4443.353888
525.018821,-2960.823768,-10510.924376,-2681.334243
525.019143,-2886.803174,-11029.068536,-1991.848295
525.019466,-1480.411884,-11843.295072,-2987.772442
525.019788,-962.267725,-12213.398043,-2604.724693
525.020110,222.061783,-12657.521608,-689.485948
525.020433,3775.050304,-12361.439231,-153.219100
525.020755,7254.018232,-9474.636058,-1149.143247
525.021078,8364.327145,-4145.153275,-689.485948
525.021400,6587.832884,-1406.391290,229.828649
525.021722,4071.132681,-2442.679609,-383.047749
525.022045,1258.350101,-5477.523971,-3217.601092
525.022367,-3256.906145,-8882.471304,-3983.696590
525.022690,-7846.182985,-10510.924376,-2757.943793
525.023012,-8364.327145,-12213.398043,-4979.620737
525.023334,-7476.080014,-13175.665768,-8427.050478
525.023657,-6735.874072,-14063.912898,-6818.249932
525.023979,-7698.141797,-11621.233289,-2451.505594
525.024302,-8068.244768,-9770.718434,-995.924147
525.024624,-5551.544565,-10436.903782,-3217.601092
525.024946,-3108.864956,-9992.780217,-4366.744339
525.025269,-2220.617826,-10066.800811,-3294.210641
525.025591,518.144159,-10510.924376,-1072.533697
525.025914,6143.709319,-8290.306550,919.314598
525.026236,11399.171507,-4441.235652,995.924147
525.026558,12287.418637,-2368.659014,1685.410096
525.026881,11991.336260,-2812.782580,919.314598
525.027203,10955.047942,-4219.173869,-2068.457845
525.027526,7920.203579,-6291.750507,-2987.772442
525.027848,3552.988522,-9252.574275,-1762.019645
525.028171,-1776.494261,-11917.315666,-2757.943793
525.028493,-4737.318029,-14952.160028,-4596.572988
525.028815,-7105.977043,-17024.736666,-4213.525239
525.029138,-8586.388927,-18357.107362,-2681.334243
525.029460,-7846.182985,-15470.304188,-2451.505594
525.029783,-5921.647536,-11917.315666,-3524.039291
525.030105,-4145.153275,-8438.347739,-4213.525239
525.030427,-3627.009116,-6883.915261,-1072.533697
525.030750,-2294.638420,-7624.121203,1225.752797
525.031072,1184.329507,-8586.388927,-153.219100
525.031395,2812.782580,-6661.853478,-1838.629195
525.031717,444.123565,-6069.688724,0.000000
525.032039,0.000000,-7254.018232,2834.553343
525.032362,1036.288319,-7550.100608,1685.410096
525.032684,1184.329507,-6513.812290,-1915.238745
525.033007,-1184.329507,-7476.080014,-2681.334243
525.033329,-3182.885551,-9992.780217,-1608.800546
525.033651,-4071.132681,-12509.480420,-3217.601092
525.033974,-4367.215058,-14730.098246,-4213.525239
525.034296,-5329.482782,-15544.324782,-1991.848295
525.034619,-4737.318029,-13249.686362,-229.828649
525.034941,-2368.659014,-11695.253884,-1149.143247
525.035263,-518.144159,-10066.800811,-919.314598
525.035586,-962.267725,-8956.491898,2528.115143
525.035908,-1184.329507,-9178.553681,5362.668486
525.036231,1702.473667,-7698.141797,3753.867940
525.036553,5699.585753,-2960.823768,1149.143247
525.036875,7698.141797,2738.761985,612.876398
525.037198,9992.780217,2072.576638,842.705048
525.037520,10214.842000,-3108.864956,1072.533697
525.037843,6365.771101,-7772.162391,1532.190996
525.038165,-1184.329507,-11769.274478,2374.896044
525.038488,-7476.080014,-14730.098246,76.609550
525.038810,-9548.656652,-16136.489536,-5669.106685
525.039132,-8290.306550,-14285.974681,-8656.879127
525.039455,-6439.791695,-11325.150913,-6741.640382
525.039777,-5329.482782,-9918.759623,-1762.019645
525.040100,-2516.700203,-10955.047942,1072.533697
525.040422,-962.267725,-12805.562797,383.047749
525.040744,-3849.070898,-12731.542202,459.657299
525.041067,-5181.441594,-10807.006753,-536.266849
525.041389,-814.226536,-9918.759623,-3600.648841
525.041712,6143.709319,-6439.791695,-3983.696590
525.042034,9252.574275,-1036.288319,229.828649
525.042356,9474.636058,-370.102971,3983.696590
525.042679,10436.903782,-4737.318029,2987.772442
525.043001,9548.656652,-8216.285956,-1225.752797
525.043324,4219.173869,-10214.842000,-4060.306139
525.043646,-3034.844362,-13767.830521,-4903.011187
525.043968,-6883.915261,-17172.777854,-5286.058936
525.044291,-6883.915261,-17838.963202,-6052.154434
525.044613,-6735.874072,-16136.489536,-5056.230287
525.044936,-6439.791695,-14359.995275,-2604.724693
525.045258,-5033.400406,-12065.356855,-2068.457845
525.045580,-3775.050304,-9474.636058,-3064.381992
525.045903,-3404.947333,-7994.224174,-1378.971896
525.046225,-2442.679609,-7920.203579,-995.924147
525.046548,666.185348,-8290.306550,-2528.115143
525.046870,4589.276840,-5847.626942,-1608.800546
525.047192,6143.709319,-3330.926739,1225.752797
525.047515,4737.318029,-1702.473667,2681.334243
525.047837,2368.659014,-2812.782580,1455.581446
525.048160,0.000000,-5181.441594,-1378.971896
525.048482,-3182.885551,-7550.100608,-4366.744339
525.048804,-6365.771101,-9992.780217,-4366.744339
525.049127,-7328.038826,-12139.377449,-5592.497135
525.049449,-6661.853478,-13471.748144,-5745.716235
525.049772,-5181.441594,-13767.830521,-4290.134789
525.050094,-3701.029710,-13989.892304,-1149.143247
525.050417,-3256.906145,-13323.706956,-2298.286494
525.050739,-2516.700203,-12583.501014,-4290.134789
525.051061,-2072.576638,-12435.459826,-1838.629195
525.051384,-1036.288319,-11621.233289,1149.143247
525.051706,2812.782580,-8438.347739,536.266849
525.052029,8438.347739,-3478.967927,-306.438199
525.052351,11843.295072,0.000000,-842.705048
525.052673,13397.727550,518.144159,-383.047749
525.052996,12287.418637,-4515.256246,919.314598
525.053318,7328.038826,-7105.977043,842.705048
525.053641,-148.041188,-9696.697840,0.000000
525.053963,-6513.812290,-13693.809927,-1378.971896
525.054286,-9178.553681,-14285.974681,-5592.497135
525.054608,-9104.533087,-13915.871710,-10725.336972
525.054930,-7994.224174,-14211.954086,-8656.879127
525.055253,-7476.080014,-13915.871710,-2068.457845
525.055575,-6439.791695,-13619.789333,536.266849
525.055898,-4663.297435,-11843.295072,-1378.971896
525.056220,-4441.235652,-11769.274478,-2604.724693
525.056543,-4293.194464,-10807.006753,-2604.724693
525.056865,-666.185348,-9844.739029,-3064.381992
525.057187,4293.194464,-6809.894666,-1685.410096
525.057510,7105.977043,-1554.432478,1149.143247
525.057832,8882.471304,-1110.308913,3677.258390
525.058155,11103.089130,-4663.297435,3600.648841
525.058477,10140.821405,-7476.080014,229.828649
525.058800,4811.338623,-9474.636058,-612.876398
525.059122,-592.164754,-12065.356855,0.000000
