#time,accel_x,accel_y,accel_z
225.860552,-666.185348,-9474.636058,-1302.362347
225.860873,-740.205942,-9844.739029,-1149.143247
225.861195,-814.226536,-9474.636058,-1072.533697
225.861517,-518.144159,-9326.594869,-1302.362347
225.861838,-444.123565,-9178.553681,-1302.362347
225.862160,-444.123565,-8808.450710,-1378.971896
225.862482,0.000000,-9178.553681,-1225.752797
225.862803,0.000000,-9400.615463,-1532.190996
225.863125,-370.102971,-9474.636058,-1378.971896
225.863446,-370.102971,-9474.636058,-995.924147
225.863768,-296.082377,-9326.594869,-1149.143247
225.864090,-222.061783,-9474.636058,-1225.752797
225.864411,0.000000,-9326.594869,-1608.800546
225.864733,0.000000,-9326.594869,-1532.190996
225.865055,-296.082377,-9400.615463,-1072.533697
225.865376,0.000000,-9326.594869,-1225.752797
225.865698,0.000000,-9178.553681,-1149.143247
225.866020,-296.082377,-9030.512492,-1149.143247
225.866341,-148.041188,-9326.594869,-1378.971896
225.866663,-148.041188,-9252.574275,-1225.752797
225.866985,-222.061783,-9326.594869,-1455.581446
225.867306,0.000000,-9252.574275,-1455.581446
225.867628,0.000000,-9400.615463,-1149.143247
225.867950,148.041188,-9252.574275,-689.485948
225.868271,0.000000,-9400.615463,-1225.752797
225.868593,-296.082377,-9252.574275,-1455.581446
225.868915,-222.061783,-9326.594869,-1455.581446
225.869236,-296.082377,-9252.574275,-1455.581446
225.869558,-222.061783,-9474.636058,-766.095498
225.869879,0.000000,-9326.594869,-1608.800546
225.870201,-444.123565,-9548.656652,-1378.971896
225.870523,-296.082377,-9400.615463,-1455.581446
225.870844,-222.061783,-9326.594869,-1378.971896
225.871166,0.000000,-9326.594869,-1532.190996
225.871488,-814.226536,-8882.471304,-1685.410096
225.871809,-444.123565,-9474.636058,-1378.971896
225.872131,-592.164754,-9548.656652,-1532.190996
225.872453,-592.164754,-9474.636058,-1608.800546
225.872774,-666.185348,-9474.636058,-1762.019645
225.873096,-444.123565,-9326.594869,-2145.067394
225.873418,-222.061783,-9474.636058,-1685.410096
225.873739,-518.144159,-9474.636058,-1532.190996
225.874061,-370.102971,-9474.636058,-1532.190996
225.874383,-592.164754,-9474.636058,-1685.410096
225.874704,-592.164754,-9474.636058,-1378.971896
225.875026,-740.205942,-9326.594869,-1225.752797
225.875347,-518.144159,-9474.636058,-1838.629195
225.875669,-666.185348,-9474.636058,-1685.410096
225.875991,-518.144159,-9474.636058,-1532.190996
225.876312,-592.164754,-9918.759623,-1685.410096
225.876634,-222.061783,-9918.759623,-1685.410096
225.876956,-592.164754,-9326.594869,-1378.971896
225.877277,0.000000,-9252.574275,-1685.410096
225.877599,888.247130,-9474.636058,-1762.019645
225.877921,1184.329507,-9696.697840,-1532.190996
225.878242,1332.370696,-9548.656652,-536.266849
225.878564,296.082377,-9252.574275,-536.266849
225.878886,148.041188,-9104.533087,-919.314598
225.879207,-148.041188,-9400.615463,-1685.410096
225.879529,-1110.308913,-9326.594869,-1685.410096
225.879851,-1184.329507,-8660.409521,-1302.362347
225.880172,-444.123565,-8586.388927,-1532.190996
225.880494,222.061783,-9474.636058,-1915.238745
225.880816,444.123565,-10140.821405,-919.314598
225.881137,74.020594,-9918.759623,-612.876398
225.881459,444.123565,-9252.574275,-1072.533697
225.881780,1184.329507,-9474.636058,-1532.190996
225.882102,2220.617826,-10436.903782,-1608.800546
225.882424,1480.411884,-9474.636058,-689.485948
225.882745,1628.453072,-8364.327145,0.000000
225.883067,2960.823768,-8956.491898,-612.876398
225.883389,3849.070898,-9400.615463,-612.876398
225.883710,3404.947333,-8734.430116,0.000000
225.884032,2294.638420,-8216.285956,76.609550
225.884354,2664.741391,-8142.265362,-536.266849
225.884675,3182.885551,-8956.491898,-1149.143247
225.884997,2590.720797,-8956.491898,-919.314598
225.885319,2368.659014,-7846.182985,-689.485948
225.885640,2960.823768,-8068.244768,-1762.019645
225.885962,4145.153275,-9474.636058,-2451.505594
225.886284,4589.276840,-10955.047942,-1685.410096
225.886605,3923.091493,-10732.986159,-1149.143247
225.886927,3923.091493,-9918.759623,-919.314598
225.887249,3923.091493,-10362.883188,-1302.362347
225.887570,4441.235652,-10658.965565,-1838.629195
225.887892,3701.029710,-9696.697840,-2145.067394
225.888213,3330.926739,-9178.553681,-1762.019645
225.888535,3182.885551,-8882.471304,-1378.971896
225.888857,3775.050304,-8882.471304,-842.705048
225.889178,4737.318029,-8512.368333,-1532.190996
225.889500,5477.523971,-8586.388927,-1608.800546
225.889822,5921.647536,-8956.491898,-1072.533697
225.890143,6291.750507,-8956.491898,-1225.752797
225.890465,6069.688724,-8956.491898,-1072.533697
225.890787,5477.523971,-8956.491898,-1532.190996
225.891108,4441.235652,-9696.697840,-1991.848295
225.891430,2664.741391,-10732.986159,-2451.505594
225.891752,1332.370696,-11843.295072,-2298.286494
225.892073,370.102971,-12731.542202,-1149.143247
225.892395,-148.041188,-13693.809927,-766.095498
225.892717,-370.102971,-13175.665768,459.657299
225.893038,-296.082377,-11991.336260,1225.752797
225.893360,148.041188,-9992.780217,1149.143247
225.893681,296.082377,-8586.388927,1455.581446
225.894003,-592.164754,-6587.832884,1532.190996
225.894325,-1628.453072,-5477.523971,1072.533697
225.894646,-2516.700203,-4663.297435,-229.828649
225.894968,-2294.638420,-4663.297435,-1685.410096
225.895290,-518.144159,-5181.441594,-3140.991542
225.895611,1036.288319,-5699.585753,-4213.525239
225.895933,3182.885551,-6587.832884,-4443.353888
225.896255,5255.462188,-9030.512492,-5286.058936
225.896576,5403.503377,-12139.377449,-5362.668486
225.896898,4145.153275,-14211.954086,-4213.525239
225.897220,2442.679609,-15100.201217,-2757.943793
225.897541,518.144159,-14211.954086,-1685.410096
225.897863,-592.164754,-13619.789333,-2221.676944
225.898185,-1702.473667,-12361.439231,-689.485948
225.898506,-2516.700203,-11621.233289,1532.190996
225.898828,-2960.823768,-9474.636058,3600.648841
225.899150,-3256.906145,-5625.565159,4826.401637
225.899471,-3182.885551,-3256.906145,3677.258390
225.899793,-2516.700203,-2590.720797,2068.457845
225.900114,-2960.823768,-2886.803174,1608.800546
225.900436,-4367.215058,-2886.803174,1302.362347
225.900758,-4293.194464,-4367.215058,-1608.800546
225.901079,-2368.659014,-6735.874072,-7354.516781
225.901401,-148.041188,-9178.553681,-8963.317327
225.901723,444.123565,-12509.480420,-7814.174080
225.902044,888.247130,-17987.004391,-5362.668486
225.902366,1924.535449,-21984.116477,-4290.134789
225.902688,2812.782580,-21317.931130,-4826.401637
225.903009,2368.659014,-18949.272115,-4290.134789
225.903331,1110.308913,-14359.995275,-1455.581446
225.903653,-592.164754,-8734.430116,229.828649
225.903974,-1036.288319,-4441.235652,689.485948
225.904296,-370.102971,-2146.597232,3370.820191
225.904618,-1406.391290,-2368.659014,4290.134789
225.904939,-2664.741391,-1924.535449,4596.572988
225.905261,-2368.659014,-2442.679609,4290.134789
225.905582,296.082377,-2812.782580,2451.505594
225.905904,4145.153275,-4441.235652,-1378.971896
225.906226,6513.812290,-6069.688724,-1378.971896
225.906547,4663.297435,-8660.409521,-459.657299
225.906869,2886.803174,-11325.150913,-2145.067394
225.907191,1850.514855,-15766.386565,-5669.106685
225.907512,1702.473667,-16950.716072,-7660.954980
225.907834,962.267725,-13767.830521,-7584.345430
225.908156,-888.247130,-13175.665768,-6588.421283
225.908477,-1776.494261,-14508.036463,-3294.210641
225.908799,-2442.679609,-11843.295072,-919.314598
225.909121,-3108.864956,-7476.080014,-2604.724693
225.909442,-2664.741391,-7105.977043,-3294.210641
225.909764,-2294.638420,-8438.347739,-459.657299
225.910086,-2886.803174,-7179.997637,536.266849
225.910407,-1998.556043,-5551.544565,1838.629195
225.910729,370.102971,-6069.688724,3370.820191
225.911051,2368.659014,-7698.141797,3447.429741
225.911372,740.205942,-8216.285956,2834.553343
225.911694,-592.164754,-6809.894666,1378.971896
225.912015,1702.473667,-7772.162391,-1532.190996
225.912337,5181.441594,-8364.327145,-4673.182538
225.912659,6513.812290,-9400.615463,-5745.716235
225.912980,5033.400406,-10732.986159,-3217.601092
225.913302,3478.967927,-12879.583391,-1072.533697
225.913624,1776.494261,-15396.283594,-1685.410096
225.913945,-888.247130,-15026.180623,-4136.915689
225.914267,-2960.823768,-12139.377449,-5132.839837
225.914589,-4071.132681,-9696.697840,-5209.449386
225.914910,-5329.482782,-8956.491898,-3524.039291
225.915232,-5921.647536,-9030.512492,919.314598
225.915554,-6735.874072,-6217.729913,2834.553343
225.915875,-6809.894666,-4515.256246,1378.971896
225.916197,-5847.626942,-5921.647536,-612.876398
225.916519,-6587.832884,-6809.894666,-842.705048
225.916840,-5995.668130,-5551.544565,-1455.581446
225.917162,-4663.297435,-6439.791695,-2451.505594
225.917483,-2442.679609,-10955.047942,-1915.238745
225.917805,-1554.432478,-13693.809927,153.219100
225.918127,-2146.597232,-13989.892304,-229.828649
225.918448,-1184.329507,-14285.974681,-2221.676944
225.918770,1480.411884,-15026.180623,-2911.162892
225.919092,3775.050304,-13619.789333,-2528.115143
225.919413,4811.338623,-10362.883188,-2145.067394
225.919735,6513.812290,-8438.347739,-612.876398
225.920057,7994.224174,-7105.977043,0.000000
225.920378,7105.977043,-6587.832884,0.000000
225.920700,2812.782580,-5181.441594,766.095498
225.921022,-666.185348,-4367.215058,612.876398
225.921343,-666.185348,-5921.647536,-1608.800546
225.921665,74.020594,-7402.059420,-2757.943793
225.921987,-1110.308913,-7772.162391,-459.657299
225.922308,-2738.761985,-7550.100608,2451.505594
225.922630,-2146.597232,-9474.636058,1608.800546
225.922952,-1332.370696,-10510.924376,-306.438199
225.923273,-1998.556043,-9178.553681,-1838.629195
225.923595,-3627.009116,-7402.059420,-2451.505594
225.923916,-4219.173869,-9252.574275,-2757.943793
225.924238,-4219.173869,-10140.821405,-2221.676944
225.924560,-4737.318029,-10140.821405,-2528.115143
225.924881,-3330.926739,-11177.109724,-4060.306139
225.925203,-888.247130,-12435.459826,-4979.620737
225.925525,740.205942,-12879.583391,-4749.792088
225.925846,1776.494261,-11547.212695,-1838.629195
225.926168,3627.009116,-10436.903782,-229.828649
225.926490,6883.915261,-11695.253884,-1838.629195
225.926811,8586.388927,-13545.768739,-2221.676944
225.927133,7105.977043,-12805.562797,-1225.752797
225.927455,5847.626942,-11399.171507,1532.190996
225.927777,5921.647536,-8660.409521,2757.943793
225.928099,7105.977043,-5773.606348,1455.581446
225.928421,6809.894666,-4737.318029,-919.314598
225.928743,5181.441594,-6291.750507,-1991.848295
225.929065,3256.906145,-7402.059420,-459.657299
225.929387,1628.453072,-7772.162391,0.000000
225.929709,-592.164754,-9178.553681,-842.705048
225.930031,-3034.844362,-10807.006753,-459.657299
225.930353,-5329.482782,-11177.109724,-1685.410096
225.930675,-6513.812290,-10807.006753,-3907.087040
225.930996,-7402.059420,-11769.274478,-4596.572988
225.931318,-7476.080014,-11399.171507,-2681.334243
225.931640,-7476.080014,-7698.141797,-2221.676944
225.931962,-6735.874072,-5625.565159,-2068.457845
225.932284,-4959.379811,-6809.894666,-2681.334243
225.932606,-6069.688724,-7179.997637,-2374.896044
225.932928,-7698.141797,-6291.750507,-2834.553343
225.933250,-7994.224174,-6735.874072,-3907.087040
225.933572,-5847.626942,-10140.821405,-4366.744339
225.933894,-3404.947333,-13027.624579,-2987.772442
225.934216,-1554.432478,-13619.789333,-1608.800546
225.934538,1184.329507,-12805.562797,153.219100
225.934860,4293.194464,-11917.315666,1302.362347
225.935182,5995.668130,-11251.130318,766.095498
225.935504,5921.647536,-9696.697840,-459.657299
225.935825,5551.544565,-8512.368333,-689.485948
225.936147,5255.462188,-8364.327145,-766.095498
225.936469,4219.173869,-7105.977043,-536.266849
225.936791,3034.844362,-6735.874072,-919.314598
225.937113,2072.576638,-7179.997637,-1608.800546
225.937435,1110.308913,-8512.368333,-1532.190996
225.937757,-1036.288319,-9178.553681,-1225.752797
225.938079,-3108.864956,-9178.553681,-1149.143247
225.938401,-4145.153275,-9178.553681,-1608.800546
225.938723,-4737.318029,-9474.636058,-2451.505594
225.939045,-6217.729913,-10066.800811,-2374.896044
225.939367,-6513.812290,-9844.739029,-1838.629195
225.939689,-6809.894666,-8068.244768,-1915.238745
225.940011,-5181.441594,-7698.141797,-2681.334243
225.940333,-4515.256246,-8734.430116,-2987.772442
225.940654,-4589.276840,-9622.677246,-1991.848295
225.940976,-4441.235652,-9992.780217,-3600.648841
225.941298,-2368.659014,-11177.109724,-4903.011187
225.941620,296.082377,-10066.800811,-2834.553343
225.941942,2072.576638,-9992.780217,-1378.971896
225.942264,3552.988522,-11843.295072,-306.438199
225.942586,6513.812290,-12731.542202,0.000000
225.942908,9770.718434,-12509.480420,-766.095498
225.943230,10140.821405,-11991.336260,459.657299
225.943552,9474.636058,-11399.171507,3294.210641
225.943874,7846.182985,-8438.347739,3370.820191
225.944196,6809.894666,-4589.276840,1608.800546
225.944518,5773.606348,-2516.700203,0.000000
225.944840,4663.297435,-5255.462188,-1302.362347
225.945162,3256.906145,-8290.306550,-3217.601092
225.945483,2146.597232,-10436.903782,-1455.581446
225.945805,666.185348,-10658.965565,1685.410096
225.946127,-740.205942,-10436.903782,2068.457845
225.946449,-1184.329507,-10510.924376,-689.485948
225.946771,-2146.597232,-9992.780217,-3830.477490
225.947093,-4737.318029,-9252.574275,-4136.915689
225.947415,-6809.894666,-9252.574275,-2145.067394
225.947737,-7031.956449,-9400.615463,-1072.533697
225.948059,-5921.647536,-8290.306550,-2451.505594
225.948381,-5551.544565,-7550.100608,-2451.505594
225.948703,-6217.729913,-8216.285956,-2068.457845
225.949025,-7179.997637,-9104.533087,-2757.943793
225.949347,-7105.977043,-9844.739029,-4136.915689
225.949669,-4885.359217,-10436.903782,-3600.648841
225.949991,-2664.741391,-11399.171507,-2451.505594
225.950312,-740.205942,-11769.274478,-1378.971896
225.950634,1110.308913,-12287.418637,0.000000
225.950956,2368.659014,-11473.192101,153.219100
225.951278,3404.947333,-10066.800811,0.000000
225.951600,4071.132681,-9326.594869,-689.485948
225.951922,4293.194464,-9548.656652,-1915.238745
225.952244,4441.235652,-9770.718434,-2451.505594
225.952566,4589.276840,-8734.430116,-919.314598
225.952888,4737.318029,-7476.080014,-919.314598
225.953210,3478.967927,-7920.203579,-1532.190996
225.953532,1406.391290,-8882.471304,-1378.971896
225.953854,-1332.370696,-7476.080014,-76.609550
225.954176,-3701.029710,-8068.244768,-2298.286494
225.954498,-5033.400406,-9622.677246,-3600.648841
225.954820,-6587.832884,-10732.986159,-2451.505594
225.955141,-8068.244768,-9030.512492,-1608.800546
225.955463,-8586.388927,-7994.224174,-1532.190996
225.955785,-7031.956449,-8882.471304,-1378.971896
225.956107,-6291.750507,-7254.018232,-1608.800546
225.956429,-6735.874072,-5921.647536,-1762.019645
225.956751,-6439.791695,-5995.668130,-2145.067394
225.957073,-5403.503377,-8660.409521,-3983.696590
225.957395,-4071.132681,-10658.965565,-5132.839837
225.957717,-2960.823768,-11251.130318,-4290.134789
225.958039,-296.082377,-11695.253884,-1455.581446
225.958361,3256.906145,-13619.789333,-1302.362347
225.958683,5551.544565,-15396.283594,-1302.362347
225.959005,7402.059420,-14656.077652,1072.533697
225.959327,8586.388927,-11103.089130,1302.362347
225.959649,9178.553681,-8290.306550,306.438199
225.959971,9104.533087,-7846.182985,919.314598
225.960292,7328.038826,-4885.359217,1149.143247
225.960614,5551.544565,-3182.885551,0.000000
225.960936,5773.606348,-5773.606348,-1225.752797
225.961258,5477.523971,-9844.739029,-842.705048
225.961580,3256.906145,-10510.924376,76.609550
225.961902,814.226536,-9844.739029,1762.019645
225.962224,0.000000,-11251.130318,1302.362347
225.962546,-222.061783,-11621.233289,-1302.362347
225.962868,-2368.659014,-11177.109724,-3907.087040
225.963190,-5181.441594,-10436.903782,-2757.943793
225.963512,-5847.626942,-9252.574275,-689.485948
225.963834,-4885.359217,-7550.100608,-1762.019645
225.964156,-4515.256246,-7846.182985,-3064.381992
225.964478,-5255.462188,-8438.347739,-1838.629195
225.964800,-7254.018232,-7105.977043,-1838.629195
225.965121,-7846.182985,-7328.038826,-4443.353888
225.965443,-5625.565159,-9918.759623,-6281.983084
225.965765,-4071.132681,-11843.295072,-3983.696590
225.966087,-3404.947333,-12139.377449,-995.924147
225.966409,-1554.432478,-12287.418637,689.485948
225.966731,1924.535449,-12435.459826,1225.752797
225.967053,4737.318029,-10881.027347,-383.047749
225.967375,5403.503377,-8808.450710,-766.095498
225.967697,5033.400406,-7550.100608,536.266849
225.968019,5847.626942,-7328.038826,383.047749
225.968341,6587.832884,-8364.327145,-1378.971896
225.968663,5625.565159,-8660.409521,-689.485948
225.968985,3849.070898,-7550.100608,1149.143247
225.969307,2590.720797,-8216.285956,-689.485948
225.969629,1776.494261,-10066.800811,-1608.800546
225.969950,1184.329507,-9178.553681,-536.266849
225.970272,-814.226536,-6513.812290,-612.876398
225.970594,-2368.659014,-9030.512492,-2068.457845
225.970916,-4737.318029,-10214.842000,-766.095498
225.971238,-7105.977043,-8586.388927,-1072.533697
225.971560,-8364.327145,-8216.285956,-3753.867940
225.971882,-7402.059420,-10140.821405,-3217.601092
225.972204,-6957.935855,-9622.677246,-1455.581446
225.972526,-7550.100608,-7994.224174,-1915.238745
225.972848,-6661.853478,-6587.832884,-1149.143247
225.973170,-5255.462188,-7624.121203,-3217.601092
225.973492,-4071.132681,-9844.739029,-6665.030833
225.973814,-2738.761985,-11843.295072,-5439.278036
225.974136,-666.185348,-11695.253884,-1915.238745
225.974458,1776.494261,-13397.727550,-1532.190996
225.974779,4441.235652,-15692.365970,-306.438199
225.975101,6217.729913,-14582.057057,1455.581446
225.975423,6661.853478,-9474.636058,766.095498
225.975745,7031.956449,-6735.874072,-842.705048
225.976067,7698.141797,-6735.874072,306.438199
225.976389,7031.956449,-5403.503377,-459.657299
225.976711,5995.668130,-4885.359217,-1608.800546
225.977033,5847.626942,-7179.997637,-306.438199
225.977355,5329.482782,-9622.677246,689.485948
225.977677,2442.679609,-11177.109724,153.219100
225.977999,222.061783,-11621.233289,383.047749
225.978321,-1258.350101,-11325.150913,0.000000
225.978643,-2072.576638,-10510.924376,-2987.772442
225.978965,-3404.947333,-10732.986159,-3524.039291
225.979287,-4959.379811,-8882.471304,-1685.410096
225.979608,-5033.400406,-6513.812290,-1608.800546
225.979930,-4367.215058,-7476.080014,-2834.553343
225.980252,-5181.441594,-10140.821405,-2374.896044
225.980574,-8068.244768,-9030.512492,-766.095498
225.980896,-9548.656652,-6587.832884,-2528.115143
225.981218,-8068.244768,-7846.182985,-5286.058936
225.981540,-5625.565159,-10955.047942,-6588.421283
225.981862,-4515.256246,-11399.171507,-4213.525239
225.982184,-3478.967927,-10807.006753,-995.924147
225.982506,-296.082377,-11695.253884,842.705048
225.982828,3256.906145,-12139.377449,0.000000
225.983150,4811.338623,-11473.192101,-995.924147
225.983472,5033.400406,-9030.512492,-842.705048
225.983794,5847.626942,-7846.182985,229.828649
225.984116,7179.997637,-7920.203579,-229.828649
225.984437,7105.977043,-7772.162391,-536.266849
225.984759,6439.791695,-6661.853478,766.095498
225.985081,4811.338623,-6587.832884,689.485948
225.985403,3478.967927,-9178.553681,-1302.362347
225.985725,2368.659014,-10140.821405,-1532.190996
225.986047,962.267725,-7772.162391,-153.219100
225.986369,-444.123565,-8808.450710,-612.876398
225.986691,-2516.700203,-10732.986159,-766.095498
225.987013,-5033.400406,-10214.842000,-153.219100
225.987335,-7031.956449,-8364.327145,-2298.286494
225.987657,-6809.894666,-8068.244768,-3983.696590
225.987979,-6069.688724,-8142.265362,-3677.258390
225.988301,-6809.894666,-8882.471304,-3064.381992
225.988623,-7698.141797,-8438.347739,-1762.019645
225.988945,-6957.935855,-8882.471304,-2145.067394
225.989266,-4885.359217,-10881.027347,-5515.887586
225.989588,-3182.885551,-12657.521608,-6588.421283
225.989910,-1924.535449,-11029.068536,-3370.820191
225.990232,-592.164754,-10288.862594,-612.876398
225.990554,2368.659014,-11843.295072,-612.876398
225.990876,5329.482782,-13027.624579,-766.095498
225.991198,7031.956449,-10955.047942,-536.266849
225.991520,5921.647536,-8808.450710,153.219100
225.991842,6217.729913,-8438.347739,1991.848295
225.992164,7402.059420,-7328.038826,842.705048
225.992486,7772.162391,-5329.482782,-1838.629195
225.992808,7254.018232,-6069.688724,-1378.971896
225.993130,5477.523971,-7402.059420,919.314598
225.993452,2738.761985,-9178.553681,229.828649
225.993774,370.102971,-10584.944971,-153.219100
225.994095,-888.247130,-10510.924376,-459.657299
225.994417,-2072.576638,-10584.944971,-2298.286494
225.994739,-3034.844362,-11769.274478,-3677.258390
225.995061,-5033.400406,-10140.821405,-1838.629195
225.995383,-5847.626942,-7105.977043,-1072.533697
225.995705,-4737.318029,-6809.894666,-2528.115143
225.996027,-4515.256246,-9918.759623,-2911.162892
225.996349,-7031.956449,-9696.697840,-1685.410096
225.996671,-9474.636058,-6439.791695,-1991.848295
225.996993,-8142.265362,-7105.977043,-3753.867940
225.997315,-5255.462188,-10732.986159,-5592.497135
225.997637,-3997.112087,-12435.459826,-4903.011187
225.997959,-4145.153275,-10436.903782,-1378.971896
225.998281,-1924.535449,-10584.944971,1225.752797
225.998603,1406.391290,-12583.501014,536.266849
225.998924,3849.070898,-12139.377449,-1302.362347
225.999246,4293.194464,-9474.636058,-1302.362347
225.999568,5181.441594,-7624.121203,383.047749
225.999890,6439.791695,-7846.182985,0.000000
226.000212,7105.977043,-8216.285956,-1149.143247
226.000534,6883.915261,-7920.203579,0.000000
226.000856,5181.441594,-6587.832884,1532.190996
226.001178,3627.009116,-8438.347739,-229.828649
226.001500,2368.659014,-10362.883188,-1838.629195
226.001822,1036.288319,-9252.574275,-1685.410096
226.002144,-1184.329507,-8142.265362,-919.314598
226.002466,-3034.844362,-10584.944971,-995.924147
226.002788,-4811.338623,-10732.986159,-229.828649
226.003110,-6365.771101,-8660.409521,-1915.238745
226.003432,-6957.935855,-7772.162391,-3140.991542
226.003754,-6143.709319,-8586.388927,-2757.943793
226.004075,-6291.750507,-8068.244768,-2374.896044
226.004397,-6735.874072,-7254.018232,-1838.629195
226.004719,-6217.729913,-7031.956449,-1915.238745
226.005041,-4737.318029,-8438.347739,-3983.696590
226.005363,-2960.823768,-11843.295072,-5898.935335
226.005685,-1850.514855,-12583.501014,-4213.525239
226.006007,-1036.288319,-11473.192101,-1225.752797
226.006329,1702.473667,-12509.480420,-306.438199
226.006651,4811.338623,-13767.830521,-229.828649
226.006973,7105.977043,-11843.295072,-383.047749
226.007295,6587.832884,-8660.409521,229.828649
226.007617,6957.935855,-7698.141797,1991.848295
226.007939,7550.100608,-6957.935855,2145.067394
226.008261,7772.162391,-5773.606348,-689.485948
226.008583,6957.935855,-5255.462188,-1455.581446
226.008904,5921.647536,-7105.977043,536.266849
226.009226,3627.009116,-8216.285956,459.657299
226.009548,1554.432478,-9918.759623,-766.095498
226.009870,296.082377,-11325.150913,-459.657299
226.010192,-1184.329507,-10881.027347,-995.924147
226.010514,-3034.844362,-11325.150913,-2681.334243
226.010836,-4885.359217,-11843.295072,-3064.381992
226.011158,-6069.688724,-9474.636058,-2451.505594
226.011480,-5847.626942,-7476.080014,-3140.991542
226.011802,-5255.462188,-8586.388927,-3830.477490
226.012124,-5847.626942,-10362.883188,-2451.505594
226.012446,-7624.121203,-8438.347739,-766.095498
226.012768,-8660.409521,-5847.626942,-1762.019645
226.013090,-6809.894666,-6143.709319,-4290.134789
226.013412,-5033.400406,-9178.553681,-6818.249932
226.013733,-4737.318029,-11325.150913,-4826.401637
226.014055,-3552.988522,-11547.212695,-766.095498
226.014377,-1332.370696,-11991.336260,766.095498
226.014699,2072.576638,-13027.624579,-536.266849
226.015021,4293.194464,-12435.459826,-1225.752797
226.015343,4811.338623,-9548.656652,-689.485948
226.015665,5995.668130,-8660.409521,-536.266849
226.015987,7179.997637,-9104.533087,-1225.752797
226.016309,7179.997637,-8660.409521,-766.095498
226.016631,5551.544565,-6365.771101,1378.971896
226.016953,3701.029710,-7105.977043,1532.190996
226.017275,2664.741391,-8364.327145,-1072.533697
226.017597,1998.556043,-9548.656652,-2757.943793
226.017919,0.000000,-8364.327145,-1608.800546
226.018241,-1628.453072,-9252.574275,-689.485948
226.018562,-2516.700203,-9474.636058,-306.438199
226.018884,-4071.132681,-9252.574275,-1302.362347
226.019206,-5181.441594,-8512.368333,-2451.505594
226.019528,-5995.668130,-9622.677246,-3524.039291
226.019850,-6439.791695,-9474.636058,-4060.306139
226.020172,-6513.812290,-8438.347739,-3447.429741
226.020494,-6143.709319,-8068.244768,-2987.772442
226.020816,-5033.400406,-9326.594869,-2757.943793
226.021138,-3256.906145,-11621.233289,-4519.963438
226.021460,-1850.514855,-11695.253884,-5515.887586
226.021782,-296.082377,-10140.821405,-2987.772442
226.022104,1332.370696,-11029.068536,0.000000
226.022426,3552.988522,-12139.377449,0.000000
226.022748,5773.606348,-11843.295072,0.000000
226.023070,7179.997637,-9992.780217,383.047749
226.023391,7105.977043,-9474.636058,2145.067394
226.023713,6735.874072,-7994.224174,3064.381992
226.024035,7031.956449,-5995.668130,1455.581446
226.024357,7402.059420,-5773.606348,-536.266849
226.024679,6587.832884,-6883.915261,-459.657299
226.025001,3923.091493,-7846.182985,842.705048
226.025323,1406.391290,-8068.244768,383.047749
226.025645,370.102971,-9918.759623,-229.828649
226.025967,-962.267725,-10436.903782,-1225.752797
226.026289,-3108.864956,-10288.862594,-2298.286494
226.026611,-4589.276840,-11251.130318,-3370.820191
226.026933,-5181.441594,-10658.965565,-3294.210641
226.027255,-5921.647536,-8512.368333,-2604.724693
226.027577,-5181.441594,-7920.203579,-2604.724693
226.027899,-4737.318029,-10140.821405,-2987.772442
226.028221,-6365.771101,-11325.150913,-2604.724693
226.028543,-8068.244768,-8882.471304,-2068.457845
226.028865,-7328.038826,-6513.812290,-2757.943793
226.029187,-4441.235652,-7846.182985,-4060.306139
226.029509,-2368.659014,-10140.821405,-4519.963438
226.029831,-2294.638420,-11251.130318,-1685.410096
226.030153,-1332.370696,-10584.944971,842.705048
226.030475,1036.288319,-11399.171507,1685.410096
226.030797,3552.988522,-11843.295072,153.219100
226.031119,4071.132681,-10214.842000,-612.876398
226.031441,4663.297435,-8586.388927,-459.657299
226.031763,5033.400406,-9326.594869,-383.047749
226.032085,5403.503377,-9474.636058,-536.266849
226.032407,4885.359217,-7476.080014,536.266849
226.032729,3849.070898,-6587.832884,153.219100
226.033051,2294.638420,-8068.244768,-1225.752797
226.033373,962.267725,-8734.430116,-2757.943793
226.033695,-814.226536,-8216.285956,-2374.896044
226.034017,-3034.844362,-8586.388927,-1072.533697
226.034339,-5255.462188,-9474.636058,-459.657299
226.034661,-7105.977043,-8956.491898,-1608.800546
226.034983,-7550.100608,-9548.656652,-3140.991542
226.035305,-8068.244768,-10807.006753,-3524.039291
226.035627,-7402.059420,-9548.656652,-2145.067394
226.035949,-6365.771101,-6957.935855,-2068.457845
226.036271,-4663.297435,-7031.956449,-2451.505594
226.036593,-4071.132681,-7624.121203,-1991.848295
226.036915,-3108.864956,-8142.265362,-2681.334243
226.037237,-2442.679609,-9622.677246,-5056.230287
226.037559,-444.123565,-11917.315666,-4673.182538
226.037881,1924.535449,-12583.501014,-2068.457845
226.038203,3627.009116,-13323.706956,-919.314598
226.038525,5625.565159,-14285.974681,766.095498
226.038847,7550.100608,-12435.459826,2528.115143
226.039169,8586.388927,-9030.512492,1072.533697
226.039491,8438.347739,-7105.977043,306.438199
226.039813,7920.203579,-6809.894666,459.657299
226.040135,6661.853478,-6587.832884,-383.047749
226.040457,4959.379811,-6735.874072,-612.876398
226.040779,2960.823768,-6735.874072,1149.143247
226.041101,1776.494261,-7328.038826,229.828649
226.041423,370.102971,-9622.677246,-1685.410096
226.041745,-1776.494261,-11103.089130,-1915.238745
226.042067,-3256.906145,-10584.944971,-1072.533697
226.042389,-4293.194464,-10066.800811,-1762.019645
226.042711,-4293.194464,-10436.903782,-3447.429741
226.043034,-4737.318029,-9474.636058,-3677.258390
226.043356,-4885.359217,-8364.327145,-3524.039291
226.043678,-4885.359217,-9622.677246,-2298.286494
226.044000,-4737.318029,-11325.150913,-1915.238745
226.044322,-5551.544565,-9992.780217,-1225.752797
226.044644,-6365.771101,-6883.915261,-1608.800546
226.044966,-5181.441594,-6291.750507,-3677.258390
226.045288,-2368.659014,-8734.430116,-6281.983084
226.045610,-814.226536,-10584.944971,-4903.011187
226.045932,-444.123565,-11029.068536,-306.438199
226.046254,888.247130,-10881.027347,2374.896044
226.046576,3923.091493,-12435.459826,842.705048
226.046898,5921.647536,-12065.356855,-1149.143247
226.047220,4737.318029,-10436.903782,-459.657299
226.047542,3775.050304,-8734.430116,766.095498
226.047864,4515.256246,-8364.327145,-612.876398
226.048186,5107.421000,-9178.553681,-1532.190996
226.048508,4589.276840,-8882.471304,995.924147
226.048830,2442.679609,-6809.894666,1455.581446
226.049152,1850.514855,-7624.121203,-995.924147
226.049474,1554.432478,-8586.388927,-2528.115143
226.049796,-296.082377,-7846.182985,-1608.800546
226.050118,-3404.947333,-7994.224174,-1685.410096
226.050440,-5625.565159,-9474.636058,-766.095498
226.050762,-6957.935855,-10807.006753,-1225.752797
226.051084,-7698.141797,-9548.656652,-3447.429741
226.051406,-8216.285956,-9474.636058,-4519.963438
226.051728,-7105.977043,-9400.615463,-2451.505594
226.052050,-6365.771101,-7624.121203,-1915.238745
226.052372,-5033.400406,-7476.080014,-1915.238745
226.052694,-4145.153275,-7846.182985,-1455.581446
226.053016,-3775.050304,-7105.977043,-3140.991542
226.053338,-3108.864956,-8660.409521,-6205.373534
226.053660,-1628.453072,-10436.903782,-4596.572988
226.053982,-296.082377,-11029.068536,-2068.457845
226.054304,1776.494261,-13323.706956,-1685.410096
226.054626,4663.297435,-15692.365970,-459.657299
226.054948,7105.977043,-14582.057057,1302.362347
226.055270,7920.203579,-11177.109724,1149.143247
226.055592,7846.182985,-7920.203579,995.924147
226.055914,7920.203579,-6883.915261,1225.752797
226.056236,7179.997637,-4959.379811,0.000000
226.056558,5847.626942,-4367.215058,-995.924147
226.056880,4663.297435,-6217.729913,-689.485948
226.057202,3849.070898,-9030.512492,-1302.362347
226.057524,1924.535449,-10955.047942,-919.314598
226.057846,222.061783,-12287.418637,0.000000
226.058168,-518.144159,-12731.542202,-153.219100
226.058490,-666.185348,-11325.150913,-1532.190996
226.058812,-1702.473667,-9992.780217,-2911.162892
226.059134,-3701.029710,-8586.388927,-3600.648841
226.059456,-5329.482782,-7105.977043,-2068.457845
226.059778,-5773.606348,-7550.100608,-2221.676944
226.060100,-5847.626942,-9104.533087,-2987.772442
226.060422,-6809.894666,-9992.780217,-2221.676944
226.060744,-7846.182985,-8660.409521,-1302.362347
226.061066,-8068.244768,-6069.688724,-2451.505594
226.061388,-5625.565159,-7624.121203,-4673.182538
226.061710,-3108.864956,-9696.697840,-5132.839837
226.062032,-2368.659014,-10436.903782,-2987.772442
226.062354,-1406.391290,-11843.295072,-842.705048
226.062676,814.226536,-13175.665768,842.705048
226.062998,3108.864956,-12583.501014,153.219100
226.063320,4515.256246,-11251.130318,153.219100
226.063642,5033.400406,-9696.697840,459.657299
226.063964,6735.874072,-8660.409521,-612.876398
226.064286,7402.059420,-7994.224174,-1685.410096
226.064608,5847.626942,-7179.997637,153.219100
226.064930,4293.194464,-5181.441594,2374.896044
226.065252,3330.926739,-6217.729913,-383.047749
226.065574,2886.803174,-9918.759623,-2528.115143
226.065896,1332.370696,-10658.965565,-1378.971896
226.066218,-1628.453072,-8660.409521,-459.657299
226.066540,-3552.988522,-10066.800811,-229.828649
226.066863,-4515.256246,-10140.821405,0.000000
226.067185,-5921.647536,-8586.388927,-2451.505594
226.067507,-7476.080014,-7772.162391,-4443.353888
226.067829,-7105.977043,-8882.471304,-2911.162892
226.068151,-6735.874072,-8882.471304,-2987.772442
226.068473,-6513.812290,-9104.533087,-3064.381992
226.068795,-5995.668130,-8216.285956,-1762.019645
226.069117,-6069.688724,-7698.141797,-2451.505594
226.069439,-4885.359217,-8956.491898,-5362.668486
226.069761,-2590.720797,-11103.089130,-5822.325785
226.070083,-1406.391290,-11029.068536,-3294.210641
226.070405,370.102971,-12509.480420,-1532.190996
226.070727,2738.761985,-14434.015869,689.485948
226.071049,4959.379811,-12657.521608,1685.410096
226.071371,6661.853478,-9030.512492,1072.533697
226.071693,7476.080014,-7476.080014,-459.657299
226.072015,8734.430116,-7846.182985,-842.705048
226.072337,8216.285956,-7624.121203,-919.314598
226.072659,6143.709319,-6143.709319,689.485948
226.072981,4885.359217,-5625.565159,2528.115143
226.073303,4145.153275,-6661.853478,536.266849
226.073625,2590.720797,-10807.006753,-2221.676944
226.073947,0.000000,-12213.398043,-1915.238745
226.074269,-2368.659014,-10288.862594,-306.438199
226.074591,-3256.906145,-10066.800811,-1225.752797
226.074913,-3330.926739,-10807.006753,-1608.800546
226.075235,-4811.338623,-8290.306550,-2528.115143
226.075557,-5921.647536,-7031.956449,-3524.039291
226.075879,-5403.503377,-9548.656652,-3677.258390
226.076201,-5699.585753,-12213.398043,-2681.334243
226.076523,-7624.121203,-9770.718434,-2451.505594
226.076845,-8512.368333,-5773.606348,-1455.581446
226.077167,-6439.791695,-6661.853478,-3217.601092
226.077489,-3849.070898,-9992.780217,-7201.297681
226.077811,-3108.864956,-11251.130318,-5362.668486
226.078133,-3108.864956,-10584.944971,-383.047749
226.078455,-1554.432478,-12065.356855,1608.800546
226.078777,1332.370696,-13249.686362,1762.019645
226.079099,3330.926739,-11695.253884,0.000000
226.079421,4663.297435,-8512.368333,-229.828649
226.079743,6587.832884,-7772.162391,-229.828649
226.080065,8290.306550,-8734.430116,-1225.752797
226.080387,7402.059420,-9030.512492,0.000000
226.080709,5625.565159,-6735.874072,3600.648841
226.081031,4145.153275,-4441.235652,2681.334243
226.081353,4515.256246,-8660.409521,-2528.115143
226.081675,3997.112087,-11547.212695,-4443.353888
226.081997,888.247130,-9474.636058,-1608.800546
226.082319,-2368.659014,-8438.347739,383.047749
226.082641,-3627.009116,-11843.295072,919.314598
226.082963,-4811.338623,-10732.986159,-306.438199
226.083285,-6883.915261,-7846.182985,-4136.915689
226.083607,-7476.080014,-7920.203579,-4366.744339
226.083929,-7105.977043,-9992.780217,-2757.943793
226.084251,-6587.832884,-9252.574275,-2911.162892
226.084573,-6735.874072,-6809.894666,-1991.848295
226.084895,-5107.421000,-5773.606348,-1225.752797
226.085217,-3701.029710,-7179.997637,-4903.011187
226.085539,-2664.741391,-11843.295072,-7737.564530
226.085861,-2368.659014,-13027.624579,-4519.963438
226.086183,-1702.473667,-12657.521608,-919.314598
226.086505,1110.308913,-14285.974681,919.314598
226.086827,4293.194464,-14508.036463,919.314598
226.087149,6069.688724,-10362.883188,76.609550
226.087471,6883.915261,-6439.791695,0.000000
226.087793,8290.306550,-6217.729913,766.095498
226.088115,8734.430116,-7254.018232,76.609550
226.088437,7328.038826,-6957.935855,153.219100
226.088759,6883.915261,-5551.544565,0.000000
226.089081,5329.482782,-7105.977043,842.705048
226.089403,2738.761985,-8734.430116,0.000000
226.089725,0.000000,-9770.718434,-995.924147
226.090047,-2368.659014,-10807.006753,-919.314598
226.090369,-2886.803174,-10288.862594,-1685.410096
226.090692,-3256.906145,-11843.295072,-2681.334243
226.091014,-4441.235652,-11547.212695,-2145.067394
226.091336,-4737.318029,-8142.265362,-1838.629195
226.091658,-4219.173869,-7254.018232,-3140.991542
226.091980,-3701.029710,-9918.759623,-3983.696590
226.092302,-5477.523971,-11177.109724,-1685.410096
226.092624,-8660.409521,-6957.935855,-1455.581446
226.092946,-8586.388927,-5403.503377,-3677.258390
226.093268,-4293.194464,-8068.244768,-6511.811733
226.093590,-1924.535449,-11029.068536,-7354.516781
226.093912,-2812.782580,-12509.480420,-2604.724693
226.094234,-2590.720797,-12287.418637,2604.724693
226.094556,0.000000,-11991.336260,2451.505594
226.094878,2516.700203,-11103.089130,-1685.410096
226.095200,3182.885551,-10214.842000,-2374.896044
226.095522,3182.885551,-8438.347739,-536.266849
226.095844,4663.297435,-7550.100608,-766.095498
226.096166,7328.038826,-8882.471304,-1532.190996
226.096488,7772.162391,-9252.574275,689.485948
226.096810,5477.523971,-7402.059420,3370.820191
226.097132,3182.885551,-6291.750507,1225.752797
226.097454,2368.659014,-8734.430116,-1991.848295
226.097776,1776.494261,-9474.636058,-3600.648841
226.098098,-296.082377,-7698.141797,-2374.896044
226.098420,-3256.906145,-9622.677246,-919.314598
226.098742,-4589.276840,-10362.883188,919.314598
226.099064,-5773.606348,-8438.347739,-536.266849
226.099386,-6291.750507,-9622.677246,-3830.477490
226.099708,-5847.626942,-10732.986159,-4213.525239
226.100030,-5477.523971,-10658.965565,-3524.039291
226.100352,-6143.709319,-7624.121203,-3294.210641
226.100674,-5625.565159,-6513.812290,-1915.238745
226.100996,-3182.885551,-7994.224174,-2374.896044
226.101318,-1036.288319,-10362.883188,-6511.811733
226.101640,-592.164754,-11843.295072,-6052.154434
226.101962,-222.061783,-13027.624579,-1378.971896
226.102284,888.247130,-13175.665768,1455.581446
226.102606,3701.029710,-12361.439231,842.705048
226.102928,6365.771101,-11547.212695,0.000000
226.103250,7105.977043,-9622.677246,153.219100
226.103572,6217.729913,-8734.430116,2374.896044
226.103894,5551.544565,-6365.771101,2757.943793
226.104216,6735.874072,-5033.400406,536.266849
226.104538,8512.368333,-5625.565159,-1762.019645
226.104860,7031.956449,-7105.977043,-919.314598
226.105182,3404.947333,-8512.368333,1225.752797
226.105504,74.020594,-8216.285956,1762.019645
226.105826,-888.247130,-9548.656652,76.609550
226.106148,-1406.391290,-10807.006753,-2528.115143
226.106470,-3108.864956,-10584.944971,-4673.182538
226.106792,-5033.400406,-11029.068536,-4213.525239
226.107114,-6069.688724,-10955.047942,-1915.238745
226.107436,-5403.503377,-9030.512492,-689.485948
226.107758,-3923.091493,-8068.244768,-2298.286494
226.108080,-3701.029710,-9992.780217,-3677.258390
226.108402,-5995.668130,-10658.965565,-1838.629195
226.108724,-8660.409521,-7254.018232,-1532.190996
226.109046,-7254.018232,-5773.606348,-3753.867940
226.109368,-3034.844362,-8142.265362,-5745.716235
226.109690,-1628.453072,-10732.986159,-5515.887586
226.110012,-2442.679609,-12509.480420,-1302.362347
226.110334,-2146.597232,-12065.356855,2604.724693
226.110656,888.247130,-11917.315666,1072.533697
226.110978,3182.885551,-11399.171507,-2068.457845
226.111300,4145.153275,-9992.780217,-1149.143247
226.111622,3552.988522,-8216.285956,459.657299
226.111944,5477.523971,-7994.224174,-1455.581446
226.112266,7105.977043,-9178.553681,-1915.238745
226.112588,6735.874072,-8734.430116,1072.533697
226.112910,3552.988522,-5625.565159,2374.896044
226.113232,1702.473667,-7994.224174,-1149.143247
226.113554,666.185348,-10140.821405,-2757.943793
226.113876,-222.061783,-9326.594869,-2911.162892
226.114198,-3330.926739,-7550.100608,-2374.896044
226.114521,-5255.462188,-9992.780217,-766.095498
226.114843,-5847.626942,-9252.574275,76.609550
226.115165,-7031.956449,-8438.347739,-2451.505594
226.115487,-7254.018232,-9030.512492,-3983.696590
226.115809,-6365.771101,-9622.677246,-2681.334243
226.116131,-5403.503377,-8808.450710,-2911.162892
226.116453,-5773.606348,-6883.915261,-2298.286494
226.116775,-5255.462188,-6957.935855,-1225.752797
226.117097,-4737.318029,-7846.182985,-3064.381992
226.117419,-3108.864956,-10584.944971,-6894.859482
226.117741,-2072.576638,-12731.542202,-5286.058936
226.118063,-296.082377,-13101.645173,-2221.676944
226.118385,2442.679609,-13693.809927,-229.828649
226.118707,5847.626942,-14359.995275,1149.143247
226.119029,7994.224174,-11769.274478,1455.581446
226.119351,8512.368333,-7920.203579,995.924147
226.119673,7994.224174,-6809.894666,995.924147
226.119995,7179.997637,-6069.688724,1378.971896
226.120317,7254.018232,-5551.544565,-459.657299
226.120639,7031.956449,-5995.668130,-689.485948
226.120961,6365.771101,-7328.038826,459.657299
226.121283,4071.132681,-8956.491898,1378.971896
226.121605,1480.411884,-9178.553681,842.705048
226.121927,-296.082377,-10288.862594,0.000000
226.122249,-1480.411884,-10955.047942,-1991.848295
226.122571,-2516.700203,-11399.171507,-3830.477490
226.122893,-4367.215058,-11325.150913,-2987.772442
226.123215,-4959.379811,-9844.739029,-1149.143247
226.123537,-4441.235652,-8142.265362,-1302.362347
226.123859,-3330.926739,-8808.450710,-3600.648841
226.124181,-4145.153275,-9474.636058,-3064.381992
226.124503,-7179.997637,-8956.491898,-2451.505594
226.124825,-8882.471304,-7846.182985,-2834.553343
226.125147,-6661.853478,-8512.368333,-4979.620737
226.125469,-3849.070898,-10288.862594,-6435.202183
226.125791,-3108.864956,-12139.377449,-3677.258390
226.126113,-3182.885551,-11991.336260,842.705048
226.126435,-888.247130,-10732.986159,1915.238745
226.126757,2442.679609,-10066.800811,-459.657299
226.127079,4219.173869,-11177.109724,-995.924147
226.127401,4071.132681,-10214.842000,459.657299
226.127723,3923.091493,-8660.409521,306.438199
226.128045,6291.750507,-8882.471304,-766.095498
226.128367,7550.100608,-9326.594869,-612.876398
226.128689,5847.626942,-7328.038826,1762.019645
226.129011,2368.659014,-5477.523971,995.924147
226.129333,740.205942,-7846.182985,-766.095498
226.129655,888.247130,-8660.409521,-2987.772442
226.129977,-518.144159,-7550.100608,-3217.601092
226.130299,-2960.823768,-9474.636058,-2298.286494
226.130621,-5107.421000,-10066.800811,229.828649
226.130943,-6735.874072,-9030.512492,-536.266849
226.131265,-7624.121203,-9992.780217,-4213.525239
226.131587,-7476.080014,-11177.109724,-3600.648841
226.131908,-7105.977043,-9474.636058,-2987.772442
226.132230,-6513.812290,-7550.100608,-4673.182538
226.132552,-5477.523971,-7031.956449,-2528.115143
226.132874,-4441.235652,-6735.874072,-842.705048
226.133196,-4145.153275,-8216.285956,-4673.182538
226.133518,-2812.782580,-11325.150913,-6128.763984
226.133840,-1850.514855,-12361.439231,-3294.210641
226.134162,-666.185348,-12953.603985,-306.438199
226.134484,2294.638420,-13989.892304,229.828649
226.134806,5551.544565,-13545.768739,766.095498
226.135128,7994.224174,-10510.924376,766.095498
226.135450,8216.285956,-8438.347739,1455.581446
226.135772,7179.997637,-7105.977043,2681.334243
226.136094,7550.100608,-5921.647536,1532.190996
226.136416,8438.347739,-5403.503377,-1991.848295
226.136738,8586.388927,-6439.791695,-2068.457845
226.137060,5921.647536,-7550.100608,612.876398
226.137382,2220.617826,-9178.553681,1762.019645
226.137704,0.000000,-10214.842000,536.266849
226.138026,-1332.370696,-10807.006753,-1378.971896
226.138348,-2294.638420,-10066.800811,-4213.525239
226.138670,-4145.153275,-11399.171507,-4749.792088
226.138992,-5403.503377,-11769.274478,-2374.896044
226.139314,-4959.379811,-9474.636058,-689.485948
226.139636,-4071.132681,-7994.224174,-2528.115143
226.139958,-2960.823768,-8956.491898,-3294.210641
226.140280,-4885.359217,-9104.533087,-2681.334243
226.140602,-7328.038826,-8734.430116,-2757.943793
226.140924,-6587.832884,-8438.347739,-3907.087040
226.141246,-3404.947333,-9696.697840,-5132.839837
226.141568,-1924.535449,-11399.171507,-4749.792088
226.141890,-2072.576638,-11621.233289,0.000000
226.142211,-1554.432478,-10214.842000,2374.896044
226.142533,1628.453072,-9548.656652,-842.705048
226.142855,4885.359217,-11843.295072,-2221.676944
226.143177,5181.441594,-12065.356855,-229.828649
226.143499,3478.967927,-8882.471304,2681.334243
226.143821,4441.235652,-7105.977043,1991.848295
226.144143,7698.141797,-8364.327145,-995.924147
226.144465,7846.182985,-8882.471304,-1915.238745
226.144787,4367.215058,-7031.956449,-153.219100
226.145109,814.226536,-5847.626942,842.705048
226.145431,518.144159,-9474.636058,-306.438199
226.145753,888.247130,-10288.862594,-2145.067394
226.146075,-814.226536,-8290.306550,-2987.772442
226.146397,-3404.947333,-9622.677246,-2298.286494
226.146719,-5403.503377,-11029.068536,-766.095498
226.147041,-7105.977043,-9622.677246,-919.314598
226.147363,-8142.265362,-8660.409521,-3217.601092
226.147685,-7105.977043,-8956.491898,-3064.381992
226.148007,-6291.750507,-9474.636058,-3217.601092
226.148329,-6661.853478,-9030.512492,-3217.601092
226.148651,-6587.832884,-7328.038826,-1302.362347
226.148973,-5033.400406,-7031.956449,-1225.752797
226.149295,-4071.132681,-8882.471304,-5132.839837
226.149617,-3627.009116,-11399.171507,-5898.935335
226.149939,-3997.112087,-11547.212695,-1762.019645
226.150261,-1998.556043,-11029.068536,-1302.362347
226.150583,2146.597232,-13101.645173,-1838.629195
226.150905,5329.482782,-14211.954086,-766.095498
226.151227,6069.688724,-11843.295072,766.095498
226.151549,5847.626942,-9030.512492,2221.676944
226.151871,6143.709319,-8216.285956,2451.505594
226.152193,7254.018232,-6587.832884,842.705048
226.152514,7550.100608,-4811.338623,-2298.286494
226.152836,6587.832884,-4885.359217,-1685.410096
226.153158,4959.379811,-6513.812290,76.609550
226.153480,2664.741391,-9474.636058,459.657299
226.153802,518.144159,-10658.965565,612.876398
226.154124,-444.123565,-10955.047942,-153.219100
226.154446,-1480.411884,-11029.068536,-2451.505594
226.154768,-2294.638420,-11473.192101,-3370.820191
226.155090,-4737.318029,-10214.842000,-1302.362347
226.155412,-6365.771101,-7994.224174,-612.876398
226.155734,-5107.421000,-6735.874072,-1532.190996
226.156056,-4145.153275,-8512.368333,-3064.381992
226.156378,-4441.235652,-9844.739029,-2374.896044
226.156700,-6365.771101,-8586.388927,-1149.143247
226.157022,-6143.709319,-7846.182985,-1455.581446
226.157344,-4293.194464,-9178.553681,-3600.648841
226.157666,-3404.947333,-10510.924376,-4366.744339
226.157988,-4737.318029,-10362.883188,-2298.286494
226.158310,-3849.070898,-9918.759623,-1608.800546
226.158632,0.000000,-11991.336260,-2604.724693
226.158954,3552.988522,-13101.645173,-3140.991542
226.159276,5181.441594,-12805.562797,-689.485948
226.159598,5773.606348,-11473.192101,1838.629195
226.159920,6365.771101,-9400.615463,2834.553343
226.160242,7254.018232,-7031.956449,2298.286494
226.160564,7031.956449,-4589.276840,229.828649
226.160886,5107.421000,-4441.235652,-1991.848295
226.161208,3627.009116,-7105.977043,-2374.896044
226.161530,3034.844362,-9474.636058,-1225.752797
226.161852,2516.700203,-9992.780217,1302.362347
226.162174,1998.556043,-10436.903782,1072.533697
226.162495,1184.329507,-11473.192101,536.266849
226.162817,-518.144159,-10807.006753,-1149.143247
226.163139,-4441.235652,-9104.533087,-2604.724693
226.163461,-8290.306550,-8068.244768,-2145.067394
226.163783,-8586.388927,-6661.853478,-2451.505594
226.164105,-8364.327145,-6513.812290,-4519.963438
226.164427,-7105.977043,-8364.327145,-4596.572988
226.164749,-6809.894666,-10214.842000,-1685.410096
226.165071,-6587.832884,-10881.027347,-1149.143247
226.165393,-6217.729913,-9178.553681,-2757.943793
226.165715,-4219.173869,-9474.636058,-4826.401637
226.166037,-2738.761985,-11103.089130,-5209.449386
226.166359,-1480.411884,-11917.315666,-3677.258390
226.166681,-148.041188,-12953.603985,-1838.629195
226.167003,2220.617826,-12953.603985,-995.924147
226.167325,4441.235652,-12065.356855,766.095498
226.167647,5995.668130,-10140.821405,1149.143247
226.167969,7328.038826,-7772.162391,229.828649
226.168291,8290.306550,-6291.750507,153.219100
226.168613,7994.224174,-5699.585753,383.047749
226.168935,6587.832884,-5181.441594,229.828649
226.169257,6217.729913,-6217.729913,0.000000
226.169579,4441.235652,-7994.224174,-995.924147
226.169901,1850.514855,-10362.883188,-612.876398
226.170223,-444.123565,-11917.315666,536.266849
226.170545,-1702.473667,-12139.377449,-459.657299
226.170867,-962.267725,-11843.295072,-1838.629195
226.171189,-2664.741391,-11251.130318,-1838.629195
226.171511,-5107.421000,-8882.471304,-1532.190996
226.171833,-6069.688724,-5403.503377,-1685.410096
226.172155,-5255.462188,-5107.421000,-2987.772442
226.172477,-5477.523971,-7994.224174,-3753.867940
226.172798,-7254.018232,-9474.636058,-2374.896044
226.173120,-9252.574275,-8290.306550,-1532.190996
226.173442,-8734.430116,-7698.141797,-2911.162892
226.173764,-6069.688724,-10584.944971,-4673.182538
226.174086,-3775.050304,-11843.295072,-4979.620737
226.174408,-2812.782580,-11843.295072,-3677.258390
226.174730,-1036.288319,-12805.562797,-1378.971896
226.175052,1258.350101,-13693.809927,306.438199
226.175374,2664.741391,-11547.212695,842.705048
226.175696,3923.091493,-8142.265362,0.000000
226.176018,5921.647536,-6809.894666,-1149.143247
226.176340,8068.244768,-6291.750507,-1532.190996
226.176662,8068.244768,-6735.874072,-1532.190996
226.176984,7254.018232,-7105.977043,383.047749
226.177306,7402.059420,-7994.224174,1608.800546
226.177628,5847.626942,-8364.327145,689.485948
226.177950,4145.153275,-9548.656652,-459.657299
226.178272,2220.617826,-11177.109724,-1302.362347
226.178594,1110.308913,-10807.006753,-1838.629195
226.178916,-814.226536,-10658.965565,-1225.752797
226.179238,-4367.215058,-11103.089130,383.047749
226.179560,-6365.771101,-8512.368333,-306.438199
226.179882,-6661.853478,-5995.668130,-3294.210641
226.180204,-5551.544565,-8438.347739,-6205.373534
226.180526,-5921.647536,-10807.006753,-4519.963438
226.180848,-8068.244768,-8882.471304,-1225.752797
226.181170,-8956.491898,-6661.853478,-1455.581446
226.181492,-6143.709319,-9696.697840,-3294.210641
226.181814,-2590.720797,-12287.418637,-6128.763984
226.182136,-2146.597232,-12139.377449,-6281.983084
226.182458,-1776.494261,-11843.295072,-1762.019645
226.182780,222.061783,-12213.398043,1838.629195
226.183101,3330.926739,-12139.377449,153.219100
226.183423,5403.503377,-10214.842000,-1532.190996
226.183745,6513.812290,-8660.409521,-1302.362347
226.184067,7105.977043,-7846.182985,459.657299
226.184389,7105.977043,-5699.585753,1915.238745
226.184711,7254.018232,-4663.297435,1378.971896
226.185033,7254.018232,-5255.462188,-919.314598
226.185355,7550.100608,-7772.162391,-1915.238745
226.185677,4737.318029,-10732.986159,-1302.362347
226.185999,222.061783,-11251.130318,229.828649
226.186321,-2294.638420,-10510.924376,1608.800546
226.186643,-2294.638420,-10807.006753,-919.314598
226.186965,-2220.617826,-12361.439231,-3600.648841
226.187287,-4589.276840,-11769.274478,-2911.162892
226.187609,-6069.688724,-7994.224174,-383.047749
226.187931,-5477.523971,-5477.523971,-919.314598
226.188253,-3997.112087,-6143.709319,-2068.457845
226.188575,-4885.359217,-7550.100608,-2604.724693
226.188897,-7994.224174,-7772.162391,-2221.676944
226.189219,-9844.739029,-7254.018232,-2757.943793
226.189541,-8660.409521,-9326.594869,-4136.915689
226.189863,-5847.626942,-11843.295072,-4903.011187
226.190185,-3923.091493,-12139.377449,-3524.039291
226.190507,-2368.659014,-12805.562797,-1915.238745
226.190829,222.061783,-13471.748144,0.000000
226.191151,2368.659014,-12879.583391,1225.752797
226.191473,3478.967927,-9696.697840,-459.657299
226.191795,4737.318029,-7254.018232,-1378.971896
226.192117,6513.812290,-7476.080014,-1608.800546
226.192439,6957.935855,-7328.038826,-1608.800546
226.192761,6513.812290,-6809.894666,-153.219100
226.193083,6513.812290,-6661.853478,1225.752797
226.193404,4663.297435,-7105.977043,229.828649
226.193726,2368.659014,-8882.471304,-383.047749
226.194048,-296.082377,-10436.903782,-612.876398
226.194370,-740.205942,-10881.027347,-1608.800546
226.194692,-1110.308913,-10732.986159,-2145.067394
226.195014,-3330.926739,-11621.233289,-766.095498
226.195336,-6069.688724,-9844.739029,919.314598
226.195658,-6365.771101,-6957.935855,-919.314598
226.195980,-4663.297435,-7402.059420,-4673.182538
226.196302,-3701.029710,-9918.759623,-5056.230287
226.196624,-5699.585753,-9030.512492,-2221.676944
226.196946,-8364.327145,-7105.977043,-1072.533697
226.197268,-6809.894666,-8512.368333,-2451.505594
226.197590,-2738.761985,-10955.047942,-5822.325785
226.197912,-1184.329507,-12361.439231,-7277.907231
226.198234,-1184.329507,-12287.418637,-2374.896044
226.198556,74.020594,-12435.459826,1302.362347
226.198878,2960.823768,-11991.336260,612.876398
226.199200,6291.750507,-11473.192101,-766.095498
226.199522,7550.100608,-9992.780217,-766.095498
226.199844,6957.935855,-7402.059420,0.000000
226.200166,7031.956449,-5625.565159,1608.800546
226.200488,6883.915261,-4811.338623,2145.067394
226.200810,7105.977043,-4811.338623,306.438199
226.201132,6809.894666,-6439.791695,-1608.800546
226.201454,5477.523971,-9326.594869,-1608.800546
226.201776,2368.659014,-10658.965565,536.266849
226.202098,-1036.288319,-10881.027347,1762.019645
226.202420,-2220.617826,-11325.150913,229.828649
226.202742,-2442.679609,-11843.295072,-2757.943793
226.203064,-3701.029710,-12361.439231,-3600.648841
226.203386,-5403.503377,-11029.068536,-2145.067394
226.203707,-5477.523971,-7179.997637,-1149.143247
226.204029,-4071.132681,-6291.750507,-2068.457845
226.204351,-3627.009116,-7328.038826,-2528.115143
226.204673,-5921.647536,-8438.347739,-2221.676944
226.204995,-8956.491898,-7179.997637,-2604.724693
226.205317,-8586.388927,-7772.162391,-4136.915689
226.205639,-6217.729913,-10288.862594,-6052.154434
226.205961,-3775.050304,-12435.459826,-4826.401637
226.206283,-2812.782580,-13027.624579,-1915.238745
226.206605,-666.185348,-12731.542202,383.047749
226.206927,2220.617826,-12583.501014,919.314598
226.207249,3701.029710,-10658.965565,-383.047749
226.207571,4219.173869,-8808.450710,-689.485948
226.207893,4441.235652,-7624.121203,-689.485948
226.208215,5033.400406,-7402.059420,-1225.752797
226.208537,5551.544565,-7402.059420,-229.828649
226.208859,4885.359217,-6661.853478,1225.752797
226.209181,3404.947333,-6661.853478,536.266849
226.209503,2220.617826,-7772.162391,-842.705048
226.209825,1332.370696,-9400.615463,-1378.971896
226.210147,518.144159,-10732.986159,-1378.971896
226.210469,0.000000,-9770.718434,-1685.410096
226.210791,-1184.329507,-10066.800811,-1302.362347
226.211113,-3404.947333,-11029.068536,-306.438199
226.211435,-5773.606348,-9474.636058,0.000000
226.211757,-6735.874072,-7550.100608,-2834.553343
226.212079,-5477.523971,-8364.327145,-4903.011187
226.212401,-5033.400406,-9548.656652,-3753.867940
226.212723,-6513.812290,-8142.265362,-1685.410096
226.213045,-7105.977043,-6587.832884,-1225.752797
226.213367,-5033.400406,-7698.141797,-2911.162892
226.213689,-2590.720797,-10510.924376,-6435.202183
226.214010,-2220.617826,-12953.603985,-6052.154434
226.214332,-2368.659014,-12805.562797,-995.924147
226.214654,0.000000,-12805.562797,842.705048
226.214976,3701.029710,-13101.645173,-689.485948
226.215298,6957.935855,-11991.336260,-612.876398
226.215620,8142.265362,-8586.388927,383.047749
226.215942,8808.450710,-6513.812290,919.314598
226.216264,8586.388927,-5921.647536,1685.410096
226.216586,8068.244768,-5107.421000,1302.362347
226.216908,7402.059420,-5551.544565,-306.438199
226.217230,6661.853478,-7624.121203,-1608.800546
226.217552,4885.359217,-10436.903782,-1225.752797
226.217874,962.267725,-11473.192101,842.705048
226.218196,-1924.535449,-10510.924376,2374.896044
226.218518,-2664.741391,-9918.759623,76.609550
226.218840,-2442.679609,-10807.006753,-3600.648841
226.219162,-3775.050304,-11399.171507,-3830.477490
226.219484,-5625.565159,-9696.697840,-1608.800546
226.219806,-5181.441594,-7254.018232,-995.924147
226.220128,-3627.009116,-6735.874072,-2068.457845
226.220450,-3997.112087,-7920.203579,-2604.724693
226.220772,-6957.935855,-7994.224174,-2757.943793
226.221094,-9400.615463,-8142.265362,-4060.306139
226.221416,-7698.141797,-9696.697840,-5515.887586
226.221738,-4293.194464,-12065.356855,-6128.763984
226.222060,-2368.659014,-12731.542202,-3447.429741
226.222382,-962.267725,-12287.418637,229.828649
226.222704,1406.391290,-12287.418637,1302.362347
226.223026,3627.009116,-11547.212695,0.000000
226.223348,4663.297435,-10214.842000,-842.705048
226.223670,4441.235652,-8438.347739,0.000000
226.223992,4441.235652,-6735.874072,306.438199
226.224313,5181.441594,-6217.729913,-229.828649
226.224635,6143.709319,-6883.915261,-383.047749
226.224957,5477.523971,-7179.997637,0.000000
226.225279,3552.988522,-7698.141797,0.000000
226.225601,1480.411884,-8512.368333,-536.266849
226.225923,148.041188,-9844.739029,-459.657299
226.226245,0.000000,-11177.109724,-1225.752797
226.226567,-962.267725,-11399.171507,-2757.943793
226.226889,-2664.741391,-11473.192101,-1915.238745
226.227211,-5033.400406,-10510.924376,0.000000
226.227533,-6143.709319,-8438.347739,-766.095498
226.227854,-5403.503377,-6661.853478,-3524.039291
226.228176,-4737.318029,-8882.471304,-4290.134789
226.228498,-5773.606348,-9622.677246,-3217.601092
226.228820,-7698.141797,-7698.141797,-1685.410096
226.229142,-7994.224174,-5699.585753,-2298.286494
226.229463,-4959.379811,-7698.141797,-4596.572988
226.229785,-2590.720797,-11177.109724,-6435.202183
226.230107,-2516.700203,-12805.562797,-4519.963438
226.230429,-1702.473667,-13101.645173,0.000000
226.230751,1554.432478,-13175.665768,689.485948
226.231072,5033.400406,-12583.501014,-383.047749
226.231394,7105.977043,-11177.109724,-995.924147
226.231716,6809.894666,-9252.574275,153.219100
226.232038,6957.935855,-6587.832884,1149.143247
226.232360,7550.100608,-5551.544565,229.828649
226.232681,7550.100608,-6143.709319,-612.876398
226.233003,6661.853478,-6069.688724,0.000000
226.233325,4145.153275,-7624.121203,-459.657299
226.233647,1184.329507,-9696.697840,153.219100
226.233969,-1480.411884,-11251.130318,1455.581446
226.234290,-2590.720797,-10140.821405,0.000000
226.234612,-3108.864956,-9622.677246,-3217.601092
226.234934,-3478.967927,-11843.295072,-4366.744339
226.235256,-5181.441594,-11843.295072,-536.266849
226.235578,-5625.565159,-7772.162391,-153.219100
226.235899,-3923.091493,-6661.853478,-2451.505594
226.236221,-2664.741391,-8290.306550,-3600.648841
226.236543,-4885.359217,-10066.800811,-2451.505594
226.236865,-8882.471304,-9178.553681,-2221.676944
226.237187,-8956.491898,-7254.018232,-2911.162892
226.237509,-5107.421000,-9030.512492,-5132.839837
226.237830,-2072.576638,-11695.253884,-6358.592633
226.238152,-1332.370696,-12361.439231,-2911.162892
226.238474,0.000000,-12287.418637,1378.971896
226.238796,2590.720797,-12361.439231,1838.629195
226.239118,5255.462188,-12065.356855,459.657299
226.239439,5181.441594,-10066.800811,-306.438199
226.239761,3775.050304,-7476.080014,153.219100
226.240083,4293.194464,-6143.709319,995.924147
226.240405,4811.338623,-6291.750507,76.609550
226.240727,5181.441594,-7105.977043,-306.438199
226.241048,5107.421000,-7179.997637,-306.438199
226.241370,3478.967927,-8068.244768,-153.219100
226.241692,1406.391290,-9178.553681,-383.047749
226.242014,592.164754,-10362.883188,0.000000
226.242336,0.000000,-9918.759623,-995.924147
226.242657,-962.267725,-10214.842000,-3140.991542
226.242979,-3701.029710,-11695.253884,-2298.286494
226.243301,-6809.894666,-11325.150913,76.609550
226.243623,-7550.100608,-7698.141797,-612.876398
226.243945,-5625.565159,-6217.729913,-3677.258390
226.244266,-3627.009116,-8142.265362,-4826.401637
226.244588,-4811.338623,-8586.388927,-2451.505594
226.244910,-7772.162391,-6661.853478,-612.876398
226.245232,-7624.121203,-4737.318029,-1762.019645
226.245554,-4737.318029,-8364.327145,-5515.887586
226.245875,-3330.926739,-12879.583391,-7201.297681
226.246197,-3256.906145,-14434.015869,-3907.087040
226.246519,-1184.329507,-14952.160028,229.828649
226.246841,3256.906145,-14359.995275,383.047749
226.247163,7254.018232,-13471.748144,0.000000
226.247485,8586.388927,-11251.130318,0.000000
226.247806,8068.244768,-7476.080014,0.000000
226.248128,8068.244768,-5625.565159,0.000000
226.248450,7994.224174,-4885.359217,-153.219100
226.248772,6217.729913,-5107.421000,306.438199
226.249094,4515.256246,-5921.647536,306.438199
226.249415,3108.864956,-7994.224174,-766.095498
226.249737,1702.473667,-11695.253884,-919.314598
226.250059,74.020594,-11991.336260,229.828649
226.250381,-1036.288319,-9918.759623,306.438199
226.250703,-1850.514855,-9622.677246,-1532.190996
226.251024,-2738.761985,-11769.274478,-2068.457845
226.251346,-4959.379811,-10955.047942,-1762.019645
226.251668,-6069.688724,-7994.224174,-2451.505594
226.251990,-4737.318029,-7179.997637,-3447.429741
226.252312,-3478.967927,-8216.285956,-3524.039291
226.252633,-4885.359217,-8142.265362,-2145.067394
226.252955,-7105.977043,-7179.997637,-1225.752797
226.253277,-7328.038826,-7328.038826,-2834.553343
226.253599,-6217.729913,-9548.656652,-5362.668486
226.253921,-6143.709319,-10955.047942,-5515.887586
226.254242,-6513.812290,-10658.965565,-2681.334243
226.254564,-4071.132681,-11473.192101,-995.924147
226.254886,74.020594,-12805.562797,-919.314598
226.255208,3923.091493,-12213.398043,-689.485948
226.255530,5181.441594,-10066.800811,229.828649
226.255852,6069.688724,-8290.306550,919.314598
226.256173,7105.977043,-8512.368333,1072.533697
226.256495,6957.935855,-6883.915261,689.485948
226.256817,5403.503377,-4663.297435,689.485948
226.257139,4737.318029,-5403.503377,0.000000
226.257461,4885.359217,-8142.265362,-1608.800546
226.257782,4737.318029,-10658.965565,-2221.676944
226.258104,4219.173869,-10807.006753,0.000000
226.258426,3330.926739,-10807.006753,1838.629195
226.258748,2368.659014,-11621.233289,1762.019645
226.259070,74.020594,-10658.965565,-459.657299
226.259391,-3552.988522,-9326.594869,-2145.067394
226.259713,-6365.771101,-8290.306550,-3064.381992
226.260035,-6957.935855,-7846.182985,-4213.525239
226.260357,-6809.894666,-8142.265362,-4443.353888
226.260679,-7105.977043,-7105.977043,-2374.896044
226.261000,-7105.977043,-7179.997637,-1149.143247
226.261322,-6735.874072,-9326.594869,-2987.772442
226.261644,-6069.688724,-11917.315666,-5362.668486
226.261966,-6069.688724,-11547.212695,-4136.915689
226.262288,-5255.462188,-9770.718434,-2451.505594
226.262609,-2442.679609,-11177.109724,-2451.505594
226.262931,814.226536,-13323.706956,-2451.505594
226.263253,3552.988522,-12879.583391,-1225.752797
226.263575,5033.400406,-10584.944971,0.000000
226.263897,7105.977043,-9252.574275,1072.533697
226.264218,8734.430116,-9400.615463,1762.019645
226.264540,8290.306550,-6365.771101,995.924147
226.264862,6439.791695,-3108.864956,536.266849
226.265184,5403.503377,-4663.297435,-459.657299
226.265506,5329.482782,-8660.409521,-1838.629195
226.265828,3256.906145,-10658.965565,-1532.190996
226.266149,296.082377,-10732.986159,766.095498
226.266471,-740.205942,-11991.336260,1532.190996
226.266793,-592.164754,-13619.789333,612.876398
226.267115,-1554.432478,-11843.295072,-1149.143247
226.267437,-3552.988522,-8956.491898,-2298.286494
226.267758,-4293.194464,-6957.935855,-1915.238745
226.268080,-4441.235652,-6883.915261,-2451.505594
226.268402,-5181.441594,-6957.935855,-2528.115143
226.268724,-7031.956449,-5995.668130,-2528.115143
226.269046,-7772.162391,-6809.894666,-2604.724693
226.269367,-7624.121203,-9104.533087,-4213.525239
226.269689,-8290.306550,-11399.171507,-5132.839837
226.270011,-7920.203579,-11695.253884,-3983.696590
226.270333,-5847.626942,-11177.109724,-1915.238745
226.270655,-2516.700203,-11843.295072,-2068.457845
226.270976,74.020594,-12361.439231,-2451.505594
226.271298,1554.432478,-10807.006753,-1302.362347
226.271620,3997.112087,-9474.636058,0.000000
226.271942,5773.606348,-8586.388927,-153.219100
226.272264,7328.038826,-8512.368333,76.609550
226.272585,7328.038826,-6587.832884,1072.533697
226.272907,6365.771101,-4959.379811,1149.143247
226.273229,6883.915261,-6143.709319,-612.876398
226.273551,6587.832884,-8660.409521,-1532.190996
226.273873,4885.359217,-9696.697840,-1072.533697
226.274194,2442.679609,-10066.800811,0.000000
226.274516,1332.370696,-11399.171507,842.705048
226.274838,1110.308913,-12287.418637,306.438199
226.275160,-1036.288319,-12213.398043,-1685.410096
226.275482,-3997.112087,-10214.842000,-2068.457845
226.275804,-4737.318029,-8068.244768,-1991.848295
226.276125,-4589.276840,-6957.935855,-3217.601092
226.276447,-4737.318029,-6809.894666,-3830.477490
226.276769,-6365.771101,-6809.894666,-3524.039291
226.277091,-7846.182985,-7698.141797,-2528.115143
226.277413,-8364.327145,-9178.553681,-4290.134789
226.277734,-7994.224174,-11621.233289,-5439.278036
226.278056,-7179.997637,-13027.624579,-4673.182538
226.278378,-4959.379811,-12361.439231,-2834.553343
226.278700,-2146.597232,-12139.377449,-1608.800546
226.279022,740.205942,-12213.398043,-1532.190996
226.279343,3997.112087,-11251.130318,-383.047749
226.279665,6143.709319,-9030.512492,-229.828649
226.279987,7624.121203,-7550.100608,0.000000
226.280309,8660.409521,-7698.141797,995.924147
226.280631,8882.471304,-5995.668130,2298.286494
226.280952,7476.080014,-4441.235652,612.876398
226.281274,7105.977043,-6661.853478,-459.657299
226.281596,6217.729913,-9622.677246,-689.485948
226.281918,2812.782580,-10807.006753,-383.047749
226.282240,0.000000,-11029.068536,995.924147
226.282561,-592.164754,-11991.336260,1608.800546
226.282883,-370.102971,-12657.521608,-306.438199
226.283205,-1702.473667,-11769.274478,-1685.410096
226.283527,-4293.194464,-8956.491898,-1072.533697
226.283849,-4737.318029,-6957.935855,-612.876398
226.284170,-4663.297435,-6291.750507,-2374.896044
226.284492,-5255.462188,-6365.771101,-3677.258390
226.284814,-7179.997637,-5699.585753,-3294.210641
226.285136,-8586.388927,-6439.791695,-3677.258390
226.285458,-8512.368333,-9622.677246,-4366.744339
226.285780,-8364.327145,-12287.418637,-4673.182538
226.286101,-7476.080014,-13471.748144,-3447.429741
226.286423,-4811.338623,-13471.748144,-2298.286494
226.286745,-1702.473667,-13027.624579,-1838.629195
226.287067,1110.308913,-11769.274478,-612.876398
226.287389,2738.761985,-9844.739029,76.609550
226.287710,4219.173869,-7550.100608,76.609550
226.288032,5847.626942,-6957.935855,-536.266849
226.288354,6883.915261,-7031.956449,0.000000
226.288676,6513.812290,-6365.771101,919.314598
226.288998,5403.503377,-6291.750507,689.485948
226.289319,5551.544565,-7550.100608,0.000000
226.289641,5255.462188,-9030.512492,-842.705048
226.289963,3923.091493,-9992.780217,-689.485948
226.290285,2738.761985,-10362.883188,229.828649
226.290607,1924.535449,-9696.697840,-383.047749
226.290928,0.000000,-11399.171507,-1991.848295
226.291250,-2738.761985,-12139.377449,-1302.362347
226.291572,-5625.565159,-9622.677246,-1225.752797
226.291894,-5847.626942,-8068.244768,-3907.087040
226.292216,-4515.256246,-7772.162391,-5362.668486
226.292537,-5033.400406,-7772.162391,-4443.353888
226.292859,-6809.894666,-7550.100608,-2757.943793
226.293181,-7179.997637,-7402.059420,-3140.991542
226.293503,-5995.668130,-10140.821405,-5132.839837
226.293825,-4515.256246,-13027.624579,-5515.887586
226.294147,-4219.173869,-12361.439231,-3753.867940
226.294468,-2664.741391,-12065.356855,-1608.800546
226.294790,814.226536,-12805.562797,-1378.971896
226.295112,4589.276840,-13323.706956,-1532.190996
226.295434,6513.812290,-11251.130318,-459.657299
226.295756,7328.038826,-7920.203579,306.438199
226.296077,8438.347739,-7105.977043,1762.019645
226.296399,9548.656652,-6069.688724,1608.800546
226.296721,8438.347739,-4441.235652,-612.876398
226.297043,6439.791695,-5033.400406,-1225.752797
226.297365,4959.379811,-7550.100608,-383.047749
226.297686,2220.617826,-9474.636058,-536.266849
226.298008,-740.205942,-11251.130318,0.000000
226.298330,-2368.659014,-11991.336260,689.485948
226.298652,-2146.597232,-11843.295072,-689.485948
226.298974,-3034.844362,-11399.171507,-2298.286494
226.299295,-4589.276840,-10288.862594,-1225.752797
226.299617,-5477.523971,-7105.977043,0.000000
226.299939,-5329.482782,-5477.523971,-2221.676944
226.300261,-4737.318029,-6217.729913,-3753.867940
226.300583,-5995.668130,-7550.100608,-3600.648841
226.300904,-8586.388927,-7698.141797,-2911.162892
226.301226,-9104.533087,-7920.203579,-3294.210641
226.301548,-7105.977043,-10658.965565,-4673.182538
226.301870,-5329.482782,-13323.706956,-4749.792088
226.302192,-3923.091493,-13397.727550,-2374.896044
226.302513,-1628.453072,-12287.418637,-536.266849
226.302835,1110.308913,-11399.171507,-229.828649
226.303157,3552.988522,-11399.171507,-229.828649
226.303479,4367.215058,-9844.739029,536.266849
226.303801,4663.297435,-7254.018232,1149.143247
226.304123,5847.626942,-5773.606348,1225.752797
226.304444,6587.832884,-6291.750507,-153.219100
226.304766,5847.626942,-7254.018232,0.000000
226.305088,4663.297435,-7105.977043,383.047749
226.305410,3701.029710,-7698.141797,-459.657299
226.305732,3182.885551,-9770.718434,-1072.533697
226.306053,2294.638420,-11103.089130,0.000000
226.306375,296.082377,-10732.986159,-689.485948
226.306697,-962.267725,-10732.986159,-1762.019645
226.307019,-3256.906145,-12435.459826,-1685.410096
226.307341,-5625.565159,-11177.109724,-1378.971896
226.307662,-6957.935855,-7476.080014,-2604.724693
226.307984,-5625.565159,-6587.832884,-4366.744339
226.308306,-4071.132681,-7920.203579,-4366.744339
226.308628,-4737.318029,-8882.471304,-3294.210641
226.308950,-6069.688724,-7698.141797,-1762.019645
226.309271,-5847.626942,-7105.977043,-2451.505594
226.309593,-4441.235652,-9770.718434,-4060.306139
226.309915,-3478.967927,-11695.253884,-4213.525239
226.310237,-3034.844362,-11177.109724,-2681.334243
226.310559,-444.123565,-11991.336260,-2068.457845
226.310880,4515.256246,-13989.892304,-1685.410096
226.311202,7772.162391,-14211.954086,-229.828649
226.311524,8216.285956,-11325.150913,919.314598
226.311846,8216.285956,-8956.491898,1608.800546
226.312168,9622.677246,-7624.121203,1455.581446
226.312489,9326.594869,-5477.523971,-612.876398
226.312811,6365.771101,-3849.070898,-1455.581446
226.313133,4219.173869,-5329.482782,76.609550
226.313455,2442.679609,-7254.018232,-153.219100
226.313777,1184.329507,-9474.636058,-766.095498
226.314099,0.000000,-10732.986159,0.000000
226.314420,-1480.411884,-11177.109724,153.219100
226.314742,-2220.617826,-11251.130318,-536.266849
226.315064,-4293.194464,-11695.253884,-1762.019645
226.315386,-6291.750507,-9844.739029,-1532.190996
226.315708,-6809.894666,-7105.977043,-2757.943793
226.316029,-6217.729913,-6439.791695,-5132.839837
226.316351,-5329.482782,-7698.141797,-5056.230287
226.316673,-6143.709319,-8512.368333,-2911.162892
226.316995,-7772.162391,-9474.636058,-2298.286494
226.317317,-7846.182985,-10288.862594,-3370.820191
226.317638,-6587.832884,-11843.295072,-4673.182538
226.317960,-5181.441594,-12213.398043,-4366.744339
226.318282,-3404.947333,-11473.192101,-2757.943793
226.318604,-1258.350101,-11103.089130,-1532.190996
226.318926,1702.473667,-11769.274478,-229.828649
226.319247,4071.132681,-11325.150913,995.924147
226.319569,4737.318029,-8956.491898,1072.533697
226.319891,5329.482782,-6513.812290,995.924147
226.320213,7105.977043,-7254.018232,-229.828649
226.320535,6661.853478,-7624.121203,-306.438199
226.320856,4589.276840,-6291.750507,229.828649
226.321178,3182.885551,-5699.585753,612.876398
226.321500,3404.947333,-8216.285956,-1608.800546
226.321822,3182.885551,-11325.150913,-2757.943793
226.322144,1184.329507,-11695.253884,-1302.362347
226.322466,-1036.288319,-10066.800811,0.000000
226.322787,-2294.638420,-10584.944971,-306.438199
226.323109,-4219.173869,-11029.068536,-842.705048
226.323431,-7179.997637,-7772.162391,-1685.410096
226.323753,-8364.327145,-6587.832884,-3524.039291
226.324075,-6957.935855,-7624.121203,-4443.353888
226.324396,-5255.462188,-9030.512492,-3830.477490
226.324718,-5107.421000,-7920.203579,-2604.724693
226.325040,-5477.523971,-7105.977043,-1302.362347
226.325362,-4441.235652,-9178.553681,-1915.238745
226.325684,-4071.132681,-11029.068536,-3830.477490
226.326005,-3701.029710,-11399.171507,-4060.306139
226.326327,-1850.514855,-11325.150913,-2757.943793
226.326649,2220.617826,-13249.686362,-2681.334243
226.326971,5773.606348,-14582.057057,-1378.971896
226.327293,8290.306550,-13619.789333,1991.848295
226.327614,9326.594869,-10140.821405,3983.696590
226.327936,10658.965565,-7402.059420,2604.724693
226.328258,11177.109724,-6365.771101,459.657299
226.328580,8882.471304,-4589.276840,-1149.143247
226.328902,5403.503377,-3997.112087,-459.657299
226.329223,3108.864956,-4737.318029,-459.657299
226.329545,2294.638420,-7254.018232,-1608.800546
226.329867,518.144159,-10140.821405,-1532.190996
226.330189,-2072.576638,-11843.295072,-153.219100
226.330510,-3923.091493,-12287.418637,842.705048
226.330832,-4071.132681,-12805.562797,-1455.581446
226.331154,-4811.338623,-11917.315666,-2834.553343
226.331476,-5773.606348,-8660.409521,-2681.334243
226.331797,-5995.668130,-5847.626942,-3217.601092
226.332119,-5107.421000,-5921.647536,-4366.744339
226.332441,-5181.441594,-7328.038826,-3677.258390
226.332762,-6587.832884,-9252.574275,-2987.772442
226.333084,-7698.141797,-9474.636058,-2834.553343
226.333406,-6883.915261,-11251.130318,-3907.087040
226.333728,-5403.503377,-13619.789333,-4519.963438
226.334049,-3997.112087,-12657.521608,-2681.334243
226.334371,-2368.659014,-10732.986159,-1149.143247
226.334693,592.164754,-10732.986159,-842.705048
226.335015,3627.009116,-11473.192101,-229.828649
226.335336,4441.235652,-10140.821405,459.657299
226.335658,4441.235652,-8068.244768,1225.752797
226.335980,5551.544565,-7920.203579,1762.019645
226.336301,6957.935855,-8216.285956,459.657299
226.336623,6291.750507,-7550.100608,-1072.533697
226.336945,4737.318029,-6069.688724,-153.219100
226.337267,4663.297435,-7105.977043,0.000000
226.337588,4071.132681,-8512.368333,-1302.362347
226.337910,2960.823768,-10732.986159,-1838.629195
226.338232,518.144159,-9918.759623,-306.438199
226.338554,-1184.329507,-8882.471304,-689.485948
226.338875,-3034.844362,-10362.883188,-2451.505594
226.339197,-6217.729913,-11103.089130,-2451.505594
226.339519,-9252.574275,-8586.388927,-1991.848295
226.339840,-9104.533087,-7550.100608,-3600.648841
226.340162,-6661.853478,-8882.471304,-4519.963438
226.340484,-5403.503377,-8216.285956,-2834.553343
226.340806,-5699.585753,-6513.812290,-2221.676944
226.341127,-5403.503377,-6883.915261,-2374.896044
226.341449,-4367.215058,-9104.533087,-3140.991542
226.341771,-4071.132681,-11177.109724,-3907.087040
226.342093,-3552.988522,-11029.068536,-3217.601092
226.342414,-1628.453072,-11621.233289,-1838.629195
226.342736,2664.741391,-13841.851115,-2221.676944
226.343058,6291.750507,-14063.912898,-1378.971896
226.343379,8290.306550,-12583.501014,1378.971896
226.343701,9104.533087,-9918.759623,3370.820191
226.344023,9844.739029,-8068.244768,2834.553343
226.344345,9696.697840,-5181.441594,842.705048
226.344666,7994.224174,-3478.967927,-1838.629195
226.344988,5625.565159,-4367.215058,-1302.362347
226.345310,4219.173869,-6587.832884,-919.314598
226.345632,2294.638420,-8808.450710,-842.705048
226.345953,444.123565,-10584.944971,536.266849
226.346275,-1110.308913,-11991.336260,842.705048
226.346597,-1924.535449,-12583.501014,-842.705048
226.346918,-2886.803174,-12509.480420,-2987.772442
226.347240,-4441.235652,-11325.150913,-2451.505594
226.347562,-5403.503377,-8216.285956,-2374.896044
226.347884,-5477.523971,-6069.688724,-2911.162892
226.348205,-5847.626942,-6661.853478,-3677.258390
226.348527,-6217.729913,-8290.306550,-3294.210641
226.348849,-8142.265362,-8956.491898,-3217.601092
226.349171,-8808.450710,-10288.862594,-3600.648841
226.349492,-7920.203579,-12139.377449,-4290.134789
226.349814,-6883.915261,-11621.233289,-3064.381992
226.350136,-5625.565159,-9992.780217,-2145.067394
226.350457,-3182.885551,-9696.697840,-1685.410096
226.350779,74.020594,-10955.047942,-1838.629195
226.351101,2294.638420,-11769.274478,-1149.143247
226.351423,3404.947333,-10732.986159,612.876398
226.351744,3997.112087,-9252.574275,1838.629195
226.352066,5773.606348,-8660.409521,1915.238745
226.352388,6957.935855,-7031.956449,459.657299
226.352710,6587.832884,-4737.318029,-995.924147
226.353031,5329.482782,-4441.235652,-1072.533697
226.353353,5403.503377,-7402.059420,76.609550
226.353675,4959.379811,-9030.512492,-612.876398
226.353996,3627.009116,-10584.944971,-689.485948
226.354318,2368.659014,-11103.089130,306.438199
226.354640,888.247130,-10584.944971,229.828649
226.354962,-2442.679609,-10214.842000,-1762.019645
226.355283,-5847.626942,-10362.883188,-1762.019645
226.355605,-8512.368333,-8586.388927,-1149.143247
226.355927,-8956.491898,-7179.997637,-3524.039291
226.356249,-7402.059420,-7698.141797,-4979.620737
226.356570,-5699.585753,-7772.162391,-2834.553343
226.356892,-4811.338623,-7476.080014,-2221.676944
226.357214,-5329.482782,-9400.615463,-2451.505594
226.357535,-4885.359217,-10732.986159,-2528.115143
226.357857,-5329.482782,-9696.697840,-2834.553343
226.358179,-5403.503377,-9104.533087,-3294.210641
226.358501,-2738.761985,-11917.315666,-4673.182538
226.358822,1184.329507,-14211.954086,-4136.915689
226.359144,4441.235652,-14211.954086,-3064.381992
226.359466,6735.874072,-12731.542202,689.485948
226.359788,9178.553681,-11547.212695,3830.477490
226.360109,11399.171507,-9030.512492,1455.581446
226.360431,11029.068536,-5847.626942,-689.485948
226.360753,8660.409521,-4071.132681,-383.047749
226.361074,5477.523971,-3404.947333,612.876398
226.361396,3330.926739,-5255.462188,-536.266849
226.361718,2664.741391,-8586.388927,-1685.410096
226.362040,2368.659014,-11547.212695,-919.314598
226.362361,1998.556043,-13841.851115,842.705048
226.362683,1036.288319,-14508.036463,1149.143247
226.363005,-296.082377,-13619.789333,1072.533697
226.363327,-2368.659014,-9622.677246,766.095498
226.363648,-4293.194464,-6587.832884,-1991.848295
226.363970,-6291.750507,-4885.359217,-4673.182538
226.364292,-7846.182985,-5995.668130,-5515.887586
226.364613,-9252.574275,-7254.018232,-4213.525239
226.364935,-9918.759623,-8290.306550,-3140.991542
226.365257,-8808.450710,-10436.903782,-2834.553343
226.365579,-7402.059420,-13619.789333,-3983.696590
226.365900,-7698.141797,-14063.912898,-3830.477490
226.366222,-7031.956449,-11843.295072,-2757.943793
226.366544,-4663.297435,-9992.780217,-2298.286494
226.366866,-1776.494261,-10214.842000,-2834.553343
226.367187,0.000000,-9474.636058,-2221.676944
226.367509,1184.329507,-8216.285956,-229.828649
226.367831,3182.885551,-7105.977043,1302.362347
226.368152,5921.647536,-8068.244768,1149.143247
226.368474,7179.997637,-8438.347739,766.095498
226.368796,6735.874072,-6587.832884,919.314598
226.369118,5921.647536,-5699.585753,919.314598
226.369439,6217.729913,-7179.997637,0.000000
226.369761,6217.729913,-8586.388927,-1302.362347
226.370083,5551.544565,-9178.553681,-1378.971896
226.370405,4589.276840,-9548.656652,229.828649
226.370726,3034.844362,-10955.047942,459.657299
226.371048,592.164754,-12435.459826,153.219100
226.371370,-3330.926739,-11843.295072,0.000000
226.371691,-6217.729913,-9252.574275,-1838.629195
226.372013,-6735.874072,-7179.997637,-4443.353888
226.372335,-6143.709319,-7476.080014,-5209.449386
226.372657,-6735.874072,-7105.977043,-3907.087040
226.372978,-7179.997637,-7105.977043,-2681.334243
226.373300,-6365.771101,-8364.327145,-3140.991542
226.373622,-5255.462188,-11325.150913,-4060.306139
226.373944,-5551.544565,-12583.501014,-3753.867940
226.374265,-5403.503377,-11769.274478,-3294.210641
226.374587,-3034.844362,-11843.295072,-2834.553343
226.374909,1110.308913,-13175.665768,-2987.772442
226.375230,3923.091493,-13175.665768,-1991.848295
226.375552,6143.709319,-11177.109724,536.266849
226.375874,8068.244768,-8290.306550,1072.533697
226.376196,9992.780217,-8068.244768,842.705048
226.376517,10584.944971,-7031.956449,459.657299
226.376839,8586.388927,-4293.194464,0.000000
226.377161,6513.812290,-4959.379811,-842.705048
226.377483,5551.544565,-8068.244768,76.609550
226.377804,4145.153275,-10066.800811,-383.047749
226.378126,2294.638420,-11103.089130,-153.219100
226.378448,1554.432478,-12435.459826,842.705048
226.378769,1184.329507,-13323.706956,842.705048
226.379091,-444.123565,-11991.336260,153.219100
226.379413,-2960.823768,-9178.553681,-306.438199
226.379735,-4367.215058,-7031.956449,-1532.190996
226.380056,-5329.482782,-5995.668130,-3677.258390
226.380378,-6735.874072,-6513.812290,-4673.182538
226.380700,-8808.450710,-6661.853478,-3370.820191
226.381022,-9844.739029,-7624.121203,-3677.258390
226.381343,-9326.594869,-10436.903782,-3753.867940
226.381665,-8512.368333,-12805.562797,-4060.306139
226.381987,-8512.368333,-13175.665768,-2911.162892
226.382308,-6883.915261,-11399.171507,-2145.067394
226.382630,-4071.132681,-10584.944971,-2145.067394
226.382952,-666.185348,-10807.006753,-2374.896044
226.383274,1184.329507,-10510.924376,-1149.143247
226.383595,2072.576638,-8512.368333,0.000000
226.383917,4219.173869,-7105.977043,1302.362347
226.384239,6513.812290,-7254.018232,1991.848295
226.384561,7031.956449,-6957.935855,689.485948
226.384882,5847.626942,-5403.503377,0.000000
226.385204,5329.482782,-6291.750507,-612.876398
226.385526,5403.503377,-8586.388927,-536.266849
226.385848,4811.338623,-9992.780217,-1072.533697
226.386169,3775.050304,-10584.944971,76.609550
226.386491,2368.659014,-11029.068536,459.657299
226.386813,1036.288319,-11843.295072,-306.438199
226.387134,-1702.473667,-12213.398043,-995.924147
226.387456,-4959.379811,-10732.986159,-842.705048
226.387778,-6661.853478,-7254.018232,-1915.238745
226.388100,-5551.544565,-7254.018232,-4673.182538
226.388421,-5255.462188,-7624.121203,-4673.182538
226.388743,-5847.626942,-7846.182985,-2834.553343
226.389065,-7179.997637,-7920.203579,-2604.724693
226.389387,-7031.956449,-9548.656652,-2681.334243
226.389708,-5921.647536,-10881.027347,-3294.210641
226.390030,-5551.544565,-11473.192101,-4366.744339
226.390352,-3627.009116,-11547.212695,-3830.477490
226.390673,0.000000,-12287.418637,-2911.162892
226.390995,3404.947333,-13249.686362,-2374.896044
226.391317,5773.606348,-12213.398043,0.000000
226.391639,7105.977043,-10066.800811,2221.676944
226.391960,8290.306550,-7920.203579,1532.190996
226.392282,9326.594869,-6217.729913,229.828649
226.392604,8586.388927,-4367.215058,-612.876398
226.392926,6513.812290,-3923.091493,-689.485948
226.393247,5181.441594,-5773.606348,-536.266849
226.393569,4441.235652,-8586.388927,-459.657299
226.393891,2664.741391,-10807.006753,0.000000
226.394212,888.247130,-12065.356855,1072.533697
226.394534,-962.267725,-11917.315666,229.828649
226.394856,-1924.535449,-11843.295072,-919.314598
226.395178,-3330.926739,-11029.068536,-1532.190996
226.395499,-5181.441594,-9178.553681,-1762.019645
226.395821,-5995.668130,-7105.977043,-2911.162892
226.396143,-5625.565159,-7105.977043,-4290.134789
226.396465,-5773.606348,-8808.450710,-4060.306139
226.396786,-6809.894666,-9844.739029,-3524.039291
226.397108,-7476.080014,-10140.821405,-3600.648841
226.397430,-7624.121203,-11399.171507,-3600.648841
226.397751,-6365.771101,-11843.295072,-3064.381992
226.398073,-4663.297435,-11103.089130,-3370.820191
226.398395,-2146.597232,-9770.718434,-3907.087040
226.398717,518.144159,-11621.233289,-2681.334243
226.399038,2146.597232,-11991.336260,0.000000
226.399360,2368.659014,-9992.780217,1455.581446
226.399682,3404.947333,-8068.244768,2221.676944
226.400004,5477.523971,-6957.935855,1225.752797
226.400325,5995.668130,-6217.729913,-1532.190996
226.400647,5033.400406,-5847.626942,-1302.362347
226.400969,4145.153275,-5551.544565,229.828649
226.401290,3923.091493,-7476.080014,76.609550
226.401612,4367.215058,-9548.656652,-612.876398
226.401934,2886.803174,-10658.965565,-536.266849
226.402256,740.205942,-10066.800811,-153.219100
226.402577,-296.082377,-10140.821405,-1072.533697
226.402899,-2294.638420,-10732.986159,-1838.629195
226.403221,-4959.379811,-11029.068536,-1455.581446
226.403543,-7476.080014,-9326.594869,-689.485948
226.403864,-7254.018232,-8586.388927,-2451.505594
226.404186,-5181.441594,-7846.182985,-3753.867940
226.404508,-4367.215058,-8290.306550,-4213.525239
226.404829,-4737.318029,-8734.430116,-2987.772442
226.405151,-5699.585753,-8660.409521,-1915.238745
226.405473,-5699.585753,-9400.615463,-1225.752797
226.405795,-4737.318029,-10732.986159,-3447.429741
226.406116,-2738.761985,-11547.212695,-4060.306139
226.406438,444.123565,-12435.459826,-4136.915689
226.406760,3182.885551,-13989.892304,-2681.334243
226.407082,5847.626942,-14211.954086,1378.971896
226.407403,7402.059420,-11843.295072,4366.744339
226.407725,8808.450710,-8438.347739,2987.772442
226.408047,10288.862594,-5773.606348,-153.219100
226.408368,9326.594869,-5033.400406,-1762.019645
226.408690,5847.626942,-4737.318029,-842.705048
226.409012,2368.659014,-3775.050304,76.609550
226.409334,2220.617826,-5847.626942,-766.095498
226.409655,2220.617826,-9844.739029,-1915.238745
226.409977,592.164754,-12805.562797,-842.705048
226.410299,-1776.494261,-12213.398043,536.266849
226.410621,-2664.741391,-11843.295072,-689.485948
226.410942,-2516.700203,-11917.315666,-1378.971896
226.411264,-4589.276840,-10584.944971,-2451.505594
226.411586,-6365.771101,-7476.080014,-3064.381992
226.411907,-6587.832884,-6439.791695,-3753.867940
226.412229,-5477.523971,-7772.162391,-4290.134789
226.412551,-4441.235652,-8956.491898,-3830.477490
226.412873,-5477.523971,-9104.533087,-2451.505594
226.413194,-6291.750507,-9252.574275,-1991.848295
226.413516,-5921.647536,-10510.924376,-2528.115143
226.413838,-4885.359217,-11547.212695,-4290.134789
226.414160,-3108.864956,-10510.924376,-3983.696590
226.414481,-370.102971,-10658.965565,-2911.162892
226.414803,2368.659014,-11991.336260,-1762.019645
226.415125,3775.050304,-12065.356855,1072.533697
226.415446,4737.318029,-10436.903782,2757.943793
226.415768,6143.709319,-8734.430116,1072.533697
226.416090,7105.977043,-8068.244768,-689.485948
226.416412,6365.771101,-7105.977043,-1072.533697
226.416733,3627.009116,-5625.565159,153.219100
226.417055,2368.659014,-5255.462188,153.219100
226.417377,3627.009116,-7550.100608,-1225.752797
226.417699,3775.050304,-9918.759623,-2221.676944
226.418020,1924.535449,-10510.924376,-995.924147
226.418342,-1036.288319,-9326.594869,689.485948
226.418664,-2442.679609,-9548.656652,0.000000
226.418985,-4219.173869,-10807.006753,-2374.896044
226.419307,-7105.977043,-10658.965565,-3294.210641
226.419629,-9622.677246,-8660.409521,-3217.601092
226.419951,-8364.327145,-8290.306550,-4213.525239
226.420272,-5625.565159,-8216.285956,-4903.011187
226.420594,-3997.112087,-8290.306550,-3600.648841
226.420916,-3552.988522,-8734.430116,-2298.286494
226.421238,-4145.153275,-9474.636058,-1991.848295
226.421559,-4293.194464,-11029.068536,-2528.115143
226.421881,-3182.885551,-10510.924376,-4290.134789
226.422203,-1184.329507,-10881.027347,-4060.306139
226.422524,2146.597232,-12509.480420,-3600.648841
226.422846,4367.215058,-13767.830521,-1225.752797
226.423168,6365.771101,-13545.768739,2221.676944
226.423490,8216.285956,-10584.944971,4213.525239
226.423811,9696.697840,-7994.224174,2145.067394
226.424133,10436.903782,-6513.812290,-229.828649
226.424455,8216.285956,-4515.256246,-995.924147
226.424777,4441.235652,-3701.029710,536.266849
226.425098,2146.597232,-4441.235652,536.266849
226.425420,2220.617826,-7031.956449,-1455.581446
226.425742,1184.329507,-10658.965565,-2528.115143
226.426063,-1258.350101,-13397.727550,-842.705048
226.426385,-3108.864956,-13767.830521,995.924147
226.426707,-3478.967927,-12805.562797,0.000000
226.427029,-3552.988522,-11695.253884,-1455.581446
226.427350,-5033.400406,-9474.636058,-2528.115143
226.427672,-6809.894666,-6513.812290,-2757.943793
226.427994,-7402.059420,-5699.585753,-3677.258390
226.428316,-6291.750507,-7550.100608,-3217.601092
226.428637,-5995.668130,-8068.244768,-2987.772442
226.428959,-5847.626942,-8734.430116,-2451.505594
226.429281,-5033.400406,-9548.656652,-2451.505594
226.429603,-4737.318029,-11769.274478,-2528.115143
226.429925,-3923.091493,-11769.274478,-2221.676944
226.430246,-2442.679609,-10214.842000,-1608.800546
226.430568,0.000000,-10140.821405,-1915.238745
226.430890,2294.638420,-11695.253884,-1685.410096
226.431212,3701.029710,-11843.295072,536.266849
226.431534,4071.132681,-9770.718434,2298.286494
226.431856,5625.565159,-8808.450710,2145.067394
226.432177,7328.038826,-7994.224174,306.438199
226.432499,7254.018232,-6883.915261,-1532.190996
226.432821,5033.400406,-5551.544565,-229.828649
226.433143,3775.050304,-5477.523971,383.047749
226.433465,2442.679609,-7846.182985,-1532.190996
226.433787,1628.453072,-9844.739029,-1991.848295
226.434109,-518.144159,-10807.006753,-766.095498
226.434430,-2812.782580,-11251.130318,-689.485948
226.434752,-3182.885551,-11991.336260,-1532.190996
226.435074,-5033.400406,-11917.315666,-1838.629195
226.435396,-7179.997637,-9474.636058,-1455.581446
226.435718,-7550.100608,-6439.791695,-2298.286494
226.436040,-6365.771101,-6069.688724,-4290.134789
226.436362,-4737.318029,-6809.894666,-4749.792088
226.436683,-5699.585753,-6735.874072,-3830.477490
226.437005,-5921.647536,-8142.265362,-2834.553343
226.437327,-5255.462188,-10584.944971,-3370.820191
226.437649,-4145.153275,-13027.624579,-3753.867940
226.437971,-3256.906145,-12509.480420,-2911.162892
226.438293,-888.247130,-11325.150913,-2221.676944
226.438614,2442.679609,-12065.356855,-2068.457845
226.438936,5847.626942,-13175.665768,-1991.848295
226.439258,7105.977043,-12065.356855,0.000000
226.439580,7698.141797,-9992.780217,1991.848295
226.439902,8512.368333,-7920.203579,2757.943793
226.440224,9474.636058,-6809.894666,1608.800546
226.440546,8512.368333,-4441.235652,0.000000
226.440867,6217.729913,-3923.091493,-1302.362347
226.441189,4663.297435,-6143.709319,-459.657299
226.441511,3404.947333,-8438.347739,-153.219100
226.441833,888.247130,-9474.636058,0.000000
226.442155,-1184.329507,-11695.253884,229.828649
226.442477,-2368.659014,-13101.645173,-306.438199
226.442799,-3256.906145,-12953.603985,-1762.019645
226.443120,-4811.338623,-11399.171507,-2451.505594
226.443442,-6069.688724,-8586.388927,-1762.019645
226.443764,-5403.503377,-6883.915261,-2528.115143
226.444086,-5255.462188,-6439.791695,-3983.696590
226.444408,-5477.523971,-7105.977043,-3983.696590
226.444730,-6883.915261,-7254.018232,-2911.162892
226.445051,-7031.956449,-8290.306550,-2757.943793
226.445373,-6439.791695,-10288.862594,-4366.744339
226.445695,-5477.523971,-12805.562797,-3907.087040
226.446017,-4589.276840,-11917.315666,-1608.800546
226.446339,-2294.638420,-11251.130318,-995.924147
226.446661,1110.308913,-12139.377449,-1302.362347
226.446983,4663.297435,-12287.418637,-306.438199
226.447304,5255.462188,-10436.903782,306.438199
226.447626,4737.318029,-9104.533087,1378.971896
226.447948,5921.647536,-8808.450710,2681.334243
226.448270,6587.832884,-7550.100608,919.314598
226.448592,5551.544565,-6069.688724,-1991.848295
226.448914,4145.153275,-5403.503377,-919.314598
226.449236,3108.864956,-7476.080014,-306.438199
226.449557,2146.597232,-9178.553681,-919.314598
226.449879,1406.391290,-9474.636058,-383.047749
226.450201,222.061783,-9474.636058,0.000000
226.450523,-1036.288319,-9770.718434,-1225.752797
226.450845,-2220.617826,-11547.212695,-2374.896044
226.451167,-5847.626942,-11695.253884,-1608.800546
226.451488,-7994.224174,-8956.491898,-1072.533697
226.451810,-7476.080014,-7179.997637,-3370.820191
226.452132,-5403.503377,-7402.059420,-5669.106685
226.452454,-5255.462188,-7179.997637,-4060.306139
226.452776,-5773.606348,-6661.853478,-2451.505594
226.453098,-5477.523971,-8290.306550,-2451.505594
226.453420,-4293.194464,-10807.006753,-3600.648841
226.453741,-3627.009116,-11695.253884,-3294.210641
226.454063,-3997.112087,-11399.171507,-2298.286494
226.454385,-2368.659014,-12139.377449,-1608.800546
226.454707,1184.329507,-13175.665768,-2221.676944
226.455029,5329.482782,-13471.748144,-2298.286494
226.455351,7254.018232,-11621.233289,229.828649
226.455673,8142.265362,-9770.718434,1991.848295
226.455994,9696.697840,-8438.347739,2145.067394
226.456316,10510.924376,-6883.915261,306.438199
226.456638,8660.409521,-4515.256246,-612.876398
226.456960,5921.647536,-3997.112087,229.828649
226.457282,4145.153275,-5773.606348,0.000000
226.457604,2220.617826,-7920.203579,-1302.362347
226.457925,1406.391290,-10584.944971,-1225.752797
226.458247,1332.370696,-12287.418637,-842.705048
226.458569,444.123565,-13397.727550,-689.485948
226.458891,-814.226536,-13249.686362,-229.828649
226.459213,-2442.679609,-11103.089130,0.000000
226.459535,-4589.276840,-7328.038826,-1762.019645
226.459857,-5329.482782,-5847.626942,-4366.744339
226.460178,-6143.709319,-6957.935855,-5362.668486
226.460500,-7698.141797,-7476.080014,-4060.306139
226.460822,-8512.368333,-6661.853478,-2068.457845
226.461144,-6957.935855,-8956.491898,-2298.286494
226.461466,-5329.482782,-12139.377449,-3983.696590
226.461788,-5403.503377,-13397.727550,-3447.429741
226.462109,-5699.585753,-11399.171507,-1532.190996
226.462431,-3627.009116,-10510.924376,-1685.410096
226.462753,0.000000,-11695.253884,-2987.772442
226.463075,2442.679609,-12213.398043,-2681.334243
226.463397,3034.844362,-10140.821405,-995.924147
226.463719,3923.091493,-8364.327145,1149.143247
226.464041,5921.647536,-9252.574275,2068.457845
226.464362,7105.977043,-7772.162391,1455.581446
226.464684,5847.626942,-5329.482782,-536.266849
226.465006,4441.235652,-5403.503377,-153.219100
226.465328,4145.153275,-7698.141797,-842.705048
226.465650,3627.009116,-9622.677246,-1915.238745
226.465972,2294.638420,-9474.636058,-1225.752797
226.466294,1258.350101,-9844.739029,0.000000
226.466615,74.020594,-11399.171507,766.095498
226.466937,-1406.391290,-12139.377449,-766.095498
226.467259,-4219.173869,-10807.006753,-1455.581446
226.467581,-6661.853478,-9030.512492,-1378.971896
226.467903,-7105.977043,-6661.853478,-2145.067394
226.468225,-6809.894666,-6217.729913,-4213.525239
226.468546,-7031.956449,-5477.523971,-3447.429741
226.468868,-7328.038826,-5181.441594,-2221.676944
226.469190,-7031.956449,-7698.141797,-3140.991542
226.469512,-5921.647536,-11695.253884,-4673.182538
226.469834,-5921.647536,-13619.789333,-3830.477490
226.470156,-5403.503377,-12879.583391,-1378.971896
226.470478,-2960.823768,-11843.295072,-1532.190996
226.470799,592.164754,-12435.459826,-2681.334243
226.471121,2960.823768,-11991.336260,-2528.115143
226.471443,4737.318029,-10584.944971,-1072.533697
226.471765,6957.935855,-8956.491898,995.924147
226.472087,9104.533087,-8364.327145,536.266849
226.472409,9474.636058,-7402.059420,383.047749
226.472731,8290.306550,-5255.462188,995.924147
226.473052,7031.956449,-3923.091493,536.266849
226.473374,5773.606348,-6587.832884,-1225.752797
226.473696,4811.338623,-9696.697840,-1762.019645
226.474018,2960.823768,-11325.150913,-689.485948
226.474340,814.226536,-11843.295072,689.485948
226.474662,222.061783,-13471.748144,1149.143247
226.474983,-888.247130,-13101.645173,306.438199
226.475305,-3034.844362,-10807.006753,-1532.190996
226.475627,-4811.338623,-7402.059420,-2451.505594
226.475949,-5699.585753,-6217.729913,-3677.258390
226.476271,-6143.709319,-6217.729913,-4673.182538
226.476593,-6957.935855,-6883.915261,-4519.963438
226.476915,-7624.121203,-7179.997637,-3140.991542
226.477236,-7105.977043,-9474.636058,-3524.039291
226.477558,-6365.771101,-12657.521608,-4673.182538
226.477880,-6513.812290,-14359.995275,-3600.648841
226.478202,-5551.544565,-12805.562797,-1378.971896
226.478524,-3034.844362,-10510.924376,-1225.752797
226.478846,518.144159,-11399.171507,-2911.162892
226.479168,2886.803174,-11399.171507,-2145.067394
226.479489,3478.967927,-9104.533087,-153.219100
226.479811,4219.173869,-7105.977043,612.876398
226.480133,6069.688724,-7920.203579,2221.676944
226.480455,7254.018232,-8142.265362,1685.410096
226.480777,5699.585753,-5847.626942,-153.219100
226.481099,4811.338623,-5699.585753,-1072.533697
226.481420,5477.523971,-7846.182985,-842.705048
226.481742,4811.338623,-9474.636058,-1455.581446
226.482064,3330.926739,-9770.718434,-689.485948
226.482386,962.267725,-9992.780217,1149.143247
226.482708,0.000000,-11547.212695,612.876398
226.483030,-1406.391290,-12657.521608,-1608.800546
226.483352,-4515.256246,-11769.274478,-2221.676944
226.483673,-6513.812290,-8068.244768,-1072.533697
226.483995,-6069.688724,-5995.668130,-2451.505594
226.484317,-5773.606348,-5847.626942,-3447.429741
226.484639,-6365.771101,-5181.441594,-2757.943793
226.484961,-7328.038826,-5625.565159,-2911.162892
226.485283,-7031.956449,-8956.491898,-4290.134789
226.485605,-6735.874072,-12731.542202,-4290.134789
226.485926,-6587.832884,-13693.809927,-1915.238745
226.486248,-5181.441594,-11843.295072,-1072.533697
226.486570,-962.267725,-12509.480420,-2298.286494
226.486892,3997.112087,-13397.727550,-3064.381992
226.487214,5921.647536,-12435.459826,-2068.457845
226.487536,6587.832884,-9992.780217,306.438199
226.487857,8512.368333,-8734.430116,1991.848295
226.488179,9992.780217,-7920.203579,1762.019645
226.488501,9548.656652,-5033.400406,459.657299
226.488823,7328.038826,-3108.864956,0.000000
226.489145,5403.503377,-4663.297435,-842.705048
226.489467,3849.070898,-8068.244768,-1762.019645
226.489789,1998.556043,-10436.903782,-919.314598
226.490110,-370.102971,-10807.006753,766.095498
226.490432,-2072.576638,-11399.171507,766.095498
226.490754,-2442.679609,-12583.501014,-229.828649
226.491076,-3627.009116,-11843.295072,-1915.238745
226.491398,-5625.565159,-8808.450710,-2834.553343
226.491720,-6587.832884,-7179.997637,-3064.381992
226.492041,-6365.771101,-6661.853478,-4060.306139
226.492363,-6439.791695,-6587.832884,-4443.353888
226.492685,-6809.894666,-7105.977043,-4366.744339
226.493007,-6513.812290,-9030.512492,-4290.134789
226.493329,-5847.626942,-12361.439231,-4290.134789
226.493651,-5773.606348,-13323.706956,-2528.115143
226.493973,-5107.421000,-11695.253884,-1378.971896
226.494294,-2738.761985,-10881.027347,-1685.410096
226.494616,1184.329507,-11917.315666,-3140.991542
226.494938,3923.091493,-12657.521608,-2374.896044
226.495260,4367.215058,-10584.944971,383.047749
226.495582,4145.153275,-7698.141797,3217.601092
226.495904,5921.647536,-7179.997637,3753.867940
226.496226,6883.915261,-6587.832884,766.095498
226.496547,5921.647536,-5625.565159,-1225.752797
226.496869,4071.132681,-6143.709319,-1302.362347
226.497191,3478.967927,-7550.100608,-536.266849
226.497513,2886.803174,-8660.409521,-995.924147
226.497835,962.267725,-9030.512492,306.438199
226.498157,-1258.350101,-9326.594869,842.705048
226.498478,-1998.556043,-9622.677246,-1378.971896
226.498800,-2442.679609,-10732.986159,-3524.039291
226.499122,-4811.338623,-11991.336260,-2834.553343
226.499444,-6957.935855,-10955.047942,-1302.362347
226.499766,-7328.038826,-8068.244768,-1378.971896
226.500088,-5551.544565,-6217.729913,-3217.601092
226.500410,-3701.029710,-6957.935855,-5286.058936
226.500731,-4071.132681,-9104.533087,-4903.011187
226.501053,-4885.359217,-9770.718434,-3217.601092
226.501375,-4885.359217,-9918.759623,-1072.533697
226.501697,-3849.070898,-10066.800811,-1149.143247
226.502019,-814.226536,-11325.150913,-2298.286494
226.502341,2738.761985,-11843.295072,-3600.648841
226.502663,5403.503377,-12879.583391,-2911.162892
226.502984,6587.832884,-13693.809927,306.438199
226.503306,7624.121203,-12583.501014,4136.915689
226.503628,8216.285956,-9326.594869,3983.696590
226.503950,9104.533087,-6143.709319,1149.143247
226.504272,8364.327145,-3997.112087,-842.705048
226.504594,6069.688724,-3627.009116,-1072.533697
226.504915,3108.864956,-4145.153275,-1838.629195
226.505237,1924.535449,-6587.832884,-1838.629195
226.505559,1406.391290,-10362.883188,-1072.533697
226.505881,-1702.473667,-12435.459826,306.438199
226.506203,-5847.626942,-12509.480420,229.828649
226.506525,-6217.729913,-11621.233289,-1072.533697
226.506847,-5329.482782,-10955.047942,-4213.525239
226.507168,-6439.791695,-10881.027347,-4826.401637
226.507490,-8290.306550,-8882.471304,-2145.067394
226.507812,-7920.203579,-6809.894666,-995.924147
226.508134,-5181.441594,-6217.729913,-3294.210641
226.508456,-2294.638420,-8734.430116,-4903.011187
226.508778,-2664.741391,-10214.842000,-3753.867940
226.509100,-4737.318029,-10066.800811,-1225.752797
226.509421,-4589.276840,-9474.636058,612.876398
226.509743,-2664.741391,-10214.842000,-1378.971896
226.510065,0.000000,-10584.944971,-3753.867940
226.510387,2146.597232,-11251.130318,-3753.867940
226.510709,3404.947333,-12731.542202,-1302.362347
226.511031,4071.132681,-12805.562797,2145.067394
226.511352,4663.297435,-11547.212695,3753.867940
226.511674,4737.318029,-9030.512492,2604.724693
226.511996,4515.256246,-6291.750507,-383.047749
226.512318,3997.112087,-4885.359217,-2604.724693
226.512640,2442.679609,-5329.482782,-2757.943793
226.512962,962.267725,-6661.853478,-2298.286494
226.513284,370.102971,-7624.121203,-919.314598
226.513605,-666.185348,-9252.574275,0.000000
226.513927,-3256.906145,-10881.027347,-229.828649
226.514249,-4737.318029,-10436.903782,-1149.143247
226.514571,-5625.565159,-8882.471304,-3600.648841
226.514893,-5625.565159,-9992.780217,-4673.182538
226.515215,-7105.977043,-11251.130318,-1838.629195
226.515537,-7846.182985,-9030.512492,-306.438199
226.515858,-6587.832884,-6365.771101,-2221.676944
226.516180,-3108.864956,-6661.853478,-4290.134789
226.516502,-1628.453072,-8512.368333,-4673.182538
226.516824,-2812.782580,-10807.006753,-4136.915689
226.517146,-3256.906145,-9844.739029,-766.095498
226.517468,-1850.514855,-9104.533087,0.000000
226.517789,888.247130,-10584.944971,-2374.896044
226.518111,3330.926739,-12065.356855,-3907.087040
226.518433,5403.503377,-12361.439231,-3217.601092
226.518755,7105.977043,-13397.727550,-1608.800546
226.519077,8808.450710,-14804.118840,2451.505594
226.519399,9474.636058,-12879.583391,5132.839837
226.519721,9252.574275,-8216.285956,2757.943793
226.520042,9178.553681,-4959.379811,-766.095498
226.520364,7328.038826,-4293.194464,-1225.752797
226.520686,4145.153275,-4219.173869,-1378.971896
226.521008,666.185348,-3775.050304,-1991.848295
226.521330,0.000000,-5995.668130,-1149.143247
226.521652,-666.185348,-10066.800811,-689.485948
226.521973,-3552.988522,-13101.645173,-919.314598
226.522295,-6513.812290,-13027.624579,-383.047749
226.522617,-6883.915261,-11399.171507,-1991.848295
226.522939,-6439.791695,-11029.068536,-4213.525239
226.523261,-7328.038826,-10510.924376,-4596.572988
226.523583,-7772.162391,-8290.306550,-1838.629195
226.523905,-5921.647536,-6513.812290,-2451.505594
226.524226,-2960.823768,-7179.997637,-4060.306139
226.524548,-1332.370696,-9326.594869,-3753.867940
226.524870,-2146.597232,-9992.780217,-2298.286494
226.525192,-2960.823768,-9548.656652,-1378.971896
226.525514,-2368.659014,-10584.944971,-1225.752797
226.525836,-222.061783,-10881.027347,-1532.190996
226.526158,1184.329507,-11029.068536,-2298.286494
226.526479,3182.885551,-11325.150913,-1302.362347
226.526801,4737.318029,-12361.439231,0.000000
226.527123,4589.276840,-12287.418637,2145.067394
226.527445,4071.132681,-11177.109724,3830.477490
226.527767,3849.070898,-8808.450710,2681.334243
226.528089,4589.276840,-6809.894666,-612.876398
226.528410,4219.173869,-6661.853478,-2987.772442
226.528732,2146.597232,-6217.729913,-2374.896044
226.529053,-222.061783,-5773.606348,-536.266849
226.529375,-1554.432478,-6291.750507,-229.828649
226.529697,-2886.803174,-8142.265362,-1378.971896
226.530019,-4293.194464,-10214.842000,-2221.676944
226.530341,-5033.400406,-9696.697840,-3140.991542
226.530663,-6809.894666,-9474.636058,-3064.381992
226.530984,-7550.100608,-11547.212695,-1915.238745
226.531306,-7994.224174,-10140.821405,-306.438199
226.531628,-7179.997637,-7476.080014,-2451.505594
226.531950,-4885.359217,-6809.894666,-4596.572988
226.532272,-2442.679609,-6809.894666,-4826.401637
226.532594,-2738.761985,-7846.182985,-3064.381992
226.532915,-2886.803174,-8734.430116,-2374.896044
226.533237,-1776.494261,-10584.944971,-2221.676944
226.533559,0.000000,-11843.295072,-1685.410096
226.533881,888.247130,-11991.336260,-2145.067394
226.534203,2220.617826,-12435.459826,-1915.238745
226.534525,5033.400406,-12065.356855,-1608.800546
226.534846,8364.327145,-12805.562797,-2068.457845
226.535168,9178.553681,-13323.706956,459.657299
226.535490,8438.347739,-11695.253884,3217.601092
226.535812,7179.997637,-8290.306550,3907.087040
226.536134,7476.080014,-5625.565159,229.828649
226.536456,7031.956449,-3627.009116,-2298.286494
226.536777,4959.379811,-4737.318029,-2911.162892
226.537099,1924.535449,-5921.647536,-2145.067394
226.537421,74.020594,-8068.244768,-536.266849
226.537743,-2294.638420,-10288.862594,229.828649
226.538065,-4811.338623,-12213.398043,-689.485948
226.538387,-6513.812290,-12435.459826,-2145.067394
226.538708,-7254.018232,-10955.047942,-4749.792088
226.539030,-7550.100608,-10510.924376,-4903.011187
226.539352,-7550.100608,-10362.883188,-2451.505594
226.539674,-6735.874072,-8216.285956,-842.705048
226.539996,-4663.297435,-6217.729913,-2451.505594
226.540318,-2368.659014,-6069.688724,-4290.134789
226.540639,-1480.411884,-8586.388927,-3524.039291
226.540961,-2220.617826,-9696.697840,-3064.381992
226.541283,-2664.741391,-10436.903782,-2451.505594
226.541605,-1110.308913,-10510.924376,-689.485948
226.541927,962.267725,-10807.006753,-536.266849
226.542249,2886.803174,-11695.253884,-1685.410096
226.542570,4959.379811,-12435.459826,-1532.190996
226.542892,6291.750507,-12435.459826,-306.438199
226.543214,5773.606348,-11695.253884,2068.457845
226.543536,4885.359217,-10436.903782,4136.915689
226.543858,4367.215058,-7920.203579,2987.772442
226.544180,4293.194464,-5625.565159,0.000000
226.544501,3404.947333,-5107.421000,-3217.601092
226.544823,2368.659014,-6291.750507,-2911.162892
226.545145,962.267725,-6957.935855,-1532.190996
226.545467,-1258.350101,-7624.121203,0.000000
226.545789,-3627.009116,-9548.656652,229.828649
226.546111,-4885.359217,-11399.171507,-536.266849
226.546432,-5773.606348,-10436.903782,-3217.601092
226.546754,-6069.688724,-10140.821405,-5286.058936
226.547076,-7031.956449,-10881.027347,-2987.772442
226.547398,-7624.121203,-10066.800811,459.657299
226.547720,-6661.853478,-7402.059420,-229.828649
226.548042,-3701.029710,-5921.647536,-3524.039291
226.548363,-2442.679609,-6069.688724,-4366.744339
226.548685,-3108.864956,-7105.977043,-3294.210641
226.549007,-4293.194464,-8808.450710,-2604.724693
226.549329,-3182.885551,-10510.924376,-3217.601092
226.549651,-1184.329507,-12657.521608,-2757.943793
226.549973,-370.102971,-13767.830521,76.609550
226.550294,370.102971,-12213.398043,229.828649
226.550616,2812.782580,-11251.130318,-1608.800546
226.550938,6735.874072,-11399.171507,-2145.067394
226.551260,8290.306550,-12287.418637,-229.828649
226.551582,7179.997637,-11621.233289,1762.019645
226.551904,6587.832884,-9104.533087,2911.162892
226.552225,7031.956449,-6809.894666,1685.410096
226.552547,6735.874072,-3775.050304,-612.876398
226.552869,4515.256246,-2220.617826,-2298.286494
226.553191,2368.659014,-4959.379811,-3447.429741
226.553513,222.061783,-9030.512492,-2145.067394
226.553835,-1776.494261,-11695.253884,-689.485948
226.554156,-4367.215058,-12361.439231,0.000000
226.554478,-5921.647536,-12805.562797,-842.705048
226.554800,-6365.771101,-11991.336260,-2221.676944
226.555122,-7328.038826,-9918.759623,-4596.572988
226.555444,-8290.306550,-8364.327145,-3600.648841
226.555766,-7402.059420,-7846.182985,-2374.896044
226.556087,-5625.565159,-7105.977043,-2374.896044
226.556409,-3997.112087,-5773.606348,-3064.381992
226.556731,-2072.576638,-6439.791695,-3830.477490
226.557053,0.000000,-9770.718434,-3907.087040
226.557375,0.000000,-12583.501014,-3677.258390
226.557697,-1406.391290,-11917.315666,0.000000
226.558018,-2294.638420,-9918.759623,1762.019645
226.558340,0.000000,-10881.027347,-1072.533697
226.558662,3775.050304,-12805.562797,-4903.011187
226.558984,5699.585753,-13101.645173,-4213.525239
226.559306,4959.379811,-11473.192101,153.219100
226.559628,5181.441594,-10807.006753,3907.087040
226.559949,6735.874072,-9622.677246,3217.601092
226.560271,6365.771101,-7994.224174,-689.485948
226.560593,4071.132681,-5995.668130,-1378.971896
226.560915,1036.288319,-4589.276840,536.266849
226.561237,-148.041188,-4515.256246,-1072.533697
226.561559,0.000000,-6291.750507,-2298.286494
226.561880,814.226536,-8808.450710,-2068.457845
226.562202,-444.123565,-11177.109724,0.000000
226.562524,-2590.720797,-12509.480420,919.314598
226.562846,-4663.297435,-11843.295072,459.657299
226.563168,-5477.523971,-10658.965565,-1302.362347
226.563490,-6883.915261,-8438.347739,-3294.210641
226.563811,-7402.059420,-7328.038826,-4290.134789
226.564133,-7031.956449,-7031.956449,-3830.477490
226.564455,-5625.565159,-6143.709319,-2528.115143
226.564777,-4145.153275,-5255.462188,-1991.848295
226.565099,-1702.473667,-7994.224174,-3140.991542
226.565421,-666.185348,-13175.665768,-4136.915689
226.565743,-1924.535449,-14952.160028,-2451.505594
226.566064,-2960.823768,-13249.686362,919.314598
226.566386,-740.205942,-11325.150913,459.657299
226.566708,3775.050304,-12583.501014,-3064.381992
226.567030,7105.977043,-12435.459826,-3907.087040
226.567352,7550.100608,-11029.068536,-1149.143247
226.567674,7550.100608,-9178.553681,2374.896044
226.567995,9474.636058,-9030.512492,3830.477490
226.568317,9178.553681,-8438.347739,1685.410096
226.568639,6143.709319,-5255.462188,-766.095498
226.568961,2368.659014,-2812.782580,-1302.362347
226.569283,1184.329507,-5403.503377,-2451.505594
226.569605,148.041188,-8660.409521,-3677.258390
226.569926,-1924.535449,-10066.800811,-1991.848295
226.570248,-4219.173869,-10732.986159,689.485948
226.570570,-5403.503377,-12953.603985,536.266849
226.570892,-6365.771101,-13767.830521,-995.924147
226.571214,-7031.956449,-10658.965565,-3370.820191
226.571536,-7402.059420,-7179.997637,-4443.353888
226.571857,-6661.853478,-6439.791695,-3753.867940
226.572179,-5329.482782,-6735.874072,-2451.505594
226.572501,-5255.462188,-5477.523971,-2221.676944
226.572823,-3923.091493,-5255.462188,-2528.115143
226.573145,-1850.514855,-8586.388927,-4213.525239
226.573467,-962.267725,-13101.645173,-5056.230287
226.573788,-1998.556043,-14508.036463,-2528.115143
226.574110,-1406.391290,-12805.562797,995.924147
226.574432,518.144159,-11621.233289,766.095498
226.574754,4071.132681,-12435.459826,-2834.553343
226.575076,5477.523971,-11917.315666,-3370.820191
226.575398,4663.297435,-9918.759623,-919.314598
226.575719,4145.153275,-8660.409521,1532.190996
226.576041,5033.400406,-9252.574275,2528.115143
226.576363,4959.379811,-8216.285956,1225.752797
226.576685,3997.112087,-5403.503377,-306.438199
226.577007,3701.029710,-4737.318029,-2145.067394
226.577329,3775.050304,-6957.935855,-3447.429741
226.577650,3182.885551,-9104.533087,-2221.676944
226.577972,-148.041188,-8290.306550,766.095498
226.578294,-3627.009116,-9326.594869,1225.752797
226.578616,-4441.235652,-11769.274478,-229.828649
226.578938,-4737.318029,-12361.439231,-3753.867940
226.579260,-5921.647536,-11177.109724,-5286.058936
226.579581,-7179.997637,-9030.512492,-3064.381992
226.579903,-5773.606348,-8364.327145,-995.924147
226.580225,-4811.338623,-6513.812290,-1608.800546
226.580547,-4219.173869,-4367.215058,-3524.039291
226.580869,-2960.823768,-5995.668130,-4596.572988
226.581191,-2368.659014,-11029.068536,-5745.716235
226.581512,-3256.906145,-13619.789333,-3447.429741
226.581834,-3923.091493,-12583.501014,689.485948
226.582156,-1998.556043,-10807.006753,1302.362347
226.582478,3330.926739,-11843.295072,-919.314598
226.582800,7550.100608,-12805.562797,-3524.039291
226.583122,8364.327145,-11843.295072,-2681.334243
226.583443,7920.203579,-10436.903782,1685.410096
226.583765,9104.533087,-9844.739029,4903.011187
226.584087,9474.636058,-7846.182985,2911.162892
226.584409,7772.162391,-4885.359217,0.000000
226.584731,4885.359217,-3627.009116,-612.876398
226.585053,3034.844362,-4589.276840,-2145.067394
226.585374,1702.473667,-7328.038826,-3753.867940
226.585696,0.000000,-10362.883188,-1762.019645
226.586018,-2442.679609,-11843.295072,1455.581446
226.586340,-5329.482782,-12879.583391,1838.629195
226.586662,-6809.894666,-12657.521608,-383.047749
226.586984,-6957.935855,-11325.150913,-3907.087040
226.587305,-7550.100608,-9030.512492,-5592.497135
226.587627,-8142.265362,-8068.244768,-3370.820191
226.587949,-7698.141797,-7476.080014,-689.485948
226.588271,-6291.750507,-7105.977043,-1149.143247
226.588593,-4219.173869,-5995.668130,-2374.896044
226.588915,-2516.700203,-7254.018232,-3677.258390
226.589236,-1406.391290,-10436.903782,-4673.182538
226.589558,-1776.494261,-12879.583391,-2834.553343
226.589880,-2442.679609,-11843.295072,1072.533697
226.590202,-1850.514855,-9844.739029,1915.238745
226.590524,1628.453072,-11029.068536,-995.924147
226.590846,4145.153275,-12213.398043,-3140.991542
226.591167,4589.276840,-11695.253884,-2145.067394
226.591489,3478.967927,-9918.759623,1302.362347
226.591811,3552.988522,-9326.594869,3907.087040
226.592133,4293.194464,-7772.162391,3140.991542
226.592455,4367.215058,-4885.359217,-459.657299
226.592777,3478.967927,-3775.050304,-3907.087040
226.593098,3256.906145,-6291.750507,-4673.182538
226.593420,1998.556043,-8586.388927,-2987.772442
226.593742,-1924.535449,-9400.615463,0.000000
226.594064,-5033.400406,-10436.903782,1838.629195
226.594386,-5773.606348,-11621.233289,306.438199
226.594708,-5403.503377,-11843.295072,-3983.696590
226.595029,-6217.729913,-11103.089130,-5745.716235
226.595351,-6735.874072,-9992.780217,-2604.724693
226.595673,-5403.503377,-8364.327145,76.609550
226.595995,-3256.906145,-6439.791695,-1149.143247
226.596317,-1924.535449,-4293.194464,-3140.991542
226.596639,-1480.411884,-5403.503377,-4596.572988
226.596960,-2220.617826,-9548.656652,-6741.640382
226.597282,-2812.782580,-13101.645173,-4596.572988
226.597604,-2738.761985,-13101.645173,-383.047749
226.597926,-1258.350101,-11991.336260,612.876398
226.598248,2664.741391,-12139.377449,-1608.800546
226.598570,7105.977043,-13027.624579,-3447.429741
226.598891,9252.574275,-12361.439231,-4136.915689
226.599213,8808.450710,-11991.336260,-689.485948
226.599535,8586.388927,-11547.212695,4366.744339
226.599857,7846.182985,-8734.430116,4136.915689
226.600179,6513.812290,-5107.421000,919.314598
226.600501,4959.379811,-3182.885551,-1302.362347
226.600822,3256.906145,-3330.926739,-2604.724693
226.601144,1184.329507,-4885.359217,-3830.477490
226.601466,-370.102971,-7105.977043,-1991.848295
226.601788,-2146.597232,-9844.739029,1608.800546
226.602110,-5107.421000,-13323.706956,1915.238745
226.602432,-7105.977043,-13989.892304,76.609550
226.602753,-7476.080014,-11769.274478,-3600.648841
226.603075,-7550.100608,-10214.842000,-6281.983084
226.603397,-7254.018232,-9474.636058,-4673.182538
226.603719,-7254.018232,-8364.327145,-1378.971896
226.604041,-5699.585753,-6809.894666,-536.266849
226.604363,-2812.782580,-5995.668130,-2451.505594
226.604684,-518.144159,-7402.059420,-4290.134789
226.605006,74.020594,-10658.965565,-4443.353888
226.605328,-592.164754,-11103.089130,-2221.676944
226.605650,-1036.288319,-11325.150913,0.000000
226.605972,-148.041188,-11621.233289,1915.238745
226.606294,1850.514855,-11473.192101,842.705048
226.606615,3701.029710,-11399.171507,-1685.410096
226.606937,4441.235652,-11843.295072,-2528.115143
226.607259,3701.029710,-11251.130318,842.705048
226.607581,3108.864956,-10584.944971,3370.820191
226.607903,2812.782580,-8956.491898,3294.210641
226.608225,2738.761985,-6883.915261,1378.971896
226.608547,2590.720797,-4663.297435,-1532.190996
226.608868,1702.473667,-4515.256246,-3753.867940
226.609190,592.164754,-6291.750507,-3983.696590
226.609512,-1036.288319,-8068.244768,-1685.410096
226.609834,-3923.091493,-9770.718434,0.000000
226.610156,-5847.626942,-11399.171507,689.485948
226.610478,-5699.585753,-12139.377449,-2604.724693
226.610799,-6143.709319,-11695.253884,-5439.278036
226.611121,-6735.874072,-11177.109724,-5056.230287
226.611443,-6809.894666,-9770.718434,-1378.971896
226.611765,-5181.441594,-6661.853478,229.828649
226.612087,-2812.782580,-4367.215058,-1762.019645
226.612409,-888.247130,-4441.235652,-3217.601092
226.612730,-370.102971,-6587.832884,-3447.429741
226.613052,-962.267725,-9030.512492,-3983.696590
226.613374,-1184.329507,-11843.295072,-3140.991542
226.613696,-148.041188,-13101.645173,-306.438199
226.614018,1110.308913,-13027.624579,1455.581446
226.614340,2738.761985,-12731.542202,-612.876398
226.614661,5773.606348,-12657.521608,-3064.381992
226.614983,8438.347739,-11843.295072,-3370.820191
226.615305,8808.450710,-11399.171507,-689.485948
226.615627,8364.327145,-10584.944971,2145.067394
226.615949,7624.121203,-8364.327145,2757.943793
226.616271,6957.935855,-6291.750507,306.438199
226.616592,4811.338623,-4071.132681,-1915.238745
226.616914,1924.535449,-4367.215058,-2834.553343
226.617236,-666.185348,-6143.709319,-2757.943793
226.617558,-2368.659014,-9178.553681,-1608.800546
226.617880,-4367.215058,-11029.068536,0.000000
226.618202,-5847.626942,-11843.295072,229.828649
226.618523,-6143.709319,-12287.418637,-1225.752797
226.618845,-5995.668130,-11399.171507,-3677.258390
226.619167,-6735.874072,-9474.636058,-4290.134789
226.619489,-7105.977043,-9178.553681,-2757.943793
226.619811,-6217.729913,-7846.182985,-1762.019645
226.620133,-4515.256246,-7105.977043,-3140.991542
226.620454,-2368.659014,-6661.853478,-3830.477490
226.620776,-962.267725,-7402.059420,-3830.477490
226.621098,296.082377,-10214.842000,-3370.820191
226.621420,444.123565,-12435.459826,-2528.115143
226.621742,592.164754,-12805.562797,0.000000
226.622064,1258.350101,-11843.295072,1378.971896
226.622385,2738.761985,-11695.253884,0.000000
226.622707,4589.276840,-11843.295072,-2145.067394
226.623029,4959.379811,-10955.047942,-1532.190996
226.623351,4293.194464,-9548.656652,919.314598
226.623673,3701.029710,-8734.430116,2834.553343
226.623995,3256.906145,-8142.265362,2911.162892
226.624316,2516.700203,-6143.709319,1225.752797
226.624638,2294.638420,-5255.462188,-1915.238745
226.624960,888.247130,-5625.565159,-3294.210641
226.625282,0.000000,-7105.977043,-2987.772442
226.625604,-2072.576638,-8586.388927,-1838.629195
226.625926,-4737.318029,-9770.718434,-306.438199
226.626247,-6069.688724,-11029.068536,0.000000
226.626569,-5995.668130,-11917.315666,-2604.724693
226.626891,-5921.647536,-11769.274478,-5056.230287
226.627213,-6587.832884,-11251.130318,-3524.039291
226.627535,-6069.688724,-9474.636058,-612.876398
226.627857,-4515.256246,-7254.018232,-306.438199
226.628178,-2442.679609,-5699.585753,-2221.676944
226.628500,-1480.411884,-4885.359217,-3217.601092
226.628822,-740.205942,-5847.626942,-3600.648841
226.629144,-740.205942,-8882.471304,-4136.915689
226.629466,-814.226536,-11843.295072,-2757.943793
226.629788,-296.082377,-13101.645173,919.314598
226.630109,888.247130,-12657.521608,1991.848295
226.630431,3478.967927,-12657.521608,-459.657299
226.630753,6809.894666,-12657.521608,-2604.724693
226.631075,8586.388927,-11991.336260,-2451.505594
226.631397,8142.265362,-11473.192101,0.000000
226.631719,7328.038826,-9548.656652,3217.601092
226.632040,7031.956449,-7031.956449,2757.943793
226.632362,6217.729913,-4071.132681,-612.876398
226.632684,4589.276840,-4219.173869,-3677.258390
226.633006,1924.535449,-6365.771101,-4290.134789
226.633328,-370.102971,-8882.471304,-2681.334243
226.633650,-3627.009116,-9992.780217,0.000000
226.633972,-6883.915261,-11029.068536,689.485948
226.634294,-8142.265362,-11917.315666,-306.438199
226.634615,-7920.203579,-11843.295072,-4060.306139
226.634937,-8290.306550,-10510.924376,-6128.763984
226.635259,-8660.409521,-9918.759623,-4673.182538
226.635581,-7179.997637,-8734.430116,-995.924147
226.635903,-5255.462188,-6957.935855,-1149.143247
226.636225,-3256.906145,-6291.750507,-2987.772442
226.636547,-1924.535449,-6883.915261,-3524.039291
226.636869,-1702.473667,-7994.224174,-3753.867940
226.637190,-1480.411884,-9696.697840,-4136.915689
226.637512,-148.041188,-11843.295072,-2911.162892
226.637834,1036.288319,-12731.542202,-459.657299
226.638156,2146.597232,-12805.562797,1455.581446
226.638478,3404.947333,-12879.583391,766.095498
226.638800,5255.462188,-12213.398043,-1072.533697
226.639122,5921.647536,-10955.047942,-842.705048
226.639444,5181.441594,-9696.697840,919.314598
226.639765,3404.947333,-7624.121203,2911.162892
226.640087,2664.741391,-6069.688724,2834.553343
226.640409,3182.885551,-4737.318029,306.438199
226.640731,3330.926739,-5033.400406,-2451.505594
226.641053,2516.700203,-5995.668130,-3447.429741
226.641375,1258.350101,-7179.997637,-1608.800546
226.641697,-1776.494261,-8216.285956,306.438199
226.642019,-4663.297435,-10658.965565,536.266849
226.642340,-5625.565159,-11695.253884,-536.266849
226.642662,-5921.647536,-11547.212695,-4213.525239
226.642984,-6217.729913,-11843.295072,-5515.887586
226.643306,-6439.791695,-11251.130318,-2221.676944
226.643628,-6069.688724,-8660.409521,842.705048
226.643950,-4293.194464,-5995.668130,-383.047749
226.644272,-2146.597232,-5477.523971,-3447.429741
226.644594,-1702.473667,-6069.688724,-3907.087040
226.644915,-2664.741391,-6291.750507,-3524.039291
226.645237,-2886.803174,-8882.471304,-3983.696590
226.645559,-1036.288319,-12657.521608,-2451.505594
226.645881,222.061783,-14878.139434,0.000000
226.646203,814.226536,-14656.077652,2221.676944
