#time,accel_x,accel_y,accel_z
567.367471,-370.102971,-9326.594869,-1302.362347
567.367794,0.000000,-8956.491898,-1991.848295
567.368116,-370.102971,-9104.533087,-1455.581446
567.368439,-296.082377,-9326.594869,-1225.752797
567.368761,-518.144159,-9400.615463,-1608.800546
567.369084,-296.082377,-9548.656652,-1608.800546
567.369406,-444.123565,-9770.718434,-2068.457845
567.369728,-592.164754,-9548.656652,-1762.019645
567.370051,-370.102971,-9548.656652,-1455.581446
567.370373,-444.123565,-9474.636058,-1532.190996
567.370696,-296.082377,-9400.615463,-1532.190996
567.371018,-296.082377,-9030.512492,-1455.581446
567.371341,-666.185348,-9252.574275,-1378.971896
567.371663,-518.144159,-9474.636058,-1608.800546
567.371986,-666.185348,-9548.656652,-1685.410096
567.372308,-518.144159,-9622.677246,-1608.800546
567.372631,-444.123565,-9622.677246,-1608.800546
567.372953,-296.082377,-9770.718434,-995.924147
567.373276,-444.123565,-9474.636058,-1838.629195
567.373598,-518.144159,-9400.615463,-1685.410096
567.373921,-592.164754,-9104.533087,-1608.800546
567.374243,-296.082377,-9400.615463,-1608.800546
567.374566,-222.061783,-9252.574275,-1838.629195
567.374888,0.000000,-9548.656652,-1225.752797
567.375211,-518.144159,-9474.636058,-1532.190996
567.375533,-222.061783,-9770.718434,-1302.362347
567.375856,-370.102971,-9400.615463,-1455.581446
567.376178,-222.061783,-9030.512492,-1378.971896
567.376500,-740.205942,-9030.512492,-1455.581446
567.376823,-296.082377,-9104.533087,-1225.752797
567.377145,-296.082377,-9178.553681,-1378.971896
567.377468,-444.123565,-9326.594869,-1378.971896
567.377790,-592.164754,-9474.636058,-1302.362347
567.378113,-666.185348,-9326.594869,-1302.362347
567.378435,-666.185348,-9400.615463,-1608.800546
567.378758,-370.102971,-9252.574275,-1378.971896
567.379080,-222.061783,-9030.512492,-1302.362347
567.379403,-296.082377,-8882.471304,-1378.971896
567.379725,0.000000,-8586.388927,-1915.238745
567.380048,-518.144159,-9104.533087,-1302.362347
567.380370,-592.164754,-9622.677246,-1532.190996
567.380693,-740.205942,-9622.677246,-1532.190996
567.381015,-592.164754,-9622.677246,-1762.019645
567.381338,-592.164754,-9326.594869,-1455.581446
567.381660,-444.123565,-9104.533087,-1532.190996
567.381983,-74.020594,-8956.491898,-1762.019645
567.382305,-296.082377,-9030.512492,-1685.410096
567.382627,-296.082377,-9326.594869,-1915.238745
567.382950,-666.185348,-9622.677246,-1915.238745
567.383272,-1036.288319,-9548.656652,-1762.019645
567.383595,-444.123565,-9548.656652,-1762.019645
567.383917,-370.102971,-9622.677246,-1915.238745
567.384240,-370.102971,-9104.533087,-1838.629195
567.384562,-148.041188,-9252.574275,-1532.190996
567.384885,-222.061783,-9030.512492,-1915.238745
567.385207,-592.164754,-9030.512492,-1378.971896
567.385530,-592.164754,-9474.636058,-1915.238745
567.385852,-814.226536,-9548.656652,-1915.238745
567.386175,-740.205942,-9918.759623,-1915.238745
567.386497,0.000000,-9548.656652,-1762.019645
567.386820,1110.308913,-9548.656652,-1762.019645
567.387142,2368.659014,-9622.677246,-2145.067394
567.387465,2590.720797,-9178.553681,-1072.533697
567.387787,2072.576638,-8438.347739,-536.266849
567.388110,962.267725,-8438.347739,-1302.362347
567.388432,-592.164754,-9252.574275,-2068.457845
567.388754,-1628.453072,-9770.718434,-2757.943793
567.389077,-3256.906145,-9696.697840,-2145.067394
567.389399,-3849.070898,-9622.677246,-2374.896044
567.389722,-3034.844362,-9104.533087,-2681.334243
567.390044,-888.247130,-9474.636058,-2451.505594
567.390367,1850.514855,-10436.903782,-2145.067394
567.390689,3034.844362,-10584.944971,-536.266849
567.391012,2738.761985,-9326.594869,0.000000
567.391334,1924.535449,-8808.450710,-306.438199
567.391657,2220.617826,-9326.594869,-1225.752797
567.391979,2294.638420,-9474.636058,-2528.115143
567.392302,1258.350101,-9104.533087,-1532.190996
567.392624,0.000000,-7846.182985,-383.047749
567.392947,74.020594,-7179.997637,-536.266849
567.393269,1776.494261,-8586.388927,-2451.505594
567.393592,2146.597232,-10066.800811,-1378.971896
567.393914,222.061783,-9030.512492,229.828649
567.394237,-1258.350101,-9030.512492,-689.485948
567.394559,-814.226536,-9326.594869,-3370.820191
567.394882,222.061783,-9622.677246,-3830.477490
567.395204,740.205942,-10436.903782,-1915.238745
567.395526,1332.370696,-10658.965565,-842.705048
567.395849,2220.617826,-10214.842000,-1991.848295
567.396171,3627.009116,-9696.697840,-1532.190996
567.396494,4663.297435,-10584.944971,-306.438199
567.396816,4515.256246,-11325.150913,-383.047749
567.397139,2960.823768,-9474.636058,-1302.362347
567.397461,2146.597232,-8068.244768,-1149.143247
567.397784,1924.535449,-8290.306550,-995.924147
567.398106,2220.617826,-8438.347739,-1072.533697
567.398429,1776.494261,-7402.059420,-1378.971896
567.398751,1110.308913,-7328.038826,-1302.362347
567.399074,1702.473667,-9400.615463,-612.876398
567.399396,2590.720797,-11029.068536,-612.876398
567.399719,2664.741391,-9918.759623,-1302.362347
567.400041,1998.556043,-9696.697840,-2068.457845
567.400364,2516.700203,-9844.739029,-1455.581446
567.400686,3256.906145,-9474.636058,-1608.800546
567.401009,2960.823768,-9104.533087,-2528.115143
567.401331,2886.803174,-9326.594869,-2298.286494
567.401653,2886.803174,-10066.800811,-1302.362347
567.401976,3404.947333,-9844.739029,-689.485948
567.402298,3182.885551,-9770.718434,-2298.286494
567.402621,3256.906145,-9992.780217,-1532.190996
567.402943,2146.597232,-8882.471304,-612.876398
567.403266,1554.432478,-7402.059420,-383.047749
567.403588,592.164754,-7105.977043,-1225.752797
567.403911,-222.061783,-7698.141797,-1685.410096
567.404233,-740.205942,-9252.574275,-1072.533697
567.404556,-518.144159,-10066.800811,-1302.362347
567.404878,-296.082377,-11177.109724,-1378.971896
567.405201,370.102971,-11843.295072,-1072.533697
567.405523,1110.308913,-11621.233289,-612.876398
567.405846,1554.432478,-10288.862594,-459.657299
567.406168,1924.535449,-9992.780217,-1149.143247
567.406491,1554.432478,-8660.409521,-1532.190996
567.406813,1406.391290,-8068.244768,-1532.190996
567.407136,1036.288319,-7994.224174,-1608.800546
567.407458,888.247130,-7846.182985,-1455.581446
567.407780,1184.329507,-8512.368333,-1685.410096
567.408103,1480.411884,-8882.471304,-1762.019645
567.408425,1702.473667,-8586.388927,-1225.752797
567.408748,1554.432478,-8068.244768,-1532.190996
567.409070,1480.411884,-7772.162391,-2451.505594
567.409393,1258.350101,-8512.368333,-2528.115143
567.409715,1036.288319,-9326.594869,-2068.457845
567.410038,1184.329507,-9992.780217,-2451.505594
567.410360,1184.329507,-10955.047942,-2451.505594
567.410683,1184.329507,-11843.295072,-1915.238745
567.411005,1110.308913,-11991.336260,-766.095498
567.411328,1332.370696,-11547.212695,-1302.362347
567.411650,1406.391290,-10732.986159,-1225.752797
567.411973,1776.494261,-10066.800811,-1302.362347
567.412295,1850.514855,-9548.656652,-842.705048
567.412618,2146.597232,-8660.409521,0.000000
567.412940,2294.638420,-8216.285956,-689.485948
567.413263,3404.947333,-7994.224174,-1378.971896
567.413585,4663.297435,-7994.224174,-1915.238745
567.413908,5403.503377,-8142.265362,-1838.629195
567.414230,5255.462188,-8216.285956,-1378.971896
567.414552,4589.276840,-8882.471304,-1608.800546
567.414875,3478.967927,-10066.800811,-2451.505594
567.415197,2442.679609,-11843.295072,-3140.991542
567.415520,1110.308913,-12361.439231,-2757.943793
567.415842,0.000000,-12287.418637,-1915.238745
567.416165,222.061783,-11177.109724,-1225.752797
567.416487,0.000000,-10066.800811,-383.047749
567.416810,148.041188,-8660.409521,153.219100
567.417132,148.041188,-7105.977043,459.657299
567.417455,518.144159,-5773.606348,-306.438199
567.417777,1036.288319,-5255.462188,-842.705048
567.418100,1702.473667,-5329.482782,-612.876398
567.418422,1850.514855,-6365.771101,-919.314598
567.418745,2072.576638,-7624.121203,-1378.971896
567.419067,2072.576638,-9104.533087,-1762.019645
567.419390,1776.494261,-10807.006753,-2145.067394
567.419712,1406.391290,-11769.274478,-2221.676944
567.420035,740.205942,-11695.253884,-2911.162892
567.420357,-296.082377,-11843.295072,-2987.772442
567.420679,-666.185348,-12139.377449,-2834.553343
567.421002,-1184.329507,-11621.233289,-2451.505594
567.421324,-1702.473667,-11473.192101,-1915.238745
567.421647,-2368.659014,-11103.089130,-995.924147
567.421969,-2516.700203,-11325.150913,-766.095498
567.422292,-2146.597232,-10881.027347,-459.657299
567.422614,-1332.370696,-10510.924376,229.828649
567.422937,-296.082377,-9030.512492,306.438199
567.423259,1184.329507,-6513.812290,612.876398
567.423582,3182.885551,-5477.523971,-766.095498
567.423904,5551.544565,-4811.338623,-919.314598
567.424227,6365.771101,-5107.421000,-1378.971896
567.424549,6735.874072,-5995.668130,-1455.581446
567.424872,6661.853478,-7105.977043,-2374.896044
567.425194,6143.709319,-9844.739029,-4136.915689
567.425517,5477.523971,-13767.830521,-4060.306139
567.425839,3849.070898,-14434.015869,-2451.505594
567.426162,1184.329507,-13545.768739,-1072.533697
567.426484,-740.205942,-11917.315666,-612.876398
567.426806,-2368.659014,-11769.274478,-2298.286494
567.427129,-3923.091493,-9770.718434,-2068.457845
567.427451,-4885.359217,-7624.121203,-1149.143247
567.427774,-5773.606348,-6069.688724,-1532.190996
567.428096,-4885.359217,-7476.080014,-1225.752797
567.428419,-1332.370696,-8364.327145,-153.219100
567.428741,2368.659014,-7994.224174,-1532.190996
567.429064,6365.771101,-9474.636058,-2911.162892
567.429386,10140.821405,-10436.903782,-1608.800546
567.429709,12731.542202,-10510.924376,0.000000
567.430031,14211.954086,-8364.327145,153.219100
567.430354,13619.789333,-7698.141797,-766.095498
567.430676,12139.377449,-7920.203579,-1991.848295
567.430999,8734.430116,-9992.780217,-2298.286494
567.431321,4071.132681,-10732.986159,-919.314598
567.431644,-740.205942,-11473.192101,-1149.143247
567.431966,-3849.070898,-12805.562797,-2145.067394
567.432289,-4737.318029,-13397.727550,-995.924147
567.432611,-6809.894666,-13841.851115,459.657299
567.432934,-8364.327145,-10436.903782,2374.896044
567.433256,-9474.636058,-4959.379811,3217.601092
567.433578,-7772.162391,-1850.514855,229.828649
567.433901,-4145.153275,-3256.906145,-2451.505594
567.434223,296.082377,-5403.503377,-3983.696590
567.434546,3849.070898,-6439.791695,-4136.915689
567.434868,7402.059420,-9622.677246,-2987.772442
567.435191,10881.027347,-12435.459826,-1302.362347
567.435513,11917.315666,-13471.748144,-2451.505594
567.435835,10066.800811,-11991.336260,-3370.820191
567.436158,5699.585753,-10362.883188,-3677.258390
567.436480,2220.617826,-10066.800811,-5362.668486
567.436803,0.000000,-11251.130318,-6971.469032
567.437125,-1628.453072,-11177.109724,-4213.525239
567.437447,-4885.359217,-11325.150913,459.657299
567.437770,-6883.915261,-12213.398043,3140.991542
567.438092,-6365.771101,-10510.924376,4519.963438
567.438414,-4885.359217,-8068.244768,689.485948
567.438737,-3108.864956,-6809.894666,-1455.581446
567.439059,0.000000,-7698.141797,229.828649
567.439381,4589.276840,-6513.812290,229.828649
567.439704,9326.594869,-4293.194464,-1149.143247
567.440026,12953.603985,-5847.626942,-2068.457845
567.440349,13619.789333,-9252.574275,-612.876398
567.440671,11399.171507,-10584.944971,459.657299
567.440993,5255.462188,-12139.377449,-2374.896044
567.441316,-444.123565,-14804.118840,-5132.839837
567.441638,-4589.276840,-17542.880825,-5975.544884
567.441960,-7624.121203,-13619.789333,-3524.039291
567.442283,-8956.491898,-7402.059420,-2145.067394
567.442605,-9400.615463,-5847.626942,-3830.477490
567.442927,-5255.462188,-5921.647536,-2298.286494
567.443250,-1406.391290,-8068.244768,-229.828649
567.443572,-1702.473667,-8660.409521,2911.162892
567.443895,-1406.391290,-8068.244768,4749.792088
567.444217,814.226536,-6883.915261,919.314598
567.444539,3627.009116,-5847.626942,-2221.676944
567.444862,5699.585753,-5625.565159,-1991.848295
567.445184,5181.441594,-6587.832884,-1532.190996
567.445506,4811.338623,-8586.388927,-1378.971896
567.445829,5847.626942,-10584.944971,0.000000
567.446151,5921.647536,-10807.006753,-2221.676944
567.446473,6365.771101,-12583.501014,-5822.325785
567.446796,4737.318029,-13323.706956,-5209.449386
567.447118,2590.720797,-12879.583391,-1532.190996
567.447440,1110.308913,-11547.212695,76.609550
567.447763,-1036.288319,-10436.903782,-766.095498
567.448085,-1998.556043,-10214.842000,-2298.286494
567.448408,-3108.864956,-10881.027347,-766.095498
567.448730,-2812.782580,-10955.047942,1072.533697
567.449052,0.000000,-9474.636058,842.705048
567.449375,4441.235652,-7328.038826,383.047749
567.449697,8956.491898,-6365.771101,1302.362347
567.450019,10658.965565,-4959.379811,3447.429741
567.450342,9696.697840,-4441.235652,2068.457845
567.450664,7550.100608,-4367.215058,-995.924147
567.450986,4663.297435,-5107.421000,-3753.867940
567.451309,2442.679609,-7846.182985,-5439.278036
567.451631,-444.123565,-11029.068536,-6971.469032
567.451954,-3627.009116,-13175.665768,-6052.154434
567.452276,-5477.523971,-13989.892304,-2911.162892
567.452598,-3627.009116,-14730.098246,-1838.629195
567.452921,-1850.514855,-14211.954086,-4060.306139
567.453243,-518.144159,-12657.521608,-6205.373534
567.453565,-1036.288319,-11399.171507,-3600.648841
567.453888,592.164754,-11325.150913,1302.362347
567.454210,3997.112087,-10214.842000,1762.019645
567.454532,6661.853478,-9622.677246,-383.047749
567.454855,6735.874072,-9548.656652,153.219100
567.455177,5921.647536,-8734.430116,4519.963438
567.455500,5181.441594,-6809.894666,5975.544884
567.455822,6069.688724,-3330.926739,2451.505594
567.456144,7920.203579,-1998.556043,-2374.896044
567.456467,9622.677246,-4589.276840,-3294.210641
567.456789,8882.471304,-6957.935855,76.609550
567.457111,4737.318029,-6883.915261,2451.505594
567.457434,592.164754,-9400.615463,153.219100
567.457756,-2146.597232,-12583.501014,-4290.134789
567.458078,-5033.400406,-13545.768739,-6665.030833
567.458401,-9622.677246,-12213.398043,-6894.859482
567.458723,-11029.068536,-12287.418637,-6052.154434
567.459046,-7994.224174,-13397.727550,-4749.792088
567.459368,-4663.297435,-11843.295072,-3370.820191
567.459690,-3775.050304,-8586.388927,-612.876398
567.460013,-3849.070898,-8882.471304,459.657299
567.460335,-1924.535449,-11621.233289,-1378.971896
567.460657,-592.164754,-11547.212695,-2757.943793
567.460980,0.000000,-8734.430116,-919.314598
567.461302,1406.391290,-5477.523971,2374.896044
567.461624,5625.565159,-4367.215058,2451.505594
567.461947,9326.594869,-4145.153275,842.705048
567.462269,9844.739029,-5329.482782,0.000000
567.462592,8882.471304,-7254.018232,612.876398
567.462914,8142.265362,-9622.677246,919.314598
567.463236,6587.832884,-10362.883188,-995.924147
567.463559,3256.906145,-11547.212695,-3753.867940
567.463881,-814.226536,-12213.398043,-2911.162892
567.464203,-2738.761985,-10214.842000,-1532.190996
567.464526,-2664.741391,-10510.924376,-4443.353888
567.464848,-2442.679609,-10732.986159,-6894.859482
567.465170,-3034.844362,-11621.233289,-4903.011187
567.465493,-4293.194464,-12065.356855,-1225.752797
567.465815,-2960.823768,-13175.665768,0.000000
567.466138,-2738.761985,-12435.459826,-1608.800546
567.466460,-3404.947333,-9178.553681,-2374.896044
567.466782,-2516.700203,-6365.771101,-229.828649
567.467105,1850.514855,-4663.297435,-1915.238745
567.467427,5773.606348,-5847.626942,-4366.744339
567.467749,7920.203579,-7402.059420,-1685.410096
567.468072,9326.594869,-6661.853478,2681.334243
567.468394,10658.965565,-6513.812290,1455.581446
567.468716,10658.965565,-8586.388927,-1915.238745
567.469039,7105.977043,-10214.842000,-1608.800546
567.469361,3108.864956,-9696.697840,-536.266849
567.469683,1702.473667,-9622.677246,-2834.553343
567.470006,962.267725,-10362.883188,-5286.058936
567.470328,74.020594,-10658.965565,-4366.744339
567.470651,-1480.411884,-11399.171507,-1072.533697
567.470973,-1110.308913,-13397.727550,919.314598
567.471295,-444.123565,-14582.057057,-766.095498
567.471618,222.061783,-13767.830521,-1225.752797
567.471940,1702.473667,-12657.521608,-536.266849
567.472262,4441.235652,-10288.862594,383.047749
567.472585,7328.038826,-5921.647536,-1072.533697
567.472907,8364.327145,-2738.761985,-1149.143247
567.473229,8438.347739,-2738.761985,1532.190996
567.473552,7402.059420,-4737.318029,1608.800546
567.473874,4441.235652,-6809.894666,-1915.238745
567.474197,0.000000,-10362.883188,-2911.162892
567.474519,-3404.947333,-11843.295072,-1991.848295
567.474841,-4515.256246,-11769.274478,-2911.162892
567.475164,-4737.318029,-10140.821405,-5515.887586
567.475486,-4885.359217,-9178.553681,-4213.525239
567.475808,-6069.688724,-11029.068536,-1915.238745
567.476131,-5921.647536,-12065.356855,1685.410096
567.476453,-5625.565159,-11251.130318,919.314598
567.476775,-2664.741391,-11695.253884,-2911.162892
567.477098,1110.308913,-11103.089130,-2757.943793
567.477420,5107.421000,-11103.089130,1072.533697
567.477743,6365.771101,-8216.285956,3907.087040
567.478065,7550.100608,-5255.462188,2681.334243
567.478387,8142.265362,-4145.153275,689.485948
567.478710,7031.956449,-3923.091493,-919.314598
567.479032,3701.029710,-5033.400406,-2221.676944
567.479354,-1110.308913,-7402.059420,-3983.696590
567.479677,-3701.029710,-9104.533087,-4749.792088
567.479999,-4293.194464,-10955.047942,-4826.401637
567.480321,-4959.379811,-13915.871710,-4290.134789
567.480644,-5995.668130,-14063.912898,-3447.429741
567.480966,-6217.729913,-14063.912898,-2604.724693
567.481289,-4737.318029,-13619.789333,-3140.991542
567.481611,-3034.844362,-13619.789333,-2757.943793
567.481933,-1184.329507,-12213.398043,-1378.971896
567.482256,814.226536,-9474.636058,459.657299
567.482578,3997.112087,-8142.265362,842.705048
567.482900,7772.162391,-7254.018232,919.314598
567.483223,9326.594869,-5107.421000,1455.581446
567.483545,7328.038826,-4071.132681,1072.533697
567.483867,5033.400406,-4737.318029,842.705048
567.484190,1924.535449,-5033.400406,-153.219100
567.484512,-2220.617826,-6143.709319,-3064.381992
567.484835,-5255.462188,-8956.491898,-5209.449386
567.485157,-5995.668130,-11029.068536,-6205.373534
567.485479,-3997.112087,-12509.480420,-5515.887586
567.485802,-2220.617826,-13545.768739,-3907.087040
567.486124,-1850.514855,-14285.974681,-1762.019645
567.486446,-1258.350101,-13323.706956,-229.828649
567.486769,1258.350101,-13027.624579,-1149.143247
567.487091,2590.720797,-11991.336260,-2757.943793
567.487413,2738.761985,-9474.636058,-766.095498
567.487736,3997.112087,-6365.771101,1455.581446
567.488058,5403.503377,-5181.441594,459.657299
567.488381,5551.544565,-5625.565159,76.609550
567.488703,2590.720797,-5403.503377,1838.629195
567.489025,-1702.473667,-3923.091493,2221.676944
567.489348,-4737.318029,-4071.132681,-766.095498
567.489670,-4737.318029,-7550.100608,-4366.744339
567.489992,-4367.215058,-9622.677246,-5209.449386
567.490315,-3997.112087,-11399.171507,-4903.011187
567.490637,-3330.926739,-10732.986159,-2451.505594
567.490959,-814.226536,-12435.459826,-1915.238745
567.491282,1036.288319,-13915.871710,-3217.601092
567.491604,1036.288319,-13323.706956,-3064.381992
567.491926,-370.102971,-12287.418637,-2451.505594
567.492249,-370.102971,-12435.459826,-2834.553343
567.492571,666.185348,-13249.686362,-2528.115143
567.492894,-296.082377,-10955.047942,-1225.752797
567.493216,-2072.576638,-7328.038826,459.657299
567.493538,-2812.782580,-5477.523971,995.924147
567.493861,-2368.659014,-4885.359217,612.876398
567.494183,-2220.617826,-5403.503377,229.828649
567.494505,-3034.844362,-6587.832884,-766.095498
567.494828,-2442.679609,-7328.038826,-1762.019645
567.495150,-740.205942,-9030.512492,-1072.533697
567.495472,666.185348,-10436.903782,-766.095498
567.495795,740.205942,-10510.924376,-1608.800546
567.496117,666.185348,-9918.759623,-1838.629195
567.496440,888.247130,-10362.883188,-2451.505594
567.496762,1332.370696,-13027.624579,-2757.943793
567.497084,0.000000,-13915.871710,-2374.896044
567.497407,-1998.556043,-13027.624579,-2604.724693
567.497729,-2146.597232,-12805.562797,-2374.896044
567.498051,-1036.288319,-11103.089130,766.095498
567.498374,0.000000,-8734.430116,612.876398
567.498696,-444.123565,-5255.462188,-536.266849
567.499018,0.000000,-4441.235652,0.000000
567.499341,444.123565,-5033.400406,1072.533697
567.499663,740.205942,-5477.523971,1532.190996
567.499986,-148.041188,-6587.832884,-689.485948
567.500308,-370.102971,-7624.121203,-1608.800546
567.500630,740.205942,-8586.388927,-1149.143247
567.500953,1184.329507,-9992.780217,-1378.971896
567.501275,-740.205942,-11177.109724,-842.705048
567.501597,-3552.988522,-11843.295072,-995.924147
567.501920,-3182.885551,-11917.315666,-3064.381992
567.502242,-2368.659014,-11177.109724,-4826.401637
567.502564,-740.205942,-11399.171507,-4136.915689
567.502887,1702.473667,-11695.253884,-3140.991542
567.503209,3701.029710,-10807.006753,-1072.533697
567.503532,3701.029710,-8956.491898,1378.971896
567.503854,2368.659014,-8290.306550,2298.286494
567.504176,888.247130,-7624.121203,-383.047749
567.504499,0.000000,-6365.771101,-2911.162892
567.504821,-1258.350101,-4663.297435,-2834.553343
567.505143,-1554.432478,-5995.668130,-1915.238745
567.505466,-1850.514855,-7920.203579,-1378.971896
567.505788,-1628.453072,-10658.965565,-1838.629195
567.506110,-2368.659014,-12139.377449,-2068.457845
567.506433,-3849.070898,-11843.295072,-1915.238745
567.506755,-3478.967927,-11251.130318,-3217.601092
567.507078,-2738.761985,-10510.924376,-6128.763984
567.507400,-444.123565,-11917.315666,-6511.811733
567.507722,888.247130,-11991.336260,-3217.601092
567.508045,2738.761985,-10881.027347,612.876398
567.508367,4589.276840,-9770.718434,536.266849
567.508689,5551.544565,-8660.409521,-1915.238745
567.509012,4737.318029,-8142.265362,-995.924147
567.509334,2516.700203,-8068.244768,1378.971896
567.509656,0.000000,-6735.874072,536.266849
567.509979,-1628.453072,-7328.038826,-1915.238745
567.510301,-3404.947333,-7254.018232,-1838.629195
567.510624,-5921.647536,-6661.853478,-766.095498
567.510946,-7920.203579,-6661.853478,-383.047749
567.511268,-6439.791695,-9400.615463,-2604.724693
567.511591,-3775.050304,-10362.883188,-4903.011187
567.511913,-1776.494261,-10584.944971,-3677.258390
567.512235,-592.164754,-9474.636058,-1225.752797
567.512558,1184.329507,-10510.924376,-1302.362347
567.512880,2072.576638,-12213.398043,-2528.115143
567.513202,1332.370696,-11547.212695,-2757.943793
567.513525,0.000000,-10066.800811,-2757.943793
567.513847,-1184.329507,-9474.636058,-2451.505594
567.514169,-888.247130,-10362.883188,-2451.505594
567.514492,-1110.308913,-9696.697840,-1685.410096
567.514814,-1480.411884,-8660.409521,-1072.533697
567.515137,-592.164754,-8068.244768,76.609550
567.515459,740.205942,-8142.265362,612.876398
567.515781,666.185348,-7328.038826,-459.657299
567.516104,518.144159,-7179.997637,-1072.533697
567.516426,-222.061783,-7328.038826,-919.314598
567.516748,518.144159,-9030.512492,-536.266849
567.517071,1406.391290,-10658.965565,-689.485948
567.517393,1480.411884,-10807.006753,-1072.533697
567.517715,1554.432478,-10140.821405,-1838.629195
567.518038,1924.535449,-10955.047942,-1991.848295
567.518360,1184.329507,-11695.253884,-1532.190996
567.518683,-1628.453072,-10807.006753,-766.095498
567.519005,-4367.215058,-9548.656652,-1991.848295
567.519327,-5773.606348,-8808.450710,-2834.553343
567.519650,-4885.359217,-8512.368333,-3064.381992
567.519972,-4145.153275,-8734.430116,-2834.553343
567.520294,-2368.659014,-8808.450710,-2604.724693
567.520617,-1332.370696,-8586.388927,-766.095498
567.520939,0.000000,-7920.203579,689.485948
567.521261,740.205942,-8364.327145,689.485948
567.521584,370.102971,-7920.203579,-306.438199
567.521906,0.000000,-8068.244768,-1838.629195
567.522229,814.226536,-8586.388927,-2451.505594
567.522551,1628.453072,-9770.718434,-2374.896044
567.522873,1554.432478,-10140.821405,-842.705048
567.523196,1554.432478,-10288.862594,0.000000
567.523518,1184.329507,-10362.883188,-229.828649
567.523840,518.144159,-9622.677246,-612.876398
567.524163,888.247130,-9844.739029,-1685.410096
567.524485,1628.453072,-10510.924376,-2757.943793
567.524807,1258.350101,-9474.636058,-2451.505594
567.525130,1332.370696,-8512.368333,-536.266849
567.525452,1776.494261,-8956.491898,306.438199
567.525775,2738.761985,-10214.842000,-842.705048
567.526097,2220.617826,-9770.718434,-1302.362347
567.526419,962.267725,-7994.224174,-919.314598
567.526742,-296.082377,-7476.080014,-2374.896044
567.527064,-2220.617826,-8808.450710,-2911.162892
567.527386,-4219.173869,-10066.800811,-1838.629195
567.527709,-6513.812290,-9918.759623,-3140.991542
567.528031,-7179.997637,-9400.615463,-4596.572988
567.528353,-5625.565159,-10140.821405,-4136.915689
567.528676,-2738.761985,-10955.047942,-2834.553343
567.528998,-1036.288319,-10436.903782,-2145.067394
567.529321,518.144159,-9474.636058,-1072.533697
567.529643,1850.514855,-9104.533087,459.657299
567.529965,3256.906145,-8364.327145,-1302.362347
567.530288,3182.885551,-8142.265362,-2911.162892
567.530610,2146.597232,-7031.956449,-2221.676944
567.530932,1332.370696,-7105.977043,-1455.581446
567.531255,0.000000,-8290.306550,-459.657299
567.531577,-1702.473667,-10214.842000,-612.876398
567.531899,-4071.132681,-10510.924376,-1915.238745
567.532222,-4959.379811,-10436.903782,-3447.429741
567.532544,-3404.947333,-10658.965565,-1685.410096
567.532867,-1776.494261,-10066.800811,-2374.896044
567.533189,518.144159,-10510.924376,-3753.867940
567.533511,1332.370696,-9178.553681,-2834.553343
567.533834,3182.885551,-9400.615463,306.438199
567.534156,5107.421000,-10288.862594,76.609550
567.534478,5403.503377,-9992.780217,-2604.724693
567.534801,4885.359217,-9696.697840,-2528.115143
567.535123,3627.009116,-9992.780217,-383.047749
567.535445,2664.741391,-11325.150913,842.705048
567.535768,222.061783,-10881.027347,995.924147
567.536090,-2590.720797,-8216.285956,0.000000
567.536412,-4071.132681,-6143.709319,-1608.800546
567.536735,-5329.482782,-6217.729913,-1915.238745
567.537057,-5255.462188,-7772.162391,-612.876398
567.537379,-4441.235652,-8068.244768,-1072.533697
567.537702,-3330.926739,-8586.388927,-2221.676944
567.538024,-2368.659014,-8956.491898,-1378.971896
567.538346,-1184.329507,-9992.780217,-766.095498
567.538669,-962.267725,-10732.986159,-2681.334243
567.538991,-666.185348,-10436.903782,-3294.210641
567.539313,148.041188,-10584.944971,-2528.115143
567.539636,666.185348,-10955.047942,-1685.410096
567.539958,0.000000,-11177.109724,-2298.286494
567.540280,-1258.350101,-11029.068536,-1225.752797
567.540603,-2368.659014,-10066.800811,-1149.143247
567.540925,-2368.659014,-9770.718434,-1915.238745
567.541247,-2368.659014,-8290.306550,-1225.752797
567.541570,-814.226536,-7846.182985,-1455.581446
567.541892,370.102971,-7402.059420,-1378.971896
567.542214,1628.453072,-8290.306550,383.047749
567.542537,2294.638420,-7698.141797,1762.019645
567.542859,2960.823768,-7550.100608,229.828649
567.543181,2590.720797,-7402.059420,-1991.848295
567.543504,2738.761985,-8734.430116,-1532.190996
567.543826,2146.597232,-10288.862594,-766.095498
567.544148,0.000000,-10807.006753,-1455.581446
567.544471,-2516.700203,-10955.047942,-1608.800546
567.544793,-4367.215058,-11621.233289,-1378.971896
567.545115,-3849.070898,-11843.295072,-3064.381992
567.545438,-3552.988522,-9770.718434,-4060.306139
567.545760,-3330.926739,-8438.347739,-4213.525239
567.546082,-1332.370696,-9326.594869,-2298.286494
567.546405,-814.226536,-8808.450710,-919.314598
567.546727,-1036.288319,-7402.059420,0.000000
567.547049,-1184.329507,-7846.182985,-766.095498
567.547372,-296.082377,-8068.244768,-3294.210641
567.547694,1036.288319,-8438.347739,-3600.648841
567.548016,2146.597232,-9474.636058,-1608.800546
567.548339,1998.556043,-9696.697840,229.828649
567.548661,1258.350101,-9474.636058,0.000000
567.548983,-740.205942,-9400.615463,-612.876398
567.549306,-3478.967927,-9918.759623,-612.876398
567.549628,-4737.318029,-9622.677246,-1608.800546
567.549950,-3923.091493,-9030.512492,-3907.087040
567.550273,-1480.411884,-9548.656652,-4903.011187
567.550595,1110.308913,-9548.656652,-2221.676944
567.550917,2516.700203,-8290.306550,1149.143247
567.551240,3849.070898,-8586.388927,1149.143247
567.551562,5107.421000,-9622.677246,-1072.533697
567.551884,6365.771101,-9474.636058,-2604.724693
567.552207,5033.400406,-9770.718434,-2911.162892
567.552529,3256.906145,-9844.739029,-766.095498
567.552851,666.185348,-10214.842000,306.438199
567.553174,-1554.432478,-9622.677246,-689.485948
567.553496,-3627.009116,-9474.636058,-2298.286494
567.553818,-6291.750507,-8956.491898,-3140.991542
567.554141,-7698.141797,-8956.491898,-3064.381992
567.554463,-6143.709319,-8956.491898,-3600.648841
567.554785,-3034.844362,-9844.739029,-3524.039291
567.555108,-1406.391290,-9326.594869,-2451.505594
567.555430,1628.453072,-9252.574275,-306.438199
567.555752,3034.844362,-9326.594869,0.000000
567.556075,4885.359217,-9178.553681,-2451.505594
567.556397,5107.421000,-8660.409521,-2911.162892
567.556719,3034.844362,-9474.636058,-536.266849
567.557042,222.061783,-9474.636058,2068.457845
567.557364,-2590.720797,-9548.656652,-459.657299
567.557686,-4589.276840,-9770.718434,-2834.553343
567.558009,-4589.276840,-9770.718434,-3677.258390
567.558331,-4367.215058,-9252.574275,-1302.362347
567.558653,-3997.112087,-9104.533087,459.657299
567.558976,-2294.638420,-8660.409521,153.219100
567.559298,-1702.473667,-7994.224174,-1149.143247
567.559620,-962.267725,-8290.306550,-1455.581446
567.559943,148.041188,-9474.636058,-2068.457845
567.560265,666.185348,-10214.842000,-3753.867940
567.560587,1332.370696,-9844.739029,-3600.648841
567.560910,2368.659014,-10214.842000,-306.438199
567.561232,2738.761985,-11103.089130,76.609550
567.561554,1850.514855,-11103.089130,-1302.362347
567.561877,370.102971,-11547.212695,-1302.362347
567.562199,-1258.350101,-10140.821405,-842.705048
567.562521,-1554.432478,-9622.677246,-1685.410096
567.562844,-2294.638420,-8290.306550,-995.924147
567.563166,-1332.370696,-7846.182985,-612.876398
567.563488,-222.061783,-6883.915261,-995.924147
567.563811,814.226536,-6291.750507,229.828649
567.564133,2072.576638,-7031.956449,689.485948
567.564455,2072.576638,-7254.018232,-459.657299
567.564778,1406.391290,-7476.080014,-919.314598
567.565100,1036.288319,-10140.821405,-1072.533697
567.565422,0.000000,-11399.171507,-1072.533697
567.565745,-1850.514855,-10658.965565,-2298.286494
567.566067,-3034.844362,-10288.862594,-3064.381992
567.566389,-3701.029710,-11029.068536,-3753.867940
567.566712,-3108.864956,-10362.883188,-2911.162892
567.567034,-4515.256246,-9844.739029,-2221.676944
567.567356,-3478.967927,-9474.636058,-2145.067394
567.567679,-1036.288319,-10658.965565,-4290.134789
567.568001,888.247130,-10288.862594,-3064.381992
567.568323,1628.453072,-8512.368333,-306.438199
567.568646,2368.659014,-7402.059420,0.000000
567.568968,2664.741391,-7254.018232,-1302.362347
567.569290,3182.885551,-7698.141797,-995.924147
567.569613,2960.823768,-8660.409521,-919.314598
567.569935,1776.494261,-9474.636058,-383.047749
567.570257,148.041188,-9548.656652,383.047749
567.570580,-1924.535449,-10807.006753,-689.485948
567.570902,-2886.803174,-11251.130318,-1225.752797
567.571224,-4293.194464,-9844.739029,-1532.190996
567.571547,-3108.864956,-8734.430116,-2451.505594
567.571869,-1332.370696,-8068.244768,-3677.258390
567.572191,296.082377,-8660.409521,-3064.381992
567.572514,1406.391290,-9030.512492,-306.438199
567.572836,1480.411884,-8734.430116,76.609550
567.573158,1258.350101,-10214.842000,-1991.848295
567.573481,1628.453072,-11251.130318,-2528.115143
567.573803,1702.473667,-10732.986159,-2451.505594
567.574125,740.205942,-9918.759623,-3064.381992
567.574448,-518.144159,-9696.697840,-2068.457845
567.574770,-2516.700203,-9030.512492,-306.438199
567.575092,-4885.359217,-8068.244768,-1608.800546
567.575415,-6069.688724,-8734.430116,-3064.381992
567.575737,-6217.729913,-9474.636058,-3447.429741
567.576059,-4293.194464,-9178.553681,-3524.039291
567.576382,-1184.329507,-9474.636058,-3447.429741
567.576704,148.041188,-9400.615463,-383.047749
567.577026,2368.659014,-8290.306550,1532.190996
567.577349,3997.112087,-7698.141797,-536.266849
567.577671,4663.297435,-8586.388927,-2221.676944
567.577993,4293.194464,-9252.574275,-1532.190996
567.578316,3627.009116,-10510.924376,-1685.410096
567.578638,2072.576638,-10140.821405,-1225.752797
567.578960,296.082377,-10584.944971,-459.657299
567.579283,-1406.391290,-10140.821405,-612.876398
567.579605,-2146.597232,-9400.615463,-2298.286494
567.579927,-3552.988522,-8438.347739,-2451.505594
567.580250,-2664.741391,-9178.553681,-2757.943793
567.580572,-1850.514855,-9252.574275,-2298.286494
567.580894,-1850.514855,-8438.347739,-2221.676944
567.581217,-1332.370696,-9104.533087,-1149.143247
567.581539,0.000000,-9918.759623,-612.876398
567.581861,0.000000,-9474.636058,-2757.943793
567.582184,0.000000,-8882.471304,-3294.210641
567.582506,0.000000,-9696.697840,-1991.848295
567.582828,222.061783,-10362.883188,-1302.362347
567.583151,0.000000,-10658.965565,-689.485948
567.583473,-814.226536,-10807.006753,-919.314598
567.583795,-1480.411884,-10140.821405,-1991.848295
567.584118,-740.205942,-9030.512492,-2298.286494
567.584440,444.123565,-7846.182985,-995.924147
567.584762,518.144159,-6809.894666,383.047749
567.585085,1036.288319,-8364.327145,-459.657299
567.585407,1258.350101,-8290.306550,76.609550
567.585729,1332.370696,-8142.265362,76.609550
567.586052,1258.350101,-9252.574275,-766.095498
567.586374,1036.288319,-9992.780217,-229.828649
567.586696,1332.370696,-9622.677246,-306.438199
567.587019,666.185348,-8142.265362,-1072.533697
567.587341,0.000000,-9326.594869,-1455.581446
567.587663,-740.205942,-11103.089130,-1225.752797
567.587986,-1998.556043,-11029.068536,-2221.676944
567.588308,-2590.720797,-8956.491898,-3370.820191
567.588630,-3034.844362,-9252.574275,-3140.991542
567.588953,-1776.494261,-11621.233289,-2987.772442
567.589275,-814.226536,-12361.439231,-2451.505594
567.589597,-148.041188,-10658.965565,-995.924147
567.589920,666.185348,-8808.450710,-536.266849
567.590242,2738.761985,-8216.285956,-1991.848295
567.590564,2368.659014,-7624.121203,-1685.410096
567.590887,1110.308913,-6513.812290,-153.219100
567.591209,0.000000,-7328.038826,0.000000
567.591531,-888.247130,-8216.285956,-459.657299
567.591854,-1924.535449,-8808.450710,76.609550
567.592176,-4071.132681,-9548.656652,-1225.752797
567.592498,-5033.400406,-9844.739029,-2604.724693
567.592821,-5255.462188,-9400.615463,-1532.190996
567.593143,-3478.967927,-8586.388927,-1225.752797
567.593465,-962.267725,-8142.265362,-3064.381992
567.593788,-370.102971,-9104.533087,-3983.696590
567.594110,148.041188,-10140.821405,-1608.800546
567.594432,-370.102971,-10140.821405,76.609550
567.594755,-1184.329507,-10881.027347,-2374.896044
567.595077,-296.082377,-10436.903782,-3677.258390
567.595399,814.226536,-11029.068536,-4673.182538
567.595722,0.000000,-10510.924376,-2757.943793
567.596044,-1184.329507,-10288.862594,229.828649
567.596366,-2442.679609,-8882.471304,0.000000
567.596689,-3330.926739,-8512.368333,-2757.943793
567.597011,-3404.947333,-8512.368333,-3753.867940
567.597333,-3997.112087,-8586.388927,-2757.943793
567.597656,-1850.514855,-8364.327145,-2298.286494
567.597978,814.226536,-8438.347739,-2911.162892
567.598300,3256.906145,-9326.594869,-1455.581446
567.598623,4737.318029,-10288.862594,919.314598
567.598945,4737.318029,-11251.130318,1072.533697
567.599267,3404.947333,-10214.842000,-995.924147
567.599590,2812.782580,-9326.594869,-2604.724693
567.599912,2812.782580,-9474.636058,-2681.334243
567.600234,962.267725,-8512.368333,-1072.533697
567.600557,-1850.514855,-7624.121203,-229.828649
567.600879,-2960.823768,-8364.327145,-1072.533697
567.601201,-2738.761985,-8882.471304,-2911.162892
567.601524,-1998.556043,-9178.553681,-3907.087040
567.601846,-2220.617826,-9992.780217,-3064.381992
567.602168,-2368.659014,-9474.636058,-2451.505594
567.602491,-1998.556043,-10658.965565,-1608.800546
567.602813,-962.267725,-11103.089130,-306.438199
567.603135,-518.144159,-10362.883188,-689.485948
567.603458,-666.185348,-8142.265362,-2528.115143
567.603780,888.247130,-7846.182985,-2681.334243
567.604102,2590.720797,-8364.327145,-2068.457845
567.604425,2368.659014,-9104.533087,-1149.143247
567.604747,740.205942,-9104.533087,1225.752797
567.605069,-666.185348,-9326.594869,995.924147
567.605392,-1184.329507,-8882.471304,-995.924147
567.605714,-444.123565,-8438.347739,-2374.896044
567.606036,222.061783,-8586.388927,-1838.629195
567.606359,1480.411884,-9400.615463,-1838.629195
567.606681,2294.638420,-8882.471304,0.000000
567.607003,2072.576638,-8586.388927,1685.410096
567.607326,1702.473667,-9696.697840,536.266849
567.607648,518.144159,-10955.047942,-2451.505594
567.607970,-518.144159,-10510.924376,-2451.505594
567.608293,-1184.329507,-9474.636058,-2374.896044
567.608615,-1406.391290,-9474.636058,-3217.601092
567.608938,-1332.370696,-9770.718434,-2451.505594
567.609260,-2146.597232,-9252.574275,-1072.533697
567.609582,-2590.720797,-9178.553681,-2528.115143
567.609905,-2886.803174,-10732.986159,-2528.115143
567.610227,-2516.700203,-11325.150913,-1378.971896
567.610549,-1184.329507,-10510.924376,-2451.505594
567.610872,-296.082377,-9992.780217,-2681.334243
567.611194,1332.370696,-10214.842000,229.828649
567.611516,2590.720797,-9326.594869,995.924147
567.611839,2664.741391,-6883.915261,-1685.410096
567.612161,962.267725,-5625.565159,-1762.019645
567.612483,-148.041188,-7624.121203,459.657299
567.612806,-666.185348,-8956.491898,-842.705048
567.613128,-2368.659014,-9770.718434,-2374.896044
567.613450,-3775.050304,-10510.924376,-1838.629195
567.613773,-3552.988522,-10807.006753,-1685.410096
567.614095,-2294.638420,-9844.739029,-1685.410096
567.614417,-3034.844362,-7624.121203,-1302.362347
567.614740,-2294.638420,-7254.018232,-1378.971896
567.615062,-1036.288319,-8586.388927,-3217.601092
567.615384,0.000000,-10066.800811,-3753.867940
567.615707,-222.061783,-10807.006753,-2451.505594
567.616029,-296.082377,-11177.109724,-2451.505594
567.616351,-1036.288319,-11177.109724,-2221.676944
567.616674,0.000000,-9918.759623,-1608.800546
567.616996,1036.288319,-8734.430116,-2374.896044
567.617318,888.247130,-7994.224174,-2987.772442
567.617641,-444.123565,-8660.409521,-1225.752797
567.617963,-1924.535449,-9252.574275,229.828649
567.618285,-2590.720797,-8216.285956,-1685.410096
567.618608,-2072.576638,-8660.409521,-2374.896044
567.618930,-222.061783,-10140.821405,-2298.286494
567.619252,1480.411884,-10732.986159,-2221.676944
567.619575,2442.679609,-9622.677246,-842.705048
567.619897,3552.988522,-9622.677246,995.924147
567.620219,4145.153275,-9992.780217,383.047749
567.620542,3256.906145,-9030.512492,-1225.752797
567.620864,1998.556043,-7846.182985,-2834.553343
567.621186,1776.494261,-8290.306550,-3140.991542
567.621509,814.226536,-8068.244768,-2528.115143
567.621831,-888.247130,-9474.636058,-1225.752797
567.622153,-3108.864956,-10362.883188,-383.047749
567.622476,-4441.235652,-11547.212695,-1762.019645
567.622798,-5403.503377,-11177.109724,-1762.019645
567.623120,-4959.379811,-10807.006753,-1608.800546
567.623443,-3775.050304,-9474.636058,-3064.381992
567.623765,-2664.741391,-8660.409521,-3370.820191
567.624087,-1036.288319,-7772.162391,-1378.971896
567.624410,666.185348,-8364.327145,-689.485948
567.624732,1776.494261,-9548.656652,-1455.581446
567.625054,1110.308913,-8290.306550,-1532.190996
567.625377,1332.370696,-8808.450710,-1302.362347
567.625699,1776.494261,-9622.677246,-1608.800546
567.626021,1036.288319,-11251.130318,0.000000
567.626344,-370.102971,-10140.821405,842.705048
567.626666,-1998.556043,-9400.615463,-919.314598
567.626988,-1924.535449,-8808.450710,-1072.533697
567.627311,-1554.432478,-8216.285956,-1072.533697
567.627633,-888.247130,-7846.182985,-1762.019645
567.627955,-518.144159,-7846.182985,-1378.971896
567.628278,0.000000,-8364.327145,536.266849
567.628600,74.020594,-9400.615463,536.266849
567.628922,444.123565,-9696.697840,-995.924147
567.629245,0.000000,-9252.574275,-2528.115143
567.629567,-148.041188,-8512.368333,-2451.505594
567.629889,148.041188,-8586.388927,-2374.896044
567.630212,-444.123565,-8438.347739,-1762.019645
567.630534,-1924.535449,-9548.656652,-2068.457845
567.630856,-3256.906145,-10955.047942,-2374.896044
567.631179,-4219.173869,-11843.295072,-2681.334243
567.631501,-4367.215058,-10214.842000,-1991.848295
567.631823,-2664.741391,-9770.718434,-3064.381992
567.632146,-666.185348,-8734.430116,-3753.867940
567.632468,444.123565,-8142.265362,-2068.457845
567.632790,1036.288319,-7624.121203,0.000000
567.633113,1776.494261,-8586.388927,-229.828649
567.633435,2072.576638,-9178.553681,-1378.971896
567.633757,2812.782580,-9622.677246,-2145.067394
567.634080,3182.885551,-10066.800811,-2221.676944
567.634402,2590.720797,-9030.512492,-689.485948
567.634724,1480.411884,-9400.615463,-459.657299
567.635047,0.000000,-10362.883188,-766.095498
567.635369,-1702.473667,-10436.903782,-1685.410096
567.635691,-3256.906145,-9992.780217,-2911.162892
567.636014,-3108.864956,-10140.821405,-2604.724693
567.636336,-1850.514855,-10658.965565,-3370.820191
567.636658,592.164754,-9770.718434,-3140.991542
567.636981,1998.556043,-8734.430116,-1225.752797
567.637303,3404.947333,-8586.388927,153.219100
567.637625,3552.988522,-9252.574275,-1072.533697
567.637948,3034.844362,-9252.574275,-2604.724693
567.638270,1554.432478,-8956.491898,-2604.724693
567.638592,0.000000,-9104.533087,-2451.505594
567.638915,-2220.617826,-9548.656652,-2834.553343
567.639237,-3330.926739,-10510.924376,-2681.334243
567.639559,-4441.235652,-11547.212695,-2528.115143
567.639882,-5181.441594,-10955.047942,-842.705048
567.640204,-5551.544565,-8660.409521,-229.828649
567.640527,-3330.926739,-7846.182985,-2757.943793
567.640849,0.000000,-7846.182985,-5286.058936
567.641171,1628.453072,-8586.388927,-2987.772442
567.641494,2220.617826,-8438.347739,919.314598
567.641816,2220.617826,-7476.080014,1225.752797
567.642138,2368.659014,-7105.977043,-1302.362347
567.642461,2960.823768,-8142.265362,-2528.115143
567.642783,2294.638420,-9622.677246,-2298.286494
567.643106,148.041188,-10955.047942,-383.047749
567.643428,-1702.473667,-10732.986159,383.047749
567.643750,-2664.741391,-9918.759623,-612.876398
567.644073,-2516.700203,-9252.574275,-1915.238745
567.644395,-2368.659014,-9252.574275,-1378.971896
567.644717,-2886.803174,-9400.615463,-689.485948
567.645040,-2072.576638,-8364.327145,-1915.238745
567.645362,-518.144159,-7550.100608,-2834.553343
567.645684,1406.391290,-8438.347739,-2298.286494
567.646007,2590.720797,-10214.842000,-689.485948
567.646329,2664.741391,-10658.965565,-153.219100
567.646652,1998.556043,-9844.739029,0.000000
567.646974,2072.576638,-9104.533087,-842.705048
567.647296,1480.411884,-8660.409521,-2221.676944
567.647619,-1184.329507,-9844.739029,-1225.752797
567.647941,-3552.988522,-11029.068536,153.219100
567.648263,-4959.379811,-9400.615463,-919.314598
567.648586,-4589.276840,-8364.327145,-2834.553343
567.648908,-2368.659014,-8956.491898,-2528.115143
567.649231,-1332.370696,-9030.512492,-919.314598
567.649553,-814.226536,-7698.141797,-229.828649
567.649875,-518.144159,-7254.018232,-306.438199
567.650198,0.000000,-8216.285956,-1149.143247
567.650520,-296.082377,-8882.471304,-2528.115143
567.650842,-1110.308913,-8438.347739,-3677.258390
567.651165,-814.226536,-9474.636058,-2757.943793
567.651487,0.000000,-10955.047942,-2145.067394
567.651810,-222.061783,-11473.192101,-1149.143247
567.652132,-1184.329507,-11769.274478,-766.095498
567.652454,-2368.659014,-11177.109724,-1685.410096
567.652777,-2442.679609,-10066.800811,-1608.800546
567.653099,-370.102971,-8956.491898,-1991.848295
567.653421,1110.308913,-7402.059420,-2528.115143
567.653744,2072.576638,-6735.874072,-1991.848295
567.654066,2368.659014,-7254.018232,76.609550
567.654389,2368.659014,-7846.182985,995.924147
567.654711,2516.700203,-9400.615463,689.485948
567.655033,1998.556043,-8956.491898,-1532.190996
567.655356,1480.411884,-8882.471304,-3524.039291
567.655678,1332.370696,-10066.800811,-2068.457845
567.656000,-444.123565,-9918.759623,0.000000
567.656323,-2368.659014,-9104.533087,0.000000
567.656645,-3997.112087,-9844.739029,-2528.115143
567.656968,-5107.421000,-10584.944971,-5056.230287
567.657290,-5033.400406,-11621.233289,-3983.696590
567.657612,-4589.276840,-10362.883188,-1762.019645
567.657935,-2368.659014,-9770.718434,-2911.162892
567.658257,-296.082377,-9030.512492,-3370.820191
567.658579,1924.535449,-8512.368333,-1378.971896
567.658902,2368.659014,-8734.430116,-536.266849
567.659224,1850.514855,-8734.430116,-1225.752797
567.659546,1258.350101,-8142.265362,-2374.896044
567.659869,814.226536,-7994.224174,-2911.162892
567.660191,0.000000,-9030.512492,-2374.896044
567.660514,-740.205942,-11029.068536,-919.314598
567.660836,-1776.494261,-11029.068536,-536.266849
567.661158,-2294.638420,-10214.842000,-1225.752797
567.661481,-1776.494261,-9104.533087,-1378.971896
567.661803,-888.247130,-8438.347739,-2068.457845
567.662125,0.000000,-9400.615463,-2911.162892
567.662448,-222.061783,-8956.491898,-2451.505594
567.662770,296.082377,-8734.430116,-995.924147
567.663093,2590.720797,-8956.491898,-1149.143247
567.663415,4885.359217,-10214.842000,-2987.772442
567.663737,5255.462188,-10732.986159,-2451.505594
567.664060,4145.153275,-10807.006753,153.219100
567.664382,2590.720797,-9548.656652,1378.971896
567.664704,962.267725,-9474.636058,-536.266849
567.665027,-1924.535449,-9548.656652,-2451.505594
567.665349,-4959.379811,-10140.821405,-2757.943793
567.665672,-7105.977043,-9178.553681,-2068.457845
567.665994,-6291.750507,-8660.409521,-1608.800546
567.666316,-5995.668130,-8216.285956,-2451.505594
567.666639,-2960.823768,-8734.430116,-2451.505594
567.666961,-1110.308913,-8364.327145,-1991.848295
567.667283,888.247130,-8808.450710,-766.095498
567.667606,2294.638420,-9030.512492,-1149.143247
567.667928,2812.782580,-8956.491898,-1915.238745
567.668251,2812.782580,-8882.471304,-1302.362347
567.668573,2590.720797,-9104.533087,-306.438199
567.668895,1702.473667,-9400.615463,0.000000
567.669218,148.041188,-10214.842000,-1378.971896
567.669540,-1628.453072,-10732.986159,-1455.581446
567.669862,-2664.741391,-9770.718434,-842.705048
567.670185,-2516.700203,-9104.533087,-153.219100
567.670507,-1702.473667,-8808.450710,-306.438199
567.670830,518.144159,-8068.244768,-612.876398
567.671152,962.267725,-5921.647536,-1378.971896
567.671474,888.247130,-5995.668130,-766.095498
567.671797,148.041188,-8216.285956,0.000000
567.672119,740.205942,-9400.615463,-1072.533697
567.672441,1480.411884,-10807.006753,-3064.381992
567.672764,2220.617826,-11843.295072,-3140.991542
567.673086,2368.659014,-12213.398043,-1991.848295
567.673408,1406.391290,-11621.233289,-459.657299
567.673731,-444.123565,-11547.212695,-766.095498
567.674053,-2442.679609,-10362.883188,-919.314598
567.674376,-2812.782580,-9326.594869,-2987.772442
567.674698,-2738.761985,-7846.182985,-4060.306139
567.675020,-2664.741391,-7550.100608,-2757.943793
567.675343,-1924.535449,-8808.450710,-1838.629195
567.675665,-1036.288319,-9474.636058,0.000000
567.675987,0.000000,-9104.533087,689.485948
567.676310,814.226536,-8364.327145,-1302.362347
567.676632,1702.473667,-8586.388927,-3140.991542
567.676955,1628.453072,-8364.327145,-3294.210641
567.677277,370.102971,-8364.327145,-689.485948
567.677599,-1628.453072,-9474.636058,0.000000
567.677922,-3330.926739,-11769.274478,-1991.848295
567.678244,-4441.235652,-12583.501014,-3217.601092
567.678566,-4367.215058,-12065.356855,-4136.915689
567.678889,-2516.700203,-10732.986159,-3907.087040
567.679211,-666.185348,-10362.883188,-2834.553343
567.679534,1332.370696,-8882.471304,-1762.019645
567.679856,1184.329507,-7105.977043,612.876398
567.680178,1628.453072,-6809.894666,995.924147
567.680501,2368.659014,-7624.121203,-1991.848295
567.680823,2072.576638,-7846.182985,-3753.867940
567.681145,1850.514855,-8882.471304,-2221.676944
567.681468,1554.432478,-10584.944971,-153.219100
567.681790,1480.411884,-11473.192101,1378.971896
567.682113,962.267725,-10807.006753,995.924147
567.682435,-814.226536,-9474.636058,-1072.533697
567.682757,-2220.617826,-9474.636058,-3370.820191
567.683080,-3775.050304,-8660.409521,-2757.943793
567.683402,-3627.009116,-7846.182985,-2604.724693
567.683724,-2664.741391,-9326.594869,-2834.553343
567.684047,-1258.350101,-9770.718434,-1838.629195
567.684369,74.020594,-9104.533087,-919.314598
567.684691,1258.350101,-8438.347739,-1455.581446
567.685014,2072.576638,-9178.553681,-1838.629195
567.685336,2368.659014,-9326.594869,-1685.410096
567.685659,2072.576638,-8734.430116,-1991.848295
567.685981,888.247130,-9400.615463,-1532.190996
567.686303,-888.247130,-10140.821405,-842.705048
567.686626,-2368.659014,-9770.718434,-1838.629195
567.686948,-2886.803174,-9548.656652,-3370.820191
567.687270,-2146.597232,-8660.409521,-2528.115143
567.687593,-1258.350101,-9622.677246,-1072.533697
567.687915,0.000000,-9992.780217,0.000000
567.688238,592.164754,-8956.491898,-689.485948
567.688560,1110.308913,-8142.265362,-766.095498
567.688882,2368.659014,-9326.594869,-766.095498
567.689205,2886.803174,-9474.636058,-1762.019645
567.689527,1776.494261,-8216.285956,-2068.457845
567.689849,1110.308913,-7846.182985,-995.924147
567.690172,1776.494261,-9548.656652,-612.876398
567.690494,1776.494261,-11029.068536,-766.095498
567.690817,-296.082377,-11177.109724,0.000000
567.691139,-3256.906145,-10140.821405,-459.657299
567.691461,-4663.297435,-8956.491898,-1991.848295
567.691784,-4737.318029,-9030.512492,-2987.772442
567.692106,-4515.256246,-8438.347739,-2987.772442
567.692428,-2442.679609,-8142.265362,-2374.896044
567.692751,-888.247130,-7846.182985,-2757.943793
567.693073,370.102971,-8734.430116,-1532.190996
567.693396,1036.288319,-9770.718434,-536.266849
567.693718,518.144159,-9770.718434,-1378.971896
567.694040,444.123565,-10510.924376,-2834.553343
567.694363,814.226536,-10214.842000,-2451.505594
567.694685,444.123565,-9030.512492,-3064.381992
567.695007,-888.247130,-9252.574275,-1991.848295
567.695330,-2368.659014,-9696.697840,-153.219100
567.695652,-3182.885551,-9104.533087,-459.657299
567.695975,-2442.679609,-9030.512492,-1149.143247
567.696297,-222.061783,-10066.800811,-2221.676944
567.696619,1258.350101,-9770.718434,-2681.334243
567.696942,1332.370696,-9178.553681,-1302.362347
567.697264,888.247130,-8956.491898,1149.143247
567.697586,1406.391290,-8586.388927,842.705048
567.697909,1036.288319,-7402.059420,-2068.457845
567.698231,518.144159,-8068.244768,-3524.039291
567.698553,-222.061783,-9030.512492,-3217.601092
567.698876,-444.123565,-10807.006753,-2451.505594
567.699198,-888.247130,-11547.212695,-1532.190996
567.699521,-2146.597232,-12435.459826,0.000000
567.699843,-3108.864956,-11769.274478,-1915.238745
567.700165,-4145.153275,-10658.965565,-3217.601092
567.700488,-3330.926739,-8438.347739,-3983.696590
567.700810,-1850.514855,-8586.388927,-4290.134789
567.701132,-592.164754,-9400.615463,-3753.867940
567.701455,0.000000,-9474.636058,-1072.533697
567.701777,1036.288319,-9030.512492,459.657299
567.702100,2886.803174,-10510.924376,-766.095498
567.702422,3775.050304,-10658.965565,-1378.971896
567.702744,3182.885551,-8438.347739,-689.485948
567.703067,1924.535449,-6291.750507,-459.657299
567.703389,1258.350101,-7772.162391,-995.924147
567.703711,296.082377,-9474.636058,153.219100
567.704034,-1924.535449,-9326.594869,306.438199
567.704356,-4071.132681,-7920.203579,-1762.019645
567.704679,-3552.988522,-8290.306550,-2451.505594
567.705001,-1776.494261,-11991.336260,-2298.286494
567.705323,-888.247130,-10436.903782,-1225.752797
567.705646,370.102971,-9622.677246,-995.924147
567.705968,2146.597232,-9474.636058,-1302.362347
567.706290,3034.844362,-8808.450710,-1455.581446
567.706613,3627.009116,-8364.327145,-1685.410096
567.706935,1554.432478,-7994.224174,-3064.381992
567.707258,1406.391290,-8882.471304,-2528.115143
567.707580,592.164754,-10584.944971,-2145.067394
567.707902,-1110.308913,-9770.718434,229.828649
567.708225,-3849.070898,-9770.718434,383.047749
567.708547,-5403.503377,-8808.450710,-1608.800546
567.708869,-5625.565159,-8068.244768,-3064.381992
567.709192,-4959.379811,-9104.533087,-2681.334243
567.709514,-3256.906145,-9326.594869,-2451.505594
567.709837,-2664.741391,-8438.347739,-1532.190996
567.710159,-1924.535449,-7994.224174,-536.266849
567.710481,-814.226536,-9992.780217,0.000000
567.710804,1036.288319,-11547.212695,-689.485948
567.711126,370.102971,-9992.780217,-2374.896044
567.711448,0.000000,-7476.080014,-1838.629195
567.711771,0.000000,-7772.162391,-689.485948
567.712093,-740.205942,-8586.388927,-766.095498
567.712415,-2590.720797,-9918.759623,-1149.143247
567.712738,-4071.132681,-10436.903782,-1915.238745
567.713060,-5033.400406,-9992.780217,-2604.724693
567.713383,-5033.400406,-9474.636058,-2068.457845
567.713705,-3923.091493,-9622.677246,-1532.190996
567.714027,-3552.988522,-9030.512492,-2374.896044
567.714350,-2442.679609,-8660.409521,-1838.629195
567.714672,-1776.494261,-8364.327145,-1072.533697
567.714994,-1554.432478,-8956.491898,-1991.848295
567.715317,-1554.432478,-9104.533087,-2451.505594
567.715639,-2442.679609,-7476.080014,-2451.505594
567.715962,-1850.514855,-8438.347739,-2528.115143
567.716284,-1628.453072,-11325.150913,-2145.067394
567.716606,-2294.638420,-11917.315666,-766.095498
567.716929,-4071.132681,-10288.862594,-1991.848295
567.717251,-5181.441594,-9844.739029,-2298.286494
567.717573,-4589.276840,-10510.924376,-2451.505594
567.717896,-4441.235652,-8956.491898,-2528.115143
567.718218,-3404.947333,-8068.244768,-2987.772442
567.718541,-1554.432478,-7994.224174,-1991.848295
567.718863,222.061783,-8660.409521,-1455.581446
567.719185,1110.308913,-8956.491898,0.000000
567.719508,814.226536,-8882.471304,-306.438199
567.719830,-518.144159,-9400.615463,-1838.629195
567.720152,-1480.411884,-9992.780217,-2451.505594
567.720475,-2664.741391,-8734.430116,-1608.800546
567.720797,-3182.885551,-8660.409521,-2221.676944
567.721120,-3552.988522,-9104.533087,-3370.820191
567.721442,-3923.091493,-9548.656652,-2681.334243
567.721764,-4811.338623,-10955.047942,-1225.752797
567.722087,-5995.668130,-10955.047942,-1149.143247
567.722409,-5625.565159,-10881.027347,-1302.362347
567.722731,-5107.421000,-9030.512492,-2528.115143
567.723054,-4145.153275,-8290.306550,-3524.039291
567.723376,-2146.597232,-8882.471304,-2911.162892
567.723699,-444.123565,-8882.471304,-1455.581446
567.724021,888.247130,-8364.327145,-383.047749
567.724343,2368.659014,-8364.327145,-1225.752797
567.724666,2146.597232,-9030.512492,-1838.629195
567.724988,-666.185348,-9178.553681,-383.047749
567.725310,-2442.679609,-9252.574275,153.219100
567.725633,-2812.782580,-9326.594869,-2451.505594
567.725955,-2516.700203,-9696.697840,-4519.963438
567.726277,-4737.318029,-8364.327145,-2451.505594
567.726600,-6735.874072,-7920.203579,-1149.143247
567.726922,-6513.812290,-10140.821405,-2145.067394
567.727245,-5773.606348,-11769.274478,-2834.553343
567.727567,-5551.544565,-10807.006753,-2068.457845
567.727889,-3997.112087,-9992.780217,-1608.800546
567.728212,-1110.308913,-10140.821405,-1915.238745
567.728534,888.247130,-8956.491898,-995.924147
567.728856,1776.494261,-7105.977043,536.266849
567.729179,3775.050304,-7772.162391,-229.828649
567.729501,4959.379811,-8364.327145,-2068.457845
567.729824,3182.885551,-8142.265362,-1991.848295
567.730146,-444.123565,-8364.327145,383.047749
567.730468,-2072.576638,-9474.636058,842.705048
567.730791,-1406.391290,-9844.739029,-2451.505594
567.731113,-2664.741391,-9326.594869,-4213.525239
567.731435,-5625.565159,-8512.368333,-2528.115143
567.731758,-7772.162391,-7994.224174,-1762.019645
567.732080,-7994.224174,-10362.883188,-2604.724693
567.732403,-8438.347739,-12583.501014,-2757.943793
567.732725,-8734.430116,-13545.768739,-1149.143247
567.733047,-6883.915261,-11251.130318,-536.266849
567.733370,-1998.556043,-8956.491898,-2145.067394
567.733692,3182.885551,-8290.306550,-2451.505594
567.734014,5625.565159,-7624.121203,612.876398
567.734337,6217.729913,-5995.668130,2374.896044
567.734659,6365.771101,-5181.441594,1149.143247
567.734982,4589.276840,-6587.832884,-1302.362347
567.735304,-222.061783,-9030.512492,-2451.505594
567.735626,-5921.647536,-9474.636058,-1762.019645
567.735949,-9400.615463,-8660.409521,-2757.943793
567.736271,-8068.244768,-10066.800811,-5439.278036
567.736593,-7402.059420,-11103.089130,-6511.811733
567.736916,-8216.285956,-12139.377449,-3447.429741
567.737238,-10288.862594,-10584.944971,-306.438199
567.737561,-9030.512492,-11769.274478,-1915.238745
567.737883,-5699.585753,-13915.871710,-4136.915689
567.738205,-4589.276840,-12879.583391,-4060.306139
567.738527,-5107.421000,-8956.491898,-1149.143247
567.738850,-3330.926739,-6365.771101,1378.971896
567.739172,1998.556043,-6513.812290,766.095498
567.739494,6587.832884,-6365.771101,-1455.581446
567.739817,7179.997637,-5995.668130,-919.314598
567.740139,6809.894666,-6143.709319,2068.457845
567.740461,6217.729913,-6809.894666,1149.143247
567.740783,5033.400406,-9104.533087,-1991.848295
567.741106,1036.288319,-10584.944971,-2604.724693
567.741428,-5033.400406,-11029.068536,-2221.676944
567.741750,-9474.636058,-11325.150913,-3370.820191
567.742073,-10436.903782,-11843.295072,-5669.106685
567.742395,-10140.821405,-12361.439231,-7431.126331
567.742717,-8438.347739,-13397.727550,-5822.325785
567.743039,-6587.832884,-11843.295072,0.000000
567.743362,-4219.173869,-11473.192101,1455.581446
567.743684,-1258.350101,-10066.800811,-306.438199
567.744006,148.041188,-9030.512492,-1991.848295
567.744329,-592.164754,-7772.162391,-919.314598
567.744651,-2294.638420,-6069.688724,2451.505594
567.744973,-2590.720797,-4959.379811,2374.896044
567.745295,-1332.370696,-4589.276840,-306.438199
567.745618,1332.370696,-5995.668130,-3064.381992
567.745940,3182.885551,-7772.162391,-2757.943793
567.746262,3182.885551,-8586.388927,-1378.971896
567.746584,1406.391290,-10214.842000,383.047749
567.746907,592.164754,-10510.924376,-612.876398
567.747229,-1184.329507,-10362.883188,-4673.182538
567.747551,-4515.256246,-11473.192101,-6818.249932
567.747874,-8438.347739,-12879.583391,-5975.544884
567.748196,-10362.883188,-13915.871710,-2757.943793
567.748518,-8586.388927,-13249.686362,-2221.676944
567.748840,-5107.421000,-10288.862594,-1991.848295
567.749163,-1628.453072,-8068.244768,-1378.971896
567.749485,296.082377,-6883.915261,612.876398
567.749807,888.247130,-6069.688724,2681.334243
567.750130,1776.494261,-4959.379811,2298.286494
567.750452,444.123565,-3552.988522,-383.047749
567.750774,-1406.391290,-3923.091493,-1915.238745
567.751096,-3627.009116,-7105.977043,-1915.238745
567.751419,-5995.668130,-10881.027347,-1532.190996
567.751741,-7179.997637,-12805.562797,-1149.143247
567.752063,-5625.565159,-13101.645173,-2681.334243
567.752386,-2294.638420,-12657.521608,-4903.011187
567.752708,-962.267725,-11473.192101,-4903.011187
567.753030,-888.247130,-10955.047942,-3217.601092
567.753352,-1332.370696,-9474.636058,-2145.067394
567.753675,-814.226536,-9548.656652,-2604.724693
567.753997,0.000000,-9474.636058,-3217.601092
567.754319,-740.205942,-9104.533087,-3753.867940
567.754642,-2886.803174,-9326.594869,-2374.896044
567.754964,-3997.112087,-10214.842000,306.438199
567.755286,-4145.153275,-9622.677246,1915.238745
567.755608,-3478.967927,-8216.285956,153.219100
567.755931,-3478.967927,-6217.729913,-1991.848295
567.756253,-3849.070898,-4737.318029,-3294.210641
567.756575,-3478.967927,-5773.606348,-2451.505594
567.756897,-3478.967927,-7179.997637,-1149.143247
567.757220,-3923.091493,-9030.512492,-2068.457845
567.757542,-3701.029710,-11029.068536,-3830.477490
567.757864,-3034.844362,-12805.562797,-4366.744339
567.758187,-2146.597232,-13989.892304,-2834.553343
567.758509,-1850.514855,-12805.562797,-2374.896044
567.758831,-518.144159,-12509.480420,-3064.381992
567.759153,296.082377,-12805.562797,-1608.800546
567.759476,0.000000,-10881.027347,306.438199
567.759798,-2146.597232,-8438.347739,1149.143247
567.760120,-4145.153275,-6587.832884,0.000000
567.760443,-3775.050304,-5995.668130,-1532.190996
567.760765,-2812.782580,-5699.585753,-1685.410096
567.761087,-1776.494261,-5107.421000,-1915.238745
567.761409,-1110.308913,-5699.585753,-1072.533697
567.761732,0.000000,-7031.956449,-689.485948
567.762054,962.267725,-7994.224174,-2145.067394
567.762376,148.041188,-9178.553681,-2834.553343
567.762699,-1184.329507,-10955.047942,-4596.572988
567.763021,-2368.659014,-12731.542202,-4903.011187
567.763343,-2960.823768,-13397.727550,-3907.087040
567.763665,-3552.988522,-13249.686362,-2911.162892
567.763988,-3849.070898,-13323.706956,-2068.457845
567.764310,-4293.194464,-12287.418637,-612.876398
567.764632,-4515.256246,-10214.842000,-306.438199
567.764954,-4515.256246,-8290.306550,-1072.533697
567.765277,-3256.906145,-7254.018232,-383.047749
567.765599,-2072.576638,-5699.585753,306.438199
567.765921,-592.164754,-4293.194464,1149.143247
567.766244,518.144159,-4293.194464,1149.143247
567.766566,1998.556043,-5403.503377,1072.533697
567.766888,3108.864956,-8068.244768,-153.219100
567.767210,3552.988522,-10066.800811,-1072.533697
567.767533,1998.556043,-11843.295072,-1455.581446
567.767855,0.000000,-12583.501014,-1532.190996
567.768177,-3108.864956,-11991.336260,-2528.115143
567.768500,-5921.647536,-12361.439231,-3370.820191
567.768822,-8142.265362,-12435.459826,-3907.087040
567.769144,-9622.677246,-11843.295072,-3830.477490
567.769466,-11843.295072,-10658.965565,-3294.210641
567.769789,-11843.295072,-10140.821405,-1838.629195
567.770111,-10214.842000,-9178.553681,-1302.362347
567.770433,-7254.018232,-7550.100608,-612.876398
567.770756,-4219.173869,-4737.318029,-766.095498
567.771078,-888.247130,-3108.864956,-1149.143247
567.771400,1776.494261,-2812.782580,-842.705048
567.771722,2886.803174,-4367.215058,-689.485948
567.772045,2738.761985,-7550.100608,-1302.362347
567.772367,2294.638420,-10658.965565,-1991.848295
567.772689,1850.514855,-13249.686362,-2374.896044
567.773012,222.061783,-13915.871710,-2681.334243
567.773334,-1776.494261,-13915.871710,-2451.505594
567.773656,-3849.070898,-12657.521608,-1762.019645
567.773978,-5773.606348,-10510.924376,-612.876398
567.774301,-6957.935855,-9030.512492,-1762.019645
567.774623,-7179.997637,-7920.203579,-2681.334243
567.774945,-7031.956449,-7179.997637,-3140.991542
567.775267,-5403.503377,-8438.347739,-2374.896044
567.775590,-3404.947333,-9992.780217,0.000000
567.775912,-1924.535449,-9992.780217,2987.772442
567.776234,-592.164754,-8068.244768,2374.896044
567.776557,1332.370696,-7031.956449,-153.219100
567.776879,2886.803174,-5921.647536,-2068.457845
567.777201,3701.029710,-5477.523971,-2604.724693
567.777523,4071.132681,-5329.482782,-3907.087040
567.777846,3627.009116,-6809.894666,-4443.353888
567.778168,3478.967927,-11177.109724,-4366.744339
567.778490,1628.453072,-14211.954086,-3370.820191
567.778813,-1554.432478,-15174.221811,-3064.381992
567.779135,-5107.421000,-16506.592507,-2681.334243
567.779457,-7179.997637,-16210.510130,-2834.553343
567.779779,-8364.327145,-12805.562797,-2987.772442
567.780102,-7994.224174,-8586.388927,-3830.477490
567.780424,-7031.956449,-5921.647536,-2681.334243
567.780746,-5033.400406,-4885.359217,-842.705048
567.781069,-2590.720797,-4441.235652,0.000000
567.781391,-1332.370696,-4737.318029,153.219100
567.781713,-740.205942,-6439.791695,0.000000
567.782035,-1332.370696,-8660.409521,-766.095498
567.782358,-2146.597232,-10807.006753,-1455.581446
567.782680,-2960.823768,-11029.068536,-1838.629195
567.783002,-2368.659014,-11103.089130,-2911.162892
567.783325,-1332.370696,-11325.150913,-3524.039291
567.783647,0.000000,-11843.295072,-3140.991542
567.783969,222.061783,-11325.150913,-1838.629195
567.784291,0.000000,-11399.171507,-612.876398
567.784614,-962.267725,-11769.274478,0.000000
567.784936,-2294.638420,-10288.862594,-459.657299
567.785258,-3552.988522,-7772.162391,-1532.190996
567.785580,-4811.338623,-5403.503377,-2221.676944
567.785903,-5477.523971,-4737.318029,-1991.848295
567.786225,-5255.462188,-4885.359217,-1225.752797
567.786547,-5107.421000,-5477.523971,-1225.752797
567.786870,-4367.215058,-6735.874072,-1915.238745
567.787192,-3478.967927,-9252.574275,-2451.505594
567.787514,-3182.885551,-11621.233289,-2911.162892
567.787836,-3701.029710,-12287.418637,-2451.505594
567.788159,-4145.153275,-12509.480420,-3140.991542
567.788481,-3849.070898,-12657.521608,-3753.867940
567.788803,-2960.823768,-11917.315666,-4060.306139
567.789126,-2442.679609,-11177.109724,-3677.258390
567.789448,-1628.453072,-10807.006753,-2451.505594
567.789770,-222.061783,-10732.986159,-919.314598
567.790092,222.061783,-10140.821405,0.000000
567.790415,814.226536,-9326.594869,536.266849
567.790737,666.185348,-7550.100608,612.876398
567.791059,888.247130,-6217.729913,76.609550
567.791382,962.267725,-5403.503377,-306.438199
567.791704,444.123565,-5255.462188,-383.047749
567.792026,-888.247130,-6365.771101,-229.828649
567.792348,-1332.370696,-8290.306550,-1149.143247
567.792671,-962.267725,-10140.821405,-995.924147
567.792993,-222.061783,-12065.356855,-1532.190996
567.793315,222.061783,-13323.706956,-1838.629195
567.793638,-444.123565,-12731.542202,-1378.971896
567.793960,-1036.288319,-11251.130318,-919.314598
567.794282,-1998.556043,-10288.862594,-766.095498
567.794604,-3108.864956,-8956.491898,-1685.410096
567.794927,-4071.132681,-8586.388927,-1991.848295
567.795249,-5255.462188,-8364.327145,-2068.457845
567.795571,-5403.503377,-8882.471304,-842.705048
567.795893,-4885.359217,-9178.553681,-459.657299
567.796216,-4663.297435,-8586.388927,-229.828649
567.796538,-4663.297435,-6883.915261,-459.657299
567.796860,-4737.318029,-5625.565159,-1991.848295
567.797183,-3923.091493,-6735.874072,-3140.991542
567.797505,-3849.070898,-7550.100608,-2681.334243
567.797827,-4737.318029,-8068.244768,-1838.629195
567.798149,-4441.235652,-9326.594869,-2221.676944
567.798472,-2886.803174,-11917.315666,-2681.334243
567.798794,-1480.411884,-13693.809927,-2221.676944
567.799116,-740.205942,-13249.686362,-689.485948
567.799439,0.000000,-11769.274478,0.000000
567.799761,444.123565,-10066.800811,-536.266849
567.800083,296.082377,-7994.224174,0.000000
567.800405,-962.267725,-7624.121203,383.047749
567.800728,-2738.761985,-7402.059420,153.219100
567.801050,-4071.132681,-7476.080014,-612.876398
567.801372,-4515.256246,-7772.162391,-1149.143247
567.801695,-4737.318029,-7994.224174,-1608.800546
567.802017,-3849.070898,-8956.491898,-766.095498
567.802339,-3478.967927,-9548.656652,-995.924147
567.802661,-2738.761985,-9178.553681,-1762.019645
567.802984,-1702.473667,-9400.615463,-2757.943793
567.803306,-1110.308913,-10658.965565,-3907.087040
567.803628,-962.267725,-11769.274478,-3677.258390
567.803951,-1924.535449,-11991.336260,-2604.724693
567.804273,-2294.638420,-12583.501014,-2604.724693
567.804595,-1332.370696,-13397.727550,-2298.286494
567.804917,-888.247130,-13027.624579,-1685.410096
567.805240,-814.226536,-11251.130318,0.000000
567.805562,-74.020594,-9696.697840,536.266849
567.805884,518.144159,-8882.471304,919.314598
567.806206,1110.308913,-7550.100608,1685.410096
567.806529,1628.453072,-5699.585753,2221.676944
567.806851,2072.576638,-5477.523971,1532.190996
567.807173,2368.659014,-6365.771101,1991.848295
567.807496,3404.947333,-7698.141797,1225.752797
567.807818,3182.885551,-8808.450710,919.314598
567.808140,3478.967927,-10955.047942,919.314598
567.808462,3182.885551,-12287.418637,1225.752797
567.808785,2664.741391,-12213.398043,1532.190996
567.809107,2442.679609,-11621.233289,689.485948
567.809429,1184.329507,-10732.986159,0.000000
567.809752,518.144159,-10510.924376,995.924147
567.810074,-444.123565,-9474.636058,1455.581446
567.810396,-1332.370696,-8216.285956,1608.800546
567.810718,-1702.473667,-7846.182985,1532.190996
567.811041,-1850.514855,-8142.265362,1762.019645
567.811363,-1850.514855,-8364.327145,2604.724693
567.811685,-2146.597232,-8068.244768,2987.772442
567.812008,-1998.556043,-7550.100608,3064.381992
567.812330,-1850.514855,-7624.121203,2987.772442
567.812652,-1850.514855,-7772.162391,2834.553343
567.812974,-1850.514855,-8216.285956,2451.505594
567.813297,-1480.411884,-9104.533087,2068.457845
567.813619,-1554.432478,-10066.800811,1838.629195
567.813941,-1628.453072,-11029.068536,2451.505594
567.814264,-2072.576638,-11621.233289,2604.724693
567.814586,-2516.700203,-11917.315666,2145.067394
567.814908,-2590.720797,-12065.356855,1378.971896
567.815230,-2294.638420,-11695.253884,1685.410096
567.815553,-1924.535449,-10436.903782,1762.019645
567.815875,-1850.514855,-9326.594869,2374.896044
567.816197,-1036.288319,-8956.491898,2987.772442
567.816519,-740.205942,-8734.430116,2757.943793
567.816842,-888.247130,-8660.409521,2145.067394
567.817164,-1332.370696,-9178.553681,1762.019645
567.817486,-2072.576638,-9474.636058,1838.629195
567.817809,-2368.659014,-9622.677246,1915.238745
567.818131,-2960.823768,-9770.718434,689.485948
567.818453,-3330.926739,-9548.656652,383.047749
567.818775,-2368.659014,-9918.759623,-383.047749
567.819098,-1628.453072,-9696.697840,-536.266849
567.819420,-1110.308913,-9622.677246,229.828649
567.819742,-1628.453072,-9326.594869,766.095498
567.820065,-1850.514855,-9474.636058,0.000000
567.820387,-962.267725,-9844.739029,-459.657299
567.820709,148.041188,-9992.780217,-383.047749
567.821031,2072.576638,-9696.697840,0.000000
567.821354,3627.009116,-7550.100608,306.438199
567.821676,4885.359217,-5847.626942,383.047749
567.821998,5995.668130,-5477.523971,-459.657299
567.822321,6217.729913,-6809.894666,-1149.143247
567.822643,5551.544565,-8068.244768,-1685.410096
567.822965,1998.556043,-9474.636058,-3064.381992
567.823287,-740.205942,-10140.821405,-2221.676944
567.823610,-3923.091493,-10658.965565,-1532.190996
567.823932,-5847.626942,-10955.047942,-3064.381992
567.824254,-6661.853478,-11251.130318,-4903.011187
567.824577,-4367.215058,-11917.315666,-5439.278036
567.824899,-1480.411884,-11547.212695,-5132.839837
567.825221,1332.370696,-13471.748144,-3064.381992
567.825543,3034.844362,-13693.809927,1149.143247
567.825866,4663.297435,-12657.521608,2374.896044
567.826188,5773.606348,-10584.944971,-383.047749
567.826510,6143.709319,-7920.203579,0.000000
567.826832,6143.709319,-5921.647536,1532.190996
567.827155,4737.318029,-3701.029710,-1838.629195
567.827477,2516.700203,-5033.400406,-2145.067394
567.827799,-592.164754,-7179.997637,612.876398
567.828122,-3404.947333,-8216.285956,229.828649
567.828444,-6661.853478,-10584.944971,-3217.601092
567.828766,-9474.636058,-12879.583391,-3600.648841
567.829088,-10140.821405,-13619.789333,-3677.258390
567.829411,-9474.636058,-11473.192101,-5286.058936
567.829733,-7254.018232,-12805.562797,-5286.058936
567.830055,-4885.359217,-13693.809927,-2145.067394
567.830378,-2960.823768,-12953.603985,-766.095498
567.830700,-2516.700203,-9400.615463,-306.438199
567.831022,-1924.535449,-7698.141797,-766.095498
567.831344,-1332.370696,-9696.697840,-306.438199
567.831667,-740.205942,-9844.739029,1149.143247
567.831989,-1628.453072,-8216.285956,2374.896044
567.832311,-1702.473667,-7105.977043,3294.210641
567.832634,0.000000,-7179.997637,3907.087040
567.832956,1776.494261,-9252.574275,4519.963438
567.833278,148.041188,-8660.409521,5669.106685
567.833600,-962.267725,-9252.574275,6435.202183
567.833923,-1110.308913,-9030.512492,4903.011187
567.834245,-518.144159,-6957.935855,3447.429741
567.834567,0.000000,-5329.482782,1762.019645
567.834890,1110.308913,-5107.421000,0.000000
567.835212,1850.514855,-6661.853478,459.657299
567.835534,3256.906145,-9400.615463,2451.505594
567.835856,3404.947333,-10658.965565,3294.210641
567.836179,3108.864956,-11621.233289,3140.991542
567.836501,2442.679609,-12287.418637,2604.724693
567.836823,2072.576638,-12583.501014,842.705048
567.837145,296.082377,-10732.986159,1072.533697
567.837468,-2146.597232,-8956.491898,2757.943793
567.837790,-4293.194464,-7179.997637,3447.429741
567.838115,-5181.441594,-8438.347739,2911.162892
567.838437,-4441.235652,-10881.027347,1455.581446
567.838760,-3478.967927,-10510.924376,1762.019645
567.839082,-740.205942,-11547.212695,1225.752797
567.839405,2664.741391,-11769.274478,1915.238745
567.839727,5921.647536,-11251.130318,3370.820191
567.840050,7105.977043,-9474.636058,3907.087040
567.840372,6735.874072,-8808.450710,2911.162892
567.840694,5255.462188,-9178.553681,3294.210641
567.841017,5181.441594,-7772.162391,3370.820191
567.841339,5403.503377,-6365.771101,-229.828649
567.841662,5625.565159,-8808.450710,-4596.572988
567.841984,4885.359217,-13767.830521,-1378.971896
567.842306,1998.556043,-12435.459826,3524.039291
567.842629,-4071.132681,-10510.924376,3064.381992
567.842951,-8438.347739,-13175.665768,1762.019645
567.843274,-10732.986159,-13471.748144,-995.924147
567.843596,-14211.954086,-11843.295072,-7814.174080
567.843918,-16580.613101,-9548.656652,-4519.963438
567.844241,-17098.757260,-8216.285956,3217.601092
567.844563,-12657.521608,-5477.523971,1072.533697
567.844886,-4737.318029,-5699.585753,-2911.162892
567.845208,2812.782580,-7402.059420,-1685.410096
567.845530,6735.874072,-7920.203579,-1915.238745
567.845853,7698.141797,-8956.491898,-1378.971896
567.846175,9622.677246,-7846.182985,5132.839837
567.846498,10140.821405,-4737.318029,2911.162892
567.846820,10362.883188,-5033.400406,-6665.030833
567.847142,9474.636058,-11547.212695,-5439.278036
567.847465,5255.462188,-13693.809927,1532.190996
567.847787,-2368.659014,-13027.624579,3217.601092
567.848110,-8290.306550,-15840.407159,4749.792088
567.848432,-9770.718434,-14434.015869,5132.839837
567.848755,-10214.842000,-8364.327145,-2757.943793
567.849077,-8734.430116,-6513.812290,-8963.317327
567.849399,-6513.812290,-8438.347739,-4443.353888
567.849722,-3478.967927,-6735.874072,3600.648841
567.850044,-1406.391290,-1850.514855,3600.648841
567.850367,592.164754,-1998.556043,612.876398
567.850689,2368.659014,-8808.450710,-1915.238745
567.851011,2738.761985,-12435.459826,-3753.867940
567.851334,962.267725,-11695.253884,-4290.134789
567.851656,-962.267725,-11769.274478,-2145.067394
567.851979,0.000000,-13027.624579,153.219100
567.852301,1776.494261,-11917.315666,-1838.629195
567.852623,148.041188,-10658.965565,-2681.334243
567.852946,-1480.411884,-12657.521608,-1915.238745
567.853268,-1924.535449,-14359.995275,-2145.067394
567.853591,-962.267725,-15100.201217,-919.314598
567.853913,-370.102971,-10732.986159,2757.943793
567.854235,-148.041188,-6957.935855,2681.334243
567.854558,1036.288319,-5255.462188,2298.286494
567.854880,4959.379811,-4811.338623,1455.581446
567.855203,6883.915261,-4219.173869,306.438199
567.855525,5329.482782,-3627.009116,76.609550
567.855848,2368.659014,-7402.059420,3140.991542
567.856170,0.000000,-11029.068536,4903.011187
567.856492,-222.061783,-13767.830521,1838.629195
567.856815,444.123565,-14730.098246,-2221.676944
567.857137,1702.473667,-14063.912898,-2451.505594
567.857460,888.247130,-10436.903782,0.000000
567.857782,-296.082377,-8956.491898,3294.210641
567.858104,-1776.494261,-8364.327145,3140.991542
567.858427,-2516.700203,-10066.800811,229.828649
567.858749,-3627.009116,-11695.253884,-1608.800546
567.859072,-4811.338623,-11177.109724,0.000000
567.859394,-6957.935855,-10584.944971,2987.772442
567.859716,-7031.956449,-9548.656652,3983.696590
567.860039,-4589.276840,-9178.553681,4749.792088
567.860361,-1258.350101,-6587.832884,3983.696590
567.860684,1036.288319,-3478.967927,1915.238745
567.861006,2368.659014,-1184.329507,306.438199
567.861328,3627.009116,-2738.761985,-459.657299
567.861651,3923.091493,-6439.791695,536.266849
567.861973,2812.782580,-11843.295072,1838.629195
567.862296,296.082377,-14508.036463,2451.505594
567.862618,-2590.720797,-13915.871710,1225.752797
567.862940,-4737.318029,-13693.809927,-995.924147
567.863263,-4219.173869,-14804.118840,-1991.848295
567.863585,-3997.112087,-13989.892304,-1149.143247
567.863908,-2368.659014,-12287.418637,2221.676944
567.864230,-2294.638420,-7846.182985,4366.744339
567.864553,74.020594,-7328.038826,3677.258390
567.864875,962.267725,-7031.956449,1149.143247
567.865197,740.205942,-7698.141797,1149.143247
567.865520,-1332.370696,-7846.182985,2757.943793
567.865842,-1998.556043,-6661.853478,3217.601092
567.866165,-222.061783,-5995.668130,1149.143247
567.866487,2442.679609,-7105.977043,-995.924147
567.866809,3849.070898,-9548.656652,76.609550
567.867132,3552.988522,-10584.944971,1915.238745
567.867454,2368.659014,-10658.965565,919.314598
567.867777,1998.556043,-11325.150913,-2068.457845
567.868099,370.102971,-12657.521608,-3140.991542
567.868421,-2146.597232,-14137.933492,-2528.115143
567.868744,-5329.482782,-13175.665768,-1378.971896
567.869066,-6809.894666,-11769.274478,-1915.238745
567.869389,-5847.626942,-12287.418637,-2528.115143
567.869711,-3997.112087,-12509.480420,459.657299
567.870033,-4367.215058,-10288.862594,4136.915689
567.870356,-3701.029710,-7402.059420,4903.011187
567.870678,-592.164754,-4663.297435,2451.505594
567.871001,2738.761985,-4663.297435,-383.047749
567.871323,3256.906145,-5329.482782,76.609550
567.871646,1332.370696,-5921.647536,3370.820191
567.871968,1258.350101,-7476.080014,3677.258390
567.872290,3404.947333,-8734.430116,1225.752797
567.872613,5477.523971,-8882.471304,-919.314598
567.872935,5329.482782,-9104.533087,-1608.800546
567.873258,4959.379811,-10658.965565,-1685.410096
567.873580,4737.318029,-12287.418637,-1302.362347
567.873902,2590.720797,-11769.274478,-306.438199
567.874225,-1332.370696,-11621.233289,0.000000
567.874547,-4885.359217,-12287.418637,-1608.800546
567.874870,-6291.750507,-11547.212695,-2911.162892
567.875192,-5847.626942,-10288.862594,-2987.772442
567.875514,-5329.482782,-8956.491898,-383.047749
567.875837,-4219.173869,-8290.306550,1762.019645
567.876159,-2294.638420,-7698.141797,2374.896044
567.876482,-1258.350101,-6587.832884,3140.991542
567.876804,-1480.411884,-6217.729913,2145.067394
567.877126,-1554.432478,-6513.812290,-153.219100
567.877449,74.020594,-7254.018232,-2298.286494
567.877771,1776.494261,-7772.162391,-2145.067394
567.878094,2886.803174,-9400.615463,-689.485948
567.878416,3034.844362,-11251.130318,-459.657299
567.878739,2886.803174,-12731.542202,-2681.334243
567.879061,888.247130,-14359.995275,-3677.258390
567.879383,-1998.556043,-15396.283594,-3064.381992
567.879706,-4071.132681,-14730.098246,-3217.601092
567.880028,-4071.132681,-13323.706956,-5592.497135
567.880351,-2960.823768,-12065.356855,-3983.696590
567.880673,-2516.700203,-11399.171507,0.000000
567.880995,-2146.597232,-10362.883188,2834.553343
567.881318,-2368.659014,-10510.924376,2911.162892
567.881640,-2812.782580,-9622.677246,3983.696590
567.881963,-3034.844362,-6735.874072,5669.106685
567.882285,-962.267725,-5847.626942,3217.601092
567.882607,2220.617826,-5107.421000,2145.067394
567.882930,3923.091493,-2146.597232,3677.258390
567.883252,3997.112087,-888.247130,3907.087040
567.883575,4071.132681,-4515.256246,2374.896044
567.883897,3478.967927,-9400.615463,995.924147
567.884219,370.102971,-11177.109724,0.000000
567.884542,-3478.967927,-12213.398043,-1608.800546
567.884864,-4737.318029,-14211.954086,-3524.039291
567.885187,-3330.926739,-15914.427753,-3370.820191
567.885509,-2812.782580,-12879.583391,0.000000
567.885831,-3997.112087,-9474.636058,1455.581446
567.886154,-4811.338623,-9400.615463,1455.581446
567.886476,-4811.338623,-9992.780217,1608.800546
567.886799,-4441.235652,-8956.491898,1762.019645
567.887121,-3552.988522,-8364.327145,612.876398
567.887444,-740.205942,-8956.491898,2911.162892
567.887766,3034.844362,-5107.421000,5592.497135
567.888088,5921.647536,-1258.350101,4673.182538
567.888411,6735.874072,-3404.947333,2604.724693
567.888733,6513.812290,-7031.956449,2604.724693
567.889056,4071.132681,-7031.956449,1532.190996
567.889378,2368.659014,-8734.430116,-2221.676944
567.889700,1628.453072,-12953.603985,-4213.525239
567.890023,1480.411884,-15248.242405,-2528.115143
567.890345,222.061783,-16136.489536,-1225.752797
567.890668,-1998.556043,-17542.880825,-1991.848295
567.890990,-3330.926739,-17987.004391,-2068.457845
567.891312,-3923.091493,-14063.912898,-1762.019645
567.891635,-3775.050304,-10955.047942,-3217.601092
567.891957,-2664.741391,-10140.821405,-2374.896044
567.892280,-1036.288319,-7476.080014,306.438199
567.892602,888.247130,-3627.009116,1532.190996
567.892924,2812.782580,-2516.700203,383.047749
567.893247,3034.844362,-4959.379811,383.047749
567.893569,962.267725,-6291.750507,1532.190996
567.893892,-962.267725,-7476.080014,229.828649
567.894214,-1702.473667,-10436.903782,-1838.629195
567.894537,-2146.597232,-11177.109724,-3140.991542
567.894859,-2664.741391,-9918.759623,-4443.353888
567.895181,-3404.947333,-9770.718434,-3600.648841
567.895504,-3108.864956,-9400.615463,-2681.334243
567.895826,-1998.556043,-10362.883188,-3600.648841
567.896149,-1776.494261,-13175.665768,-4826.401637
567.896471,-1628.453072,-15100.201217,-1455.581446
567.896793,-962.267725,-13471.748144,-153.219100
567.897116,1406.391290,-10066.800811,-1762.019645
567.897438,3330.926739,-7254.018232,-1378.971896
567.897761,4293.194464,-4737.318029,153.219100
567.898083,3552.988522,-1850.514855,306.438199
567.898405,3182.885551,-2146.597232,-766.095498
567.898728,1406.391290,-4515.256246,-2068.457845
567.899050,-2072.576638,-6217.729913,-2451.505594
567.899373,-5699.585753,-8734.430116,-1915.238745
567.899695,-6957.935855,-12361.439231,-2374.896044
567.900017,-7254.018232,-14063.912898,-4443.353888
567.900340,-5699.585753,-15174.221811,-5056.230287
567.900662,-3256.906145,-14656.077652,-3830.477490
567.900985,-1554.432478,-12065.356855,-1608.800546
567.901307,-666.185348,-9104.533087,-2451.505594
567.901630,518.144159,-8660.409521,-4443.353888
567.901952,888.247130,-8956.491898,-3983.696590
567.902274,1776.494261,-7846.182985,-2681.334243
567.902597,2368.659014,-6957.935855,-2681.334243
567.902919,3478.967927,-9474.636058,-2451.505594
567.903242,3775.050304,-10584.944971,842.705048
567.903564,2812.782580,-9252.574275,1455.581446
567.903886,666.185348,-9548.656652,153.219100
567.904209,-1184.329507,-10288.862594,-229.828649
567.904531,-2368.659014,-9474.636058,-459.657299
567.904854,-1184.329507,-9696.697840,-1455.581446
567.905176,-222.061783,-9400.615463,-689.485948
567.905498,1406.391290,-7920.203579,-689.485948
567.905821,2368.659014,-7254.018232,-1302.362347
567.906143,2886.803174,-8808.450710,-1149.143247
567.906466,1998.556043,-9918.759623,-1149.143247
567.906788,222.061783,-10214.842000,-1838.629195
567.907110,-814.226536,-11325.150913,-1455.581446
567.907433,-1036.288319,-11991.336260,-306.438199
567.907755,-1406.391290,-10510.924376,-689.485948
567.908078,-2294.638420,-8364.327145,-919.314598
567.908400,-3404.947333,-7179.997637,919.314598
567.908722,-3182.885551,-7846.182985,689.485948
567.909045,-1924.535449,-9474.636058,0.000000
567.909367,-2294.638420,-7328.038826,-306.438199
567.909690,-1406.391290,-6217.729913,76.609550
567.910012,962.267725,-8586.388927,-766.095498
567.910335,1554.432478,-9178.553681,-995.924147
567.910657,-148.041188,-6809.894666,229.828649
567.910979,-2072.576638,-5921.647536,-766.095498
567.911302,-2294.638420,-9474.636058,-2221.676944
567.911624,-1036.288319,-11917.315666,-2068.457845
567.911947,-1480.411884,-11769.274478,-1608.800546
567.912269,-1628.453072,-11769.274478,-2834.553343
567.912591,-2368.659014,-11103.089130,-3217.601092
567.912914,-1554.432478,-9918.759623,-2528.115143
567.913236,-296.082377,-9696.697840,-3370.820191
567.913559,-370.102971,-10658.965565,-2911.162892
567.913881,-888.247130,-10362.883188,-1838.629195
567.914203,-1036.288319,-9474.636058,-1838.629195
567.914526,-148.041188,-7994.224174,-1225.752797
567.914848,1406.391290,-6439.791695,-1685.410096
567.915171,2220.617826,-5255.462188,-3983.696590
567.915493,1702.473667,-6291.750507,-2834.553343
567.915815,666.185348,-9030.512492,-1149.143247
567.916138,-370.102971,-11473.192101,-1991.848295
567.916460,-2220.617826,-12583.501014,-3447.429741
567.916783,-2442.679609,-15174.221811,-3677.258390
567.917105,-2516.700203,-14285.974681,-4060.306139
567.917428,-888.247130,-12361.439231,-4290.134789
567.917750,1110.308913,-11399.171507,-3064.381992
567.918072,3182.885551,-9474.636058,-229.828649
567.918395,4367.215058,-5477.523971,306.438199
567.918717,4515.256246,-3923.091493,-1608.800546
567.919040,3256.906145,-5403.503377,-3600.648841
567.919362,814.226536,-7624.121203,-2374.896044
567.919684,-1924.535449,-9844.739029,-919.314598
567.920007,-3404.947333,-11251.130318,-842.705048
567.920329,-3552.988522,-10955.047942,-1532.190996
567.920652,-3552.988522,-8586.388927,-2221.676944
567.920974,-3404.947333,-8660.409521,-1685.410096
567.921296,-4441.235652,-8586.388927,-1838.629195
567.921619,-4663.297435,-8290.306550,-2068.457845
567.921941,-3627.009116,-9326.594869,-2987.772442
567.922264,-1850.514855,-10584.944971,-1072.533697
567.922586,-444.123565,-9548.656652,0.000000
567.922908,1554.432478,-7476.080014,-1838.629195
567.923231,4145.153275,-7254.018232,-2451.505594
567.923553,6365.771101,-7624.121203,-995.924147
567.923876,6957.935855,-7105.977043,-995.924147
567.924198,5625.565159,-8438.347739,-1455.581446
567.924521,4441.235652,-9178.553681,-766.095498
567.924843,2368.659014,-10066.800811,-995.924147
567.925165,370.102971,-11991.336260,-1302.362347
567.925488,-1702.473667,-13027.624579,-1532.190996
567.925810,-3404.947333,-12287.418637,-1302.362347
567.926133,-3552.988522,-11695.253884,-1149.143247
567.926455,-1850.514855,-11621.233289,76.609550
567.926777,-814.226536,-8290.306550,-1149.143247
567.927100,-592.164754,-5625.565159,-2451.505594
567.927422,222.061783,-4885.359217,-2451.505594
567.927745,444.123565,-5477.523971,-2145.067394
567.928067,-1332.370696,-6587.832884,-2451.505594
567.928389,-3108.864956,-9992.780217,-2221.676944
567.928712,-4737.318029,-13471.748144,-2068.457845
567.929034,-6735.874072,-14434.015869,-2451.505594
567.929357,-7402.059420,-14063.912898,-2068.457845
567.929679,-6143.709319,-12139.377449,-2145.067394
567.930001,-4145.153275,-7550.100608,-3983.696590
567.930324,-1258.350101,-5847.626942,-3677.258390
567.930646,222.061783,-8068.244768,-2374.896044
567.930969,814.226536,-10584.944971,919.314598
567.931291,370.102971,-10807.006753,919.314598
567.931613,962.267725,-11029.068536,-1608.800546
567.931936,2072.576638,-10658.965565,-2834.553343
567.932258,3552.988522,-8734.430116,-1685.410096
567.932581,4885.359217,-7031.956449,0.000000
567.932903,5699.585753,-6587.832884,766.095498
567.933226,4885.359217,-6735.874072,995.924147
567.933548,2516.700203,-7402.059420,459.657299
567.933870,-814.226536,-8734.430116,-1225.752797
567.934193,-3552.988522,-10140.821405,-2451.505594
567.934515,-4219.173869,-10436.903782,-3907.087040
567.934838,-2220.617826,-10881.027347,-4596.572988
567.935160,0.000000,-11029.068536,-2604.724693
567.935482,592.164754,-9400.615463,536.266849
567.935805,222.061783,-8882.471304,1149.143247
567.936127,0.000000,-9104.533087,-919.314598
567.936450,-1258.350101,-7994.224174,-3524.039291
567.936772,-1850.514855,-5625.565159,-4903.011187
567.937094,-1776.494261,-5403.503377,-4136.915689
567.937417,74.020594,-6883.915261,-1378.971896
567.937739,444.123565,-7846.182985,153.219100
567.938062,-1480.411884,-9696.697840,-459.657299
567.938384,-3923.091493,-12731.542202,-766.095498
567.938706,-4367.215058,-14211.954086,-1302.362347
567.939028,-2664.741391,-12583.501014,-3294.210641
567.939351,0.000000,-10658.965565,-3524.039291
567.939673,2664.741391,-6587.832884,-919.314598
567.939995,4885.359217,-4737.318029,0.000000
567.940318,6069.688724,-6365.771101,-306.438199
567.940640,5551.544565,-9252.574275,-1532.190996
567.940962,3108.864956,-10436.903782,-2528.115143
567.941285,518.144159,-11621.233289,-3294.210641
567.941607,-592.164754,-13545.768739,-2834.553343
567.941929,-1036.288319,-13545.768739,-2221.676944
567.942251,-1924.535449,-12805.562797,-1685.410096
567.942574,-3404.947333,-11325.150913,0.000000
567.942896,-5181.441594,-9030.512492,-1302.362347
567.943218,-5181.441594,-8068.244768,-3600.648841
567.943541,-3997.112087,-8882.471304,-4673.182538
567.943863,-2368.659014,-8882.471304,-2757.943793
567.944185,-592.164754,-8956.491898,-1225.752797
567.944507,1110.308913,-9104.533087,-459.657299
567.944830,2516.700203,-8068.244768,153.219100
567.945152,2368.659014,-7179.997637,-229.828649
567.945474,1406.391290,-7846.182985,-1532.190996
567.945797,-296.082377,-10362.883188,-2221.676944
567.946119,-2220.617826,-9474.636058,-1991.848295
567.946441,-3108.864956,-8142.265362,-842.705048
567.946764,-1776.494261,-8290.306550,153.219100
567.947086,-444.123565,-9326.594869,0.000000
567.947408,-1628.453072,-8290.306550,-153.219100
567.947730,-2146.597232,-9770.718434,0.000000
567.948053,-1406.391290,-11029.068536,306.438199
567.948375,-296.082377,-9548.656652,-1608.800546
567.948697,1036.288319,-7179.997637,-2451.505594
567.949020,2368.659014,-5033.400406,-612.876398
567.949342,4071.132681,-3849.070898,-153.219100
567.949664,4737.318029,-3701.029710,-766.095498
567.949987,3552.988522,-7105.977043,-306.438199
567.950309,1184.329507,-9696.697840,-1532.190996
567.950631,-2368.659014,-10584.944971,-3447.429741
567.950953,-5107.421000,-13767.830521,-3140.991542
567.951276,-5625.565159,-15470.304188,-919.314598
567.951598,-5847.626942,-12361.439231,-2528.115143
567.951920,-3478.967927,-9770.718434,-4979.620737
567.952243,-444.123565,-8956.491898,-4290.134789
567.952565,1332.370696,-8216.285956,-1991.848295
567.952887,1184.329507,-8068.244768,-2451.505594
567.953209,666.185348,-10362.883188,-3294.210641
567.953532,0.000000,-11177.109724,-2145.067394
567.953854,74.020594,-9474.636058,-2681.334243
567.954176,814.226536,-8660.409521,-4673.182538
567.954499,1998.556043,-9400.615463,-3447.429741
567.954821,1998.556043,-9400.615463,-1991.848295
567.955143,592.164754,-9474.636058,-1532.190996
567.955466,-1776.494261,-10955.047942,-1378.971896
567.955788,-3404.947333,-13101.645173,-2068.457845
567.956110,-3923.091493,-12731.542202,-4290.134789
567.956432,-2886.803174,-12583.501014,-4673.182538
567.956755,-592.164754,-11547.212695,-2757.943793
567.957077,1258.350101,-8068.244768,-1378.971896
567.957399,3701.029710,-7105.977043,-1149.143247
567.957722,4663.297435,-8512.368333,0.000000
567.958044,3478.967927,-9104.533087,842.705048
567.958366,1628.453072,-8142.265362,-689.485948
567.958688,222.061783,-8882.471304,-1302.362347
567.959011,1258.350101,-8808.450710,-1455.581446
567.959333,1110.308913,-6365.771101,-2221.676944
567.959655,-740.205942,-6217.729913,-842.705048
567.959978,-3330.926739,-8660.409521,2298.286494
567.960300,-5477.523971,-10807.006753,1608.800546
567.960622,-6069.688724,-13101.645173,-1532.190996
567.960945,-5477.523971,-13323.706956,-2068.457845
567.961267,-4219.173869,-9104.533087,0.000000
567.961589,-1628.453072,-4737.318029,-995.924147
567.961911,2072.576638,-2590.720797,-995.924147
567.962234,3627.009116,-2590.720797,0.000000
567.962556,1776.494261,-3923.091493,383.047749
567.962878,-1480.411884,-8068.244768,-612.876398
567.963201,-3923.091493,-13545.768739,-1608.800546
567.963523,-5181.441594,-15174.221811,-1991.848295
567.963845,-4663.297435,-14434.015869,-1378.971896
567.964168,-2590.720797,-11769.274478,-306.438199
567.964490,-888.247130,-8290.306550,0.000000
567.964812,1332.370696,-6143.709319,-229.828649
567.965134,1554.432478,-7402.059420,-1149.143247
567.965457,592.164754,-9548.656652,-766.095498
567.965779,1110.308913,-11251.130318,-1685.410096
567.966101,3108.864956,-11843.295072,-3217.601092
567.966424,4663.297435,-10881.027347,-2528.115143
567.966746,6069.688724,-9030.512492,153.219100
567.967068,6735.874072,-8808.450710,1762.019645
567.967390,5033.400406,-8808.450710,153.219100
567.967713,1628.453072,-9622.677246,-1072.533697
567.968035,-2146.597232,-10510.924376,-2911.162892
567.968357,-4293.194464,-11251.130318,-3830.477490
567.968680,-4737.318029,-11843.295072,-3370.820191
567.969002,-4293.194464,-12361.439231,-2604.724693
567.969324,-3108.864956,-11399.171507,-689.485948
567.969647,-1554.432478,-9474.636058,995.924147
567.969969,-370.102971,-7698.141797,0.000000
567.970291,-222.061783,-7105.977043,-3294.210641
567.970613,-1480.411884,-7179.997637,-3677.258390
567.970936,-1702.473667,-6069.688724,-2757.943793
567.971258,-148.041188,-5625.565159,-2757.943793
567.971580,1850.514855,-7698.141797,-2834.553343
567.971903,2664.741391,-9548.656652,-1685.410096
567.972225,1628.453072,-9844.739029,-1225.752797
567.972547,-1702.473667,-11695.253884,-1455.581446
567.972870,-4663.297435,-12879.583391,-1072.533697
567.973192,-4885.359217,-11843.295072,-2451.505594
567.973514,-3404.947333,-9696.697840,-4596.572988
567.973836,-1258.350101,-7624.121203,-3983.696590
567.974159,444.123565,-5329.482782,-1685.410096
567.974481,1702.473667,-4959.379811,-612.876398
567.974803,2590.720797,-6291.750507,-612.876398
567.975126,2664.741391,-7179.997637,-1685.410096
567.975448,2294.638420,-8290.306550,-3677.258390
567.975770,888.247130,-10214.842000,-4060.306139
567.976092,-222.061783,-12139.377449,-2221.676944
567.976415,-740.205942,-11843.295072,-1225.752797
567.976737,-1110.308913,-11103.089130,-1302.362347
567.977059,-1702.473667,-10362.883188,-1608.800546
567.977382,-2072.576638,-9622.677246,-2681.334243
567.977704,-2812.782580,-7698.141797,-3907.087040
567.978026,-1406.391290,-10288.862594,-3370.820191
567.978349,148.041188,-11917.315666,-2451.505594
567.978671,962.267725,-11399.171507,-1991.848295
567.978993,592.164754,-10066.800811,-842.705048
567.979315,74.020594,-8956.491898,-306.438199
567.979638,-370.102971,-7994.224174,-995.924147
567.979960,-222.061783,-8882.471304,-1838.629195
567.980282,-222.061783,-9992.780217,-1838.629195
567.980605,-296.082377,-9326.594869,-1225.752797
567.980927,-296.082377,-8808.450710,-842.705048
567.981249,-296.082377,-9696.697840,-842.705048
567.981572,-740.205942,-10658.965565,-306.438199
567.981894,-2294.638420,-10214.842000,-1302.362347
567.982216,-3108.864956,-11547.212695,-2604.724693
567.982538,-2886.803174,-11399.171507,-1378.971896
567.982861,-1924.535449,-9400.615463,0.000000
567.983183,-148.041188,-8586.388927,-1072.533697
567.983505,592.164754,-8808.450710,-1455.581446
567.983828,-148.041188,-7402.059420,995.924147
567.984150,0.000000,-7254.018232,1991.848295
567.984472,740.205942,-8068.244768,76.609550
567.984794,370.102971,-8068.244768,-1762.019645
567.985117,-1184.329507,-8216.285956,-1072.533697
567.985439,-1776.494261,-8956.491898,766.095498
567.985761,-1998.556043,-9030.512492,1072.533697
567.986084,-2146.597232,-10584.944971,306.438199
567.986406,-814.226536,-12805.562797,536.266849
567.986728,-148.041188,-12287.418637,1762.019645
567.987051,814.226536,-10140.821405,1149.143247
567.987373,2960.823768,-8364.327145,0.000000
567.987695,4737.318029,-7105.977043,-1225.752797
567.988017,4737.318029,-4515.256246,-1225.752797
567.988340,3034.844362,-3552.988522,306.438199
567.988662,1480.411884,-6957.935855,306.438199
567.988984,-296.082377,-11547.212695,-919.314598
567.989307,-2812.782580,-13175.665768,-1838.629195
567.989629,-4885.359217,-12139.377449,-1608.800546
567.989951,-5995.668130,-11177.109724,-2451.505594
567.990274,-4589.276840,-9474.636058,-2987.772442
567.990596,-2664.741391,-9178.553681,-3600.648841
567.990918,-1628.453072,-8956.491898,-2451.505594
567.991240,-1406.391290,-7994.224174,-1149.143247
567.991563,-1406.391290,-9104.533087,-2298.286494
567.991885,-1924.535449,-10436.903782,-4213.525239
567.992207,-1184.329507,-10881.027347,-4213.525239
567.992530,-370.102971,-8512.368333,-2451.505594
567.992852,1702.473667,-7846.182985,-2068.457845
567.993174,3552.988522,-9400.615463,-1225.752797
567.993496,4145.153275,-9696.697840,-689.485948
567.993819,3034.844362,-9474.636058,-995.924147
567.994141,1480.411884,-9992.780217,-2221.676944
567.994463,888.247130,-10510.924376,-3600.648841
567.994786,444.123565,-11177.109724,-4213.525239
567.995108,444.123565,-11177.109724,-2451.505594
567.995430,1110.308913,-10362.883188,0.000000
567.995753,1924.535449,-8142.265362,-766.095498
567.996075,2146.597232,-7624.121203,-3217.601092
567.996397,1036.288319,-7698.141797,-3140.991542
567.996719,-666.185348,-6587.832884,-2834.553343
567.997042,-1850.514855,-6883.915261,-3140.991542
567.997364,-2368.659014,-9400.615463,-3830.477490
567.997686,-3923.091493,-10510.924376,-2911.162892
567.998009,-4811.338623,-9992.780217,-1991.848295
567.998331,-5107.421000,-9030.512492,-2451.505594
567.998653,-4589.276840,-10288.862594,-3983.696590
567.998976,-4145.153275,-10807.006753,-3370.820191
567.999298,-3775.050304,-11325.150913,-2451.505594
567.999620,-2664.741391,-11473.192101,-306.438199
567.999942,-148.041188,-11251.130318,0.000000
568.000265,1628.453072,-10214.842000,-1608.800546
568.000587,3182.885551,-7846.182985,-1838.629195
568.000909,3849.070898,-6587.832884,-1608.800546
568.001232,3627.009116,-6661.853478,-919.314598
568.001554,3330.926739,-8956.491898,689.485948
568.001876,2442.679609,-10288.862594,1762.019645
568.002198,1628.453072,-9474.636058,76.609550
568.002521,370.102971,-9622.677246,-2451.505594
568.002843,-1332.370696,-9918.759623,-1378.971896
568.003165,-1850.514855,-9030.512492,-153.219100
568.003488,-740.205942,-8438.347739,-1838.629195
568.003810,-444.123565,-10140.821405,-2604.724693
568.004132,-1258.350101,-10955.047942,-842.705048
568.004455,-2146.597232,-9696.697840,153.219100
568.004777,-2294.638420,-8882.471304,-2374.896044
568.005099,-2442.679609,-9178.553681,-3600.648841
568.005421,-2368.659014,-9252.574275,-2757.943793
568.005744,-2146.597232,-7698.141797,-1455.581446
568.006066,-1924.535449,-7624.121203,-842.705048
568.006388,-2072.576638,-8586.388927,-919.314598
568.006711,-3108.864956,-9770.718434,-1072.533697
568.007033,-4293.194464,-11103.089130,-689.485948
568.007355,-4293.194464,-11177.109724,-383.047749
568.007678,-2072.576638,-11177.109724,-766.095498
568.008000,1480.411884,-10510.924376,-1149.143247
568.008322,3775.050304,-8364.327145,1072.533697
568.008644,4663.297435,-5699.585753,3064.381992
568.008967,5847.626942,-5773.606348,1762.019645
568.009289,6143.709319,-7402.059420,-1685.410096
568.009611,4367.215058,-8808.450710,-1915.238745
568.009934,1776.494261,-9400.615463,-306.438199
568.010256,592.164754,-10881.027347,0.000000
568.010578,296.082377,-13027.624579,-1149.143247
568.010900,-518.144159,-13323.706956,-612.876398
568.011223,-1850.514855,-11399.171507,-306.438199
568.011545,-3775.050304,-9252.574275,-1608.800546
568.011867,-3775.050304,-8142.265362,-2528.115143
568.012190,-2516.700203,-9326.594869,-3677.258390
568.012512,-3108.864956,-10140.821405,-2681.334243
568.012834,-3182.885551,-8364.327145,459.657299
568.013157,-2368.659014,-7476.080014,-153.219100
568.013479,-1628.453072,-8512.368333,-3217.601092
568.013801,-1184.329507,-9548.656652,-2068.457845
568.014123,-1850.514855,-8956.491898,-689.485948
568.014446,-2220.617826,-8216.285956,-2451.505594
568.014768,-666.185348,-8660.409521,-2298.286494
568.015090,666.185348,-7994.224174,-1991.848295
568.015413,1110.308913,-7179.997637,-1915.238745
568.015735,-148.041188,-7772.162391,-1072.533697
568.016057,-1480.411884,-10362.883188,-766.095498
568.016379,-1184.329507,-12657.521608,-1838.629195
568.016702,74.020594,-13619.789333,-1838.629195
568.017024,1332.370696,-12213.398043,-459.657299
568.017346,2516.700203,-9770.718434,-689.485948
568.017669,4367.215058,-8364.327145,-1455.581446
568.017991,4737.318029,-7179.997637,-383.047749
568.018313,3997.112087,-5773.606348,306.438199
568.018636,2960.823768,-5699.585753,-2221.676944
568.018958,962.267725,-7920.203579,-4060.306139
568.019280,-2220.617826,-11177.109724,-1608.800546
568.019602,-4145.153275,-11473.192101,-459.657299
568.019925,-4811.338623,-10584.944971,-2145.067394
568.020247,-3552.988522,-11843.295072,-3370.820191
568.020569,-2146.597232,-11621.233289,-3064.381992
568.020892,-1850.514855,-10362.883188,-3140.991542
568.021214,-2442.679609,-8882.471304,-1149.143247
568.021536,-1776.494261,-8142.265362,-1455.581446
568.021859,592.164754,-7105.977043,-4366.744339
568.022181,2220.617826,-7698.141797,-4903.011187
568.022503,1628.453072,-9326.594869,-2834.553343
568.022825,-444.123565,-10807.006753,-995.924147
568.023148,-1480.411884,-12509.480420,-1149.143247
568.023470,-1184.329507,-12731.542202,-995.924147
568.023792,-592.164754,-10214.842000,-2604.724693
568.024115,-1258.350101,-7031.956449,-4366.744339
568.024437,-1480.411884,-7402.059420,-2528.115143
568.024759,-1554.432478,-7254.018232,153.219100
568.025081,-370.102971,-8364.327145,-766.095498
568.025404,148.041188,-9844.739029,-1915.238745
568.025726,444.123565,-10140.821405,-1532.190996
568.026048,1184.329507,-8956.491898,-2221.676944
568.026371,2368.659014,-8364.327145,-2757.943793
568.026693,2960.823768,-9178.553681,-1838.629195
568.027015,2590.720797,-9030.512492,-689.485948
568.027338,592.164754,-8660.409521,-995.924147
568.027660,-592.164754,-9030.512492,-995.924147
568.027982,-1998.556043,-8808.450710,-1991.848295
568.028304,-2368.659014,-8290.306550,-3600.648841
568.028627,-3627.009116,-7846.182985,-3140.991542
568.028949,-3997.112087,-8956.491898,-1149.143247
568.029271,-3478.967927,-9696.697840,-1225.752797
568.029594,-2442.679609,-12509.480420,-1072.533697
568.029916,-2368.659014,-12361.439231,1455.581446
568.030238,-1776.494261,-7846.182985,689.485948
568.030561,148.041188,-5403.503377,-3217.601092
568.030883,2590.720797,-5699.585753,-4060.306139
568.031205,3552.988522,-5551.544565,-1302.362347
568.031527,2664.741391,-5847.626942,-306.438199
568.031850,2072.576638,-8586.388927,-459.657299
568.032172,1110.308913,-12287.418637,-1608.800546
568.032494,-1406.391290,-14285.974681,-3064.381992
568.032817,-3849.070898,-15026.180623,-2451.505594
568.033139,-4959.379811,-13841.851115,-1455.581446
568.033461,-2960.823768,-12731.542202,-3140.991542
568.033783,222.061783,-11251.130318,-2298.286494
568.034106,1998.556043,-8882.471304,842.705048
568.034428,2294.638420,-6439.791695,919.314598
568.034750,2590.720797,-5921.647536,-1302.362347
568.035073,3108.864956,-7994.224174,-2834.553343
568.035395,1850.514855,-9104.533087,-1838.629195
568.035717,148.041188,-9474.636058,-766.095498
568.036040,-1332.370696,-9548.656652,-383.047749
568.036362,-1702.473667,-10362.883188,536.266849
568.036684,-1702.473667,-9992.780217,536.266849
568.037006,-3404.947333,-8438.347739,-1762.019645
568.037329,-4959.379811,-8660.409521,-2987.772442
568.037651,-5773.606348,-8882.471304,-3140.991542
568.037973,-2886.803174,-11695.253884,-2757.943793
568.038296,-1184.329507,-11843.295072,-1302.362347
568.038618,74.020594,-10214.842000,-306.438199
568.038940,222.061783,-8660.409521,-766.095498
568.039263,1998.556043,-9030.512492,-1149.143247
568.039585,2738.761985,-9400.615463,-1685.410096
568.039907,1258.350101,-7105.977043,-2757.943793
568.040229,-148.041188,-7179.997637,-2451.505594
568.040552,-444.123565,-7328.038826,0.000000
568.040874,0.000000,-6735.874072,0.000000
568.041196,74.020594,-8734.430116,-1608.800546
568.041519,-2146.597232,-9918.759623,-1608.800546
568.041841,-3701.029710,-10288.862594,-612.876398
568.042163,-2886.803174,-10584.944971,-1225.752797
568.042485,-296.082377,-11251.130318,-2528.115143
568.042808,2294.638420,-9326.594869,-2298.286494
568.043130,4811.338623,-7402.059420,-1225.752797
568.043452,6735.874072,-7550.100608,-1532.190996
568.043774,4959.379811,-7550.100608,-1378.971896
568.044097,2220.617826,-7994.224174,-1302.362347
568.044419,-222.061783,-9622.677246,-2451.505594
568.044741,-1480.411884,-11251.130318,-3217.601092
568.045063,-1924.535449,-11473.192101,-2987.772442
568.045386,-2960.823768,-11251.130318,-3524.039291
568.045708,-4441.235652,-10881.027347,-2145.067394
568.046030,-5329.482782,-8586.388927,0.000000
568.046353,-3701.029710,-8142.265362,-2451.505594
568.046675,-3108.864956,-9178.553681,-7354.516781
568.046997,-3034.844362,-9992.780217,-4366.744339
568.047319,-3552.988522,-9104.533087,-536.266849
568.047642,-1554.432478,-7402.059420,-919.314598
568.047964,1110.308913,-9030.512492,-4290.134789
568.048286,2368.659014,-9400.615463,-3677.258390
568.048608,2516.700203,-7994.224174,-2451.505594
568.048931,1628.453072,-8364.327145,-2374.896044
568.049253,1258.350101,-10955.047942,-1378.971896
568.049575,0.000000,-11769.274478,-1225.752797
568.049898,-1110.308913,-11251.130318,-1991.848295
568.050220,-3478.967927,-10362.883188,-1455.581446
568.050542,-3627.009116,-9548.656652,-1302.362347
568.050864,-814.226536,-9770.718434,-1991.848295
568.051187,1850.514855,-9178.553681,-1532.190996
568.051509,2590.720797,-6661.853478,306.438199
568.051831,3478.967927,-6291.750507,0.000000
568.052153,4293.194464,-7476.080014,-919.314598
568.052476,4441.235652,-9104.533087,459.657299
568.052798,3701.029710,-9252.574275,-306.438199
568.053120,1776.494261,-9252.574275,-2911.162892
568.053442,-222.061783,-10584.944971,-2221.676944
568.053765,-1924.535449,-9918.759623,766.095498
568.054087,-2516.700203,-9326.594869,-536.266849
568.054409,-3404.947333,-9252.574275,-2374.896044
568.054732,-5033.400406,-9252.574275,-2757.943793
568.055054,-5329.482782,-10881.027347,-1685.410096
568.055376,-5773.606348,-11695.253884,-995.924147
568.055698,-5329.482782,-10288.862594,459.657299
568.056021,-3552.988522,-7920.203579,-1532.190996
568.056343,0.000000,-6217.729913,-3907.087040
568.056665,1406.391290,-5921.647536,-3370.820191
568.056987,1258.350101,-7550.100608,-536.266849
568.057310,962.267725,-10732.986159,1302.362347
568.057632,148.041188,-12805.562797,0.000000
568.057954,-148.041188,-11547.212695,-995.924147
568.058276,-592.164754,-9030.512492,-1915.238745
568.058599,444.123565,-7179.997637,-1838.629195
568.058921,0.000000,-6217.729913,-1072.533697
568.059243,-444.123565,-8438.347739,-766.095498
568.059566,-1036.288319,-11695.253884,76.609550
568.059888,-814.226536,-14508.036463,0.000000
568.060210,0.000000,-14359.995275,-766.095498
568.060532,1480.411884,-11843.295072,-2451.505594
568.060855,3478.967927,-9400.615463,-2681.334243
568.061177,5403.503377,-6439.791695,-842.705048
568.061499,6365.771101,-4219.173869,0.000000
568.061821,4663.297435,-4589.276840,-766.095498
568.062144,888.247130,-7254.018232,-1149.143247
568.062466,-2664.741391,-10288.862594,-3370.820191
568.062788,-6291.750507,-12287.418637,-4903.011187
568.063111,-8586.388927,-14878.139434,-3064.381992
568.063433,-8512.368333,-14285.974681,-306.438199
568.063755,-4811.338623,-10658.965565,-689.485948
568.064077,-1480.411884,-6883.915261,-1455.581446
568.064400,518.144159,-5181.441594,-1838.629195
568.064722,1036.288319,-5329.482782,-2068.457845
568.065044,592.164754,-5773.606348,-2528.115143
568.065366,444.123565,-7402.059420,-2298.286494
568.065689,1332.370696,-9030.512492,-1915.238745
568.066011,1258.350101,-10436.903782,-2604.724693
568.066333,2220.617826,-11843.295072,-459.657299
568.066655,2368.659014,-11473.192101,1302.362347
568.066978,962.267725,-9992.780217,-995.924147
568.067300,-1628.453072,-9400.615463,-2221.676944
568.067622,-2886.803174,-10066.800811,-1685.410096
568.067945,-3182.885551,-7179.997637,-2221.676944
568.068267,-1258.350101,-7476.080014,-3600.648841
568.068589,814.226536,-8290.306550,-2145.067394
568.068911,2590.720797,-8364.327145,-1991.848295
568.069234,2664.741391,-9844.739029,-1378.971896
568.069556,1702.473667,-11917.315666,0.000000
568.069878,0.000000,-12213.398043,-995.924147
568.070200,-888.247130,-10955.047942,-4443.353888
568.070523,-888.247130,-8216.285956,-6052.154434
568.070845,-518.144159,-6957.935855,-4290.134789
568.071167,-444.123565,-6069.688724,-2451.505594
568.071489,-444.123565,-8882.471304,-2221.676944
568.071812,-3404.947333,-11399.171507,-1991.848295
568.072134,-5773.606348,-13471.748144,-1762.019645
568.072456,-6365.771101,-14804.118840,-3600.648841
568.072779,-5033.400406,-14211.954086,-3447.429741
568.073101,-1850.514855,-11325.150913,-2374.896044
568.073423,2072.576638,-6439.791695,-1608.800546
568.073745,4737.318029,-3478.967927,-1149.143247
568.074068,5773.606348,-3849.070898,536.266849
568.074390,4589.276840,-5551.544565,1302.362347
568.074712,2220.617826,-7550.100608,-1378.971896
568.075034,518.144159,-10436.903782,-3064.381992
568.075357,-518.144159,-12509.480420,-1915.238745
568.075679,-740.205942,-13619.789333,-153.219100
568.076001,-1480.411884,-13175.665768,612.876398
568.076324,-2886.803174,-10732.986159,1991.848295
568.076646,-2590.720797,-7994.224174,-612.876398
568.076968,-888.247130,-7179.997637,-3140.991542
568.077290,-296.082377,-7031.956449,-3447.429741
568.077613,296.082377,-6735.874072,-2221.676944
568.077935,666.185348,-7328.038826,-1762.019645
568.078257,1258.350101,-8660.409521,-306.438199
568.078579,1258.350101,-10436.903782,919.314598
568.078902,-296.082377,-10584.944971,-459.657299
568.079224,-1554.432478,-9474.636058,-2374.896044
568.079546,-2294.638420,-8956.491898,-2911.162892
568.079868,-1554.432478,-8734.430116,-3370.820191
568.080191,-1776.494261,-9622.677246,-2145.067394
568.080513,-2146.597232,-9770.718434,0.000000
568.080835,-2072.576638,-9918.759623,1762.019645
568.081158,-1110.308913,-10584.944971,-459.657299
568.081480,0.000000,-9918.759623,-1915.238745
568.081802,-296.082377,-9400.615463,-2528.115143
568.082124,1036.288319,-9104.533087,-1225.752797
568.082447,2220.617826,-9252.574275,-536.266849
568.082769,2220.617826,-9104.533087,76.609550
568.083091,1480.411884,-9696.697840,919.314598
568.083413,1110.308913,-10214.842000,153.219100
568.083736,444.123565,-9770.718434,-2068.457845
568.084058,0.000000,-9548.656652,-3447.429741
568.084380,-740.205942,-10066.800811,-2528.115143
568.084702,-2368.659014,-9548.656652,-919.314598
568.085025,-2738.761985,-10140.821405,0.000000
568.085347,-3034.844362,-11473.192101,-1685.410096
568.085669,-2590.720797,-12287.418637,-1915.238745
568.085992,-2812.782580,-10658.965565,-1915.238745
568.086314,-2146.597232,-8660.409521,-2221.676944
568.086636,-370.102971,-8512.368333,-1838.629195
568.086958,296.082377,-6883.915261,-306.438199
568.087281,740.205942,-5847.626942,0.000000
568.087603,0.000000,-6513.812290,-995.924147
568.087925,-1332.370696,-8364.327145,-1225.752797
568.088247,-1628.453072,-9474.636058,-2068.457845
568.088570,-1850.514855,-9992.780217,-2834.553343
568.088892,-1924.535449,-9844.739029,-1762.019645
568.089214,-1406.391290,-10436.903782,-1302.362347
568.089537,-370.102971,-10510.924376,-689.485948
568.089859,962.267725,-10510.924376,536.266849
568.090181,2220.617826,-8290.306550,459.657299
568.090503,3330.926739,-5551.544565,-1991.848295
568.090826,4737.318029,-5033.400406,-3294.210641
568.091148,4441.235652,-6735.874072,-1532.190996
568.091470,2664.741391,-8216.285956,1149.143247
568.091792,666.185348,-9474.636058,919.314598
568.092115,-1110.308913,-10362.883188,-612.876398
568.092437,-1776.494261,-10214.842000,-2145.067394
568.092759,-1628.453072,-9252.574275,-4366.744339
568.093081,-2072.576638,-9622.677246,-4749.792088
568.093404,-3775.050304,-9992.780217,-1608.800546
568.093726,-3627.009116,-10066.800811,-306.438199
568.094048,-2590.720797,-11769.274478,-2681.334243
568.094371,-2072.576638,-12435.459826,-3217.601092
568.094693,-1702.473667,-10658.965565,-3753.867940
568.095015,-518.144159,-8586.388927,-5669.106685
568.095337,1110.308913,-8882.471304,-4903.011187
568.095660,1998.556043,-9548.656652,-2987.772442
568.095982,1110.308913,-10955.047942,-1762.019645
568.096304,-1554.432478,-12065.356855,-1225.752797
568.096626,-2368.659014,-11843.295072,-995.924147
568.096949,-1924.535449,-9696.697840,-3753.867940
568.097271,-148.041188,-8142.265362,-5975.544884
568.097593,666.185348,-7994.224174,-2911.162892
568.097915,296.082377,-8734.430116,0.000000
568.098238,-222.061783,-10584.944971,919.314598
568.098560,-592.164754,-12879.583391,1455.581446
568.098882,-740.205942,-12139.377449,-612.876398
568.099205,0.000000,-8956.491898,-3524.039291
568.099527,962.267725,-6439.791695,-5132.839837
568.099849,3330.926739,-5625.565159,-1991.848295
568.100171,4811.338623,-5181.441594,1302.362347
568.100494,4293.194464,-6587.832884,1685.410096
568.100816,888.247130,-8512.368333,1685.410096
568.101138,-2294.638420,-9844.739029,-536.266849
568.101460,-3701.029710,-10658.965565,-3753.867940
568.101783,-4589.276840,-10881.027347,-4903.011187
568.102105,-4515.256246,-11029.068536,-2451.505594
568.102427,-2960.823768,-9030.512492,1072.533697
568.102750,-740.205942,-9178.553681,1608.800546
568.103072,-444.123565,-9474.636058,536.266849
568.103394,-1036.288319,-10214.842000,-459.657299
568.103716,-1776.494261,-9474.636058,-2604.724693
568.104039,-666.185348,-8142.265362,-3907.087040
568.104361,1110.308913,-7772.162391,-2068.457845
568.104683,2220.617826,-8586.388927,766.095498
568.105005,1628.453072,-9030.512492,2681.334243
568.105328,-592.164754,-9178.553681,2757.943793
568.105650,-2146.597232,-9252.574275,0.000000
568.105972,-2960.823768,-11103.089130,-3217.601092
568.106294,-3923.091493,-11621.233289,-3677.258390
568.106617,-3256.906145,-10140.821405,-919.314598
568.106939,-1110.308913,-9992.780217,0.000000
568.107261,888.247130,-8956.491898,842.705048
568.107584,2072.576638,-7994.224174,1915.238745
568.107906,1332.370696,-7550.100608,-229.828649
568.108228,0.000000,-8216.285956,-3600.648841
568.108550,-740.205942,-9474.636058,-3370.820191
568.108873,-962.267725,-10510.924376,-1149.143247
568.109195,0.000000,-10510.924376,459.657299
568.109517,740.205942,-9992.780217,383.047749
568.109839,888.247130,-8882.471304,0.000000
568.110162,-296.082377,-8438.347739,-995.924147
568.110484,-1184.329507,-8882.471304,-1225.752797
568.110806,-1480.411884,-9474.636058,-1532.190996
568.111128,-222.061783,-11547.212695,-1915.238745
568.111451,962.267725,-12065.356855,-689.485948
568.111773,1776.494261,-9474.636058,1532.190996
568.112095,2886.803174,-7031.956449,536.266849
568.112418,3849.070898,-5255.462188,-2451.505594
568.112740,3701.029710,-5773.606348,-3217.601092
568.113062,1628.453072,-7402.059420,-3064.381992
568.113384,-592.164754,-9992.780217,-1532.190996
568.113707,-3182.885551,-12287.418637,-1915.238745
568.114029,-4737.318029,-13545.768739,-1915.238745
568.114351,-5403.503377,-11917.315666,-2604.724693
568.114673,-5329.482782,-9918.759623,-3983.696590
568.114996,-4811.338623,-8142.265362,-4136.915689
568.115318,-3627.009116,-8290.306550,-3370.820191
568.115640,-2738.761985,-9252.574275,-2221.676944
568.115963,-1924.535449,-9178.553681,-1302.362347
568.116285,-740.205942,-8068.244768,-2911.162892
568.116607,666.185348,-7920.203579,-5286.058936
568.116929,1702.473667,-7772.162391,-4213.525239
568.117252,2738.761985,-6661.853478,-1608.800546
568.117574,3552.988522,-7920.203579,-2757.943793
568.117896,2664.741391,-9696.697840,-3217.601092
568.118218,1036.288319,-11325.150913,-995.924147
568.118541,-296.082377,-10362.883188,-842.705048
568.118863,0.000000,-9326.594869,-4290.134789
568.119185,592.164754,-9474.636058,-5515.887586
568.119507,2072.576638,-9474.636058,-3294.210641
568.119830,2738.761985,-9548.656652,-1378.971896
568.120152,2516.700203,-9400.615463,689.485948
568.120474,2812.782580,-9474.636058,-306.438199
568.120797,2738.761985,-8734.430116,-4290.134789
568.121119,1184.329507,-8216.285956,-5362.668486
568.121441,-148.041188,-7328.038826,-1455.581446
568.121763,-296.082377,-6957.935855,-2757.943793
568.122086,-222.061783,-9030.512492,-4826.401637
568.122408,-1554.432478,-11473.192101,-2911.162892
568.122730,-4737.318029,-11695.253884,-1532.190996
568.123052,-6809.894666,-11621.233289,-3447.429741
568.123375,-7179.997637,-12435.459826,-5286.058936
568.123697,-5477.523971,-12139.377449,-5822.325785
568.124019,-3478.967927,-9474.636058,-5209.449386
568.124341,-1480.411884,-8586.388927,-3600.648841
568.124664,74.020594,-9178.553681,-1149.143247
568.124986,1776.494261,-8808.450710,-689.485948
568.125308,2886.803174,-8734.430116,-3294.210641
568.125631,1850.514855,-9696.697840,-4213.525239
568.125953,222.061783,-10436.903782,-2451.505594
568.126275,-444.123565,-9844.739029,76.609550
568.126597,962.267725,-9474.636058,153.219100
568.126920,2590.720797,-9548.656652,-1991.848295
568.127242,1998.556043,-7846.182985,-1915.238745
568.127564,-222.061783,-6735.874072,-919.314598
568.127886,-1332.370696,-7846.182985,-1225.752797
568.128209,-1776.494261,-9178.553681,-3064.381992
568.128531,-1184.329507,-8956.491898,-3140.991542
568.128853,74.020594,-9770.718434,-2528.115143
568.129176,1776.494261,-9104.533087,-2298.286494
568.129498,3182.885551,-6661.853478,-2068.457845
568.129820,3997.112087,-5921.647536,-3064.381992
568.130142,4071.132681,-7550.100608,-3983.696590
568.130465,296.082377,-9474.636058,-2987.772442
568.130787,-4663.297435,-9918.759623,-1072.533697
568.131109,-5921.647536,-9622.677246,-2681.334243
568.131431,-3478.967927,-9030.512492,-6128.763984
568.131754,-3108.864956,-6217.729913,-6205.373534
568.132076,-2294.638420,-5255.462188,-3524.039291
568.132398,-2960.823768,-6587.832884,-2528.115143
568.132720,-3701.029710,-9622.677246,-2757.943793
568.133043,-4441.235652,-12065.356855,-2681.334243
568.133365,-4219.173869,-13471.748144,-4443.353888
568.133687,-1184.329507,-13323.706956,-5745.716235
568.134010,2590.720797,-9770.718434,-5209.449386
568.134332,7254.018232,-6143.709319,-3907.087040
568.134654,10584.944971,-5551.544565,-3600.648841
568.134976,10436.903782,-6809.894666,-2374.896044
568.135299,5921.647536,-8808.450710,-1608.800546
568.135621,-444.123565,-11325.150913,-1915.238745
568.135943,-4145.153275,-13693.809927,-6205.373534
568.136265,-4219.173869,-14656.077652,-9269.755526
568.136588,-3552.988522,-12065.356855,-7124.688131
568.136910,-3034.844362,-8956.491898,-3217.601092
568.137232,-1554.432478,-7772.162391,-1455.581446
568.137554,-2368.659014,-8512.368333,-1378.971896
568.137877,-4589.276840,-10510.924376,-3370.820191
568.138199,-6513.812290,-12805.562797,-5745.716235
568.138521,-5033.400406,-12879.583391,-7048.078582
568.138844,0.000000,-10288.862594,-6818.249932
568.139166,4885.359217,-6587.832884,-5822.325785
568.139488,8438.347739,-5995.668130,-2145.067394
568.139810,9030.512492,-5773.606348,842.705048
568.140133,5773.606348,-4959.379811,536.266849
568.140455,666.185348,-5847.626942,-2451.505594
568.140777,-3182.885551,-8142.265362,-6971.469032
568.141099,-6291.750507,-9696.697840,-9806.022374
568.141422,-6883.915261,-11029.068536,-7124.688131
568.141744,-7105.977043,-11769.274478,-1762.019645
568.142066,-5255.462188,-11251.130318,766.095498
568.142388,-2590.720797,-9548.656652,-2451.505594
568.142711,-1184.329507,-8512.368333,-4290.134789
568.143033,-1480.411884,-9252.574275,-4366.744339
568.143355,-1924.535449,-9474.636058,-2374.896044
568.143677,296.082377,-7550.100608,-1685.410096
568.144000,5477.523971,-5995.668130,-4136.915689
568.144322,10436.903782,-7105.977043,-4673.182538
568.144644,11843.295072,-7846.182985,-1225.752797
568.144966,9696.697840,-6661.853478,1302.362347
568.145289,6291.750507,-7254.018232,-689.485948
568.145611,4071.132681,-9844.739029,-3830.477490
568.145933,296.082377,-10436.903782,-4903.011187
568.146255,-5033.400406,-9474.636058,-5592.497135
568.146578,-9104.533087,-8364.327145,-4903.011187
568.146900,-7624.121203,-9474.636058,-5592.497135
568.147222,-5847.626942,-10362.883188,-7354.516781
568.147544,-5255.462188,-12361.439231,-5975.544884
568.147867,-5921.647536,-13693.809927,-2528.115143
568.148189,-5921.647536,-13323.706956,-1072.533697
568.148511,-4367.215058,-12583.501014,-1685.410096
568.148833,-3923.091493,-10955.047942,-3524.039291
568.149156,-3701.029710,-7920.203579,-4060.306139
568.149478,-222.061783,-3849.070898,-4749.792088
568.149800,4959.379811,-3330.926739,-7277.907231
568.150122,9622.677246,-7476.080014,-4903.011187
568.150445,10584.944971,-9178.553681,0.000000
568.150767,7624.121203,-7698.141797,2451.505594
568.151089,3997.112087,-9992.780217,306.438199
568.151411,1998.556043,-13545.768739,-2221.676944
568.151734,-592.164754,-12435.459826,-6128.763984
568.152056,-5329.482782,-8364.327145,-7660.954980
568.152378,-8438.347739,-5921.647536,-4443.353888
568.152701,-6365.771101,-6513.812290,-2451.505594
568.153023,-1628.453072,-9474.636058,-4213.525239
568.153345,0.000000,-11547.212695,-3447.429741
568.153667,-666.185348,-13323.706956,-536.266849
568.153990,-666.185348,-12509.480420,0.000000
568.154312,1554.432478,-9696.697840,-1532.190996
568.154634,3108.864956,-8512.368333,-4290.134789
568.154956,2960.823768,-6365.771101,-3983.696590
568.155279,518.144159,-3034.844362,-2451.505594
568.155601,-740.205942,-1258.350101,-1915.238745
568.155923,-740.205942,-4515.256246,-3140.991542
568.156245,-444.123565,-9400.615463,-4749.792088
