#time,accel_x,accel_y,accel_z
476.843009,-222.061783,-9400.615463,-1608.800546
476.843331,-370.102971,-9474.636058,-1455.581446
476.843653,-740.205942,-9548.656652,-1608.800546
476.843976,-370.102971,-9696.697840,-1685.410096
476.844298,-740.205942,-9252.574275,-1838.629195
476.844620,-222.061783,-9474.636058,-1378.971896
476.844942,-370.102971,-9252.574275,-1608.800546
476.845264,-370.102971,-9326.594869,-1608.800546
476.845586,-518.144159,-9400.615463,-1762.019645
476.845908,-370.102971,-9474.636058,-1762.019645
476.846230,-148.041188,-9474.636058,-1455.581446
476.846552,-444.123565,-9474.636058,-1685.410096
476.846875,-148.041188,-9400.615463,-1762.019645
476.847197,-444.123565,-9252.574275,-1532.190996
476.847519,-222.061783,-9178.553681,-1378.971896
476.847841,-592.164754,-8586.388927,-1378.971896
476.848163,-518.144159,-9178.553681,-1532.190996
476.848485,-296.082377,-9326.594869,-1762.019645
476.848807,-444.123565,-9252.574275,-1762.019645
476.849129,-296.082377,-9178.553681,-1838.629195
476.849452,-148.041188,-9178.553681,-1532.190996
476.849774,-444.123565,-9104.533087,-1532.190996
476.850096,-296.082377,-9400.615463,-1762.019645
476.850418,-296.082377,-9400.615463,-1685.410096
476.850740,-444.123565,-9104.533087,-1991.848295
476.851062,-518.144159,-9178.553681,-1149.143247
476.851384,-444.123565,-9326.594869,-1455.581446
476.851706,-222.061783,-9400.615463,-1608.800546
476.852029,-370.102971,-9326.594869,-1608.800546
476.852351,-444.123565,-9326.594869,-1685.410096
476.852673,-370.102971,-9252.574275,-1762.019645
476.852995,-370.102971,-8882.471304,-1455.581446
476.853317,-444.123565,-9474.636058,-1915.238745
476.853639,-444.123565,-9474.636058,-1838.629195
476.853961,-370.102971,-9252.574275,-1532.190996
476.854283,-222.061783,-9474.636058,-1838.629195
476.854605,-370.102971,-9622.677246,-1149.143247
476.854928,0.000000,-9622.677246,-2145.067394
476.855250,-444.123565,-9696.697840,-2145.067394
476.855572,-592.164754,-9622.677246,-1762.019645
476.855894,-518.144159,-9622.677246,-1991.848295
476.856216,-592.164754,-9770.718434,-1991.848295
476.856538,-296.082377,-9474.636058,-1991.848295
476.856860,-666.185348,-9400.615463,-1838.629195
476.857182,-444.123565,-9400.615463,-1838.629195
476.857505,-296.082377,-9474.636058,-1455.581446
476.857827,-296.082377,-9252.574275,-1608.800546
476.858149,-444.123565,-9326.594869,-2374.896044
476.858471,-592.164754,-9400.615463,-1378.971896
476.858793,-592.164754,-9548.656652,-1685.410096
476.859115,-592.164754,-9622.677246,-1685.410096
476.859437,-518.144159,-9548.656652,-1762.019645
476.859759,-370.102971,-9326.594869,-1225.752797
476.860081,-296.082377,-9548.656652,-1762.019645
476.860404,-296.082377,-9474.636058,-1378.971896
476.860726,-444.123565,-9474.636058,-1378.971896
476.861048,-296.082377,-9400.615463,-1532.190996
476.861370,-592.164754,-9474.636058,-1532.190996
476.861692,-444.123565,-9474.636058,-1302.362347
476.862014,-592.164754,-9252.574275,-1455.581446
476.862336,-370.102971,-9326.594869,-1225.752797
476.862658,-370.102971,-9178.553681,-1455.581446
476.862981,-296.082377,-9030.512492,-1378.971896
476.863303,74.020594,-8956.491898,-1378.971896
476.863625,1332.370696,-9474.636058,-1608.800546
476.863947,2220.617826,-9474.636058,-1455.581446
476.864269,2368.659014,-9252.574275,-153.219100
476.864591,1628.453072,-8216.285956,-153.219100
476.864913,740.205942,-9104.533087,-1149.143247
476.865235,-592.164754,-8808.450710,-2298.286494
476.865558,-2146.597232,-9030.512492,-1915.238745
476.865880,-3330.926739,-9474.636058,-1838.629195
476.866202,-3997.112087,-9474.636058,-2221.676944
476.866524,-2664.741391,-9104.533087,-3064.381992
476.866846,74.020594,-9992.780217,-2451.505594
476.867168,2294.638420,-10955.047942,-1225.752797
476.867490,2960.823768,-10658.965565,0.000000
476.867812,2072.576638,-8734.430116,76.609550
476.868134,2072.576638,-8438.347739,-995.924147
476.868457,2664.741391,-9474.636058,-2298.286494
476.868779,2812.782580,-9770.718434,-2221.676944
476.869101,1110.308913,-8956.491898,-995.924147
476.869423,0.000000,-7179.997637,-306.438199
476.869745,666.185348,-7476.080014,-1608.800546
476.870067,1924.535449,-9326.594869,-2451.505594
476.870389,1258.350101,-10510.924376,-1762.019645
476.870711,-740.205942,-9548.656652,-383.047749
476.871034,-1702.473667,-9178.553681,-1915.238745
476.871356,-444.123565,-9474.636058,-3983.696590
476.871678,296.082377,-9548.656652,-3370.820191
476.872000,888.247130,-10584.944971,-2068.457845
476.872322,1110.308913,-10658.965565,-1608.800546
476.872644,2368.659014,-9622.677246,-2528.115143
476.872966,3627.009116,-9918.759623,-2221.676944
476.873288,4441.235652,-10955.047942,-383.047749
476.873611,4145.153275,-10881.027347,-689.485948
476.873933,3182.885551,-8956.491898,-1838.629195
476.874255,2516.700203,-7550.100608,-1302.362347
476.874577,2442.679609,-8068.244768,-1072.533697
476.874899,2368.659014,-8068.244768,-1532.190996
476.875221,1480.411884,-7476.080014,-1532.190996
476.875543,1258.350101,-8512.368333,-1608.800546
476.875865,1924.535449,-10214.842000,-383.047749
476.876187,2442.679609,-10584.944971,-1149.143247
476.876510,2368.659014,-9474.636058,-1991.848295
476.876832,2294.638420,-9696.697840,-1762.019645
476.877154,2812.782580,-9844.739029,-1378.971896
476.877476,3404.947333,-9326.594869,-1378.971896
476.877798,2590.720797,-8956.491898,-2451.505594
476.878120,2294.638420,-9622.677246,-2221.676944
476.878442,2738.761985,-10140.821405,-995.924147
476.878764,3182.885551,-9474.636058,-1149.143247
476.879087,3108.864956,-9400.615463,-1608.800546
476.879409,1850.514855,-9326.594869,-842.705048
476.879731,1184.329507,-8882.471304,-229.828649
476.880053,518.144159,-7624.121203,-995.924147
476.880375,-370.102971,-7994.224174,-2221.676944
476.880697,-962.267725,-8512.368333,-1991.848295
476.881019,-666.185348,-10140.821405,-1378.971896
476.881341,-518.144159,-10807.006753,-689.485948
476.881663,0.000000,-11473.192101,-1225.752797
476.881986,1036.288319,-12139.377449,-995.924147
476.882308,1998.556043,-11251.130318,459.657299
476.882630,2368.659014,-10510.924376,-766.095498
476.882952,2294.638420,-9104.533087,-995.924147
476.883274,2146.597232,-8216.285956,-1072.533697
476.883596,2146.597232,-7772.162391,-766.095498
476.883918,1702.473667,-8068.244768,-383.047749
476.884240,1702.473667,-8142.265362,-1302.362347
476.884563,1332.370696,-8586.388927,-1378.971896
476.884885,1258.350101,-8882.471304,-1149.143247
476.885207,1258.350101,-8512.368333,-995.924147
476.885529,1258.350101,-7920.203579,-1991.848295
476.885851,1406.391290,-8068.244768,-2451.505594
476.886173,1406.391290,-8734.430116,-1762.019645
476.886495,1406.391290,-9474.636058,-1915.238745
476.886817,1184.329507,-9844.739029,-2374.896044
476.887140,592.164754,-10807.006753,-2298.286494
476.887462,592.164754,-11473.192101,-2145.067394
476.887784,1036.288319,-11251.130318,-612.876398
476.888106,1628.453072,-10955.047942,-1838.629195
476.888428,2220.617826,-10362.883188,-1302.362347
476.888750,2442.679609,-9474.636058,-612.876398
476.889072,2664.741391,-8956.491898,0.000000
476.889394,2886.803174,-7772.162391,0.000000
476.889716,3478.967927,-7624.121203,-1072.533697
476.890039,4367.215058,-7402.059420,-2068.457845
476.890361,5255.462188,-7772.162391,-2451.505594
476.890683,5551.544565,-8142.265362,-1991.848295
476.891005,5181.441594,-8882.471304,-919.314598
476.891327,4219.173869,-9474.636058,-1455.581446
476.891649,3627.009116,-10955.047942,-2528.115143
476.891971,2368.659014,-11769.274478,-3370.820191
476.892293,1110.308913,-12361.439231,-2604.724693
476.892616,74.020594,-11843.295072,-1608.800546
476.892938,0.000000,-10510.924376,-766.095498
476.893260,74.020594,-9326.594869,-842.705048
476.893582,148.041188,-7994.224174,-536.266849
476.893904,296.082377,-7031.956449,-459.657299
476.894226,592.164754,-6143.709319,-612.876398
476.894548,962.267725,-5995.668130,-689.485948
476.894870,1776.494261,-6883.915261,-1072.533697
476.895193,1332.370696,-8142.265362,-1072.533697
476.895515,888.247130,-8956.491898,-1225.752797
476.895837,592.164754,-9992.780217,-1685.410096
476.896159,592.164754,-10584.944971,-1838.629195
476.896481,518.144159,-10955.047942,-2451.505594
476.896803,296.082377,-11029.068536,-3217.601092
476.897125,-370.102971,-11029.068536,-2834.553343
476.897447,-740.205942,-11695.253884,-2757.943793
476.897769,-1554.432478,-12435.459826,-2451.505594
476.898092,-3404.947333,-11917.315666,-1455.581446
476.898414,-3701.029710,-11917.315666,-1455.581446
476.898736,-3627.009116,-10732.986159,-995.924147
476.899058,-3034.844362,-9770.718434,-536.266849
476.899380,-1628.453072,-8808.450710,-153.219100
476.899702,-296.082377,-7254.018232,689.485948
476.900024,1554.432478,-5921.647536,383.047749
476.900346,3552.988522,-5699.585753,-306.438199
476.900669,5107.421000,-6365.771101,-689.485948
476.900991,6217.729913,-6291.750507,-536.266849
476.901313,6291.750507,-6365.771101,-2068.457845
476.901635,6143.709319,-8734.430116,-2911.162892
476.901957,6439.791695,-11399.171507,-3064.381992
476.902279,5625.565159,-12805.562797,-2757.943793
476.902601,3923.091493,-13249.686362,-1608.800546
476.902923,1628.453072,-12731.542202,-536.266849
476.903245,740.205942,-11547.212695,-842.705048
476.903568,-1258.350101,-11177.109724,-2374.896044
476.903890,-3330.926739,-10140.821405,-1149.143247
476.904212,-4737.318029,-7698.141797,766.095498
476.904534,-5181.441594,-5403.503377,-842.705048
476.904856,-3478.967927,-6069.688724,-1608.800546
476.905178,-296.082377,-7698.141797,-842.705048
476.905500,3478.967927,-8438.347739,-2604.724693
476.905822,6809.894666,-9992.780217,-2987.772442
476.906145,9696.697840,-11029.068536,-153.219100
476.906467,12287.418637,-10510.924376,536.266849
476.906789,13693.809927,-8512.368333,-1378.971896
476.907111,13545.768739,-8660.409521,-2911.162892
476.907433,11029.068536,-8512.368333,-2145.067394
476.907755,7328.038826,-9696.697840,-1991.848295
476.908077,3034.844362,-10066.800811,-1532.190996
476.908399,-1332.370696,-11251.130318,-1302.362347
476.908722,-3849.070898,-12805.562797,-1608.800546
476.909044,-5477.523971,-13915.871710,-1455.581446
476.909366,-7105.977043,-12953.603985,1532.190996
476.909688,-9326.594869,-7624.121203,3524.039291
476.910010,-8882.471304,-2516.700203,842.705048
476.910332,-6069.688724,-2146.597232,-1685.410096
476.910655,-1184.329507,-4145.153275,-2374.896044
476.910977,2590.720797,-5551.544565,-3600.648841
476.911299,5773.606348,-8808.450710,-3677.258390
476.911622,9474.636058,-12805.562797,-1685.410096
476.911944,12435.459826,-14063.912898,-1762.019645
476.912266,11621.233289,-13101.645173,-2221.676944
476.912588,8882.471304,-11177.109724,-2911.162892
476.912911,4885.359217,-9844.739029,-5439.278036
476.913233,2368.659014,-9844.739029,-7048.078582
476.913555,370.102971,-9474.636058,-5822.325785
476.913878,-2368.659014,-10732.986159,-3753.867940
476.914200,-6513.812290,-12731.542202,0.000000
476.914522,-8290.306550,-12065.356855,3753.867940
476.914845,-7624.121203,-9992.780217,2757.943793
476.915167,-6291.750507,-6957.935855,-1608.800546
476.915489,-3478.967927,-7772.162391,-612.876398
476.915811,1332.370696,-7698.141797,612.876398
476.916134,6439.791695,-4589.276840,-229.828649
476.916456,10510.924376,-5773.606348,-1608.800546
476.916778,12509.480420,-9178.553681,-919.314598
476.917101,12065.356855,-11695.253884,306.438199
476.917423,7550.100608,-10362.883188,0.000000
476.917745,2812.782580,-11029.068536,-4673.182538
476.918067,-814.226536,-14211.954086,-7277.907231
476.918390,-3108.864956,-16062.468941,-5209.449386
476.918712,-6365.771101,-11103.089130,-612.876398
476.919034,-9548.656652,-5773.606348,-1149.143247
476.919357,-7254.018232,-5847.626942,-3064.381992
476.919679,-2516.700203,-7254.018232,-2068.457845
476.920001,-814.226536,-8068.244768,-689.485948
476.920323,-1332.370696,-8660.409521,2451.505594
476.920646,-1258.350101,-8438.347739,3294.210641
476.920968,1406.391290,-6587.832884,766.095498
476.921290,4145.153275,-5625.565159,-1532.190996
476.921613,4811.338623,-7105.977043,-1915.238745
476.921935,4071.132681,-8290.306550,-3370.820191
476.922257,4737.318029,-10658.965565,-2911.162892
476.922580,5699.585753,-12065.356855,-689.485948
476.922902,6439.791695,-12435.459826,-1762.019645
476.923224,5699.585753,-12361.439231,-4749.792088
476.923546,3849.070898,-11843.295072,-3600.648841
476.923869,2220.617826,-11695.253884,-536.266849
476.924191,-148.041188,-10510.924376,-842.705048
476.924513,-1776.494261,-10214.842000,-2451.505594
476.924836,-3108.864956,-10658.965565,-1762.019645
476.925158,-3849.070898,-10732.986159,766.095498
476.925480,-2960.823768,-10955.047942,2681.334243
476.925802,0.000000,-9030.512492,1302.362347
476.926125,3034.844362,-6291.750507,0.000000
476.926447,5699.585753,-4293.194464,995.924147
476.926769,5995.668130,-3627.009116,2221.676944
476.927092,4959.379811,-3923.091493,383.047749
476.927414,4145.153275,-5995.668130,-3600.648841
476.927736,2738.761985,-7846.182985,-4136.915689
476.928058,1036.288319,-9770.718434,-3677.258390
476.928381,-1332.370696,-11325.150913,-4290.134789
476.928703,-3775.050304,-13175.665768,-5286.058936
476.929025,-4589.276840,-14878.139434,-3907.087040
476.929348,-3701.029710,-14582.057057,-2221.676944
476.929670,-3701.029710,-12361.439231,-3447.429741
476.929992,-4737.318029,-9252.574275,-5132.839837
476.930315,-3701.029710,-9104.533087,-2604.724693
476.930637,-888.247130,-9474.636058,995.924147
476.930959,2368.659014,-8956.491898,1838.629195
476.931281,4441.235652,-9400.615463,-919.314598
476.931604,4737.318029,-9918.759623,612.876398
476.931926,4959.379811,-10214.842000,3600.648841
476.932248,3849.070898,-7402.059420,4673.182538
476.932571,3404.947333,-3627.009116,1838.629195
476.932893,4515.256246,-3330.926739,-3140.991542
476.933215,5699.585753,-6513.812290,-5132.839837
476.933537,5033.400406,-9252.574275,-2068.457845
476.933860,2368.659014,-9474.636058,536.266849
476.934182,74.020594,-10807.006753,-766.095498
476.934504,-518.144159,-12509.480420,-3217.601092
476.934827,-3478.967927,-11399.171507,-4903.011187
476.935149,-7772.162391,-9992.780217,-6281.983084
476.935471,-10510.924376,-10214.842000,-5592.497135
476.935793,-10362.883188,-11325.150913,-3753.867940
476.936116,-7920.203579,-10288.862594,-3064.381992
476.936438,-5625.565159,-9474.636058,-3447.429741
476.936760,-4219.173869,-9474.636058,-2374.896044
476.937083,-2368.659014,-9844.739029,383.047749
476.937405,-518.144159,-8512.368333,612.876398
476.937727,370.102971,-7254.018232,-1991.848295
476.938049,-222.061783,-6883.915261,-2834.553343
476.938372,-1554.432478,-7994.224174,-459.657299
476.938694,-2442.679609,-8734.430116,1302.362347
476.939016,-1036.288319,-9696.697840,-1225.752797
476.939339,2886.803174,-10955.047942,-4443.353888
476.939661,6365.771101,-11843.295072,-3294.210641
476.939983,6735.874072,-10436.903782,1072.533697
476.940306,5033.400406,-9770.718434,3907.087040
476.940628,3256.906145,-9548.656652,1838.629195
476.940950,2294.638420,-8956.491898,-2298.286494
476.941272,296.082377,-8734.430116,-5056.230287
476.941595,-3552.988522,-9030.512492,-4903.011187
476.941917,-7254.018232,-10214.842000,-2298.286494
476.942239,-8438.347739,-10436.903782,0.000000
476.942562,-6217.729913,-9622.677246,0.000000
476.942884,-2812.782580,-9104.533087,-3600.648841
476.943206,-888.247130,-9992.780217,-6128.763984
476.943528,-1332.370696,-9696.697840,-2374.896044
476.943851,-2516.700203,-7550.100608,1762.019645
476.944173,-2886.803174,-5921.647536,-306.438199
476.944495,-1850.514855,-7846.182985,-4826.401637
476.944818,-814.226536,-10807.006753,-5209.449386
476.945140,-1480.411884,-11769.274478,-2374.896044
476.945462,-1480.411884,-12361.439231,536.266849
476.945784,1480.411884,-12805.562797,2298.286494
476.946107,6143.709319,-10732.986159,2068.457845
476.946429,9696.697840,-7254.018232,766.095498
476.946751,9474.636058,-4737.318029,0.000000
476.947074,8956.491898,-5625.565159,1225.752797
476.947396,7994.224174,-6809.894666,1685.410096
476.947718,5921.647536,-6365.771101,995.924147
476.948041,1850.514855,-7846.182985,-459.657299
476.948363,-2738.761985,-9696.697840,-1072.533697
476.948685,-4589.276840,-10510.924376,-995.924147
476.949007,-3478.967927,-10214.842000,-3294.210641
476.949330,-1628.453072,-10881.027347,-6741.640382
476.949652,-1406.391290,-12139.377449,-5209.449386
476.949974,-2368.659014,-10584.944971,-842.705048
476.950297,-4737.318029,-7994.224174,1149.143247
476.950619,-5921.647536,-8956.491898,-2834.553343
476.950941,-4293.194464,-12731.542202,-7048.078582
476.951263,-3256.906145,-14137.933492,-7660.954980
476.951586,-4663.297435,-13101.645173,-3370.820191
476.951908,-4737.318029,-11991.336260,2681.334243
476.952230,-1554.432478,-10510.924376,3753.867940
476.952553,3849.070898,-7031.956449,-153.219100
476.952875,6661.853478,-3552.988522,-2374.896044
476.953197,5773.606348,-2516.700203,-1838.629195
476.953519,4589.276840,-5773.606348,153.219100
476.953842,4293.194464,-8956.491898,2374.896044
476.954164,2590.720797,-8364.327145,2451.505594
476.954486,-444.123565,-9474.636058,-2221.676944
476.954809,-3256.906145,-10881.027347,-4366.744339
476.955131,-5329.482782,-10584.944971,-3140.991542
476.955453,-5995.668130,-9770.718434,-2451.505594
476.955775,-5477.523971,-9400.615463,-3830.477490
476.956098,-4515.256246,-9992.780217,-4979.620737
476.956420,-4441.235652,-10955.047942,-3600.648841
476.956742,-3849.070898,-10807.006753,-1838.629195
476.957065,-3182.885551,-11695.253884,-3140.991542
476.957387,-2590.720797,-11473.192101,-4443.353888
476.957709,-3108.864956,-10584.944971,-3370.820191
476.958032,-4219.173869,-10066.800811,-383.047749
476.958354,-4441.235652,-9474.636058,1455.581446
476.958676,-2146.597232,-7254.018232,0.000000
476.958998,1850.514855,-5699.585753,-3064.381992
476.959321,5033.400406,-5847.626942,-3753.867940
476.959643,5699.585753,-7179.997637,-612.876398
476.959965,5033.400406,-8808.450710,2987.772442
476.960288,4515.256246,-9400.615463,3370.820191
476.960610,4293.194464,-9770.718434,-612.876398
476.960932,3108.864956,-10436.903782,-4443.353888
476.961254,0.000000,-10658.965565,-5132.839837
476.961577,-3775.050304,-10881.027347,-2451.505594
476.961899,-4589.276840,-10881.027347,536.266849
476.962221,-1998.556043,-10362.883188,-1149.143247
476.962544,444.123565,-9400.615463,-4673.182538
476.962866,444.123565,-9474.636058,-4366.744339
476.963188,-148.041188,-10658.965565,-1762.019645
476.963510,-592.164754,-11695.253884,0.000000
476.963833,-296.082377,-10288.862594,0.000000
476.964155,-518.144159,-7698.141797,-2987.772442
476.964477,-2146.597232,-8808.450710,-3294.210641
476.964800,-2886.803174,-9696.697840,-766.095498
476.965122,-2368.659014,-8882.471304,153.219100
476.965444,0.000000,-7920.203579,-1915.238745
476.965767,3478.967927,-8290.306550,-1838.629195
476.966089,5255.462188,-8364.327145,919.314598
476.966411,4811.338623,-7105.977043,2145.067394
476.966733,4367.215058,-7254.018232,612.876398
476.967056,4737.318029,-8882.471304,-1302.362347
476.967378,4219.173869,-9400.615463,-2834.553343
476.967700,888.247130,-9474.636058,-1991.848295
476.968023,-3034.844362,-9770.718434,-536.266849
476.968345,-4515.256246,-10436.903782,-153.219100
476.968667,-2886.803174,-9844.739029,-1608.800546
476.968989,-962.267725,-8808.450710,-3600.648841
476.969312,-1702.473667,-8216.285956,-4519.963438
476.969634,-2664.741391,-9770.718434,-1838.629195
476.969956,-2960.823768,-11103.089130,995.924147
476.970279,-2960.823768,-9622.677246,919.314598
476.970601,-3108.864956,-8438.347739,-3753.867940
476.970923,-3478.967927,-9400.615463,-5822.325785
476.971245,-4293.194464,-10436.903782,-1991.848295
476.971568,-5107.421000,-10436.903782,842.705048
476.971890,-3478.967927,-9548.656652,229.828649
476.972212,370.102971,-9252.574275,-2451.505594
476.972535,3182.885551,-8438.347739,-3140.991542
476.972857,2960.823768,-7105.977043,-306.438199
476.973179,1036.288319,-6513.812290,459.657299
476.973501,666.185348,-7550.100608,-306.438199
476.973824,740.205942,-8290.306550,-2528.115143
476.974146,-1110.308913,-9992.780217,-4290.134789
476.974468,-5107.421000,-10658.965565,-2987.772442
476.974791,-7179.997637,-11325.150913,-2374.896044
476.975113,-5847.626942,-11251.130318,-2911.162892
476.975435,-2146.597232,-11029.068536,-4366.744339
476.975758,222.061783,-9548.656652,-4673.182538
476.976080,370.102971,-9030.512492,-2221.676944
476.976402,-148.041188,-9178.553681,1302.362347
476.976724,148.041188,-10214.842000,1072.533697
476.977047,148.041188,-9992.780217,-3217.601092
476.977369,-148.041188,-10214.842000,-5209.449386
476.977691,-1628.453072,-10214.842000,-2221.676944
476.978014,-1850.514855,-9474.636058,612.876398
476.978336,0.000000,-8882.471304,1608.800546
476.978658,3256.906145,-7624.121203,-689.485948
476.978980,5773.606348,-7698.141797,-1991.848295
476.979303,6143.709319,-7476.080014,-689.485948
476.979625,3849.070898,-7624.121203,1072.533697
476.979947,2516.700203,-7624.121203,306.438199
476.980270,1702.473667,-7624.121203,-1838.629195
476.980592,592.164754,-9030.512492,-3753.867940
476.980914,-2146.597232,-10288.862594,-4596.572988
476.981236,-4885.359217,-10436.903782,-3753.867940
476.981559,-4959.379811,-11103.089130,-2834.553343
476.981881,-2146.597232,-11769.274478,-3064.381992
476.982203,0.000000,-12213.398043,-4366.744339
476.982526,-222.061783,-11177.109724,-2757.943793
476.982848,-1628.453072,-9770.718434,766.095498
476.983170,-1924.535449,-8734.430116,689.485948
476.983493,0.000000,-8882.471304,-1991.848295
476.983815,1184.329507,-8956.491898,-4060.306139
476.984137,74.020594,-9474.636058,-2374.896044
476.984459,-1702.473667,-10584.944971,2604.724693
476.984782,-962.267725,-9548.656652,5745.716235
476.985104,2146.597232,-7846.182985,1149.143247
476.985426,5477.523971,-7254.018232,-4136.915689
476.985749,6883.915261,-8438.347739,-2604.724693
476.986071,5403.503377,-7994.224174,1991.848295
476.986393,2368.659014,-6957.935855,3064.381992
476.986715,1184.329507,-7698.141797,1225.752797
476.987038,-370.102971,-7550.100608,-1991.848295
476.987360,-2960.823768,-8364.327145,-6052.154434
476.987682,-7031.956449,-9696.697840,-6511.811733
476.988005,-9992.780217,-11843.295072,-3064.381992
476.988327,-9252.574275,-12509.480420,-1302.362347
476.988649,-5847.626942,-10807.006753,-2757.943793
476.988971,-3256.906145,-9030.512492,-5669.106685
476.989294,-2220.617826,-9548.656652,-4903.011187
476.989616,-3034.844362,-10066.800811,-842.705048
476.989938,-2516.700203,-8882.471304,1762.019645
476.990261,-2368.659014,-7772.162391,0.000000
476.990583,-1480.411884,-8290.306550,-3830.477490
476.990905,-1850.514855,-9696.697840,-2451.505594
476.991228,-1480.411884,-10288.862594,1378.971896
476.991550,518.144159,-8734.430116,1762.019645
476.991872,4663.297435,-8438.347739,-2068.457845
476.992194,8512.368333,-9474.636058,-1838.629195
476.992517,9548.656652,-8660.409521,1532.190996
476.992839,6365.771101,-6587.832884,3140.991542
476.993161,2368.659014,-7698.141797,1608.800546
476.993484,518.144159,-9252.574275,-2681.334243
476.993806,-1480.411884,-9696.697840,-6052.154434
476.994128,-5995.668130,-9252.574275,-5669.106685
476.994450,-9844.739029,-9770.718434,-2911.162892
476.994773,-9474.636058,-11325.150913,-2221.676944
476.995095,-5995.668130,-12287.418637,-4136.915689
476.995417,-2886.803174,-12065.356855,-5822.325785
476.995740,-3404.947333,-10066.800811,-4673.182538
476.996062,-3701.029710,-10140.821405,-2451.505594
476.996384,-2812.782580,-9400.615463,-1072.533697
476.996706,-666.185348,-8660.409521,-3907.087040
476.997029,222.061783,-8808.450710,-5975.544884
476.997351,518.144159,-10362.883188,-2757.943793
476.997673,370.102971,-10881.027347,2145.067394
476.997996,1184.329507,-8808.450710,2681.334243
476.998318,3997.112087,-7550.100608,-306.438199
476.998640,7105.977043,-7624.121203,-2374.896044
476.998962,8956.491898,-7476.080014,-766.095498
476.999285,7179.997637,-7105.977043,2221.676944
476.999607,5107.421000,-6809.894666,3140.991542
476.999929,3701.029710,-6883.915261,1072.533697
477.000252,2294.638420,-8586.388927,-2145.067394
477.000574,-888.247130,-10214.842000,-3907.087040
477.000896,-4885.359217,-11991.336260,-3217.601092
477.001219,-6217.729913,-12139.377449,-2068.457845
477.001541,-4071.132681,-11029.068536,-2451.505594
477.001863,-1924.535449,-9770.718434,-4366.744339
477.002185,-814.226536,-10436.903782,-4596.572988
477.002508,-1184.329507,-10436.903782,-2757.943793
477.002830,-1924.535449,-10807.006753,-919.314598
477.003152,-1110.308913,-10510.924376,-2451.505594
477.003475,222.061783,-10362.883188,-3983.696590
477.003797,370.102971,-10436.903782,-3294.210641
477.004119,-1036.288319,-10214.842000,536.266849
477.004441,-1332.370696,-9252.574275,4213.525239
477.004764,962.267725,-7550.100608,2451.505594
477.005086,4145.153275,-5329.482782,-1532.190996
477.005408,5107.421000,-4589.276840,-2068.457845
477.005731,3404.947333,-5699.585753,1455.581446
477.006053,2220.617826,-7772.162391,3294.210641
477.006375,814.226536,-8882.471304,2221.676944
477.006697,-148.041188,-9474.636058,-1532.190996
477.007020,-1924.535449,-10214.842000,-4290.134789
477.007342,-5477.523971,-10066.800811,-4443.353888
477.007664,-7254.018232,-10807.006753,-2528.115143
477.007987,-6439.791695,-11695.253884,-2604.724693
477.008309,-3404.947333,-11621.233289,-5286.058936
477.008631,-1406.391290,-10436.903782,-5362.668486
477.008954,-1480.411884,-9992.780217,-2451.505594
477.009276,-2738.761985,-10732.986159,-612.876398
477.009598,-2442.679609,-11843.295072,-1225.752797
477.009921,-1554.432478,-11473.192101,-3064.381992
477.010243,-1480.411884,-9844.739029,-3907.087040
477.010565,-2220.617826,-9030.512492,-1149.143247
477.010888,-1776.494261,-7254.018232,2451.505594
477.011210,1702.473667,-5995.668130,2145.067394
477.011533,5181.441594,-5329.482782,-1762.019645
477.011855,7105.977043,-6735.874072,-1685.410096
477.012177,5255.462188,-7254.018232,1915.238745
477.012500,2294.638420,-6957.935855,2528.115143
477.012822,222.061783,-8068.244768,1072.533697
477.013145,518.144159,-8734.430116,-1762.019645
477.013467,-444.123565,-9474.636058,-5286.058936
477.013790,-3849.070898,-10510.924376,-5592.497135
477.014112,-7328.038826,-11769.274478,-1838.629195
477.014434,-8142.265362,-10955.047942,-995.924147
477.014757,-5995.668130,-9770.718434,-4673.182538
477.015079,-3108.864956,-10140.821405,-7660.954980
477.015402,-2442.679609,-10436.903782,-6511.811733
477.015724,-3478.967927,-10955.047942,-3140.991542
477.016046,-2368.659014,-11695.253884,-153.219100
477.016369,296.082377,-11177.109724,-1072.533697
477.016691,3552.988522,-10362.883188,-4596.572988
477.017014,3849.070898,-9844.739029,-3294.210641
477.017336,2442.679609,-9696.697840,1608.800546
477.017659,2368.659014,-9104.533087,4060.306139
477.017981,5255.462188,-7328.038826,2298.286494
477.018303,8660.409521,-5551.544565,-612.876398
477.018626,9326.594869,-5255.462188,-1532.190996
477.018948,8142.265362,-6439.791695,919.314598
477.019271,5625.565159,-7179.997637,4060.306139
477.019593,2960.823768,-8068.244768,2987.772442
477.019916,962.267725,-9696.697840,-2221.676944
477.020238,-2960.823768,-11029.068536,-4903.011187
477.020560,-7254.018232,-11251.130318,-4443.353888
477.020883,-9844.739029,-11843.295072,-2987.772442
477.021205,-8808.450710,-12287.418637,-3907.087040
477.021528,-5921.647536,-11547.212695,-6205.373534
477.021850,-3849.070898,-9770.718434,-6128.763984
477.022172,-3923.091493,-10732.986159,-3217.601092
477.022495,-3997.112087,-11399.171507,-689.485948
477.022817,-2516.700203,-10807.006753,-2911.162892
477.023140,-666.185348,-10732.986159,-4979.620737
477.023462,0.000000,-11177.109724,-3370.820191
477.023785,-962.267725,-10955.047942,1149.143247
477.024107,-740.205942,-8216.285956,4443.353888
477.024429,1850.514855,-5107.421000,3294.210641
477.024752,6439.791695,-4737.318029,-1455.581446
477.025074,8808.450710,-5625.565159,-1532.190996
477.025397,7179.997637,-6069.688724,2681.334243
477.025719,3849.070898,-5921.647536,4826.401637
477.026041,1850.514855,-7772.162391,2298.286494
477.026364,1776.494261,-10584.944971,-1225.752797
477.026686,-444.123565,-11473.192101,-3983.696590
477.027009,-4219.173869,-11399.171507,-5132.839837
477.027331,-7994.224174,-11473.192101,-2451.505594
477.027654,-7772.162391,-11251.130318,-383.047749
477.027976,-5403.503377,-10066.800811,-3370.820191
477.028298,-3108.864956,-9992.780217,-7967.393179
477.028621,-3997.112087,-10807.006753,-5056.230287
477.028943,-4663.297435,-10955.047942,-1915.238745
477.029266,-3997.112087,-9992.780217,-1149.143247
477.029588,-2146.597232,-10140.821405,-2834.553343
477.029910,-444.123565,-9770.718434,-3217.601092
477.030233,-296.082377,-8956.491898,-2451.505594
477.030555,-222.061783,-8956.491898,995.924147
477.030878,1628.453072,-8882.471304,2528.115143
477.031200,4959.379811,-7105.977043,459.657299
477.031523,7402.059420,-5107.421000,-766.095498
477.031845,8956.491898,-5477.523971,0.000000
477.032167,7105.977043,-7476.080014,2451.505594
477.032490,5773.606348,-8216.285956,1838.629195
477.032812,4219.173869,-8660.409521,-459.657299
477.033135,2368.659014,-10362.883188,-3294.210641
477.033457,-296.082377,-11769.274478,-3830.477490
477.033780,-4219.173869,-12361.439231,-2528.115143
477.034102,-6883.915261,-11103.089130,-1149.143247
477.034424,-5773.606348,-10584.944971,-3600.648841
477.034747,-3182.885551,-10584.944971,-7354.516781
477.035069,-2516.700203,-9178.553681,-5745.716235
477.035392,-3627.009116,-9030.512492,-1991.848295
477.035714,-2812.782580,-10807.006753,-1455.581446
477.036036,-444.123565,-11621.233289,-3830.477490
477.036359,1406.391290,-12435.459826,-4596.572988
477.036681,592.164754,-11103.089130,-2757.943793
477.037004,-1036.288319,-9474.636058,995.924147
477.037326,-1332.370696,-7846.182985,2451.505594
477.037649,1184.329507,-6217.729913,0.000000
477.037971,3849.070898,-5403.503377,-2528.115143
477.038293,4145.153275,-5033.400406,-1991.848295
477.038616,3849.070898,-5699.585753,536.266849
477.038938,3034.844362,-7179.997637,2834.553343
477.039261,3108.864956,-8734.430116,1685.410096
477.039583,1628.453072,-9844.739029,-995.924147
477.039905,-1628.453072,-11621.233289,-2757.943793
477.040228,-5995.668130,-12139.377449,-2451.505594
477.040550,-8734.430116,-11547.212695,-2145.067394
477.040873,-8660.409521,-9770.718434,-3600.648841
477.041195,-6217.729913,-9548.656652,-5975.544884
477.041518,-4441.235652,-10510.924376,-6052.154434
477.041840,-3256.906145,-12065.356855,-2834.553343
477.042162,-2368.659014,-11473.192101,0.000000
477.042485,-518.144159,-11473.192101,-1762.019645
477.042807,1554.432478,-11695.253884,-3983.696590
477.043130,2220.617826,-11843.295072,-3064.381992
477.043452,222.061783,-10288.862594,76.609550
477.043775,-814.226536,-7698.141797,2757.943793
477.044097,592.164754,-5847.626942,2145.067394
477.044419,4737.318029,-5477.523971,-689.485948
477.044742,7402.059420,-5255.462188,-1149.143247
477.045064,7031.956449,-5921.647536,1685.410096
477.045387,5625.565159,-7179.997637,3983.696590
477.045709,4515.256246,-7328.038826,3677.258390
477.046031,3256.906145,-8364.327145,0.000000
477.046354,666.185348,-9992.780217,-3600.648841
477.046676,-4293.194464,-11325.150913,-3753.867940
477.046999,-9474.636058,-10584.944971,-1455.581446
477.047321,-10510.924376,-9548.656652,-1378.971896
477.047644,-7402.059420,-9844.739029,-5822.325785
477.047966,-3701.029710,-11843.295072,-7967.393179
477.048288,-2590.720797,-11325.150913,-4213.525239
477.048611,-1924.535449,-11547.212695,-1378.971896
477.048933,-962.267725,-11991.336260,-1302.362347
477.049256,1776.494261,-11769.274478,-3064.381992
477.049578,2812.782580,-11103.089130,-4366.744339
477.049900,1628.453072,-9474.636058,-2451.505594
477.050223,444.123565,-8882.471304,1838.629195
477.050545,1480.411884,-7105.977043,2834.553343
477.050868,4589.276840,-4737.318029,536.266849
477.051190,7476.080014,-5403.503377,-1149.143247
477.051513,7402.059420,-6217.729913,306.438199
477.051835,5181.441594,-6291.750507,2757.943793
477.052157,3404.947333,-6291.750507,2757.943793
477.052480,2072.576638,-7624.121203,229.828649
477.052802,592.164754,-9622.677246,-3677.258390
477.053125,-3478.967927,-11177.109724,-4519.963438
477.053447,-8068.244768,-12213.398043,-2604.724693
477.053770,-10362.883188,-12213.398043,-1532.190996
477.054092,-8142.265362,-11843.295072,-4366.744339
477.054414,-4737.318029,-11695.253884,-8656.879127
477.054737,-3478.967927,-11029.068536,-6511.811733
477.055059,-3775.050304,-11473.192101,-2911.162892
477.055382,-3627.009116,-11473.192101,-1455.581446
477.055704,-1702.473667,-10881.027347,-2834.553343
477.056026,814.226536,-10584.944971,-4749.792088
477.056349,518.144159,-10066.800811,-3830.477490
477.056671,-1258.350101,-8956.491898,306.438199
477.056994,-1184.329507,-7624.121203,3370.820191
477.057316,1258.350101,-5995.668130,1991.848295
477.057639,4737.318029,-4737.318029,-459.657299
477.057961,6143.709319,-4145.153275,-919.314598
477.058283,5699.585753,-5699.585753,1455.581446
477.058606,4145.153275,-6957.935855,3140.991542
477.058928,2738.761985,-8290.306550,1838.629195
477.059251,1924.535449,-10140.821405,-1225.752797
477.059573,-296.082377,-11695.253884,-3524.039291
477.059895,-3849.070898,-12361.439231,-4213.525239
477.060218,-6217.729913,-13101.645173,-1991.848295
477.060540,-6809.894666,-12065.356855,-1991.848295
477.060863,-5699.585753,-10658.965565,-4749.792088
477.061185,-4737.318029,-10658.965565,-6358.592633
477.061508,-4885.359217,-10288.862594,-3830.477490
477.061830,-4441.235652,-10955.047942,-2604.724693
477.062152,-2886.803174,-10584.944971,-3064.381992
477.062475,74.020594,-10584.944971,-4596.572988
477.062797,1850.514855,-11325.150913,-2987.772442
477.063120,1036.288319,-10584.944971,1838.629195
477.063442,296.082377,-8068.244768,3907.087040
477.063765,2220.617826,-5847.626942,1762.019645
477.064087,5551.544565,-5033.400406,-1149.143247
477.064409,7550.100608,-5329.482782,-1302.362347
477.064732,7105.977043,-5551.544565,1762.019645
477.065054,5625.565159,-6883.915261,3217.601092
477.065377,4441.235652,-7624.121203,2987.772442
477.065699,3552.988522,-8882.471304,0.000000
477.066021,666.185348,-10955.047942,-3524.039291
477.066344,-3627.009116,-12435.459826,-3677.258390
477.066666,-8068.244768,-11843.295072,-1762.019645
477.066989,-8438.347739,-11177.109724,-1915.238745
477.067311,-6143.709319,-11325.150913,-4366.744339
477.067634,-3552.988522,-11251.130318,-5975.544884
477.067956,-2960.823768,-10066.800811,-3830.477490
477.068278,-3330.926739,-9400.615463,-842.705048
477.068601,-2220.617826,-10436.903782,-689.485948
477.068923,-222.061783,-11325.150913,-3064.381992
477.069246,370.102971,-10732.986159,-4366.744339
477.069568,-1110.308913,-10140.821405,-766.095498
477.069890,-1850.514855,-8660.409521,2681.334243
477.070213,0.000000,-6513.812290,1455.581446
477.070535,2960.823768,-5329.482782,-1225.752797
477.070858,5625.565159,-5625.565159,-1532.190996
477.071180,5921.647536,-6217.729913,153.219100
477.071503,4663.297435,-6513.812290,2528.115143
477.071825,2886.803174,-7328.038826,2145.067394
477.072147,2368.659014,-8290.306550,-1149.143247
477.072470,888.247130,-9918.759623,-4826.401637
477.072792,-3034.844362,-11843.295072,-4596.572988
477.073115,-8142.265362,-12139.377449,-1532.190996
477.073437,-10066.800811,-10584.944971,-995.924147
477.073759,-7624.121203,-10140.821405,-4596.572988
477.074082,-3849.070898,-10732.986159,-7354.516781
477.074404,-3256.906145,-11029.068536,-5132.839837
477.074727,-3997.112087,-10955.047942,-1838.629195
477.075049,-3256.906145,-10436.903782,-383.047749
477.075372,-740.205942,-10066.800811,-2604.724693
477.075694,1036.288319,-10732.986159,-5439.278036
477.076016,-148.041188,-10881.027347,-3600.648841
477.076339,-2368.659014,-9770.718434,766.095498
477.076661,-2146.597232,-7698.141797,1838.629195
477.076984,1702.473667,-7031.956449,-689.485948
477.077306,5625.565159,-6587.832884,-2834.553343
477.077629,7031.956449,-6217.729913,-1378.971896
477.077951,5847.626942,-5995.668130,1149.143247
477.078273,5403.503377,-7624.121203,2374.896044
477.078596,6513.812290,-8660.409521,1072.533697
477.078918,5625.565159,-9178.553681,-2528.115143
477.079241,1406.391290,-10658.965565,-4673.182538
477.079563,-3997.112087,-12509.480420,-2298.286494
477.079885,-7328.038826,-12287.418637,0.000000
477.080208,-7105.977043,-9992.780217,-2681.334243
477.080530,-5181.441594,-9178.553681,-6741.640382
477.080853,-3478.967927,-10436.903782,-7124.688131
477.081175,-3478.967927,-10881.027347,-3524.039291
477.081498,-3923.091493,-10732.986159,-689.485948
477.081820,-2146.597232,-11473.192101,-1685.410096
477.082142,0.000000,-12213.398043,-3983.696590
477.082465,1406.391290,-11325.150913,-4290.134789
477.082787,-444.123565,-10436.903782,-306.438199
477.083110,-1110.308913,-9178.553681,2681.334243
477.083432,814.226536,-7402.059420,1838.629195
477.083754,5107.421000,-5773.606348,-306.438199
477.084077,6587.832884,-4219.173869,-153.219100
477.084399,5181.441594,-4145.153275,995.924147
477.084722,3108.864956,-6365.771101,2451.505594
477.085044,2590.720797,-9104.533087,2604.724693
477.085367,3256.906145,-10066.800811,0.000000
477.085689,1036.288319,-9770.718434,-2987.772442
477.086011,-2516.700203,-11029.068536,-2604.724693
477.086334,-5255.462188,-11695.253884,0.000000
477.086656,-6291.750507,-11029.068536,-766.095498
477.086979,-5551.544565,-10140.821405,-3447.429741
477.087301,-5625.565159,-9622.677246,-5439.278036
477.087624,-5625.565159,-11029.068536,-4290.134789
477.087946,-5403.503377,-11621.233289,-1455.581446
477.088268,-3775.050304,-11695.253884,-1608.800546
477.088591,-1036.288319,-11547.212695,-4060.306139
477.088913,1036.288319,-11177.109724,-3447.429741
477.089236,1480.411884,-10584.944971,842.705048
477.089558,222.061783,-7772.162391,3064.381992
477.089880,888.247130,-5625.565159,1685.410096
477.090203,3478.967927,-5921.647536,-842.705048
477.090525,5847.626942,-6513.812290,-1072.533697
477.090848,5551.544565,-5699.585753,919.314598
477.091170,3256.906145,-5033.400406,2374.896044
477.091493,2738.761985,-6957.935855,2145.067394
477.091815,3256.906145,-8956.491898,0.000000
477.092137,2146.597232,-9548.656652,-3294.210641
477.092460,-1850.514855,-11325.150913,-3753.867940
477.092782,-5107.421000,-12213.398043,-1608.800546
477.093105,-7031.956449,-11769.274478,-1838.629195
477.093427,-6439.791695,-10362.883188,-3983.696590
477.093749,-6809.894666,-9474.636058,-6128.763984
477.094072,-7402.059420,-9844.739029,-5669.106685
477.094394,-7254.018232,-10584.944971,-3370.820191
477.094717,-5329.482782,-10732.986159,-3217.601092
477.095039,-2368.659014,-10510.924376,-5056.230287
477.095362,444.123565,-11621.233289,-5975.544884
477.095684,1776.494261,-12657.521608,-2681.334243
477.096006,2220.617826,-11325.150913,1455.581446
477.096329,1406.391290,-7328.038826,2068.457845
477.096651,3182.885551,-4811.338623,-229.828649
477.096974,5921.647536,-5033.400406,-2451.505594
477.097296,6957.935855,-6069.688724,-1762.019645
477.097619,5477.523971,-5921.647536,842.705048
477.097941,3775.050304,-6883.915261,2374.896044
477.098263,3923.091493,-8364.327145,1991.848295
477.098586,4663.297435,-10140.821405,-2221.676944
477.098908,2442.679609,-12509.480420,-4903.011187
477.099231,-2146.597232,-13915.871710,-2451.505594
477.099553,-5477.523971,-11325.150913,0.000000
477.099875,-6291.750507,-9548.656652,-1991.848295
477.100198,-4737.318029,-8808.450710,-6281.983084
477.100520,-3923.091493,-10066.800811,-7660.954980
477.100843,-4219.173869,-11399.171507,-4903.011187
477.101165,-3923.091493,-11917.315666,-2221.676944
477.101488,-2146.597232,-12509.480420,-1915.238745
477.101810,0.000000,-11991.336260,-3677.258390
477.102132,814.226536,-11547.212695,-3830.477490
477.102455,-740.205942,-9918.759623,-1072.533697
477.102777,-2294.638420,-7105.977043,1455.581446
477.103100,-1332.370696,-4959.379811,383.047749
477.103422,1850.514855,-4737.318029,-1991.848295
477.103744,4293.194464,-5181.441594,-1302.362347
477.104067,4219.173869,-5699.585753,919.314598
477.104389,2738.761985,-7328.038826,3983.696590
477.104712,2960.823768,-8660.409521,3447.429741
477.105034,3182.885551,-9474.636058,0.000000
477.105357,1850.514855,-10140.821405,-2681.334243
477.105679,-1702.473667,-10362.883188,-2451.505594
477.106001,-5033.400406,-10140.821405,-459.657299
477.106324,-5255.462188,-9770.718434,-919.314598
477.106646,-4441.235652,-9622.677246,-3524.039291
477.106969,-3330.926739,-11103.089130,-5898.935335
477.107291,-3478.967927,-12287.418637,-2987.772442
477.107614,-3997.112087,-11917.315666,0.000000
477.107936,-3182.885551,-10955.047942,-612.876398
477.108258,-2146.597232,-10955.047942,-2604.724693
477.108581,0.000000,-10436.903782,-4136.915689
477.108903,-888.247130,-9622.677246,-2451.505594
477.109226,-1480.411884,-8956.491898,1455.581446
477.109548,-518.144159,-7476.080014,2681.334243
477.109870,2590.720797,-6217.729913,306.438199
477.110193,5847.626942,-6365.771101,-766.095498
477.110515,7402.059420,-7105.977043,76.609550
477.110838,6513.812290,-8216.285956,1302.362347
477.111160,4959.379811,-8438.347739,2451.505594
477.111483,3997.112087,-7105.977043,1915.238745
477.111805,1332.370696,-7402.059420,-2374.896044
477.112128,-2220.617826,-10510.924376,-4443.353888
477.112450,-6217.729913,-11547.212695,-2374.896044
477.112773,-8142.265362,-10584.944971,-1915.238745
477.113095,-6217.729913,-10140.821405,-4290.134789
477.113418,-4367.215058,-10881.027347,-4903.011187
477.113740,-3256.906145,-11547.212695,-4060.306139
477.114062,-4515.256246,-9474.636058,-1149.143247
477.114385,-4441.235652,-8734.430116,-1072.533697
477.114707,-2442.679609,-9622.677246,-4519.963438
477.115030,74.020594,-10732.986159,-6971.469032
477.115352,74.020594,-11251.130318,-4826.401637
477.115675,-1258.350101,-11251.130318,1072.533697
477.115997,0.000000,-9770.718434,3677.258390
477.116320,3478.967927,-8142.265362,459.657299
477.116642,6735.874072,-6291.750507,-2451.505594
477.116965,6957.935855,-5033.400406,-1915.238745
477.117287,4959.379811,-5625.565159,229.828649
477.117610,3627.009116,-7402.059420,1608.800546
477.117932,3182.885551,-7920.203579,1149.143247
477.118254,2738.761985,-8068.244768,-2374.896044
477.118577,370.102971,-9844.739029,-4673.182538
477.118899,-1406.391290,-11843.295072,-2681.334243
477.119222,-3775.050304,-12065.356855,0.000000
477.119544,-3330.926739,-10658.965565,-1225.752797
477.119867,-1850.514855,-9770.718434,-3907.087040
477.120189,-962.267725,-9474.636058,-4749.792088
477.120512,-2368.659014,-9622.677246,-3217.601092
477.120834,-3330.926739,-9992.780217,-1915.238745
477.121157,-3182.885551,-10214.842000,-3447.429741
477.121479,-2294.638420,-11029.068536,-5515.887586
477.121802,-2294.638420,-12287.418637,-4979.620737
477.122124,-4071.132681,-11991.336260,-1532.190996
477.122446,-4737.318029,-10214.842000,1149.143247
477.122769,-2294.638420,-7254.018232,-1149.143247
477.123091,1924.535449,-6661.853478,-4519.963438
477.123414,4515.256246,-6957.935855,-3217.601092
477.123736,4071.132681,-7254.018232,1225.752797
477.124059,1480.411884,-7105.977043,4136.915689
477.124381,1110.308913,-8068.244768,2604.724693
477.124704,2368.659014,-8882.471304,-1762.019645
477.125026,1924.535449,-9622.677246,-4979.620737
477.125349,-592.164754,-10066.800811,-3064.381992
477.125671,-2146.597232,-10066.800811,1762.019645
477.125994,-1554.432478,-9326.594869,1455.581446
477.126316,444.123565,-8290.306550,-2145.067394
477.126638,1258.350101,-9474.636058,-3753.867940
477.126961,-740.205942,-10807.006753,-2221.676944
477.127283,-3034.844362,-11029.068536,-459.657299
477.127606,-3552.988522,-10807.006753,-995.924147
477.127928,-1554.432478,-10732.986159,-3294.210641
477.128251,148.041188,-11325.150913,-4826.401637
477.128573,-666.185348,-11769.274478,-1685.410096
477.128896,-2516.700203,-9992.780217,2681.334243
477.129218,-1554.432478,-8216.285956,2145.067394
477.129541,1628.453072,-7254.018232,-1225.752797
477.129863,3923.091493,-7254.018232,-2451.505594
477.130186,3627.009116,-7402.059420,306.438199
477.130508,2590.720797,-6513.812290,2528.115143
477.130830,2368.659014,-6143.709319,2068.457845
477.131153,2664.741391,-6513.812290,76.609550
477.131475,1702.473667,-8068.244768,-2757.943793
477.131798,-1628.453072,-9548.656652,-2757.943793
477.132120,-5329.482782,-10732.986159,-1225.752797
477.132443,-6365.771101,-11029.068536,-153.219100
477.132765,-4219.173869,-10436.903782,-3217.601092
477.133088,-2368.659014,-9770.718434,-6435.202183
477.133410,-1850.514855,-10510.924376,-4826.401637
477.133733,-2960.823768,-9770.718434,-842.705048
477.134055,-3108.864956,-10140.821405,0.000000
477.134378,-888.247130,-10955.047942,-4443.353888
477.134700,296.082377,-11547.212695,-5745.716235
477.135022,148.041188,-12361.439231,-3753.867940
477.135345,-1480.411884,-11473.192101,766.095498
477.135667,-1628.453072,-9696.697840,2757.943793
477.135990,222.061783,-7402.059420,153.219100
477.136312,3404.947333,-5921.647536,-2374.896044
477.136635,4589.276840,-5477.523971,-2068.457845
477.136957,3404.947333,-5773.606348,459.657299
477.137280,2072.576638,-6661.853478,1685.410096
477.137602,2590.720797,-7994.224174,536.266849
477.137925,2738.761985,-8808.450710,-2681.334243
477.138247,1110.308913,-10362.883188,-4903.011187
477.138570,-2738.761985,-11621.233289,-3370.820191
477.138892,-5847.626942,-11769.274478,-1532.190996
477.139214,-5699.585753,-10362.883188,-2528.115143
477.139537,-3997.112087,-9992.780217,-5745.716235
477.139859,-2368.659014,-11251.130318,-7048.078582
477.140182,-2368.659014,-11473.192101,-2987.772442
477.140504,-2886.803174,-10732.986159,-689.485948
477.140827,-1850.514855,-11177.109724,-1915.238745
477.141149,-444.123565,-10807.006753,-3753.867940
477.141472,-1036.288319,-9844.739029,-3370.820191
477.141794,-2960.823768,-9918.759623,-1072.533697
477.142117,-4145.153275,-8660.409521,1455.581446
477.142439,-1924.535449,-6809.894666,229.828649
477.142761,1850.514855,-5255.462188,-2528.115143
477.143084,4589.276840,-6587.832884,-1991.848295
477.143406,5181.441594,-8216.285956,1225.752797
477.143729,4441.235652,-8660.409521,2911.162892
477.144051,4441.235652,-8216.285956,1991.848295
477.144374,4959.379811,-8660.409521,-1532.190996
477.144696,3997.112087,-10510.924376,-3907.087040
477.145019,592.164754,-11399.171507,-3294.210641
477.145341,-3849.070898,-10807.006753,-383.047749
477.145664,-4589.276840,-10658.965565,0.000000
477.145986,-1924.535449,-10288.862594,-2528.115143
477.146309,0.000000,-9474.636058,-4443.353888
477.146631,-888.247130,-9918.759623,-2451.505594
477.146953,-2738.761985,-9918.759623,1915.238745
477.147276,-2590.720797,-8512.368333,2068.457845
477.147598,-1332.370696,-7550.100608,-2145.067394
477.147921,-814.226536,-8808.450710,-3830.477490
477.148243,-1554.432478,-9622.677246,-2374.896044
477.148566,-3627.009116,-9992.780217,1532.190996
477.148888,-2960.823768,-9030.512492,2451.505594
477.149211,444.123565,-8364.327145,0.000000
477.149533,3775.050304,-8364.327145,-2068.457845
477.149856,4737.318029,-8216.285956,-536.266849
477.150178,3330.926739,-7920.203579,842.705048
477.150501,2368.659014,-8364.327145,383.047749
477.150823,2738.761985,-8586.388927,-1149.143247
477.151145,2146.597232,-8734.430116,-3370.820191
477.151468,-370.102971,-9918.759623,-3447.429741
477.151790,-3997.112087,-11621.233289,-995.924147
477.152113,-5181.441594,-11991.336260,-153.219100
477.152435,-3552.988522,-10807.006753,-1915.238745
477.152758,-814.226536,-9844.739029,-4596.572988
477.153080,-148.041188,-9400.615463,-3447.429741
477.153403,-1776.494261,-8512.368333,383.047749
477.153725,-2960.823768,-7920.203579,1991.848295
477.154048,-2664.741391,-7994.224174,-1455.581446
477.154370,-1554.432478,-9400.615463,-4903.011187
477.154693,-1480.411884,-10584.944971,-4903.011187
477.155015,-3330.926739,-11029.068536,-1685.410096
477.155337,-3923.091493,-10955.047942,1685.410096
477.155660,-370.102971,-9696.697840,229.828649
477.155982,3627.009116,-8290.306550,-2834.553343
477.156305,5551.544565,-7328.038826,-3447.429741
477.156627,4367.215058,-7105.977043,-1378.971896
477.156950,2590.720797,-7328.038826,766.095498
477.157272,2442.679609,-8364.327145,-229.828649
477.157595,2220.617826,-8512.368333,-3524.039291
477.157917,888.247130,-10066.800811,-5515.887586
477.158240,-2294.638420,-10732.986159,-3600.648841
477.158562,-5033.400406,-10436.903782,-536.266849
477.158885,-4737.318029,-9770.718434,-919.314598
477.159207,-2812.782580,-9400.615463,-3830.477490
477.159529,-1628.453072,-8660.409521,-5056.230287
477.159852,-1776.494261,-9178.553681,-3447.429741
477.160174,-1776.494261,-9474.636058,-306.438199
477.160497,-222.061783,-9326.594869,-919.314598
477.160819,1628.453072,-10584.944971,-3983.696590
477.161142,1776.494261,-11843.295072,-3600.648841
477.161464,-222.061783,-12065.356855,-536.266849
477.161787,-1702.473667,-11399.171507,1149.143247
477.162109,-222.061783,-9844.739029,-459.657299
477.162432,2368.659014,-8438.347739,-2681.334243
477.162754,3997.112087,-6735.874072,-2528.115143
477.163077,3552.988522,-6735.874072,-306.438199
477.163399,1850.514855,-7105.977043,2068.457845
477.163721,1554.432478,-7550.100608,1302.362347
477.164044,1406.391290,-8808.450710,-2451.505594
477.164366,-370.102971,-10066.800811,-4903.011187
477.164689,-4811.338623,-11621.233289,-2681.334243
477.165011,-8364.327145,-11991.336260,383.047749
477.165334,-7550.100608,-10807.006753,0.000000
477.165656,-4441.235652,-9400.615463,-3677.258390
477.165979,-2368.659014,-8068.244768,-5362.668486
477.166301,-1480.411884,-8586.388927,-2451.505594
477.166624,-1332.370696,-8956.491898,919.314598
477.166946,-962.267725,-9622.677246,919.314598
477.167269,0.000000,-10140.821405,-1149.143247
477.167591,148.041188,-10436.903782,-2604.724693
477.167913,-1332.370696,-11103.089130,-1378.971896
477.168236,-3256.906145,-9918.759623,1455.581446
477.168558,-2738.761985,-8808.450710,2145.067394
477.168881,444.123565,-6883.915261,76.609550
477.169203,3552.988522,-5625.565159,-1455.581446
477.169526,4441.235652,-6217.729913,-919.314598
477.169848,3478.967927,-6883.915261,995.924147
477.170171,2442.679609,-7994.224174,1915.238745
477.170493,2442.679609,-8586.388927,153.219100
477.170816,1406.391290,-9918.759623,-3524.039291
477.171138,-1036.288319,-12139.377449,-4136.915689
477.171461,-3997.112087,-11991.336260,-1991.848295
477.171783,-5403.503377,-10732.986159,-612.876398
477.172105,-3701.029710,-10140.821405,-2298.286494
477.172428,-518.144159,-9844.739029,-4136.915689
477.172750,74.020594,-7994.224174,-3370.820191
477.173073,-370.102971,-8660.409521,-1455.581446
477.173395,-740.205942,-8882.471304,-229.828649
477.173718,0.000000,-9992.780217,-2451.505594
477.174040,888.247130,-10510.924376,-4979.620737
477.174363,0.000000,-10658.965565,-3064.381992
477.174685,-1702.473667,-10881.027347,229.828649
477.175008,-1628.453072,-9770.718434,1608.800546
477.175330,814.226536,-8216.285956,-459.657299
477.175653,3923.091493,-7476.080014,-2528.115143
477.175975,5699.585753,-7550.100608,-1838.629195
477.176297,5033.400406,-7402.059420,76.609550
477.176620,4071.132681,-7698.141797,383.047749
477.176942,3404.947333,-7920.203579,-383.047749
477.177265,2664.741391,-8216.285956,-2528.115143
477.177587,444.123565,-9400.615463,-4903.011187
477.177910,-3701.029710,-11547.212695,-3294.210641
477.178232,-6069.688724,-12435.459826,-1455.581446
477.178555,-5329.482782,-11251.130318,-2221.676944
477.178877,-3330.926739,-10066.800811,-4290.134789
477.179200,-2738.761985,-9474.636058,-4826.401637
477.179522,-3182.885551,-8660.409521,-2374.896044
477.179844,-3923.091493,-8438.347739,-766.095498
477.180167,-2368.659014,-9474.636058,-2451.505594
477.180489,-1110.308913,-10732.986159,-4826.401637
477.180812,-740.205942,-11991.336260,-4213.525239
477.181134,-2072.576638,-12657.521608,76.609550
477.181457,-2738.761985,-11251.130318,2298.286494
477.181779,-1258.350101,-8660.409521,1838.629195
477.182102,1702.473667,-6365.771101,-766.095498
477.182424,3849.070898,-4589.276840,-2834.553343
477.182747,4367.215058,-5625.565159,-1149.143247
477.183069,3701.029710,-7550.100608,459.657299
477.183392,2738.761985,-8882.471304,1149.143247
477.183714,1776.494261,-9474.636058,-306.438199
477.184036,-888.247130,-10584.944971,-2221.676944
477.184359,-4219.173869,-11695.253884,-3064.381992
477.184681,-7328.038826,-10955.047942,-2298.286494
477.185004,-7328.038826,-10288.862594,-3217.601092
477.185326,-4515.256246,-9696.697840,-4596.572988
477.185649,-1702.473667,-10066.800811,-4443.353888
477.185971,-1480.411884,-8956.491898,-2374.896044
477.186294,-2516.700203,-8808.450710,0.000000
477.186616,-3034.844362,-10584.944971,612.876398
477.186939,-2664.741391,-10658.965565,-2145.067394
477.187261,-2812.782580,-10214.842000,-4519.963438
477.187584,-3034.844362,-10732.986159,-2987.772442
477.187906,-2738.761985,-9622.677246,383.047749
477.188228,-518.144159,-8216.285956,1378.971896
477.188551,3034.844362,-6439.791695,0.000000
477.188873,6439.791695,-6883.915261,-842.705048
477.189196,7031.956449,-7328.038826,153.219100
477.189518,5329.482782,-7179.997637,1608.800546
477.189841,3627.009116,-8216.285956,1608.800546
477.190163,3182.885551,-9548.656652,-459.657299
477.190486,3034.844362,-9770.718434,-3524.039291
477.190808,148.041188,-9178.553681,-4136.915689
477.191131,-2590.720797,-9770.718434,-1915.238745
477.191453,-3256.906145,-9992.780217,153.219100
477.191776,-1110.308913,-10732.986159,-1378.971896
477.192098,222.061783,-11177.109724,-3677.258390
477.192420,-222.061783,-11251.130318,-2757.943793
477.192743,-2072.576638,-9622.677246,-842.705048
477.193065,-2590.720797,-7402.059420,-383.047749
477.193388,-1998.556043,-7105.977043,-2834.553343
477.193710,-1258.350101,-8586.388927,-5209.449386
477.194033,-1554.432478,-10288.862594,-4136.915689
477.194355,-2738.761985,-11177.109724,-1225.752797
477.194678,-2220.617826,-11769.274478,229.828649
477.195000,888.247130,-11177.109724,-919.314598
477.195323,4589.276840,-9992.780217,-2145.067394
477.195645,6217.729913,-7846.182985,-2451.505594
477.195968,4737.318029,-6661.853478,76.609550
477.196290,2812.782580,-6069.688724,1608.800546
477.196612,2664.741391,-6439.791695,306.438199
477.196935,2294.638420,-7550.100608,-3140.991542
477.197257,666.185348,-9992.780217,-5056.230287
477.197580,-2442.679609,-11843.295072,-2757.943793
477.197902,-4515.256246,-12805.562797,76.609550
477.198225,-2960.823768,-12731.542202,0.000000
477.198547,-814.226536,-11177.109724,-2911.162892
477.198870,-814.226536,-8734.430116,-3600.648841
477.199192,-3627.009116,-6291.750507,-1685.410096
477.199515,-5181.441594,-5921.647536,-689.485948
477.199837,-4515.256246,-8068.244768,-2834.553343
477.200160,-2960.823768,-10066.800811,-4673.182538
477.200482,-3108.864956,-11251.130318,-4213.525239
477.200804,-4737.318029,-12953.603985,-995.924147
477.201127,-5699.585753,-12509.480420,1915.238745
477.201449,-4219.173869,-10066.800811,689.485948
477.201772,-962.267725,-7031.956449,-3217.601092
477.202094,2368.659014,-5921.647536,-5056.230287
477.202417,3404.947333,-5847.626942,-2681.334243
477.202739,3182.885551,-6587.832884,919.314598
477.203062,2590.720797,-7698.141797,1991.848295
477.203384,2516.700203,-10214.842000,-229.828649
477.203707,1702.473667,-11769.274478,-2834.553343
477.204029,-1110.308913,-12287.418637,-4136.915689
477.204352,-4071.132681,-11695.253884,-2298.286494
477.204674,-4515.256246,-10955.047942,-612.876398
477.204996,-2368.659014,-9548.656652,-2145.067394
477.205319,-962.267725,-8068.244768,-2374.896044
477.205641,-2072.576638,-6513.812290,-919.314598
477.205964,-2294.638420,-7846.182985,-1072.533697
477.206286,-814.226536,-10140.821405,-2604.724693
477.206609,1110.308913,-11621.233289,-3983.696590
477.206931,1036.288319,-12361.439231,-3524.039291
477.207254,0.000000,-12287.418637,-689.485948
477.207576,-1258.350101,-11991.336260,1685.410096
477.207899,-222.061783,-9326.594869,0.000000
477.208221,2146.597232,-6661.853478,-2757.943793
477.208544,3997.112087,-5847.626942,-3217.601092
477.208866,4071.132681,-7031.956449,-1455.581446
477.209188,3108.864956,-7698.141797,1225.752797
477.209511,2072.576638,-7328.038826,2145.067394
477.209833,2516.700203,-8438.347739,-612.876398
477.210156,2886.803174,-9696.697840,-3983.696590
477.210478,0.000000,-10066.800811,-4060.306139
477.210801,-4367.215058,-10807.006753,-995.924147
477.211123,-5921.647536,-10881.027347,1608.800546
477.211446,-3775.050304,-9622.677246,-919.314598
477.211768,-962.267725,-7920.203579,-4979.620737
477.212091,222.061783,-7920.203579,-5286.058936
477.212413,962.267725,-8808.450710,-1685.410096
477.212736,1480.411884,-9844.739029,229.828649
477.213058,2664.741391,-10732.986159,0.000000
477.213380,2886.803174,-11917.315666,-1838.629195
477.213703,1702.473667,-11991.336260,-2528.115143
477.214025,-740.205942,-11029.068536,-766.095498
477.214347,-1258.350101,-9474.636058,1072.533697
477.214670,148.041188,-8290.306550,76.609550
477.214992,3330.926739,-6809.894666,-1455.581446
477.215314,4737.318029,-5255.462188,-766.095498
477.215637,3552.988522,-5255.462188,766.095498
477.215959,1554.432478,-8216.285956,1762.019645
477.216281,888.247130,-10066.800811,153.219100
477.216604,-1110.308913,-9844.739029,-3294.210641
477.216926,-4145.153275,-11103.089130,-4749.792088
477.217248,-7550.100608,-11843.295072,-2451.505594
477.217571,-9548.656652,-10807.006753,0.000000
477.217893,-7994.224174,-9770.718434,-3294.210641
477.218216,-4589.276840,-9622.677246,-6358.592633
477.218538,-1628.453072,-10362.883188,-5822.325785
477.218860,-1850.514855,-9992.780217,-1608.800546
477.219183,-3330.926739,-8660.409521,995.924147
477.219505,-2886.803174,-9696.697840,-536.266849
477.219827,-888.247130,-11251.130318,-4596.572988
477.220150,-370.102971,-11325.150913,-5898.935335
477.220472,-2220.617826,-10732.986159,-2757.943793
477.220794,-2960.823768,-9770.718434,2451.505594
477.221117,74.020594,-7920.203579,3294.210641
477.221439,4293.194464,-5995.668130,-612.876398
477.221761,7031.956449,-6513.812290,-2911.162892
477.222084,6513.812290,-8660.409521,-1225.752797
477.222406,4589.276840,-9178.553681,1532.190996
477.222729,3256.906145,-7846.182985,2451.505594
477.223051,2368.659014,-7994.224174,-383.047749
477.223373,592.164754,-9474.636058,-4213.525239
477.223696,-3108.864956,-10362.883188,-4596.572988
477.224018,-7179.997637,-10140.821405,-2221.676944
477.224340,-7994.224174,-10807.006753,-1991.848295
477.224663,-4737.318029,-11177.109724,-3600.648841
477.224985,-2220.617826,-10955.047942,-5286.058936
477.225307,-1850.514855,-10066.800811,-2834.553343
477.225630,-3256.906145,-7994.224174,-689.485948
477.225952,-2442.679609,-8512.368333,-919.314598
477.226274,296.082377,-9252.574275,-3753.867940
477.226597,1258.350101,-9474.636058,-6052.154434
477.226919,-518.144159,-10658.965565,-3447.429741
477.227242,-1480.411884,-11695.253884,2451.505594
477.227564,444.123565,-10881.027347,3677.258390
477.227886,4219.173869,-8660.409521,76.609550
477.228209,7254.018232,-5847.626942,-2681.334243
477.228531,7994.224174,-4959.379811,-766.095498
477.228853,6883.915261,-5329.482782,2221.676944
477.229176,5329.482782,-6143.709319,3447.429741
477.229498,4071.132681,-7105.977043,1455.581446
477.229820,2072.576638,-8660.409521,-2911.162892
477.230143,-888.247130,-11917.315666,-4903.011187
477.230465,-4959.379811,-13767.830521,-2451.505594
477.230787,-7179.997637,-13323.706956,-842.705048
477.231110,-6217.729913,-11843.295072,-1991.848295
477.231432,-2738.761985,-10066.800811,-4443.353888
477.231754,-1850.514855,-8364.327145,-4290.134789
477.232077,-1776.494261,-8956.491898,-2145.067394
477.232399,-2886.803174,-8808.450710,-1532.190996
477.232722,-2368.659014,-9696.697840,-2834.553343
477.233044,-1258.350101,-11399.171507,-3830.477490
477.233366,-814.226536,-12435.459826,-2068.457845
477.233689,-1184.329507,-11843.295072,0.000000
477.234011,-1332.370696,-9548.656652,2145.067394
477.234333,888.247130,-6735.874072,1608.800546
477.234656,3923.091493,-5403.503377,-689.485948
477.234978,4737.318029,-4441.235652,-1608.800546
477.235300,3701.029710,-5403.503377,-383.047749
477.235623,1776.494261,-6365.771101,1685.410096
477.235945,962.267725,-7920.203579,1072.533697
477.236267,222.061783,-8882.471304,-2451.505594
477.236590,-1258.350101,-10584.944971,-4903.011187
477.236912,-3775.050304,-12213.398043,-3370.820191
477.237235,-6439.791695,-12139.377449,-766.095498
477.237557,-6735.874072,-10807.006753,-1072.533697
477.237879,-4293.194464,-9992.780217,-4673.182538
477.238202,-2738.761985,-10362.883188,-5745.716235
477.238524,-2812.782580,-9696.697840,-2757.943793
477.238846,-3330.926739,-9178.553681,-306.438199
477.239169,-2516.700203,-10214.842000,-1762.019645
477.239491,0.000000,-11251.130318,-3753.867940
477.239813,592.164754,-11103.089130,-3524.039291
477.240136,-1184.329507,-10140.821405,-995.924147
477.240458,-1480.411884,-9844.739029,1915.238745
477.240780,888.247130,-8068.244768,766.095498
477.241103,4515.256246,-6217.729913,-2068.457845
477.241425,7105.977043,-5477.523971,-2221.676944
477.241748,8068.244768,-6439.791695,-306.438199
477.242070,6957.935855,-7476.080014,1225.752797
477.242392,4737.318029,-8068.244768,2528.115143
477.242715,2590.720797,-9104.533087,153.219100
477.243037,518.144159,-10732.986159,-4213.525239
477.243359,-3256.906145,-11917.315666,-4979.620737
477.243682,-7254.018232,-11991.336260,-2528.115143
477.244004,-9030.512492,-9844.739029,-766.095498
477.244326,-6661.853478,-8364.327145,-4213.525239
477.244649,-2590.720797,-9178.553681,-7277.907231
477.244971,-1850.514855,-9622.677246,-5362.668486
477.245293,-2294.638420,-11029.068536,-1532.190996
477.245616,-2886.803174,-11029.068536,-612.876398
477.245938,-814.226536,-11695.253884,-3830.477490
477.246260,74.020594,-12583.501014,-5592.497135
477.246583,0.000000,-12213.398043,-3524.039291
477.246905,-1110.308913,-10436.903782,459.657299
477.247228,0.000000,-7402.059420,2834.553343
477.247550,3775.050304,-6291.750507,842.705048
477.247872,7031.956449,-5403.503377,-1225.752797
477.248195,7698.141797,-4737.318029,-306.438199
477.248517,5921.647536,-5403.503377,2221.676944
477.248839,4515.256246,-6883.915261,2834.553343
477.249162,3923.091493,-7994.224174,995.924147
477.249484,2294.638420,-8512.368333,-1915.238745
477.249806,-666.185348,-9622.677246,-4136.915689
477.250129,-4663.297435,-11991.336260,-2757.943793
477.250451,-6809.894666,-12805.562797,383.047749
477.250773,-5699.585753,-10658.965565,-1072.533697
477.251096,-3627.009116,-9622.677246,-6588.421283
477.251418,-2368.659014,-10584.944971,-6665.030833
477.251741,-3108.864956,-11695.253884,-1762.019645
477.252063,-4071.132681,-11695.253884,-536.266849
477.252385,-4219.173869,-10807.006753,-2298.286494
477.252708,-2368.659014,-11473.192101,-4213.525239
477.253030,-1258.350101,-11325.150913,-3524.039291
477.253352,-2368.659014,-8956.491898,-383.047749
477.253675,-2738.761985,-6883.915261,2757.943793
477.253997,814.226536,-5699.585753,1991.848295
477.254319,5551.544565,-5699.585753,-612.876398
477.254642,7920.203579,-4885.359217,-1225.752797
477.254964,6291.750507,-5107.421000,1455.581446
477.255286,3997.112087,-6069.688724,2834.553343
477.255609,3404.947333,-8068.244768,1455.581446
477.255931,3256.906145,-9474.636058,-1991.848295
477.256254,370.102971,-11621.233289,-4366.744339
477.256576,-3923.091493,-11917.315666,-3447.429741
477.256898,-6513.812290,-12509.480420,-1532.190996
477.257221,-5847.626942,-12065.356855,-995.924147
477.257543,-3997.112087,-10658.965565,-3064.381992
477.257865,-2738.761985,-9844.739029,-4979.620737
477.258188,-3182.885551,-9326.594869,-2911.162892
477.258510,-3404.947333,-9474.636058,-842.705048
477.258832,-2664.741391,-10214.842000,-1608.800546
477.259155,-1554.432478,-10214.842000,-4290.134789
477.259477,-814.226536,-10510.924376,-4366.744339
477.259799,-1924.535449,-10362.883188,-1532.190996
477.260122,-2146.597232,-10066.800811,1302.362347
477.260444,-666.185348,-8068.244768,1302.362347
477.260767,3330.926739,-6587.832884,-1225.752797
477.261089,6661.853478,-6291.750507,-2528.115143
477.261411,7254.018232,-6735.874072,-1072.533697
477.261734,6069.688724,-6957.935855,1915.238745
477.262056,4367.215058,-7254.018232,2068.457845
477.262378,3552.988522,-8660.409521,-766.095498
477.262701,1850.514855,-10955.047942,-4060.306139
477.263023,-1850.514855,-12361.439231,-4366.744339
477.263345,-5847.626942,-12509.480420,-1762.019645
477.263668,-7179.997637,-11547.212695,0.000000
477.263990,-4589.276840,-10066.800811,-2451.505594
477.264312,-1554.432478,-9252.574275,-4903.011187
477.264635,-1702.473667,-7550.100608,-4213.525239
477.264957,-3108.864956,-8216.285956,-229.828649
477.265279,-3701.029710,-9622.677246,76.609550
477.265602,-2738.761985,-10362.883188,-2834.553343
477.265924,-2146.597232,-11251.130318,-5745.716235
477.266247,-2368.659014,-11843.295072,-4366.744339
477.266569,-3108.864956,-11695.253884,0.000000
477.266891,-1702.473667,-9548.656652,2145.067394
477.267214,2590.720797,-7476.080014,153.219100
477.267536,6365.771101,-6735.874072,-2145.067394
477.267858,6809.894666,-6291.750507,-995.924147
477.268181,4589.276840,-6069.688724,1915.238745
477.268503,2738.761985,-6957.935855,1991.848295
477.268825,2072.576638,-7402.059420,-612.876398
477.269148,1480.411884,-9178.553681,-3370.820191
477.269470,-1184.329507,-10732.986159,-3370.820191
477.269792,-4959.379811,-11621.233289,-919.314598
477.270115,-6587.832884,-11843.295072,766.095498
477.270437,-5255.462188,-10732.986159,-1685.410096
477.270760,-3034.844362,-9178.553681,-5439.278036
477.271082,-1998.556043,-9030.512492,-5515.887586
477.271404,-2442.679609,-8956.491898,-1762.019645
477.271727,-2590.720797,-9992.780217,-536.266849
477.272049,-1924.535449,-10955.047942,-2451.505594
477.272371,-518.144159,-11547.212695,-4673.182538
477.272694,-518.144159,-11843.295072,-4060.306139
477.273016,-1480.411884,-11473.192101,-612.876398
477.273338,-962.267725,-9918.759623,2451.505594
477.273661,1702.473667,-7994.224174,1072.533697
477.273983,4737.318029,-5847.626942,-919.314598
477.274305,6217.729913,-5033.400406,-1225.752797
477.274628,5625.565159,-5033.400406,153.219100
477.274950,4441.235652,-5551.544565,1685.410096
477.275273,4589.276840,-7105.977043,689.485948
477.275595,4071.132681,-9548.656652,-1762.019645
477.275917,1702.473667,-11473.192101,-3217.601092
477.276240,-2220.617826,-12879.583391,-1991.848295
477.276562,-5329.482782,-12139.377449,-536.266849
477.276884,-5255.462188,-11399.171507,-1991.848295
477.277207,-2368.659014,-10288.862594,-4596.572988
477.277529,-1036.288319,-9030.512492,-6281.983084
477.277851,-1036.288319,-9030.512492,-3294.210641
477.278174,-1850.514855,-9696.697840,306.438199
477.278496,-1406.391290,-10807.006753,0.000000
477.278818,-370.102971,-11473.192101,-2757.943793
477.279141,0.000000,-11473.192101,-3370.820191
477.279463,-1702.473667,-10807.006753,-1532.190996
477.279785,-2960.823768,-9252.574275,1455.581446
477.280108,-1628.453072,-6883.915261,2145.067394
477.280430,1554.432478,-5033.400406,612.876398
477.280753,3552.988522,-3478.967927,-1532.190996
477.281075,3182.885551,-3997.112087,-1455.581446
477.281397,1702.473667,-6883.915261,153.219100
477.281720,1184.329507,-9918.759623,459.657299
477.282042,962.267725,-11325.150913,-1762.019645
477.282364,-370.102971,-12879.583391,-3907.087040
477.282687,-3034.844362,-13619.789333,-3524.039291
477.283009,-5995.668130,-13175.665768,-2451.505594
477.283331,-7031.956449,-11029.068536,-1838.629195
477.283654,-5329.482782,-8660.409521,-3447.429741
477.283976,-2442.679609,-8734.430116,-6435.202183
477.284298,-1850.514855,-9178.553681,-4673.182538
477.284621,-2886.803174,-9474.636058,-383.047749
477.284943,-2886.803174,-9622.677246,459.657299
477.285266,-962.267725,-10955.047942,-1378.971896
477.285588,296.082377,-11473.192101,-1991.848295
477.285910,-1036.288319,-9844.739029,-1608.800546
477.286233,-2664.741391,-7920.203579,689.485948
477.286555,-1998.556043,-7179.997637,1685.410096
477.286877,1184.329507,-6809.894666,0.000000
477.287200,3701.029710,-5477.523971,-1915.238745
477.287522,3701.029710,-5255.462188,-2221.676944
477.287844,3404.947333,-7994.224174,-766.095498
477.288167,3849.070898,-10955.047942,1072.533697
477.288489,4071.132681,-11251.130318,0.000000
477.288811,2664.741391,-11399.171507,-2221.676944
477.289134,0.000000,-11917.315666,-3217.601092
477.289456,-3182.885551,-11843.295072,-2298.286494
477.289779,-5329.482782,-10214.842000,-2221.676944
477.290101,-4515.256246,-8808.450710,-2757.943793
477.290423,-2664.741391,-7179.997637,-4903.011187
477.290746,-1924.535449,-7179.997637,-4979.620737
477.291068,-2368.659014,-8734.430116,-1378.971896
477.291390,-2220.617826,-9474.636058,-153.219100
477.291713,-1036.288319,-10288.862594,-3907.087040
477.292035,222.061783,-11917.315666,-5286.058936
477.292357,666.185348,-12509.480420,-3064.381992
477.292680,-296.082377,-11177.109724,-612.876398
477.293002,-296.082377,-9548.656652,1225.752797
477.293324,1776.494261,-8142.265362,1149.143247
477.293647,5329.482782,-7402.059420,-1838.629195
477.293969,6587.832884,-6291.750507,-2298.286494
477.294291,5551.544565,-6365.771101,842.705048
477.294614,4515.256246,-6883.915261,2987.772442
477.294936,4441.235652,-7476.080014,1991.848295
477.295259,3701.029710,-8216.285956,-766.095498
477.295581,1184.329507,-9400.615463,-2834.553343
477.295903,-2220.617826,-11103.089130,-2987.772442
477.296226,-4959.379811,-11473.192101,-536.266849
477.296548,-5107.421000,-11029.068536,-995.924147
477.296870,-3627.009116,-9474.636058,-3677.258390
477.297193,-2960.823768,-8586.388927,-4979.620737
477.297515,-4515.256246,-8660.409521,-3830.477490
477.297837,-5033.400406,-10214.842000,-1991.848295
477.298160,-4219.173869,-11473.192101,-3677.258390
477.298482,-2664.741391,-11917.315666,-5592.497135
477.298804,-1924.535449,-12953.603985,-4213.525239
477.299127,-2294.638420,-13249.686362,-536.266849
477.299449,-3034.844362,-11843.295072,1608.800546
477.299772,-1258.350101,-8586.388927,1149.143247
477.300094,2220.617826,-6809.894666,-689.485948
477.300416,4811.338623,-5551.544565,-1685.410096
477.300739,4663.297435,-4441.235652,383.047749
477.301061,2886.803174,-3552.988522,2987.772442
477.301383,2220.617826,-4959.379811,2374.896044
477.301706,3034.844362,-9178.553681,-383.047749
477.302028,2146.597232,-11473.192101,-2911.162892
477.302350,-1776.494261,-11399.171507,-3600.648841
477.302673,-5181.441594,-12361.439231,-1532.190996
477.302995,-5625.565159,-12509.480420,842.705048
477.303317,-3404.947333,-11029.068536,-1762.019645
477.303640,-1554.432478,-8956.491898,-5745.716235
477.303962,-1702.473667,-8142.265362,-5209.449386
477.304285,-2886.803174,-9104.533087,-842.705048
477.304607,-3997.112087,-10066.800811,766.095498
477.304929,-4515.256246,-10066.800811,-1838.629195
477.305252,-4293.194464,-10362.883188,-4903.011187
477.305574,-4515.256246,-11177.109724,-4596.572988
477.305896,-4589.276840,-10658.965565,-1225.752797
477.306219,-3256.906145,-9252.574275,0.000000
477.306541,370.102971,-7105.977043,-995.924147
477.306863,4737.318029,-6587.832884,-2068.457845
477.307186,6661.853478,-6291.750507,-1455.581446
477.307508,5625.565159,-6883.915261,-229.828649
477.307830,3997.112087,-7624.121203,689.485948
477.308153,4367.215058,-9770.718434,-1915.238745
477.308475,4441.235652,-11769.274478,-3294.210641
477.308798,2146.597232,-11695.253884,-3140.991542
477.309120,-1628.453072,-11399.171507,-1532.190996
477.309442,-2812.782580,-11325.150913,0.000000
477.309765,-740.205942,-10510.924376,-1225.752797
477.310087,1924.535449,-8882.471304,-3677.258390
477.310409,1628.453072,-7550.100608,-3370.820191
477.310732,-444.123565,-7328.038826,0.000000
477.311054,-666.185348,-8438.347739,689.485948
477.311376,0.000000,-9474.636058,-1455.581446
477.311699,1036.288319,-10658.965565,-4903.011187
477.312021,0.000000,-11399.171507,-4903.011187
477.312343,-2072.576638,-11399.171507,-1072.533697
477.312666,-3182.885551,-10955.047942,1991.848295
477.312988,-2072.576638,-10140.821405,306.438199
477.313310,740.205942,-8142.265362,-2911.162892
477.313633,2072.576638,-6513.812290,-3983.696590
477.313955,1776.494261,-6291.750507,-2451.505594
477.314277,1184.329507,-7031.956449,536.266849
477.314600,1850.514855,-7698.141797,1072.533697
477.314922,2442.679609,-8068.244768,-1685.410096
477.315244,888.247130,-9474.636058,-3753.867940
477.315566,-2368.659014,-11843.295072,-2528.115143
477.315889,-5477.523971,-12213.398043,-306.438199
477.316211,-5477.523971,-10510.924376,-306.438199
477.316533,-3478.967927,-8734.430116,-3370.820191
477.316856,-222.061783,-9400.615463,-4903.011187
477.317178,-370.102971,-9178.553681,-2528.115143
477.317500,-1702.473667,-8290.306550,612.876398
477.317822,-1776.494261,-8808.450710,459.657299
477.318145,0.000000,-10584.944971,-2374.896044
477.318467,0.000000,-11251.130318,-3753.867940
477.318789,-2738.761985,-11325.150913,-1378.971896
477.319112,-5625.565159,-9918.759623,2374.896044
477.319434,-4145.153275,-8364.327145,2298.286494
477.319756,-296.082377,-6661.853478,-2145.067394
477.320078,2294.638420,-5329.482782,-3064.381992
477.320401,2442.679609,-5995.668130,-1685.410096
477.320723,1480.411884,-7994.224174,536.266849
477.321045,1184.329507,-9474.636058,1149.143247
477.321368,1184.329507,-9918.759623,-1149.143247
477.321690,444.123565,-10584.944971,-3370.820191
477.322012,-1998.556043,-10807.006753,-3753.867940
477.322334,-5181.441594,-10140.821405,-2757.943793
477.322657,-6217.729913,-10658.965565,-2374.896044
477.322979,-4515.256246,-11991.336260,-3370.820191
477.323301,-2516.700203,-11251.130318,-4213.525239
477.323624,-2664.741391,-9030.512492,-2451.505594
477.323946,-2368.659014,-9030.512492,-995.924147
477.324268,-592.164754,-10362.883188,-1149.143247
477.324591,1776.494261,-10362.883188,-2528.115143
477.324913,2664.741391,-9252.574275,-3217.601092
477.325235,1406.391290,-8808.450710,-1455.581446
477.325557,444.123565,-9474.636058,2068.457845
477.325880,740.205942,-9104.533087,2068.457845
477.326202,2590.720797,-7846.182985,-842.705048
477.326524,4071.132681,-8290.306550,-2374.896044
477.326847,4441.235652,-8660.409521,-766.095498
477.327169,3849.070898,-7698.141797,995.924147
477.327491,2886.803174,-6883.915261,689.485948
477.327813,3256.906145,-8142.265362,-1225.752797
477.328136,3182.885551,-9474.636058,-4060.306139
477.328458,1036.288319,-10807.006753,-5439.278036
477.328780,-2886.803174,-12213.398043,-2987.772442
477.329103,-5995.668130,-12287.418637,0.000000
477.329425,-5625.565159,-10807.006753,-612.876398
477.329747,-3923.091493,-8216.285956,-4749.792088
477.330069,-2368.659014,-8068.244768,-5745.716235
477.330392,-1850.514855,-8586.388927,-3294.210641
477.330714,-1110.308913,-8438.347739,-306.438199
477.331036,444.123565,-8882.471304,-536.266849
477.331359,2442.679609,-9992.780217,-2451.505594
477.331681,2960.823768,-11843.295072,-2221.676944
477.332003,666.185348,-11473.192101,0.000000
477.332325,-1406.391290,-9474.636058,1915.238745
477.332648,-1110.308913,-8364.327145,1225.752797
477.332970,1554.432478,-7179.997637,-1149.143247
477.333292,2738.761985,-5329.482782,-1762.019645
477.333615,2368.659014,-5181.441594,-689.485948
477.333937,2220.617826,-7402.059420,383.047749
477.334259,3182.885551,-9474.636058,766.095498
477.334581,3923.091493,-11029.068536,-1915.238745
477.334904,1776.494261,-12583.501014,-2911.162892
477.335226,-1924.535449,-12953.603985,-1302.362347
477.335548,-5181.441594,-11547.212695,0.000000
477.335871,-5847.626942,-9030.512492,-2145.067394
477.336193,-3775.050304,-8734.430116,-5975.544884
477.336515,-2590.720797,-8956.491898,-6741.640382
477.336838,-3552.988522,-8586.388927,-2221.676944
477.337160,-4219.173869,-8734.430116,1838.629195
477.337482,-3701.029710,-9326.594869,76.609550
477.337804,-3256.906145,-10436.903782,-3830.477490
477.338127,-3256.906145,-11325.150913,-5439.278036
477.338449,-5033.400406,-11029.068536,-3600.648841
477.338771,-6217.729913,-10140.821405,-153.219100
477.339094,-3997.112087,-8290.306550,1532.190996
477.339416,518.144159,-7105.977043,-1378.971896
477.339738,3182.885551,-7105.977043,-2911.162892
477.340060,3404.947333,-6957.935855,-383.047749
477.340383,2960.823768,-7624.121203,1378.971896
477.340705,4219.173869,-9474.636058,229.828649
477.341027,5551.544565,-9474.636058,-1225.752797
477.341350,5625.565159,-8956.491898,-2298.286494
477.341672,2146.597232,-9992.780217,-2221.676944
477.341994,-1776.494261,-10436.903782,459.657299
477.342316,-3552.988522,-9622.677246,766.095498
477.342639,-2220.617826,-8290.306550,-2834.553343
477.342961,-222.061783,-8882.471304,-5975.544884
477.343283,-1184.329507,-9844.739029,-3217.601092
477.343606,-2368.659014,-10066.800811,1685.410096
477.343928,-2294.638420,-9030.512492,2528.115143
477.344250,-666.185348,-8142.265362,-2987.772442
477.344572,296.082377,-9770.718434,-5669.106685
477.344895,-296.082377,-10658.965565,-4596.572988
477.345217,-2442.679609,-10807.006753,-1762.019645
477.345539,-2294.638420,-11473.192101,-153.219100
477.345862,1258.350101,-11251.130318,-306.438199
477.346184,5033.400406,-9548.656652,-3064.381992
477.346506,6143.709319,-8290.306550,-2681.334243
477.346829,5033.400406,-7105.977043,689.485948
477.347151,3552.988522,-6957.935855,1685.410096
477.347473,2886.803174,-7550.100608,0.000000
477.347795,2368.659014,-8660.409521,-1838.629195
477.348118,-666.185348,-9400.615463,-4136.915689
477.348440,-4737.318029,-10436.903782,-3217.601092
477.348762,-6365.771101,-10732.986159,-842.705048
477.349085,-4737.318029,-10807.006753,-1225.752797
477.349407,-2368.659014,-9622.677246,-2987.772442
477.349729,0.000000,-9178.553681,-3140.991542
477.350051,-666.185348,-8216.285956,-536.266849
477.350374,-666.185348,-9400.615463,842.705048
477.350696,-296.082377,-10066.800811,-919.314598
477.351018,296.082377,-10510.924376,-3600.648841
477.351341,-370.102971,-10732.986159,-3677.258390
477.351663,-2294.638420,-10732.986159,0.000000
477.351985,-4145.153275,-9770.718434,2681.334243
477.352307,-3108.864956,-7698.141797,1838.629195
477.352630,-296.082377,-5995.668130,-1685.410096
477.352952,2072.576638,-5773.606348,-3983.696590
477.353274,2072.576638,-6513.812290,-2221.676944
477.353597,1184.329507,-7698.141797,1532.190996
477.353919,666.185348,-8290.306550,1455.581446
477.354241,296.082377,-9474.636058,-1608.800546
477.354563,-1332.370696,-10584.944971,-3830.477490
477.354886,-4737.318029,-10955.047942,-3907.087040
477.355208,-7402.059420,-11177.109724,-2681.334243
477.355530,-7846.182985,-10140.821405,-1991.848295
477.355853,-5329.482782,-10140.821405,-3524.039291
477.356175,-2442.679609,-10584.944971,-4749.792088
477.356497,-1554.432478,-10436.903782,-2451.505594
477.356820,-1776.494261,-9992.780217,306.438199
477.357142,-1110.308913,-9474.636058,306.438199
477.357464,-370.102971,-8438.347739,-1608.800546
477.357786,-296.082377,-8290.306550,-2987.772442
477.358109,-2516.700203,-8956.491898,-1608.800546
477.358431,-4515.256246,-9252.574275,1072.533697
477.358753,-4145.153275,-9104.533087,1455.581446
477.359076,-592.164754,-8364.327145,-1072.533697
477.359398,2812.782580,-7994.224174,-3294.210641
477.359720,4811.338623,-8882.471304,-2374.896044
477.360042,4441.235652,-9696.697840,1072.533697
477.360365,3552.988522,-9104.533087,1762.019645
477.360687,3256.906145,-8808.450710,-1149.143247
477.361009,2072.576638,-8438.347739,-4749.792088
477.361332,-592.164754,-10288.862594,-5669.106685
477.361654,-4885.359217,-11695.253884,-3753.867940
477.361976,-7476.080014,-12139.377449,-1072.533697
477.362298,-7846.182985,-10881.027347,-995.924147
477.362621,-6143.709319,-9548.656652,-3907.087040
477.362943,-4959.379811,-9474.636058,-4443.353888
477.363265,-4589.276840,-9918.759623,-2451.505594
477.363588,-4885.359217,-7994.224174,0.000000
477.363910,-3849.070898,-6883.915261,229.828649
477.364232,-2368.659014,-6069.688724,-1915.238745
477.364554,-2146.597232,-6587.832884,-3753.867940
477.364877,-3923.091493,-8512.368333,-3370.820191
477.365199,-5181.441594,-11103.089130,76.609550
477.365521,-5329.482782,-12213.398043,1149.143247
477.365844,-2812.782580,-10881.027347,-1302.362347
477.366166,-222.061783,-9400.615463,-3217.601092
477.366488,1480.411884,-8660.409521,-2451.505594
477.366811,1998.556043,-8438.347739,-842.705048
477.367133,1924.535449,-7994.224174,-766.095498
477.367455,2294.638420,-7550.100608,-689.485948
477.367777,2072.576638,-7698.141797,-3294.210641
477.368100,296.082377,-9252.574275,-4290.134789
477.368422,-2294.638420,-11251.130318,-2374.896044
477.368744,-4515.256246,-12583.501014,-919.314598
477.369067,-4663.297435,-12065.356855,-1149.143247
477.369389,-4589.276840,-10362.883188,-2451.505594
477.369711,-5403.503377,-9252.574275,-2911.162892
477.370033,-5625.565159,-8586.388927,-1685.410096
477.370356,-6883.915261,-6587.832884,-1072.533697
477.370678,-6587.832884,-6809.894666,-2374.896044
477.371000,-4737.318029,-8956.491898,-3447.429741
477.371323,-2886.803174,-9918.759623,-3140.991542
477.371645,-2368.659014,-9992.780217,-2374.896044
477.371967,-2072.576638,-10066.800811,-383.047749
477.372289,-962.267725,-10362.883188,306.438199
477.372612,0.000000,-9992.780217,-1685.410096
477.372934,222.061783,-10066.800811,-3907.087040
477.373256,-962.267725,-11251.130318,-2221.676944
477.373579,-2368.659014,-11399.171507,0.000000
477.373901,-3849.070898,-10362.883188,689.485948
477.374223,-4293.194464,-8068.244768,-306.438199
477.374545,-3552.988522,-6957.935855,-1915.238745
477.374868,-2516.700203,-5847.626942,-3140.991542
477.375190,-2220.617826,-5403.503377,-2757.943793
477.375512,-1702.473667,-7031.956449,-1608.800546
477.375835,-518.144159,-8290.306550,-1225.752797
477.376157,296.082377,-9252.574275,-1302.362347
477.376479,296.082377,-9844.739029,-2145.067394
477.376801,-444.123565,-11325.150913,-2604.724693
477.377124,-1184.329507,-12509.480420,-2604.724693
477.377446,-1850.514855,-11843.295072,-2374.896044
477.377768,-2590.720797,-11917.315666,-2145.067394
477.378091,-4219.173869,-11473.192101,76.609550
477.378413,-4811.338623,-9178.553681,612.876398
477.378735,-5551.544565,-6957.935855,-1608.800546
477.379058,-4145.153275,-7179.997637,-2834.553343
477.379380,-2072.576638,-7920.203579,-1608.800546
477.379702,-888.247130,-8142.265362,0.000000
477.380024,0.000000,-8734.430116,1838.629195
477.380347,444.123565,-8290.306550,2298.286494
477.380669,2220.617826,-8216.285956,1608.800546
477.380991,3775.050304,-8068.244768,-1455.581446
477.381314,4145.153275,-9474.636058,-4136.915689
477.381636,1924.535449,-11103.089130,-2604.724693
477.381958,-740.205942,-10955.047942,1149.143247
477.382280,-3701.029710,-9400.615463,229.828649
477.382603,-6735.874072,-10732.986159,-2681.334243
477.382925,-8882.471304,-11991.336260,-3217.601092
477.383247,-11843.295072,-10362.883188,-3600.648841
477.383570,-13693.809927,-8882.471304,-3140.991542
477.383892,-13027.624579,-8216.285956,-1608.800546
477.384214,-8586.388927,-8438.347739,-1762.019645
477.384536,-3923.091493,-6883.915261,-3600.648841
477.384859,-740.205942,-5329.482782,-2604.724693
477.385181,962.267725,-5033.400406,-1532.190996
477.385503,2220.617826,-6661.853478,-1378.971896
477.385826,2886.803174,-8734.430116,-1149.143247
477.386148,2442.679609,-10584.944971,-3370.820191
477.386470,2294.638420,-13323.706956,-4290.134789
477.386792,2220.617826,-15248.242405,-2911.162892
477.387115,666.185348,-13249.686362,-536.266849
477.387437,-1480.411884,-10066.800811,-383.047749
477.387759,-3034.844362,-8660.409521,-306.438199
477.388082,-5181.441594,-8660.409521,-383.047749
477.388404,-7624.121203,-8142.265362,-536.266849
477.388726,-9178.553681,-7994.224174,-2145.067394
477.389049,-8808.450710,-8512.368333,-2298.286494
477.389371,-5995.668130,-9178.553681,-1378.971896
477.389693,-2664.741391,-8882.471304,1378.971896
477.390015,-518.144159,-7476.080014,1455.581446
477.390338,1480.411884,-7105.977043,612.876398
477.390660,3478.967927,-7550.100608,-1072.533697
477.390982,4663.297435,-7920.203579,-3753.867940
477.391305,4071.132681,-8586.388927,-4290.134789
477.391627,2368.659014,-9104.533087,-3753.867940
477.391949,888.247130,-10066.800811,-3524.039291
477.392271,-1036.288319,-11029.068536,-3907.087040
477.392594,-3330.926739,-12213.398043,-4443.353888
477.392916,-5773.606348,-13175.665768,-3447.429741
477.393238,-8216.285956,-13323.706956,-2834.553343
477.393561,-8512.368333,-12805.562797,-2145.067394
477.393883,-7994.224174,-10658.965565,-2757.943793
477.394205,-6661.853478,-8660.409521,-2757.943793
477.394527,-4811.338623,-6661.853478,-612.876398
477.394850,-3330.926739,-3701.029710,536.266849
477.395172,-2516.700203,-2368.659014,76.609550
477.395494,-1702.473667,-4219.173869,-1225.752797
477.395817,-1258.350101,-7254.018232,-1838.629195
477.396139,-1776.494261,-10584.944971,-2757.943793
477.396461,-1850.514855,-13471.748144,-2145.067394
477.396783,-1480.411884,-13915.871710,-919.314598
477.397106,370.102971,-12879.583391,-1455.581446
477.397428,2072.576638,-11325.150913,-2528.115143
477.397750,2442.679609,-10362.883188,-1302.362347
477.398073,1332.370696,-9622.677246,0.000000
477.398395,-296.082377,-8734.430116,-153.219100
477.398717,-1776.494261,-7772.162391,-1302.362347
477.399040,-3478.967927,-7254.018232,-2374.896044
477.399362,-4589.276840,-7105.977043,-2298.286494
477.399684,-5551.544565,-7254.018232,-1302.362347
477.400006,-6217.729913,-7031.956449,0.000000
477.400329,-5847.626942,-7179.997637,-1149.143247
477.400651,-5181.441594,-7254.018232,-3217.601092
477.400973,-4515.256246,-8068.244768,-4366.744339
477.401296,-4737.318029,-9992.780217,-4596.572988
477.401618,-4811.338623,-12509.480420,-3983.696590
477.401940,-4589.276840,-13545.768739,-2911.162892
477.402262,-4293.194464,-14434.015869,-3294.210641
477.402585,-3701.029710,-13767.830521,-2757.943793
477.402907,-2812.782580,-12213.398043,-2604.724693
477.403229,-1776.494261,-10658.965565,-2221.676944
477.403552,-444.123565,-9030.512492,-1455.581446
477.403874,518.144159,-7846.182985,-306.438199
477.404196,1480.411884,-7105.977043,1072.533697
477.404518,1850.514855,-6661.853478,1608.800546
477.404841,2072.576638,-6365.771101,842.705048
477.405163,1258.350101,-5995.668130,0.000000
477.405485,0.000000,-6587.832884,-306.438199
477.405808,-962.267725,-7624.121203,-995.924147
477.406130,-1332.370696,-9030.512492,-1302.362347
477.406452,-1184.329507,-9770.718434,-1302.362347
477.406774,-1332.370696,-10807.006753,-1532.190996
477.407097,-814.226536,-11917.315666,-1915.238745
477.407419,-1554.432478,-12583.501014,-1532.190996
477.407741,-2368.659014,-11991.336260,-842.705048
477.408064,-3034.844362,-10807.006753,-995.924147
477.408386,-3478.967927,-9474.636058,-1608.800546
477.408708,-3849.070898,-8438.347739,-1149.143247
477.409030,-3997.112087,-7994.224174,-536.266849
477.409353,-4441.235652,-7698.141797,76.609550
477.409675,-4293.194464,-7476.080014,0.000000
477.409997,-4219.173869,-7105.977043,-383.047749
477.410320,-4885.359217,-6661.853478,-536.266849
477.410642,-4811.338623,-6069.688724,-1915.238745
477.410964,-4737.318029,-7402.059420,-2757.943793
477.411287,-3997.112087,-8586.388927,-2911.162892
477.411609,-4145.153275,-8882.471304,-2068.457845
477.411931,-3997.112087,-10214.842000,-2374.896044
477.412253,-2738.761985,-12213.398043,-2757.943793
477.412576,-1850.514855,-13323.706956,-2757.943793
477.412898,-1850.514855,-12657.521608,-1378.971896
477.413220,-962.267725,-11177.109724,-459.657299
477.413543,148.041188,-9844.739029,-1225.752797
477.413865,740.205942,-8512.368333,-842.705048
477.414187,296.082377,-8068.244768,153.219100
477.414509,-1480.411884,-8142.265362,1149.143247
477.414832,-3552.988522,-8068.244768,919.314598
477.415154,-4737.318029,-7920.203579,-383.047749
477.415476,-5255.462188,-7402.059420,-1608.800546
477.415798,-4885.359217,-8068.244768,-1838.629195
477.416121,-4293.194464,-8956.491898,-1685.410096
477.416443,-3552.988522,-8660.409521,-1685.410096
477.416765,-2220.617826,-9252.574275,-2221.676944
477.417088,-814.226536,-10584.944971,-3370.820191
477.417410,-222.061783,-12879.583391,-2834.553343
477.417732,-740.205942,-12953.603985,-3140.991542
477.418054,-1628.453072,-13101.645173,-2834.553343
477.418377,-1554.432478,-14063.912898,-2911.162892
477.418699,-1184.329507,-13915.871710,-1685.410096
477.419021,-1628.453072,-11251.130318,-1225.752797
477.419343,-1480.411884,-9326.594869,306.438199
477.419666,0.000000,-8364.327145,0.000000
477.419988,814.226536,-7328.038826,919.314598
477.420310,1480.411884,-6217.729913,2068.457845
477.420633,2368.659014,-6883.915261,1838.629195
477.420955,2886.803174,-7624.121203,1991.848295
477.421277,3478.967927,-7772.162391,1532.190996
477.421599,3330.926739,-8142.265362,919.314598
477.421922,3404.947333,-9770.718434,459.657299
477.422244,3034.844362,-11177.109724,919.314598
477.422566,2664.741391,-10881.027347,1838.629195
477.422888,2072.576638,-10362.883188,842.705048
477.423211,1480.411884,-10436.903782,459.657299
477.423533,1184.329507,-10881.027347,612.876398
477.423855,0.000000,-9622.677246,1149.143247
477.424178,-814.226536,-8734.430116,1532.190996
477.424500,-2368.659014,-8068.244768,1378.971896
477.424822,-2812.782580,-7920.203579,1302.362347
477.425144,-3478.967927,-7550.100608,1608.800546
477.425467,-3627.009116,-7772.162391,2068.457845
477.425789,-2960.823768,-7846.182985,1991.848295
477.426111,-2442.679609,-8068.244768,2068.457845
477.426433,-2072.576638,-8216.285956,2451.505594
477.426756,-1554.432478,-8956.491898,3064.381992
477.427078,-962.267725,-9474.636058,2604.724693
477.427400,-888.247130,-9844.739029,2068.457845
477.427723,-962.267725,-11029.068536,1838.629195
477.428045,-1332.370696,-11399.171507,2528.115143
477.428367,-2220.617826,-11399.171507,2528.115143
477.428689,-1998.556043,-11399.171507,2221.676944
477.429012,-1850.514855,-11325.150913,2451.505594
477.429334,-814.226536,-10584.944971,2834.553343
477.429656,-962.267725,-9178.553681,2834.553343
477.429978,-444.123565,-8882.471304,2681.334243
477.430301,-444.123565,-8808.450710,2604.724693
477.430623,-1110.308913,-8512.368333,1915.238745
477.430945,-1850.514855,-8882.471304,1532.190996
477.431268,-2368.659014,-9696.697840,766.095498
477.431590,-3108.864956,-10658.965565,0.000000
477.431912,-4219.173869,-10658.965565,0.000000
477.432234,-4811.338623,-9992.780217,-229.828649
477.432557,-4737.318029,-9548.656652,-842.705048
477.432879,-3997.112087,-9326.594869,-995.924147
477.433201,-2960.823768,-9474.636058,-1149.143247
477.433523,-2368.659014,-9770.718434,-919.314598
477.433846,-1702.473667,-10288.862594,-536.266849
477.434168,-148.041188,-10584.944971,306.438199
477.434490,1628.453072,-10658.965565,995.924147
477.434813,3256.906145,-9474.636058,689.485948
477.435135,4737.318029,-7698.141797,536.266849
477.435457,6217.729913,-5921.647536,-229.828649
477.435779,7402.059420,-5403.503377,-766.095498
477.436102,7698.141797,-5847.626942,-689.485948
477.436424,6661.853478,-7328.038826,-1302.362347
477.436746,3256.906145,-9030.512492,-1762.019645
477.437068,0.000000,-10658.965565,-1072.533697
477.437391,-3923.091493,-9992.780217,-2145.067394
477.437713,-6069.688724,-10584.944971,-4443.353888
477.438035,-5995.668130,-12213.398043,-6052.154434
477.438358,-4737.318029,-11695.253884,-5745.716235
477.438680,-3478.967927,-11547.212695,-4903.011187
477.439002,-1258.350101,-12879.583391,-2451.505594
477.439324,1850.514855,-14359.995275,229.828649
477.439647,4367.215058,-13397.727550,76.609550
477.439969,6143.709319,-11621.233289,-766.095498
477.440291,6513.812290,-9992.780217,1685.410096
477.440613,6735.874072,-7920.203579,3600.648841
477.440936,6661.853478,-4811.338623,2068.457845
477.441258,4737.318029,-3849.070898,612.876398
477.441580,1702.473667,-4145.153275,2298.286494
477.441903,-2368.659014,-5403.503377,1378.971896
477.442225,-5921.647536,-7402.059420,-1072.533697
477.442547,-7476.080014,-11103.089130,-2681.334243
477.442869,-8734.430116,-13397.727550,-3370.820191
477.443192,-8586.388927,-14434.015869,-4366.744339
477.443514,-6291.750507,-15766.386565,-3677.258390
477.443836,-4293.194464,-15692.365970,-612.876398
477.444158,-3552.988522,-13175.665768,0.000000
477.444481,-3256.906145,-10066.800811,-1149.143247
477.444803,-3701.029710,-8068.244768,-2451.505594
477.445125,-3552.988522,-7476.080014,-2987.772442
477.445448,-3701.029710,-8660.409521,-536.266849
477.445770,-3701.029710,-9326.594869,2145.067394
477.446092,-3701.029710,-9770.718434,4749.792088
477.446414,-3478.967927,-9622.677246,5745.716235
477.446737,-2220.617826,-9178.553681,6052.154434
477.447059,-1628.453072,-7402.059420,5745.716235
477.447381,-1406.391290,-5329.482782,5592.497135
477.447703,-666.185348,-4737.318029,4596.572988
477.448026,296.082377,-3997.112087,3064.381992
477.448348,1554.432478,-4441.235652,2451.505594
477.448670,1924.535449,-5995.668130,2528.115143
477.448993,3182.885551,-8660.409521,2451.505594
477.449315,4737.318029,-10510.924376,1991.848295
477.449637,6513.812290,-12213.398043,1378.971896
477.449959,7328.038826,-12435.459826,1455.581446
477.450282,6809.894666,-11325.150913,1991.848295
477.450604,4589.276840,-9548.656652,2221.676944
477.450926,2442.679609,-9992.780217,1838.629195
477.451248,-370.102971,-11473.192101,0.000000
477.451571,-3923.091493,-11991.336260,766.095498
477.451893,-8068.244768,-10584.944971,4903.011187
477.452215,-9992.780217,-7698.141797,4290.134789
477.452538,-8068.244768,-8512.368333,842.705048
477.452860,-3478.967927,-9844.739029,0.000000
477.453182,0.000000,-9030.512492,-536.266849
477.453504,1998.556043,-8438.347739,-1225.752797
477.453827,4885.359217,-9622.677246,1838.629195
477.454149,8512.368333,-12435.459826,2757.943793
477.454471,9178.553681,-12287.418637,0.000000
477.454793,6735.874072,-11325.150913,689.485948
477.455116,5773.606348,-9400.615463,2834.553343
477.455438,6143.709319,-9252.574275,-3140.991542
477.455760,5551.544565,-12287.418637,-6511.811733
477.456083,2442.679609,-13397.727550,-995.924147
477.456405,-3034.844362,-9326.594869,1915.238745
477.456727,-7698.141797,-9770.718434,1532.190996
477.457049,-9696.697840,-12657.521608,689.485948
477.457372,-12509.480420,-13619.789333,-3140.991542
477.457694,-15544.324782,-10362.883188,-4443.353888
477.458016,-18135.045579,-6587.832884,1378.971896
477.458339,-14359.995275,-4071.132681,2145.067394
477.458661,-6439.791695,-5033.400406,-2987.772442
477.458983,2664.741391,-6069.688724,-3217.601092
477.459305,7772.162391,-5255.462188,-2757.943793
477.459628,9696.697840,-7772.162391,-1685.410096
477.459950,12435.459826,-9548.656652,5286.058936
477.460272,12731.542202,-7698.141797,4443.353888
477.460594,9770.718434,-6735.874072,-5286.058936
477.460917,6587.832884,-11991.336260,-5669.106685
477.461239,3256.906145,-15100.201217,-766.095498
477.461561,-2368.659014,-13471.748144,1608.800546
477.461884,-8364.327145,-12879.583391,3600.648841
477.462206,-10584.944971,-12139.377449,5286.058936
477.462528,-10214.842000,-10288.862594,0.000000
477.462850,-7772.162391,-8586.388927,-4673.182538
477.463173,-6291.750507,-8660.409521,-1149.143247
477.463495,-4737.318029,-5921.647536,3907.087040
477.463817,-1628.453072,-2442.679609,2911.162892
477.464139,1480.411884,-4219.173869,995.924147
477.464462,2960.823768,-6587.832884,-153.219100
477.464784,3330.926739,-9400.615463,-3600.648841
477.465106,2886.803174,-11695.253884,-3370.820191
477.465429,2072.576638,-13693.809927,-306.438199
477.465751,1110.308913,-15100.201217,383.047749
477.466073,0.000000,-15026.180623,-689.485948
477.466395,-2738.761985,-16210.510130,-459.657299
477.466718,-3775.050304,-16950.716072,-229.828649
477.467040,-4885.359217,-13249.686362,612.876398
477.467362,-3849.070898,-7624.121203,689.485948
477.467684,-296.082377,-3108.864956,1762.019645
477.468007,3627.009116,-2664.741391,612.876398
477.468329,5625.565159,-4663.297435,2221.676944
477.468651,5995.668130,-7031.956449,4673.182538
477.468974,5329.482782,-8438.347739,5209.449386
477.469296,3330.926739,-9474.636058,3830.477490
477.469618,888.247130,-9178.553681,3370.820191
477.469940,-1036.288319,-8734.430116,2451.505594
477.470263,-1110.308913,-7920.203579,-383.047749
477.470585,2072.576638,-8068.244768,-1991.848295
477.470907,4959.379811,-9178.553681,-1685.410096
477.471229,4441.235652,-8290.306550,229.828649
477.471552,-592.164754,-10732.986159,2528.115143
477.471874,-3997.112087,-13915.871710,2681.334243
477.472196,-4737.318029,-14804.118840,-842.705048
477.472519,-4885.359217,-13027.624579,-4519.963438
477.472841,-5477.523971,-10066.800811,-3370.820191
477.473163,-6291.750507,-7105.977043,612.876398
477.473485,-5255.462188,-5329.482782,3524.039291
477.473808,-3108.864956,-6217.729913,2757.943793
477.474130,-962.267725,-7476.080014,153.219100
477.474452,592.164754,-6513.812290,-1838.629195
477.474774,888.247130,-5551.544565,-2374.896044
477.475097,1924.535449,-6513.812290,-1455.581446
477.475419,2812.782580,-8068.244768,-1685.410096
477.475741,3256.906145,-9918.759623,-2757.943793
477.476064,1776.494261,-11621.233289,-2834.553343
477.476386,-1406.391290,-12583.501014,-2145.067394
477.476708,-4959.379811,-13989.892304,-1762.019645
477.477030,-6661.853478,-14582.057057,-3140.991542
477.477353,-6291.750507,-14508.036463,-4366.744339
477.477675,-3182.885551,-14137.933492,-3830.477490
477.477997,-740.205942,-10288.862594,-1072.533697
477.478319,666.185348,-7772.162391,459.657299
477.478642,444.123565,-5329.482782,153.219100
477.478964,1184.329507,-6365.771101,-1455.581446
477.479286,1924.535449,-9030.512492,-2451.505594
477.479609,1628.453072,-10362.883188,-2068.457845
477.479931,666.185348,-9770.718434,-995.924147
477.480253,1184.329507,-7402.059420,0.000000
477.480575,2590.720797,-7476.080014,-689.485948
477.480898,4441.235652,-9696.697840,-1225.752797
477.481220,4219.173869,-10362.883188,-766.095498
477.481542,2664.741391,-9474.636058,-1915.238745
477.481864,1184.329507,-8142.265362,-3140.991542
477.482187,1258.350101,-9918.759623,-4596.572988
477.482509,1332.370696,-13249.686362,-4596.572988
477.482831,0.000000,-15026.180623,-2298.286494
477.483154,-2664.741391,-12953.603985,842.705048
477.483476,-5847.626942,-10066.800811,1915.238745
477.483798,-6069.688724,-8808.450710,-306.438199
477.484120,-4367.215058,-8364.327145,-1991.848295
477.484443,-3182.885551,-6883.915261,-995.924147
477.484765,-2664.741391,-4737.318029,1685.410096
477.485087,-740.205942,-2368.659014,2911.162892
477.485409,1480.411884,-3034.844362,689.485948
477.485732,1998.556043,-6291.750507,-689.485948
477.486054,0.000000,-10214.842000,-919.314598
477.486376,-2590.720797,-12731.542202,-306.438199
477.486699,-4071.132681,-12509.480420,-919.314598
477.487021,-2516.700203,-11399.171507,-2987.772442
477.487343,-148.041188,-10288.862594,-3370.820191
477.487665,2886.803174,-9400.615463,-1455.581446
477.487988,3923.091493,-7254.018232,0.000000
477.488310,4441.235652,-6069.688724,-1149.143247
477.488632,4219.173869,-8142.265362,-2145.067394
477.488954,3034.844362,-11029.068536,-3140.991542
477.489277,1036.288319,-12139.377449,-1762.019645
477.489599,-1554.432478,-11399.171507,0.000000
477.489921,-2812.782580,-10066.800811,-153.219100
477.490244,-2516.700203,-8142.265362,0.000000
477.490566,-814.226536,-6883.915261,-1072.533697
477.490888,0.000000,-6883.915261,0.000000
477.491210,740.205942,-8512.368333,1225.752797
477.491533,444.123565,-8290.306550,1378.971896
477.491855,592.164754,-8068.244768,-1072.533697
477.492177,1554.432478,-9844.739029,-4213.525239
477.492499,1036.288319,-11769.274478,-3983.696590
477.492822,-1184.329507,-12435.459826,-2987.772442
477.493144,-3701.029710,-11843.295072,-3064.381992
477.493466,-4885.359217,-11621.233289,-4136.915689
477.493789,-4071.132681,-12953.603985,-5592.497135
477.494111,-3330.926739,-13323.706956,-4903.011187
477.494433,-2960.823768,-11251.130318,-2834.553343
477.494755,-2886.803174,-7105.977043,-919.314598
477.495078,-2368.659014,-3330.926739,-1762.019645
477.495400,-814.226536,-3478.967927,-4366.744339
477.495722,-888.247130,-6883.915261,-3830.477490
477.496044,-2738.761985,-9918.759623,-2374.896044
477.496367,-5329.482782,-10955.047942,-459.657299
477.496689,-5847.626942,-11177.109724,-612.876398
477.497011,-3108.864956,-11917.315666,-1991.848295
477.497334,444.123565,-11843.295072,-1838.629195
477.497656,2812.782580,-8882.471304,-689.485948
477.497978,4737.318029,-5551.544565,459.657299
477.498300,6513.812290,-3108.864956,153.219100
477.498623,7476.080014,-4885.359217,-1378.971896
477.498945,6365.771101,-9622.677246,-2298.286494
477.499267,2368.659014,-13101.645173,-995.924147
477.499589,-1184.329507,-14359.995275,306.438199
477.499912,-1924.535449,-13471.748144,-459.657299
477.500234,74.020594,-11991.336260,-2451.505594
477.500556,2368.659014,-10584.944971,-2451.505594
477.500879,2220.617826,-7179.997637,-306.438199
477.501201,1332.370696,-5107.421000,1302.362347
477.501523,148.041188,-3182.885551,0.000000
477.501845,-814.226536,-5329.482782,-3830.477490
477.502168,-2072.576638,-9400.615463,-5898.935335
477.502490,-4811.338623,-13027.624579,-4979.620737
477.502812,-7402.059420,-14878.139434,-536.266849
477.503135,-8216.285956,-14730.098246,306.438199
477.503457,-6291.750507,-13989.892304,-2451.505594
477.503779,-3775.050304,-12361.439231,-3447.429741
477.504101,-1702.473667,-9992.780217,-2451.505594
477.504424,-370.102971,-5625.565159,-383.047749
477.504746,1998.556043,-4441.235652,-612.876398
477.505068,4367.215058,-5773.606348,-1532.190996
477.505390,4885.359217,-8586.388927,-995.924147
477.505713,3182.885551,-11177.109724,1685.410096
477.506035,0.000000,-12139.377449,3830.477490
477.506357,-962.267725,-11991.336260,1302.362347
477.506680,296.082377,-10066.800811,-995.924147
477.507002,2368.659014,-8438.347739,-1532.190996
477.507324,4367.215058,-7179.997637,0.000000
477.507646,5033.400406,-5995.668130,2298.286494
477.507969,3997.112087,-4293.194464,1072.533697
477.508291,2368.659014,-4367.215058,-766.095498
477.508613,74.020594,-6513.812290,-3370.820191
477.508935,-3478.967927,-10658.965565,-3907.087040
477.509258,-7624.121203,-12953.603985,-2221.676944
477.509580,-9770.718434,-12731.542202,-1149.143247
477.509902,-9474.636058,-11177.109724,-2145.067394
477.510225,-5921.647536,-10066.800811,-3677.258390
477.510547,-3404.947333,-9178.553681,-3447.429741
477.510869,-1776.494261,-7550.100608,-1225.752797
477.511191,-1184.329507,-5329.482782,76.609550
477.511514,1036.288319,-4515.256246,-1838.629195
477.511836,3256.906145,-7402.059420,-3983.696590
477.512158,3404.947333,-11103.089130,-3294.210641
477.512480,1036.288319,-12805.562797,-766.095498
477.512803,-814.226536,-11991.336260,689.485948
477.513125,592.164754,-11695.253884,-1302.362347
477.513448,3849.070898,-11473.192101,-3447.429741
477.513770,5847.626942,-10807.006753,-3370.820191
477.514092,5477.523971,-8956.491898,-459.657299
477.514415,3997.112087,-5773.606348,0.000000
477.514737,2664.741391,-4811.338623,-2451.505594
477.515060,1850.514855,-7179.997637,-5209.449386
477.515382,-370.102971,-10658.965565,-6971.469032
477.515704,-4367.215058,-13101.645173,-5898.935335
477.516027,-7179.997637,-14285.974681,-3447.429741
477.516349,-7698.141797,-14063.912898,-2451.505594
477.516672,-6291.750507,-13545.768739,-3907.087040
477.516994,-4663.297435,-12879.583391,-3600.648841
477.517317,-3923.091493,-8808.450710,-2451.505594
477.517639,-2590.720797,-4515.256246,-2451.505594
477.517961,-296.082377,-3923.091493,-4290.134789
477.518284,2220.617826,-5403.503377,-4290.134789
477.518606,1628.453072,-9178.553681,-1838.629195
477.518929,-370.102971,-11695.253884,919.314598
477.519251,-2294.638420,-12361.439231,1378.971896
477.519573,-888.247130,-11473.192101,-1532.190996
477.519896,2368.659014,-10214.842000,-4443.353888
477.520218,5329.482782,-8660.409521,-3983.696590
477.520541,6513.812290,-7105.977043,0.000000
477.520863,6365.771101,-5329.482782,3524.039291
477.521185,4885.359217,-4071.132681,2604.724693
477.521508,2146.597232,-5699.585753,-1762.019645
477.521830,-1036.288319,-9622.677246,-3447.429741
477.522153,-3923.091493,-12879.583391,-3677.258390
477.522475,-5995.668130,-12805.562797,-2604.724693
477.522797,-6439.791695,-11325.150913,-1149.143247
477.523120,-4219.173869,-10140.821405,-1072.533697
477.523442,-2368.659014,-10140.821405,-766.095498
477.523765,-2738.761985,-9104.533087,842.705048
477.524087,-3775.050304,-7624.121203,1149.143247
477.524409,-3627.009116,-6439.791695,-536.266849
477.524732,-1850.514855,-6291.750507,-2757.943793
477.525054,-666.185348,-8216.285956,-3524.039291
477.525377,-518.144159,-10658.965565,-383.047749
477.525699,-1258.350101,-11843.295072,2221.676944
477.526021,-1110.308913,-12213.398043,919.314598
477.526344,0.000000,-11843.295072,-1991.848295
477.526666,1036.288319,-9992.780217,-3064.381992
477.526989,2812.782580,-9326.594869,-1762.019645
477.527311,4811.338623,-7402.059420,-229.828649
477.527634,6587.832884,-6069.688724,-306.438199
477.527956,6217.729913,-6439.791695,-383.047749
477.528278,3404.947333,-8512.368333,-459.657299
477.528601,0.000000,-11621.233289,-153.219100
477.528923,-3478.967927,-13545.768739,-306.438199
477.529246,-5255.462188,-12361.439231,-1991.848295
477.529568,-5033.400406,-9696.697840,-3677.258390
477.529890,-2146.597232,-8882.471304,-3064.381992
477.530213,0.000000,-8068.244768,-612.876398
477.530535,74.020594,-6957.935855,1762.019645
477.530858,-1110.308913,-5403.503377,1378.971896
477.531180,-1554.432478,-5921.647536,-1838.629195
477.531502,-1628.453072,-8216.285956,-5592.497135
477.531825,-1036.288319,-10881.027347,-5592.497135
477.532147,-2664.741391,-11473.192101,-2528.115143
477.532470,-2738.761985,-11029.068536,-612.876398
477.532792,-1036.288319,-10288.862594,-1378.971896
477.533114,1480.411884,-10584.944971,-3217.601092
477.533437,3256.906145,-11103.089130,-3140.991542
477.533759,2886.803174,-9252.574275,-2451.505594
477.534082,2294.638420,-6291.750507,-1685.410096
477.534404,2368.659014,-5107.421000,-1685.410096
477.534726,2812.782580,-6143.709319,-2451.505594
477.535049,1480.411884,-8882.471304,-2604.724693
477.535371,-1628.453072,-10955.047942,-842.705048
477.535694,-4589.276840,-11251.130318,0.000000
477.536016,-5255.462188,-11251.130318,-1991.848295
477.536338,-3478.967927,-10955.047942,-3217.601092
477.536661,-1332.370696,-10066.800811,-1762.019645
477.536983,814.226536,-8216.285956,-229.828649
477.537306,1406.391290,-5773.606348,-306.438199
477.537628,1258.350101,-5403.503377,-1532.190996
477.537950,888.247130,-7179.997637,-3370.820191
477.538273,-296.082377,-10214.842000,-5056.230287
477.538595,-2368.659014,-12731.542202,-4136.915689
477.538918,-3849.070898,-13471.748144,-3294.210641
477.539240,-2960.823768,-13767.830521,-2987.772442
477.539563,-1258.350101,-12287.418637,-2681.334243
477.539885,-222.061783,-10658.965565,-2757.943793
477.540207,-518.144159,-9104.533087,-1685.410096
477.540530,-592.164754,-6661.853478,-1149.143247
477.540852,-518.144159,-3627.009116,-2221.676944
477.541175,-592.164754,-3923.091493,-5515.887586
477.541497,-592.164754,-7698.141797,-5132.839837
477.541819,-1628.453072,-11473.192101,-2451.505594
477.542142,-3404.947333,-12361.439231,-612.876398
477.542464,-3775.050304,-12657.521608,-1149.143247
477.542787,-2812.782580,-13693.809927,-3140.991542
477.543109,-592.164754,-13323.706956,-2604.724693
477.543431,740.205942,-9992.780217,-1149.143247
477.543754,2220.617826,-6439.791695,0.000000
477.544076,3997.112087,-4441.235652,-459.657299
477.544399,5033.400406,-4145.153275,-1302.362347
477.544721,5255.462188,-7476.080014,-1838.629195
477.545043,2886.803174,-11399.171507,-1072.533697
477.545366,148.041188,-14137.933492,-229.828649
477.545688,-1406.391290,-13915.871710,-76.609550
477.546011,-518.144159,-11621.233289,-1685.410096
477.546333,74.020594,-8882.471304,-2374.896044
477.546655,518.144159,-7179.997637,-1762.019645
477.546978,592.164754,-5699.585753,0.000000
477.547300,-1406.391290,-3627.009116,-1149.143247
477.547623,-3034.844362,-4515.256246,-3677.258390
477.547945,-4145.153275,-9622.677246,-4443.353888
477.548267,-5181.441594,-13767.830521,-3140.991542
477.548590,-6217.729913,-14582.057057,-1685.410096
477.548912,-6439.791695,-11769.274478,-766.095498
477.549235,-4959.379811,-9400.615463,-1378.971896
477.549557,-2516.700203,-9104.533087,-2528.115143
477.549880,-1776.494261,-8882.471304,-842.705048
477.550202,-1628.453072,-7328.038826,1149.143247
477.550524,0.000000,-5699.585753,536.266849
477.550847,2442.679609,-5847.626942,-1915.238745
477.551169,5625.565159,-8438.347739,-2451.505594
477.551492,5255.462188,-9696.697840,-153.219100
477.551814,3256.906145,-10732.986159,2145.067394
477.552136,1036.288319,-10881.027347,1762.019645
477.552459,666.185348,-10362.883188,-1225.752797
477.552781,1924.535449,-9770.718434,-4519.963438
477.553104,2960.823768,-9696.697840,-4443.353888
477.553426,3849.070898,-9474.636058,-1225.752797
477.553748,4071.132681,-7254.018232,1762.019645
477.554071,3034.844362,-5107.421000,689.485948
477.554393,1110.308913,-6735.874072,-1915.238745
477.554716,-2294.638420,-10288.862594,-3370.820191
477.555038,-6809.894666,-13175.665768,-3217.601092
477.555360,-9548.656652,-12435.459826,-2757.943793
477.555683,-8512.368333,-10584.944971,-3830.477490
477.556005,-5107.421000,-10140.821405,-4366.744339
477.556328,-1406.391290,-10658.965565,-2298.286494
477.556650,-740.205942,-9918.759623,1072.533697
477.556972,-1480.411884,-8364.327145,1608.800546
477.557295,-888.247130,-7846.182985,-1072.533697
477.557617,444.123565,-8068.244768,-4366.744339
477.557940,962.267725,-10066.800811,-4213.525239
477.558262,0.000000,-10140.821405,-995.924147
477.558584,-444.123565,-10288.862594,1149.143247
477.558907,666.185348,-10140.821405,229.828649
477.559229,2442.679609,-9770.718434,-1762.019645
477.559552,3849.070898,-10140.821405,-3140.991542
477.559874,4367.215058,-10288.862594,-2604.724693
477.560196,4293.194464,-9030.512492,-383.047749
477.560519,3552.988522,-6143.709319,383.047749
477.560841,2812.782580,-5477.523971,-766.095498
477.561164,1406.391290,-8068.244768,-1991.848295
477.561486,-1776.494261,-10066.800811,-1991.848295
477.561809,-5033.400406,-10881.027347,-1915.238745
477.562131,-6513.812290,-10140.821405,-2298.286494
477.562453,-4737.318029,-10510.924376,-3983.696590
477.562776,-1702.473667,-11473.192101,-3447.429741
477.563098,-666.185348,-10510.924376,0.000000
477.563421,-888.247130,-8364.327145,2451.505594
477.563743,-1110.308913,-6217.729913,1762.019645
477.564065,-296.082377,-5699.585753,-2221.676944
477.564388,0.000000,-7105.977043,-4519.963438
477.564710,-518.144159,-9104.533087,-2834.553343
477.565033,-962.267725,-9844.739029,153.219100
477.565355,-148.041188,-9844.739029,76.609550
477.565677,1702.473667,-10362.883188,-1762.019645
477.566000,3478.967927,-11621.233289,-2911.162892
477.566322,3182.885551,-12139.377449,-1762.019645
477.566645,1702.473667,-9548.656652,-995.924147
477.566967,0.000000,-6661.853478,-1762.019645
477.567289,-148.041188,-5255.462188,-3907.087040
477.567612,0.000000,-6069.688724,-5056.230287
477.567934,-1554.432478,-8586.388927,-4213.525239
477.568257,-4737.318029,-10807.006753,-1991.848295
477.568579,-6513.812290,-13323.706956,-689.485948
477.568901,-7254.018232,-13989.892304,-2757.943793
477.569224,-4885.359217,-14285.974681,-4443.353888
477.569546,-2294.638420,-12731.542202,-3447.429741
477.569869,-666.185348,-8216.285956,-919.314598
477.570191,888.247130,-4293.194464,0.000000
477.570513,2886.803174,-3552.988522,-766.095498
477.570836,3997.112087,-5699.585753,-2451.505594
477.571158,3478.967927,-9474.636058,-2374.896044
477.571481,1702.473667,-12583.501014,-1225.752797
477.571803,296.082377,-14359.995275,76.609550
477.572126,444.123565,-12879.583391,-229.828649
477.572448,1924.535449,-10214.842000,-229.828649
477.572770,2738.761985,-8216.285956,-612.876398
477.573093,3256.906145,-6661.853478,-229.828649
477.573415,1850.514855,-4589.276840,-689.485948
477.573738,-740.205942,-3404.947333,-2528.115143
477.574060,-3849.070898,-6069.688724,-4136.915689
477.574382,-4441.235652,-11103.089130,-3370.820191
477.574705,-4959.379811,-13619.789333,-2911.162892
477.575027,-6069.688724,-13471.748144,-2451.505594
477.575350,-7179.997637,-12879.583391,-1608.800546
477.575672,-7105.977043,-12139.377449,-995.924147
477.575994,-6365.771101,-10955.047942,0.000000
477.576317,-4589.276840,-7846.182985,-1455.581446
477.576639,-2294.638420,-5773.606348,-2604.724693
477.576962,1332.370696,-4737.318029,-2757.943793
477.577284,5699.585753,-5551.544565,-3294.210641
477.577606,6587.832884,-9178.553681,153.219100
477.577929,5699.585753,-12953.603985,3753.867940
477.578251,3182.885551,-13471.748144,4596.572988
477.578574,444.123565,-10955.047942,1072.533697
477.578896,296.082377,-9992.780217,-2681.334243
477.579218,3108.864956,-9548.656652,-3983.696590
477.579541,6735.874072,-7550.100608,-2834.553343
477.579863,8438.347739,-4885.359217,689.485948
477.580186,7846.182985,-3627.009116,2298.286494
477.580508,5847.626942,-5847.626942,1838.629195
477.580830,2590.720797,-10955.047942,-689.485948
477.581153,-2664.741391,-15396.283594,-3064.381992
477.581475,-8068.244768,-15988.448347,-4290.134789
477.581798,-9770.718434,-13767.830521,-3830.477490
477.582120,-7624.121203,-11177.109724,-2987.772442
477.582442,-3923.091493,-9178.553681,-1762.019645
477.582765,-1258.350101,-7920.203579,-459.657299
477.583087,-1332.370696,-7476.080014,2451.505594
477.583410,-2072.576638,-7402.059420,2298.286494
477.583732,-2294.638420,-7328.038826,-1915.238745
477.584055,-2072.576638,-8734.430116,-4749.792088
477.584377,-2368.659014,-10436.903782,-2757.943793
477.584699,-2368.659014,-9104.533087,0.000000
477.585022,-1924.535449,-7772.162391,1455.581446
477.585344,-148.041188,-9030.512492,0.000000
477.585667,2294.638420,-11621.233289,-1915.238745
477.585989,3182.885551,-11251.130318,-2221.676944
477.586311,3775.050304,-9622.677246,-2604.724693
477.586634,4885.359217,-7846.182985,-2451.505594
477.586956,5551.544565,-5773.606348,-2451.505594
477.587279,3552.988522,-6069.688724,-2374.896044
477.587601,-1036.288319,-8734.430116,0.000000
477.587923,-5995.668130,-11843.295072,-229.828649
477.588246,-9918.759623,-12509.480420,-2528.115143
477.588568,-9622.677246,-11769.274478,-4749.792088
477.588891,-6439.791695,-10436.903782,-5592.497135
477.589213,-740.205942,-10066.800811,-3370.820191
477.589535,2220.617826,-7105.977043,1915.238745
477.589858,3182.885551,-5403.503377,3983.696590
477.590180,1776.494261,-4737.318029,1915.238745
477.590503,370.102971,-7031.956449,-2528.115143
477.590825,-814.226536,-9326.594869,-5439.278036
477.591147,-1776.494261,-10362.883188,-6205.373534
477.591470,-148.041188,-12435.459826,-4596.572988
477.591792,2294.638420,-12805.562797,-1378.971896
477.592115,3849.070898,-12879.583391,229.828649
477.592437,3627.009116,-13175.665768,1149.143247
477.592759,1850.514855,-11473.192101,919.314598
477.593082,74.020594,-6513.812290,-3370.820191
477.593404,-444.123565,-2442.679609,-6588.421283
477.593727,74.020594,-2516.700203,-7967.393179
477.594049,518.144159,-7624.121203,-4519.963438
477.594372,-666.185348,-13619.789333,306.438199
477.594694,-4663.297435,-16580.613101,3064.381992
477.595016,-8216.285956,-17024.736666,2221.676944
477.595339,-8512.368333,-15470.304188,-1532.190996
477.595661,-5921.647536,-10436.903782,-4596.572988
477.595984,-1554.432478,-5477.523971,-4673.182538
477.596306,3404.947333,-1480.411884,-1302.362347
477.596628,7476.080014,222.061783,383.047749
477.596951,8216.285956,-3478.967927,1378.971896
477.597273,5995.668130,-10807.006753,2451.505594
477.597596,1480.411884,-16654.633695,1838.629195
477.597918,-2960.823768,-16876.695478,-306.438199
477.598240,-4367.215058,-13619.789333,-2528.115143
477.598563,-1406.391290,-9992.780217,-2528.115143
477.598885,3701.029710,-6957.935855,-1991.848295
477.599208,6735.874072,-3849.070898,919.314598
477.599530,5773.606348,-1924.535449,2987.772442
477.599852,2664.741391,-2516.700203,2298.286494
477.600175,-1184.329507,-5847.626942,-919.314598
477.600497,-3923.091493,-11695.253884,-4596.572988
477.600820,-6513.812290,-14359.995275,-4673.182538
477.601142,-8142.265362,-13175.665768,-1532.190996
477.601464,-7105.977043,-9918.759623,689.485948
477.601787,-4293.194464,-9178.553681,-842.705048
477.602109,-962.267725,-10510.924376,-1608.800546
477.602432,-1702.473667,-10658.965565,-1072.533697
477.602754,-1924.535449,-9474.636058,459.657299
477.603076,-518.144159,-8438.347739,-1685.410096
477.603399,2220.617826,-8142.265362,-3753.867940
477.603721,4145.153275,-9326.594869,-3294.210641
477.604044,3627.009116,-10807.006753,-766.095498
477.604366,518.144159,-11399.171507,2145.067394
477.604688,-1554.432478,-12509.480420,1838.629195
477.605011,-1332.370696,-12139.377449,-2374.896044
477.605333,148.041188,-11769.274478,-4903.011187
477.605656,2368.659014,-10288.862594,-2987.772442
477.605978,3552.988522,-7179.997637,919.314598
477.606301,3849.070898,-4293.194464,1915.238745
477.606623,2220.617826,-3182.885551,612.876398
477.606945,-1628.453072,-5255.462188,-3064.381992
477.607268,-6291.750507,-9918.759623,-4366.744339
477.607590,-10288.862594,-13175.665768,-4136.915689
477.607913,-11103.089130,-13471.748144,-3753.867940
477.608235,-7846.182985,-11917.315666,-4136.915689
477.608557,-2442.679609,-11695.253884,-3600.648841
477.608880,962.267725,-10955.047942,-919.314598
477.609202,1480.411884,-8882.471304,1532.190996
477.609525,0.000000,-6735.874072,1225.752797
477.609847,-148.041188,-5995.668130,-2298.286494
477.610169,1184.329507,-6809.894666,-5592.497135
477.610492,1998.556043,-8068.244768,-4366.744339
477.610814,1998.556043,-9918.759623,-153.219100
477.611137,2442.679609,-10510.924376,2757.943793
477.611459,3701.029710,-9992.780217,1915.238745
477.611781,5477.523971,-10066.800811,-383.047749
477.612104,6143.709319,-8734.430116,-1608.800546
477.612426,5995.668130,-7254.018232,-2145.067394
477.612749,5255.462188,-5107.421000,-2145.067394
477.613071,4515.256246,-4441.235652,-1915.238745
477.613393,3034.844362,-6291.750507,-2451.505594
477.613716,1110.308913,-9770.718434,-2987.772442
477.614038,-2886.803174,-14211.954086,-2681.334243
477.614361,-6439.791695,-16210.510130,-2834.553343
477.614683,-8438.347739,-15544.324782,-3524.039291
477.615005,-7624.121203,-13693.809927,-4519.963438
477.615328,-4885.359217,-11251.130318,-4596.572988
477.615650,-2738.761985,-7476.080014,-1378.971896
477.615972,-1924.535449,-4219.173869,306.438199
477.616295,-1406.391290,-2590.720797,76.609550
477.616617,-888.247130,-5847.626942,-2451.505594
477.616940,-370.102971,-10807.006753,-2911.162892
477.617262,-1480.411884,-14285.974681,-1302.362347
477.617584,-2442.679609,-13841.851115,306.438199
477.617907,-1480.411884,-11325.150913,0.000000
477.618229,1850.514855,-9178.553681,-1149.143247
477.618552,5033.400406,-7994.224174,-1838.629195
477.618874,5921.647536,-7550.100608,-2068.457845
477.619196,5107.421000,-7476.080014,-995.924147
477.619519,3627.009116,-6957.935855,-229.828649
477.619841,1998.556043,-7476.080014,-1532.190996
477.620164,-296.082377,-10436.903782,-2757.943793
477.620486,-3478.967927,-11917.315666,-1455.581446
477.620808,-6513.812290,-11473.192101,-689.485948
477.621131,-8734.430116,-9104.533087,-842.705048
477.621453,-6809.894666,-8734.430116,-1915.238745
477.621775,-4811.338623,-8734.430116,-3753.867940
477.622098,-2960.823768,-9844.739029,-2221.676944
477.622420,-2072.576638,-9178.553681,1302.362347
477.622743,-1184.329507,-7920.203579,2451.505594
477.623065,444.123565,-6957.935855,-153.219100
477.623387,1850.514855,-7476.080014,-1991.848295
477.623710,1850.514855,-8290.306550,-1991.848295
477.624032,1110.308913,-9104.533087,-1455.581446
477.624355,444.123565,-11325.150913,-689.485948
477.624677,1406.391290,-12657.521608,-306.438199
477.624999,2516.700203,-12213.398043,-229.828649
477.625322,2812.782580,-11695.253884,0.000000
477.625644,3849.070898,-9252.574275,1608.800546
477.625967,3775.050304,-5107.421000,-1225.752797
477.626289,3182.885551,-3330.926739,-3753.867940
477.626611,1776.494261,-6291.750507,-4213.525239
477.626934,-962.267725,-10658.965565,-2451.505594
477.627256,-4515.256246,-13471.748144,-1378.971896
477.627578,-7105.977043,-13841.851115,-1532.190996
477.627901,-6883.915261,-14211.954086,-2987.772442
477.628223,-4885.359217,-13175.665768,-4290.134789
477.628546,-3108.864956,-11325.150913,-2834.553343
477.628868,-2294.638420,-7772.162391,0.000000
477.629190,-518.144159,-4293.194464,229.828649
477.629513,1184.329507,-4441.235652,-2604.724693
477.629835,2294.638420,-7105.977043,-5056.230287
477.630158,1554.432478,-10807.006753,-3677.258390
