#time,accel_x,accel_y,accel_z
264.921142,-518.144159,-9548.656652,-1685.410096
264.921464,0.000000,-9474.636058,-1685.410096
264.921786,-444.123565,-8956.491898,-1302.362347
264.922108,-148.041188,-9252.574275,-1532.190996
264.922430,-148.041188,-9252.574275,-1608.800546
264.922753,-370.102971,-9252.574275,-1532.190996
264.923075,-370.102971,-9178.553681,-1838.629195
264.923397,-518.144159,-9474.636058,-1532.190996
264.923719,-296.082377,-9622.677246,-1991.848295
264.924041,-592.164754,-9252.574275,-1532.190996
264.924364,-148.041188,-9252.574275,-1685.410096
264.924686,-370.102971,-9104.533087,-1532.190996
264.925008,-518.144159,-9252.574275,-1225.752797
264.925330,-148.041188,-9400.615463,-1685.410096
264.925652,-296.082377,-9474.636058,-1608.800546
264.925975,-370.102971,-9474.636058,-1608.800546
264.926297,-518.144159,-9474.636058,-1608.800546
264.926619,-518.144159,-9326.594869,-1149.143247
264.926941,-296.082377,-9326.594869,-1608.800546
264.927263,-296.082377,-9178.553681,-1762.019645
264.927586,-296.082377,-9400.615463,-1685.410096
264.927908,-370.102971,-9326.594869,-1762.019645
264.928230,-444.123565,-9400.615463,-1532.190996
264.928552,-370.102971,-9252.574275,-1608.800546
264.928874,-518.144159,-9400.615463,-1608.800546
264.929197,-444.123565,-9326.594869,-1685.410096
264.929519,-296.082377,-9252.574275,-1608.800546
264.929841,-296.082377,-9326.594869,-1378.971896
264.930163,-444.123565,-9474.636058,-1455.581446
264.930485,-444.123565,-9326.594869,-1532.190996
264.930808,-444.123565,-9326.594869,-1685.410096
264.931130,-444.123565,-9474.636058,-1685.410096
264.931452,-444.123565,-9474.636058,-1455.581446
264.931774,-222.061783,-9400.615463,-1455.581446
264.932096,0.000000,-9474.636058,-1685.410096
264.932419,-370.102971,-9252.574275,-1685.410096
264.932741,-370.102971,-9252.574275,-1762.019645
264.933063,-518.144159,-9474.636058,-1608.800546
264.933385,-740.205942,-9474.636058,-1685.410096
264.933708,-370.102971,-9474.636058,-1532.190996
264.934030,-740.205942,-9474.636058,-1532.190996
264.934352,-592.164754,-9326.594869,-1532.190996
264.934674,-592.164754,-9178.553681,-1608.800546
264.934996,-444.123565,-9400.615463,-1532.190996
264.935319,-370.102971,-9400.615463,-1302.362347
264.935641,-222.061783,-9326.594869,-1685.410096
264.935963,-518.144159,-9474.636058,-1455.581446
264.936285,-592.164754,-9474.636058,-1532.190996
264.936607,-370.102971,-9474.636058,-1455.581446
264.936930,-296.082377,-9326.594869,-1608.800546
264.937252,-444.123565,-9252.574275,-1302.362347
264.937574,0.000000,-9178.553681,-1608.800546
264.937896,-370.102971,-9252.574275,-1532.190996
264.938218,-370.102971,-9326.594869,-1532.190996
264.938541,-444.123565,-9548.656652,-1608.800546
264.938863,-740.205942,-9474.636058,-1072.533697
264.939185,0.000000,-9844.739029,-2145.067394
264.939507,-370.102971,-9548.656652,-1532.190996
264.939829,-148.041188,-9400.615463,-1455.581446
264.940152,-296.082377,-9030.512492,-1608.800546
264.940474,-148.041188,-8956.491898,-1608.800546
264.940796,-296.082377,-9474.636058,-1378.971896
264.941118,-444.123565,-9474.636058,-1378.971896
264.941440,-518.144159,-9474.636058,-1378.971896
264.941763,-592.164754,-9474.636058,-1762.019645
264.942085,-518.144159,-9474.636058,-1685.410096
264.942407,-148.041188,-9104.533087,-1762.019645
264.942729,-444.123565,-9104.533087,-1608.800546
264.943051,-444.123565,-9252.574275,-1532.190996
264.943374,-296.082377,-9400.615463,-1685.410096
264.943696,-296.082377,-9400.615463,-1532.190996
264.944018,370.102971,-9400.615463,-1762.019645
264.944340,1776.494261,-10288.862594,-2068.457845
264.944662,2516.700203,-9844.739029,-1532.190996
264.944985,2664.741391,-9030.512492,-383.047749
264.945307,1850.514855,-8438.347739,0.000000
264.945629,962.267725,-8438.347739,-1455.581446
264.945951,-296.082377,-9030.512492,-2834.553343
264.946273,-2590.720797,-9178.553681,-2145.067394
264.946596,-4145.153275,-9474.636058,-2298.286494
264.946918,-4515.256246,-9622.677246,-3140.991542
264.947240,-2590.720797,-9474.636058,-3524.039291
264.947562,222.061783,-10436.903782,-2987.772442
264.947884,3182.885551,-11621.233289,-1225.752797
264.948207,3775.050304,-10510.924376,383.047749
264.948529,3108.864956,-8734.430116,766.095498
264.948851,2960.823768,-8364.327145,-1225.752797
264.949173,3182.885551,-9178.553681,-2451.505594
264.949495,2368.659014,-9622.677246,-1915.238745
264.949818,666.185348,-8438.347739,-536.266849
264.950140,-370.102971,-7031.956449,229.828649
264.950462,444.123565,-7402.059420,-1378.971896
264.950784,1776.494261,-9474.636058,-2451.505594
264.951106,518.144159,-9696.697840,-1072.533697
264.951429,-1850.514855,-8956.491898,153.219100
264.951751,-2072.576638,-9030.512492,-1915.238745
264.952073,-962.267725,-9252.574275,-4290.134789
264.952395,74.020594,-9622.677246,-3524.039291
264.952717,296.082377,-10140.821405,-1532.190996
264.953040,1554.432478,-11251.130318,-2068.457845
264.953362,2812.782580,-9992.780217,-2451.505594
264.953684,4515.256246,-10732.986159,-1532.190996
264.954006,4811.338623,-11695.253884,-536.266849
264.954328,4145.153275,-11103.089130,-689.485948
264.954651,2738.761985,-9104.533087,-1302.362347
264.954973,2368.659014,-7476.080014,-995.924147
264.955295,2442.679609,-7550.100608,-1072.533697
264.955617,2368.659014,-7550.100608,-1378.971896
264.955939,1184.329507,-6587.832884,-612.876398
264.956262,1702.473667,-8068.244768,-459.657299
264.956584,2072.576638,-10066.800811,-229.828649
264.956906,2368.659014,-10584.944971,-1225.752797
264.957228,1850.514855,-9474.636058,-2221.676944
264.957550,1258.350101,-9844.739029,-1991.848295
264.957873,2368.659014,-10288.862594,-1149.143247
264.958195,2220.617826,-9474.636058,-2068.457845
264.958517,2220.617826,-9474.636058,-2911.162892
264.958839,1776.494261,-10362.883188,-2374.896044
264.959161,2294.638420,-10658.965565,-842.705048
264.959484,2368.659014,-9992.780217,-1302.362347
264.959806,1924.535449,-9474.636058,-1225.752797
264.960128,1554.432478,-9252.574275,-919.314598
264.960450,1036.288319,-8216.285956,-612.876398
264.960773,0.000000,-6957.935855,-919.314598
264.961095,-888.247130,-7179.997637,-1608.800546
264.961417,-1480.411884,-7846.182985,-995.924147
264.961739,-592.164754,-9400.615463,-1072.533697
264.962061,-370.102971,-10214.842000,-689.485948
264.962384,74.020594,-11399.171507,-1072.533697
264.962706,888.247130,-11991.336260,-766.095498
264.963028,1554.432478,-11473.192101,0.000000
264.963350,1184.329507,-9918.759623,-383.047749
264.963672,1184.329507,-9474.636058,-1532.190996
264.963995,888.247130,-8882.471304,-2374.896044
264.964317,148.041188,-8438.347739,-1762.019645
264.964639,-666.185348,-8586.388927,-1072.533697
264.964961,-814.226536,-9104.533087,-1149.143247
264.965283,-1036.288319,-9474.636058,-1838.629195
264.965606,-1184.329507,-9474.636058,-1915.238745
264.965928,-1258.350101,-8808.450710,-1685.410096
264.966250,-1258.350101,-7772.162391,-1762.019645
264.966572,-370.102971,-7698.141797,-2145.067394
264.966894,0.000000,-8290.306550,-2221.676944
264.967217,222.061783,-8882.471304,-1608.800546
264.967539,148.041188,-9770.718434,-1762.019645
264.967861,0.000000,-10732.986159,-1915.238745
264.968183,74.020594,-11399.171507,-1378.971896
264.968505,148.041188,-10807.006753,-1302.362347
264.968828,74.020594,-10066.800811,-1302.362347
264.969150,-148.041188,-9030.512492,-1762.019645
264.969472,-444.123565,-8438.347739,-1378.971896
264.969794,-1184.329507,-8290.306550,-842.705048
264.970116,-1258.350101,-8956.491898,-766.095498
264.970439,-1628.453072,-9622.677246,-1455.581446
264.970761,-1702.473667,-9696.697840,-1455.581446
264.971083,-1406.391290,-9622.677246,-1225.752797
264.971405,-814.226536,-9326.594869,-1378.971896
264.971727,222.061783,-8512.368333,-2145.067394
264.972050,740.205942,-7846.182985,-1532.190996
264.972372,1332.370696,-8364.327145,-2451.505594
264.972694,1110.308913,-9178.553681,-2834.553343
264.973016,740.205942,-10066.800811,-2987.772442
264.973338,296.082377,-10881.027347,-2757.943793
264.973661,592.164754,-11029.068536,-2528.115143
264.973983,666.185348,-10955.047942,-2451.505594
264.974305,518.144159,-10214.842000,-2451.505594
264.974627,296.082377,-9474.636058,-1762.019645
264.974949,-444.123565,-9104.533087,-1072.533697
264.975272,-1036.288319,-8956.491898,-1378.971896
264.975594,-1406.391290,-9104.533087,-1532.190996
264.975916,-1850.514855,-9030.512492,-1302.362347
264.976238,-1554.432478,-8956.491898,-612.876398
264.976560,-1036.288319,-8882.471304,-536.266849
264.976883,-592.164754,-8142.265362,-306.438199
264.977205,0.000000,-7772.162391,-459.657299
264.977527,-518.144159,-7624.121203,-536.266849
264.977849,-1110.308913,-8216.285956,-1532.190996
264.978171,-1332.370696,-9030.512492,-2528.115143
264.978494,-2072.576638,-9400.615463,-2604.724693
264.978816,-1258.350101,-10214.842000,-2451.505594
264.979138,-1184.329507,-10881.027347,-2834.553343
264.979460,-592.164754,-10732.986159,-2528.115143
264.979782,-296.082377,-9474.636058,-2298.286494
264.980105,-296.082377,-9326.594869,-2528.115143
264.980427,-370.102971,-9326.594869,-2834.553343
264.980749,-1184.329507,-9474.636058,-2298.286494
264.981071,-2442.679609,-9844.739029,-1685.410096
264.981393,-3034.844362,-10066.800811,-1149.143247
264.981716,-2368.659014,-10140.821405,-919.314598
264.982038,-1036.288319,-9696.697840,-919.314598
264.982360,444.123565,-8364.327145,-383.047749
264.982682,1850.514855,-8216.285956,0.000000
264.983004,2072.576638,-8068.244768,0.000000
264.983327,1924.535449,-8660.409521,-229.828649
264.983649,1036.288319,-9326.594869,-612.876398
264.983971,222.061783,-9474.636058,-1838.629195
264.984293,-518.144159,-9918.759623,-2757.943793
264.984615,-148.041188,-10584.944971,-3217.601092
264.984938,370.102971,-11103.089130,-2681.334243
264.985260,1406.391290,-10881.027347,-1915.238745
264.985582,1480.411884,-9992.780217,-2451.505594
264.985904,1776.494261,-10214.842000,-1838.629195
264.986226,814.226536,-9696.697840,-2221.676944
264.986549,-296.082377,-9918.759623,-2221.676944
264.986871,-1480.411884,-10140.821405,-1915.238745
264.987193,-2368.659014,-9918.759623,-536.266849
264.987515,-2146.597232,-9400.615463,76.609550
264.987837,-1480.411884,-8364.327145,76.609550
264.988160,-740.205942,-7476.080014,76.609550
264.988482,222.061783,-7031.956449,229.828649
264.988804,740.205942,-6735.874072,306.438199
264.989126,740.205942,-6957.935855,-153.219100
264.989449,222.061783,-7772.162391,-383.047749
264.989771,-1554.432478,-7846.182985,-842.705048
264.990093,-2368.659014,-9104.533087,-1685.410096
264.990415,-2738.761985,-9992.780217,-2681.334243
264.990737,-2294.638420,-10436.903782,-3064.381992
264.991060,-1850.514855,-10807.006753,-3524.039291
264.991382,-1110.308913,-11029.068536,-2528.115143
264.991704,0.000000,-11029.068536,-2451.505594
264.992026,222.061783,-10214.842000,-2451.505594
264.992348,518.144159,-9696.697840,-2374.896044
264.992671,592.164754,-9326.594869,-2374.896044
264.992993,518.144159,-9030.512492,-2221.676944
264.993315,0.000000,-8808.450710,-1608.800546
264.993637,-370.102971,-9030.512492,-842.705048
264.993959,-370.102971,-9474.636058,-306.438199
264.994282,0.000000,-9104.533087,-842.705048
264.994604,888.247130,-9474.636058,-1762.019645
264.994926,370.102971,-8956.491898,-1149.143247
264.995248,296.082377,-8956.491898,-1302.362347
264.995570,0.000000,-8660.409521,-1838.629195
264.995893,-666.185348,-8882.471304,-2068.457845
264.996215,-1184.329507,-9252.574275,-2451.505594
264.996537,-1258.350101,-10140.821405,-3064.381992
264.996859,-740.205942,-10881.027347,-3830.477490
264.997182,0.000000,-11325.150913,-3447.429741
264.997504,592.164754,-11473.192101,-2528.115143
264.997826,1406.391290,-10732.986159,-2145.067394
264.998148,1776.494261,-9770.718434,-2298.286494
264.998470,1554.432478,-8882.471304,-2528.115143
264.998793,888.247130,-8660.409521,-2528.115143
264.999115,444.123565,-8808.450710,-1838.629195
264.999437,0.000000,-8438.347739,-1378.971896
264.999759,-1110.308913,-8734.430116,-1149.143247
265.000082,-962.267725,-9104.533087,-842.705048
265.000404,-1036.288319,-9104.533087,-229.828649
265.000726,-592.164754,-8956.491898,-383.047749
265.001048,-814.226536,-7994.224174,-459.657299
265.001370,-666.185348,-7402.059420,-383.047749
265.001693,-222.061783,-7476.080014,-459.657299
265.002015,-592.164754,-7846.182985,-766.095498
265.002337,-1258.350101,-8438.347739,-919.314598
265.002659,-1850.514855,-9030.512492,-1302.362347
265.002981,-1480.411884,-9844.739029,-1838.629195
265.003304,-1924.535449,-10362.883188,-2604.724693
265.003626,-1702.473667,-10510.924376,-2451.505594
265.003948,-1480.411884,-10955.047942,-1991.848295
265.004270,-1480.411884,-10436.903782,-2145.067394
265.004593,-1036.288319,-9474.636058,-2834.553343
265.004915,-740.205942,-8512.368333,-2911.162892
265.005237,-296.082377,-8586.388927,-3294.210641
265.005559,-222.061783,-9104.533087,-2451.505594
265.005881,-592.164754,-9696.697840,-1532.190996
265.006204,-962.267725,-10732.986159,-919.314598
265.006526,-1110.308913,-10881.027347,-383.047749
265.006848,-666.185348,-11325.150913,-1072.533697
265.007170,-1258.350101,-9992.780217,-919.314598
265.007492,-740.205942,-8882.471304,-612.876398
265.007815,74.020594,-7920.203579,-612.876398
265.008137,740.205942,-7476.080014,-229.828649
265.008459,814.226536,-7328.038826,-1149.143247
265.008781,444.123565,-8660.409521,-1302.362347
265.009104,222.061783,-10140.821405,-1762.019645
265.009426,-444.123565,-10955.047942,-2068.457845
265.009748,-666.185348,-11177.109724,-2374.896044
265.010070,-518.144159,-11103.089130,-2068.457845
265.010392,0.000000,-10362.883188,-2451.505594
265.010715,592.164754,-9252.574275,-2451.505594
265.011037,962.267725,-8660.409521,-2221.676944
265.011359,888.247130,-8808.450710,-2374.896044
265.011681,148.041188,-9030.512492,-1378.971896
265.012003,-814.226536,-10066.800811,-995.924147
265.012326,-1850.514855,-10658.965565,-229.828649
265.012648,-2294.638420,-10658.965565,-536.266849
265.012970,-1776.494261,-9400.615463,-229.828649
265.013292,-888.247130,-7698.141797,536.266849
265.013615,370.102971,-6217.729913,689.485948
265.013937,1332.370696,-6069.688724,0.000000
265.014259,1554.432478,-6365.771101,-306.438199
265.014581,1036.288319,-7328.038826,-306.438199
265.014903,0.000000,-8956.491898,-536.266849
265.015226,-962.267725,-9548.656652,-1378.971896
265.015548,-1998.556043,-10881.027347,-2298.286494
265.015870,-1998.556043,-10881.027347,-2834.553343
265.016192,-1628.453072,-10436.903782,-2681.334243
265.016515,-814.226536,-9992.780217,-3140.991542
265.016837,74.020594,-9548.656652,-3370.820191
265.017159,740.205942,-9400.615463,-2221.676944
265.017481,518.144159,-9474.636058,-1915.238745
265.017803,296.082377,-9474.636058,-1762.019645
265.018126,0.000000,-9474.636058,-1838.629195
265.018448,-666.185348,-9400.615463,-1532.190996
265.018770,-1258.350101,-8956.491898,-612.876398
265.019092,-1258.350101,-8586.388927,-1149.143247
265.019414,-1036.288319,-8512.368333,-1225.752797
265.019737,-666.185348,-8438.347739,-1455.581446
265.020059,0.000000,-9104.533087,-1455.581446
265.020381,148.041188,-9548.656652,-1225.752797
265.020703,0.000000,-9474.636058,-1838.629195
265.021026,-296.082377,-9918.759623,-2145.067394
265.021348,-370.102971,-10510.924376,-2451.505594
265.021670,-518.144159,-11029.068536,-2911.162892
265.021992,-370.102971,-10732.986159,-3217.601092
265.022314,0.000000,-10436.903782,-2911.162892
265.022637,518.144159,-10288.862594,-2757.943793
265.022959,1110.308913,-10658.965565,-2451.505594
265.023281,1480.411884,-10510.924376,-2068.457845
265.023603,1332.370696,-9770.718434,-1532.190996
265.023925,1406.391290,-9770.718434,-1149.143247
265.024248,666.185348,-8808.450710,-1302.362347
265.024570,0.000000,-7698.141797,-1378.971896
265.024892,-666.185348,-7550.100608,-1302.362347
265.025214,-1110.308913,-8216.285956,-612.876398
265.025537,-1406.391290,-9178.553681,-306.438199
265.025859,-1480.411884,-9104.533087,0.000000
265.026181,-1554.432478,-9474.636058,0.000000
265.026503,-1554.432478,-9326.594869,0.000000
265.026825,-1258.350101,-8586.388927,-229.828649
265.027148,-1406.391290,-7550.100608,-612.876398
265.027470,-1480.411884,-7105.977043,-919.314598
265.027792,-1924.535449,-7550.100608,-1455.581446
265.028114,-2368.659014,-8364.327145,-2068.457845
265.028436,-2664.741391,-9548.656652,-2068.457845
265.028759,-2442.679609,-10362.883188,-1838.629195
265.029081,-1998.556043,-10658.965565,-1608.800546
265.029403,-1036.288319,-10140.821405,-2528.115143
265.029725,-888.247130,-9326.594869,-2221.676944
265.030048,-222.061783,-8438.347739,-2145.067394
265.030370,0.000000,-8290.306550,-2374.896044
265.030692,-296.082377,-7920.203579,-2451.505594
265.031014,-1184.329507,-9030.512492,-1915.238745
265.031336,-1702.473667,-10214.842000,-1685.410096
265.031659,-1702.473667,-11399.171507,-1608.800546
265.031981,-1628.453072,-11695.253884,-1149.143247
265.032303,-1184.329507,-11251.130318,-612.876398
265.032625,-444.123565,-10436.903782,-383.047749
265.032947,814.226536,-9474.636058,-612.876398
265.033270,814.226536,-8364.327145,-1225.752797
265.033592,740.205942,-7846.182985,-1608.800546
265.033914,962.267725,-8512.368333,-1915.238745
265.034236,518.144159,-8882.471304,-1915.238745
265.034559,814.226536,-10658.965565,-2528.115143
265.034881,0.000000,-11251.130318,-2221.676944
265.035203,148.041188,-11325.150913,-2451.505594
265.035525,370.102971,-10584.944971,-2681.334243
265.035847,666.185348,-9474.636058,-2681.334243
265.036170,592.164754,-8364.327145,-2528.115143
265.036492,74.020594,-8734.430116,-2681.334243
265.036814,-740.205942,-8882.471304,-1991.848295
265.037136,-1850.514855,-9622.677246,-1302.362347
265.037459,-2516.700203,-10510.924376,-1225.752797
265.037781,-2294.638420,-10584.944971,-1302.362347
265.038103,-2220.617826,-9178.553681,-766.095498
265.038425,-888.247130,-7698.141797,-383.047749
265.038747,296.082377,-7105.977043,-153.219100
265.039070,1110.308913,-6587.832884,0.000000
265.039392,962.267725,-6365.771101,-76.609550
265.039714,148.041188,-7179.997637,-1149.143247
265.040036,-814.226536,-8438.347739,-1302.362347
265.040358,-1628.453072,-9548.656652,-2451.505594
265.040681,-1628.453072,-10510.924376,-2681.334243
265.041003,-1628.453072,-10658.965565,-2145.067394
265.041325,-518.144159,-11029.068536,-1608.800546
265.041647,-296.082377,-10362.883188,-1991.848295
265.041970,296.082377,-9844.739029,-2451.505594
265.042292,740.205942,-9548.656652,-2451.505594
265.042614,814.226536,-9400.615463,-2451.505594
265.042936,592.164754,-8882.471304,-2145.067394
265.043258,592.164754,-9326.594869,-1838.629195
265.043581,0.000000,-9474.636058,-995.924147
265.043903,0.000000,-10140.821405,-766.095498
265.044225,-592.164754,-9548.656652,-766.095498
265.044547,-888.247130,-8882.471304,-689.485948
265.044869,-1110.308913,-8586.388927,-1225.752797
265.045192,-888.247130,-8512.368333,-1915.238745
265.045514,-148.041188,-8586.388927,-2298.286494
265.045836,-148.041188,-8956.491898,-2451.505594
265.046158,-222.061783,-9696.697840,-1608.800546
265.046481,-296.082377,-10584.944971,-2298.286494
265.046803,-148.041188,-11177.109724,-2834.553343
265.047125,-592.164754,-11547.212695,-2987.772442
265.047447,-222.061783,-11473.192101,-2374.896044
265.047769,222.061783,-10732.986159,-2298.286494
265.048092,1110.308913,-9918.759623,-2374.896044
265.048414,1332.370696,-9178.553681,-2374.896044
265.048736,1258.350101,-9252.574275,-1762.019645
265.049058,1184.329507,-9326.594869,-842.705048
265.049380,814.226536,-9104.533087,-842.705048
265.049703,222.061783,-8660.409521,-1378.971896
265.050025,-296.082377,-8290.306550,-766.095498
265.050347,-740.205942,-9178.553681,-229.828649
265.050669,-1184.329507,-9252.574275,-153.219100
265.050992,-1628.453072,-8882.471304,0.000000
265.051314,-1702.473667,-8586.388927,0.000000
265.051636,-1258.350101,-7846.182985,-536.266849
265.051958,-1036.288319,-7402.059420,-1378.971896
265.052280,-1406.391290,-7550.100608,-1072.533697
265.052603,-1702.473667,-8364.327145,-1072.533697
265.052925,-1924.535449,-8660.409521,-1149.143247
265.053247,-2072.576638,-9178.553681,-1991.848295
265.053569,-2442.679609,-9252.574275,-2528.115143
265.053892,-1924.535449,-10288.862594,-2757.943793
265.054214,-1554.432478,-10140.821405,-2221.676944
265.054536,-1036.288319,-9474.636058,-2145.067394
265.054858,0.000000,-8660.409521,-1838.629195
265.055180,370.102971,-8216.285956,-2145.067394
265.055503,444.123565,-8512.368333,-1915.238745
265.055825,-666.185348,-8808.450710,-1915.238745
265.056147,-1628.453072,-9548.656652,-1838.629195
265.056469,-2368.659014,-10362.883188,-1532.190996
265.056791,-2294.638420,-10658.965565,-1608.800546
265.057114,-1702.473667,-10584.944971,-1302.362347
265.057436,-1184.329507,-9918.759623,-919.314598
265.057758,0.000000,-9622.677246,-612.876398
265.058080,740.205942,-9104.533087,-995.924147
265.058403,1036.288319,-8660.409521,-1378.971896
265.058725,1110.308913,-8512.368333,-1991.848295
265.059047,740.205942,-9252.574275,-2221.676944
265.059369,814.226536,-10066.800811,-2528.115143
265.059691,518.144159,-10955.047942,-3217.601092
265.060014,370.102971,-11399.171507,-2911.162892
265.060336,444.123565,-11029.068536,-2451.505594
265.060658,666.185348,-10658.965565,-2451.505594
265.060980,592.164754,-9992.780217,-2528.115143
265.061302,222.061783,-9474.636058,-2757.943793
265.061625,0.000000,-9400.615463,-1838.629195
265.061947,-1258.350101,-8882.471304,-1149.143247
265.062269,-1850.514855,-9474.636058,-842.705048
265.062591,-2220.617826,-9474.636058,-766.095498
265.062914,-2072.576638,-9252.574275,-766.095498
265.063236,-1332.370696,-8660.409521,-459.657299
265.063558,-592.164754,-8142.265362,0.000000
265.063880,740.205942,-7402.059420,-383.047749
265.064202,1184.329507,-7550.100608,-153.219100
265.064525,592.164754,-7624.121203,-459.657299
265.064847,-296.082377,-7994.224174,-612.876398
265.065169,-1184.329507,-8586.388927,-1608.800546
265.065491,-1924.535449,-9400.615463,-2221.676944
265.065813,-1924.535449,-10214.842000,-2757.943793
265.066136,-1776.494261,-10732.986159,-1991.848295
265.066458,-1184.329507,-10584.944971,-1685.410096
265.066780,-148.041188,-10436.903782,-1991.848295
265.067102,592.164754,-9844.739029,-1915.238745
265.067425,814.226536,-9104.533087,-1991.848295
265.067747,444.123565,-8364.327145,-1685.410096
265.068069,518.144159,-8216.285956,-1762.019645
265.068391,148.041188,-8882.471304,-1302.362347
265.068713,148.041188,-9696.697840,-536.266849
265.069036,-222.061783,-9992.780217,-995.924147
265.069358,-814.226536,-9252.574275,-612.876398
265.069680,-518.144159,-9030.512492,-1302.362347
265.070002,0.000000,-8660.409521,-1378.971896
265.070325,222.061783,-8512.368333,-1838.629195
265.070647,148.041188,-8364.327145,-1762.019645
265.070969,296.082377,-9252.574275,-1762.019645
265.071291,0.000000,-9992.780217,-1762.019645
265.071613,-444.123565,-10881.027347,-2298.286494
265.071936,-444.123565,-11547.212695,-2987.772442
265.072258,74.020594,-11473.192101,-3064.381992
265.072580,666.185348,-10362.883188,-2221.676944
265.072902,1554.432478,-10214.842000,-2221.676944
265.073224,2146.597232,-9548.656652,-2221.676944
265.073547,2220.617826,-9178.553681,-1991.848295
265.073869,1702.473667,-9030.512492,-1302.362347
265.074191,1184.329507,-9400.615463,-1302.362347
265.074513,444.123565,-9104.533087,-1378.971896
265.074836,-370.102971,-9030.512492,-1532.190996
265.075158,-518.144159,-9178.553681,-766.095498
265.075480,-814.226536,-9474.636058,-383.047749
265.075802,-1036.288319,-8956.491898,-383.047749
265.076124,-962.267725,-8290.306550,-383.047749
265.076447,-1036.288319,-8216.285956,-536.266849
265.076769,-1110.308913,-8142.265362,-612.876398
265.077091,-1110.308913,-7846.182985,-1302.362347
265.077413,-1480.411884,-8068.244768,-1378.971896
265.077735,-1480.411884,-8586.388927,-1455.581446
265.078058,-1554.432478,-9030.512492,-1762.019645
265.078380,-1702.473667,-9326.594869,-2145.067394
265.078702,-1702.473667,-9770.718434,-2451.505594
265.079024,-1406.391290,-10214.842000,-2451.505594
265.079347,-1480.411884,-9474.636058,-1915.238745
265.079669,-1258.350101,-8734.430116,-2068.457845
265.079991,-888.247130,-8364.327145,-2145.067394
265.080313,-888.247130,-8438.347739,-2374.896044
265.080635,-1332.370696,-8290.306550,-2451.505594
265.080958,-2072.576638,-8364.327145,-2451.505594
265.081280,-2664.741391,-9696.697840,-1685.410096
265.081602,-2738.761985,-11029.068536,-1608.800546
265.081924,-2368.659014,-11103.089130,-1455.581446
265.082246,-1924.535449,-11103.089130,-1455.581446
265.082569,-962.267725,-10807.006753,-1072.533697
265.082891,74.020594,-9622.677246,-919.314598
265.083213,1110.308913,-8808.450710,-1225.752797
265.083535,1258.350101,-8216.285956,-1838.629195
265.083858,1184.329507,-8512.368333,-2298.286494
265.084180,1184.329507,-9474.636058,-1915.238745
265.084502,1110.308913,-10436.903782,-2604.724693
265.084824,666.185348,-11177.109724,-2145.067394
265.085146,592.164754,-11621.233289,-2374.896044
265.085469,962.267725,-11103.089130,-2068.457845
265.085791,1110.308913,-9844.739029,-1915.238745
265.086113,1110.308913,-8956.491898,-1915.238745
265.086435,814.226536,-8364.327145,-2145.067394
265.086757,-222.061783,-8290.306550,-1685.410096
265.087080,-1702.473667,-8882.471304,-1072.533697
265.087402,-2812.782580,-9622.677246,-919.314598
265.087724,-3552.988522,-10288.862594,-1302.362347
265.088046,-3108.864956,-9696.697840,-919.314598
265.088369,-2220.617826,-8586.388927,-919.314598
265.088691,-666.185348,-7698.141797,-459.657299
265.089013,592.164754,-7402.059420,-612.876398
265.089335,666.185348,-6883.915261,-689.485948
265.089657,0.000000,-7105.977043,-383.047749
265.089980,-518.144159,-7846.182985,-995.924147
265.090302,-1258.350101,-9030.512492,-2298.286494
265.090624,-1406.391290,-9844.739029,-2987.772442
265.090946,-1184.329507,-10436.903782,-2221.676944
265.091269,-444.123565,-10658.965565,-1149.143247
265.091591,1332.370696,-10066.800811,-1455.581446
265.091913,1850.514855,-9474.636058,-1532.190996
265.092235,2072.576638,-9400.615463,-1378.971896
265.092558,2072.576638,-9104.533087,-1225.752797
265.092880,1406.391290,-8660.409521,-1302.362347
265.093202,1258.350101,-8364.327145,-1149.143247
265.093525,814.226536,-9030.512492,-689.485948
265.093847,370.102971,-9104.533087,-689.485948
265.094169,0.000000,-9104.533087,-842.705048
265.094492,-592.164754,-9178.553681,-1149.143247
265.094814,-814.226536,-9400.615463,-1149.143247
265.095137,-592.164754,-9252.574275,-1149.143247
265.095459,-666.185348,-9252.574275,-2068.457845
265.095781,-740.205942,-9104.533087,-2528.115143
265.096104,-962.267725,-9474.636058,-2374.896044
265.096426,-962.267725,-10066.800811,-2528.115143
265.096748,-518.144159,-10066.800811,-3217.601092
265.097071,-740.205942,-9992.780217,-3217.601092
265.097393,-222.061783,-10658.965565,-2987.772442
265.097715,592.164754,-10881.027347,-2221.676944
265.098038,1332.370696,-10436.903782,-2298.286494
265.098360,1776.494261,-9548.656652,-2145.067394
265.098683,1924.535449,-9474.636058,-1685.410096
265.099005,1480.411884,-9474.636058,-1072.533697
265.099327,888.247130,-9326.594869,-995.924147
265.099650,296.082377,-8956.491898,-1225.752797
265.099972,-296.082377,-9178.553681,-1302.362347
265.100294,-370.102971,-9400.615463,-536.266849
265.100617,-370.102971,-9548.656652,0.000000
265.100939,-962.267725,-9252.574275,-306.438199
265.101261,-1258.350101,-8882.471304,-459.657299
265.101584,-962.267725,-8660.409521,-919.314598
265.101906,-962.267725,-7920.203579,-2068.457845
265.102229,-1628.453072,-7476.080014,-1991.848295
265.102551,-2146.597232,-8586.388927,-1915.238745
265.102873,-2442.679609,-9178.553681,-1608.800546
265.103196,-3034.844362,-9326.594869,-1991.848295
265.103518,-3182.885551,-9696.697840,-2757.943793
265.103840,-2886.803174,-9548.656652,-2987.772442
265.104163,-2664.741391,-9770.718434,-3140.991542
265.104485,-2368.659014,-9178.553681,-2757.943793
265.104808,-1998.556043,-8734.430116,-2298.286494
265.105130,-1258.350101,-8660.409521,-2298.286494
265.105452,-888.247130,-8956.491898,-1991.848295
265.105775,-296.082377,-9252.574275,-1991.848295
265.106097,-1036.288319,-9400.615463,-1608.800546
265.106419,-962.267725,-10140.821405,-1532.190996
265.106742,-740.205942,-10584.944971,-1225.752797
265.107064,-592.164754,-10658.965565,-612.876398
265.107386,-518.144159,-9696.697840,0.000000
265.107709,148.041188,-9622.677246,-306.438199
265.108031,740.205942,-8660.409521,-612.876398
265.108354,1184.329507,-8586.388927,-1225.752797
265.108676,1406.391290,-8512.368333,-1378.971896
265.108998,1850.514855,-8808.450710,-1378.971896
265.109321,1702.473667,-9326.594869,-1838.629195
265.109643,1036.288319,-10214.842000,-2221.676944
265.109965,518.144159,-11029.068536,-2451.505594
265.110288,0.000000,-10955.047942,-2451.505594
265.110610,-148.041188,-10214.842000,-2374.896044
265.110932,-222.061783,-9548.656652,-2221.676944
265.111255,0.000000,-9474.636058,-2604.724693
265.111577,-444.123565,-8956.491898,-2145.067394
265.111900,-1258.350101,-8808.450710,-1225.752797
265.112222,-2294.638420,-9474.636058,-612.876398
265.112544,-2072.576638,-9696.697840,-1072.533697
265.112867,-2368.659014,-9474.636058,-1225.752797
265.113189,-2220.617826,-8882.471304,-536.266849
265.113511,-1184.329507,-8216.285956,0.000000
265.113834,370.102971,-7772.162391,0.000000
265.114156,1406.391290,-7328.038826,-229.828649
265.114478,740.205942,-7031.956449,0.000000
265.114801,444.123565,-7698.141797,-612.876398
265.115123,0.000000,-8660.409521,-1225.752797
265.115446,-296.082377,-9918.759623,-2068.457845
265.115768,-370.102971,-10140.821405,-1762.019645
265.116090,-592.164754,-10881.027347,-1685.410096
265.116413,-370.102971,-10732.986159,-1072.533697
265.116735,0.000000,-10066.800811,-1608.800546
265.117057,814.226536,-9474.636058,-1915.238745
265.117380,1036.288319,-8956.491898,-1838.629195
265.117702,1184.329507,-8512.368333,-1225.752797
265.118024,370.102971,-8216.285956,-1455.581446
265.118347,0.000000,-8734.430116,-1225.752797
265.118669,-592.164754,-9400.615463,-689.485948
265.118992,-1628.453072,-9326.594869,-842.705048
265.119314,-2072.576638,-9178.553681,-1685.410096
265.119636,-2368.659014,-8882.471304,-2145.067394
265.119959,-2146.597232,-9030.512492,-2145.067394
265.120281,-1406.391290,-8882.471304,-2451.505594
265.120603,-1036.288319,-8808.450710,-2451.505594
265.120926,-444.123565,-9104.533087,-2987.772442
265.121248,-148.041188,-9696.697840,-2451.505594
265.121570,-444.123565,-10955.047942,-2528.115143
265.121893,-370.102971,-11399.171507,-3064.381992
265.122215,74.020594,-11325.150913,-3524.039291
265.122538,592.164754,-10732.986159,-2757.943793
265.122860,1702.473667,-10436.903782,-2221.676944
265.123182,2442.679609,-9844.739029,-2145.067394
265.123505,2442.679609,-9400.615463,-1838.629195
265.123827,2220.617826,-9474.636058,-1072.533697
265.124149,1332.370696,-9622.677246,-689.485948
265.124472,666.185348,-9474.636058,-1149.143247
265.124794,0.000000,-9178.553681,-766.095498
265.125116,-740.205942,-9474.636058,-919.314598
265.125439,-1258.350101,-9474.636058,-612.876398
265.125761,-1480.411884,-9030.512492,-536.266849
265.126084,-1406.391290,-8660.409521,-1072.533697
265.126406,-1036.288319,-8660.409521,-153.219100
265.126728,-962.267725,-8512.368333,-842.705048
265.127051,-962.267725,-8216.285956,-1149.143247
265.127373,-1628.453072,-8216.285956,-1378.971896
265.127695,-2072.576638,-8660.409521,-1225.752797
265.128018,-2442.679609,-8808.450710,-1838.629195
265.128340,-2442.679609,-9104.533087,-2757.943793
265.128662,-2738.761985,-9400.615463,-2604.724693
265.128985,-2294.638420,-9474.636058,-2451.505594
265.129307,-1628.453072,-9548.656652,-2298.286494
265.129630,-888.247130,-9178.553681,-1991.848295
265.129952,-592.164754,-8660.409521,-1532.190996
265.130274,0.000000,-8808.450710,-995.924147
265.130597,0.000000,-8512.368333,-1072.533697
265.130919,-444.123565,-8512.368333,-1149.143247
265.131241,-888.247130,-9104.533087,-1455.581446
265.131564,-1184.329507,-9622.677246,-995.924147
265.131886,-444.123565,-10658.965565,-689.485948
265.132208,-518.144159,-10362.883188,0.000000
265.132531,-296.082377,-9622.677246,153.219100
265.132853,222.061783,-9400.615463,-612.876398
265.133176,814.226536,-8956.491898,-1302.362347
265.133498,962.267725,-8364.327145,-1532.190996
265.133820,518.144159,-8364.327145,-1915.238745
265.134143,518.144159,-8956.491898,-2451.505594
265.134465,518.144159,-9770.718434,-2757.943793
265.134787,370.102971,-10807.006753,-2987.772442
265.135110,814.226536,-12065.356855,-2221.676944
265.135432,74.020594,-11103.089130,-2451.505594
265.135754,74.020594,-10140.821405,-2604.724693
265.136077,370.102971,-9326.594869,-2451.505594
265.136399,148.041188,-9178.553681,-2068.457845
265.136722,-444.123565,-8586.388927,-1532.190996
265.137044,-1184.329507,-8364.327145,-1225.752797
265.137366,-2146.597232,-9030.512492,-995.924147
265.137689,-2368.659014,-9474.636058,-919.314598
265.138011,-2368.659014,-9622.677246,-995.924147
265.138333,-1332.370696,-9104.533087,-842.705048
265.138656,-370.102971,-8808.450710,-766.095498
265.138978,666.185348,-7994.224174,-536.266849
265.139300,962.267725,-7402.059420,-766.095498
265.139623,592.164754,-7328.038826,-1149.143247
265.139945,-296.082377,-8438.347739,-1532.190996
265.140268,-888.247130,-9548.656652,-1915.238745
265.140590,-1480.411884,-10436.903782,-2834.553343
265.140912,-1332.370696,-11177.109724,-2911.162892
265.141235,-1258.350101,-11103.089130,-2298.286494
265.141557,-444.123565,-10881.027347,-1838.629195
265.141879,148.041188,-9918.759623,-1608.800546
265.142202,296.082377,-8956.491898,-1915.238745
265.142524,444.123565,-8512.368333,-2068.457845
265.142846,0.000000,-8290.306550,-1915.238745
265.143169,-666.185348,-8512.368333,-1762.019645
265.143491,-962.267725,-9104.533087,-1378.971896
265.143814,-1258.350101,-9474.636058,-766.095498
265.144136,-1110.308913,-9622.677246,-1149.143247
265.144458,-962.267725,-9326.594869,-1302.362347
265.144781,-814.226536,-9252.574275,-1302.362347
265.145103,-370.102971,-9400.615463,-1302.362347
265.145425,0.000000,-8956.491898,-2221.676944
265.145748,0.000000,-9104.533087,-2451.505594
265.146070,0.000000,-9548.656652,-1991.848295
265.146392,0.000000,-10436.903782,-2221.676944
265.146715,-222.061783,-10658.965565,-2451.505594
265.147037,444.123565,-10732.986159,-3064.381992
265.147360,888.247130,-10214.842000,-1838.629195
265.147682,1702.473667,-10140.821405,-1762.019645
265.148004,1776.494261,-9474.636058,-1762.019645
265.148327,1850.514855,-9252.574275,-1302.362347
265.148649,1480.411884,-9400.615463,-383.047749
265.148971,1332.370696,-9918.759623,0.000000
265.149294,1036.288319,-9400.615463,-766.095498
265.149616,148.041188,-8734.430116,-995.924147
265.149938,-370.102971,-8586.388927,-919.314598
265.150261,-666.185348,-8734.430116,-383.047749
265.150583,-962.267725,-8808.450710,0.000000
265.150906,-888.247130,-9400.615463,-612.876398
265.151228,-1406.391290,-9474.636058,-536.266849
265.151550,-1776.494261,-9474.636058,-306.438199
265.151873,-1702.473667,-8808.450710,-766.095498
265.152195,-1702.473667,-7920.203579,-1302.362347
265.152517,-1628.453072,-7920.203579,-1608.800546
265.152840,-1628.453072,-8142.265362,-1532.190996
265.153162,-2072.576638,-8734.430116,-1991.848295
265.153484,-2368.659014,-9178.553681,-2374.896044
265.153807,-2220.617826,-10066.800811,-2221.676944
265.154129,-1628.453072,-10140.821405,-2145.067394
265.154452,-1332.370696,-9844.739029,-2451.505594
265.154774,-1110.308913,-8882.471304,-2068.457845
265.155096,-444.123565,-8660.409521,-1685.410096
265.155419,0.000000,-8586.388927,-1685.410096
265.155741,0.000000,-8438.347739,-1302.362347
265.156063,-1332.370696,-8068.244768,-1991.848295
265.156386,-1628.453072,-9548.656652,-1915.238745
265.156708,-2146.597232,-10658.965565,-1762.019645
265.157030,-2146.597232,-10955.047942,-1378.971896
265.157353,-2072.576638,-10436.903782,-766.095498
265.157675,-1480.411884,-9696.697840,0.000000
265.157998,-148.041188,-9178.553681,-1532.190996
265.158320,444.123565,-8290.306550,-1838.629195
265.158642,518.144159,-8142.265362,-2298.286494
265.158965,666.185348,-8586.388927,-2451.505594
265.159287,1332.370696,-9696.697840,-2528.115143
265.159609,1036.288319,-10288.862594,-2911.162892
265.159932,666.185348,-11251.130318,-2451.505594
265.160254,518.144159,-11325.150913,-2604.724693
265.160576,592.164754,-10732.986159,-2451.505594
265.160899,888.247130,-9844.739029,-2451.505594
265.161221,1184.329507,-9548.656652,-2681.334243
265.161544,518.144159,-8660.409521,-2145.067394
265.161866,-222.061783,-8734.430116,-1302.362347
265.162188,-1184.329507,-9252.574275,-842.705048
265.162511,-1850.514855,-9770.718434,-995.924147
265.162833,-1924.535449,-9918.759623,-1149.143247
265.163155,-1554.432478,-9252.574275,-1072.533697
265.163478,-666.185348,-8808.450710,-842.705048
265.163800,222.061783,-8364.327145,-459.657299
265.164122,740.205942,-7698.141797,-383.047749
265.164445,814.226536,-7920.203579,-689.485948
265.164767,-370.102971,-8068.244768,-995.924147
265.165090,-888.247130,-9104.533087,-1991.848295
265.165412,-1332.370696,-10066.800811,-2681.334243
265.165734,-1924.535449,-10658.965565,-2681.334243
265.166057,-1480.411884,-11029.068536,-1838.629195
265.166379,-740.205942,-10732.986159,-1685.410096
265.166701,-444.123565,-10214.842000,-1762.019645
265.167024,0.000000,-9622.677246,-1685.410096
265.167346,222.061783,-9400.615463,-1532.190996
265.167668,148.041188,-8808.450710,-1378.971896
265.167991,0.000000,-8512.368333,-1455.581446
265.168313,-518.144159,-8290.306550,-689.485948
265.168636,-666.185348,-9030.512492,-459.657299
265.168958,-1036.288319,-9104.533087,-229.828649
265.169280,-1036.288319,-9178.553681,-536.266849
265.169603,-962.267725,-9178.553681,-995.924147
265.169925,-666.185348,-9400.615463,-842.705048
265.170247,-296.082377,-9326.594869,-1378.971896
265.170570,0.000000,-8956.491898,-1685.410096
265.170892,0.000000,-9178.553681,-1685.410096
265.171214,518.144159,-9622.677246,-1838.629195
265.171537,666.185348,-9770.718434,-1762.019645
265.171859,1110.308913,-10214.842000,-2451.505594
265.172182,962.267725,-10584.944971,-2298.286494
265.172504,1184.329507,-10658.965565,-1838.629195
265.172826,1554.432478,-10362.883188,-1915.238745
265.173149,1776.494261,-9696.697840,-1762.019645
265.173471,1406.391290,-8586.388927,-1378.971896
265.173793,1406.391290,-8882.471304,-1149.143247
265.174116,962.267725,-8808.450710,-995.924147
265.174438,148.041188,-8586.388927,-1072.533697
265.174760,-740.205942,-8512.368333,-919.314598
265.175083,-1184.329507,-9178.553681,-919.314598
265.175405,-1628.453072,-9474.636058,-919.314598
265.175728,-2220.617826,-9400.615463,-1149.143247
265.176050,-2072.576638,-9030.512492,-1149.143247
265.176372,-1332.370696,-8808.450710,-995.924147
265.176695,-1184.329507,-8142.265362,-1302.362347
265.177017,-518.144159,-7772.162391,-2068.457845
265.177339,-1036.288319,-8068.244768,-2374.896044
265.177662,-1480.411884,-8956.491898,-2298.286494
265.177984,-1628.453072,-9548.656652,-2374.896044
265.178306,-1850.514855,-9770.718434,-2528.115143
265.178629,-1924.535449,-10214.842000,-3447.429741
265.178951,-1480.411884,-10288.862594,-2757.943793
265.179274,-1110.308913,-9696.697840,-2298.286494
265.179596,-666.185348,-8956.491898,-2298.286494
265.179918,-370.102971,-9030.512492,-2145.067394
265.180241,-296.082377,-8956.491898,-1838.629195
265.180563,-666.185348,-9252.574275,-1378.971896
265.180885,-1332.370696,-9326.594869,-1302.362347
265.181208,-1776.494261,-9548.656652,-1532.190996
265.181530,-1850.514855,-9918.759623,-1455.581446
265.181852,-1776.494261,-10436.903782,-1685.410096
265.182175,-1480.411884,-9770.718434,-689.485948
265.182497,-1258.350101,-9622.677246,-536.266849
265.182820,-370.102971,-9400.615463,-1302.362347
265.183142,0.000000,-9030.512492,-1762.019645
265.183464,148.041188,-8660.409521,-1685.410096
265.183787,148.041188,-8808.450710,-1532.190996
265.184109,444.123565,-9770.718434,-2221.676944
265.184431,592.164754,-9992.780217,-2757.943793
265.184754,740.205942,-10362.883188,-2528.115143
265.185076,1036.288319,-10732.986159,-2145.067394
265.185398,1110.308913,-10214.842000,-1532.190996
265.185721,1184.329507,-10140.821405,-1915.238745
265.186043,814.226536,-9992.780217,-1685.410096
265.186366,666.185348,-9474.636058,-1302.362347
265.186688,0.000000,-8882.471304,-689.485948
265.187010,-962.267725,-8290.306550,-842.705048
265.187333,-1554.432478,-8734.430116,-306.438199
265.187655,-1702.473667,-9326.594869,-536.266849
265.187977,-1480.411884,-9030.512492,-306.438199
265.188300,-1184.329507,-8586.388927,0.000000
265.188622,-518.144159,-8290.306550,0.000000
265.188944,666.185348,-8068.244768,-383.047749
265.189267,296.082377,-7994.224174,-766.095498
265.189589,-148.041188,-8290.306550,-1072.533697
265.189912,-370.102971,-8734.430116,-1378.971896
265.190234,-740.205942,-9326.594869,-2221.676944
265.190556,-888.247130,-9992.780217,-2681.334243
265.190879,-666.185348,-10807.006753,-2757.943793
265.191201,-814.226536,-11029.068536,-1762.019645
265.191523,-592.164754,-10510.924376,-1455.581446
265.191846,0.000000,-9770.718434,-1915.238745
265.192168,444.123565,-8586.388927,-2298.286494
265.192491,148.041188,-8882.471304,-1838.629195
265.192813,-148.041188,-7920.203579,-1378.971896
265.193135,-296.082377,-7846.182985,-1149.143247
265.193458,-592.164754,-8216.285956,-766.095498
265.193780,-740.205942,-8808.450710,-766.095498
265.194103,-962.267725,-9104.533087,-383.047749
265.194425,-1628.453072,-9400.615463,-995.924147
265.194747,-962.267725,-9844.739029,-1455.581446
265.195070,-370.102971,-9622.677246,-1762.019645
265.195392,74.020594,-9252.574275,-2221.676944
265.195714,518.144159,-8808.450710,-2757.943793
265.196037,370.102971,-8956.491898,-2451.505594
265.196359,518.144159,-10362.883188,-2451.505594
265.196682,370.102971,-10658.965565,-3064.381992
265.197004,592.164754,-10955.047942,-3524.039291
265.197326,1036.288319,-10881.027347,-2681.334243
265.197649,1184.329507,-10362.883188,-1455.581446
265.197971,1924.535449,-9400.615463,-1915.238745
265.198294,2220.617826,-8660.409521,-1991.848295
265.198616,1998.556043,-8438.347739,-1378.971896
265.198938,1628.453072,-8734.430116,-1149.143247
265.199261,888.247130,-9030.512492,-1225.752797
265.199583,0.000000,-8882.471304,-1378.971896
265.199906,-962.267725,-9474.636058,-1225.752797
265.200228,-962.267725,-9770.718434,-919.314598
265.200550,-1480.411884,-9548.656652,-995.924147
265.200873,-1554.432478,-8586.388927,-1302.362347
265.201195,-1702.473667,-8734.430116,-1991.848295
265.201518,-1628.453072,-8512.368333,-1455.581446
265.201840,-2072.576638,-8438.347739,-1991.848295
265.202162,-2738.761985,-8438.347739,-2374.896044
265.202485,-3034.844362,-9252.574275,-2374.896044
265.202807,-2960.823768,-10066.800811,-2374.896044
265.203130,-2886.803174,-9696.697840,-2757.943793
265.203452,-2368.659014,-9622.677246,-2911.162892
265.203774,-1480.411884,-9696.697840,-2604.724693
265.204097,-518.144159,-10066.800811,-2145.067394
265.204419,0.000000,-9474.636058,-2451.505594
265.204742,296.082377,-9252.574275,-1608.800546
265.205064,222.061783,-9252.574275,-1608.800546
265.205386,740.205942,-9474.636058,-1302.362347
265.205709,444.123565,-9104.533087,-1225.752797
265.206031,-296.082377,-8956.491898,-1149.143247
265.206354,-814.226536,-9622.677246,-383.047749
265.206676,-370.102971,-9622.677246,-766.095498
265.206998,-1110.308913,-9770.718434,-459.657299
265.207321,-1332.370696,-10140.821405,-459.657299
265.207643,-1776.494261,-9918.759623,-536.266849
265.207966,-1258.350101,-9622.677246,-766.095498
265.208288,-740.205942,-9474.636058,-1302.362347
265.208610,-444.123565,-8956.491898,-1838.629195
265.208933,0.000000,-8512.368333,-2298.286494
265.209255,370.102971,-8956.491898,-2374.896044
265.209577,740.205942,-9918.759623,-2298.286494
265.209900,740.205942,-10362.883188,-1991.848295
265.210222,814.226536,-10881.027347,-2145.067394
265.210545,1110.308913,-10436.903782,-2068.457845
265.210867,1110.308913,-9474.636058,-1838.629195
265.211189,1258.350101,-9030.512492,-1762.019645
265.211512,666.185348,-7994.224174,-689.485948
265.211834,370.102971,-8290.306550,-612.876398
265.212157,-518.144159,-8438.347739,-459.657299
265.212479,-1480.411884,-9178.553681,-536.266849
265.212801,-1998.556043,-9548.656652,-612.876398
265.213124,-1924.535449,-9252.574275,-459.657299
265.213446,-814.226536,-9178.553681,153.219100
265.213769,444.123565,-8364.327145,-229.828649
265.214091,1406.391290,-7920.203579,-612.876398
265.214413,1036.288319,-7402.059420,-459.657299
265.214736,148.041188,-7846.182985,-612.876398
265.215058,-592.164754,-8734.430116,-1915.238745
265.215381,-1332.370696,-10140.821405,-2757.943793
265.215703,-1924.535449,-10881.027347,-2911.162892
265.216025,-1924.535449,-11103.089130,-2451.505594
265.216348,-1776.494261,-10436.903782,-1915.238745
265.216670,-962.267725,-9696.697840,-1991.848295
265.216993,-444.123565,-8808.450710,-2068.457845
265.217315,0.000000,-8586.388927,-2221.676944
265.217637,-444.123565,-8068.244768,-2068.457845
265.217960,-962.267725,-8142.265362,-1915.238745
265.218282,-1406.391290,-8364.327145,-1685.410096
265.218605,-1036.288319,-9474.636058,-1225.752797
265.218927,-1258.350101,-9696.697840,-1225.752797
265.219249,-1258.350101,-9474.636058,-1225.752797
265.219572,-1110.308913,-9326.594869,-1378.971896
265.219894,-592.164754,-9326.594869,-1378.971896
265.220217,0.000000,-9104.533087,-1608.800546
265.220539,-148.041188,-9252.574275,-2451.505594
265.220861,0.000000,-9474.636058,-2374.896044
265.221184,0.000000,-9918.759623,-2068.457845
265.221506,74.020594,-10436.903782,-2451.505594
265.221829,740.205942,-10807.006753,-2834.553343
265.222151,1036.288319,-10658.965565,-2681.334243
265.222473,1776.494261,-10584.944971,-2068.457845
265.222796,2220.617826,-10140.821405,-1991.848295
265.223118,2368.659014,-9548.656652,-1915.238745
265.223440,2442.679609,-9400.615463,-1455.581446
265.223763,2368.659014,-9696.697840,-1532.190996
265.224085,1776.494261,-9474.636058,-1072.533697
265.224408,814.226536,-9252.574275,-1302.362347
265.224730,222.061783,-8808.450710,-1455.581446
265.225052,-518.144159,-9030.512492,-1225.752797
265.225375,-888.247130,-9326.594869,-842.705048
265.225697,-1776.494261,-9104.533087,-689.485948
265.226020,-2146.597232,-9326.594869,-1302.362347
265.226342,-2442.679609,-9252.574275,-1302.362347
265.226664,-2442.679609,-8512.368333,-1378.971896
265.226987,-2072.576638,-8068.244768,-1532.190996
265.227309,-2220.617826,-7772.162391,-1915.238745
265.227632,-2072.576638,-8660.409521,-1838.629195
265.227954,-1924.535449,-9252.574275,-1685.410096
265.228276,-2146.597232,-9918.759623,-2221.676944
265.228599,-1998.556043,-10214.842000,-2374.896044
265.228921,-1924.535449,-10955.047942,-1455.581446
265.229244,-740.205942,-10436.903782,-2145.067394
265.229566,0.000000,-9474.636058,-1991.848295
265.229888,296.082377,-8808.450710,-1608.800546
265.230211,1110.308913,-8438.347739,-995.924147
265.230533,1036.288319,-8142.265362,-1225.752797
265.230856,370.102971,-8586.388927,-766.095498
265.231178,-592.164754,-9252.574275,-766.095498
265.231500,-1184.329507,-10066.800811,-995.924147
265.231823,-1776.494261,-10732.986159,-1149.143247
265.232145,-1776.494261,-10807.006753,0.000000
265.232468,-1924.535449,-9770.718434,-459.657299
265.232790,-1554.432478,-9400.615463,-612.876398
265.233112,-1036.288319,-8586.388927,-995.924147
265.233435,-814.226536,-8142.265362,-1608.800546
265.233757,-666.185348,-8364.327145,-1991.848295
265.234080,-740.205942,-8586.388927,-1762.019645
265.234402,-222.061783,-9696.697840,-2451.505594
265.234724,0.000000,-10584.944971,-2145.067394
265.235047,74.020594,-10732.986159,-2451.505594
265.235369,370.102971,-10732.986159,-2451.505594
265.235691,814.226536,-9622.677246,-2374.896044
265.236014,814.226536,-8956.491898,-1838.629195
265.236336,1036.288319,-8586.388927,-1762.019645
265.236659,592.164754,-8512.368333,-1378.971896
265.236981,-518.144159,-8586.388927,-842.705048
265.237303,-1406.391290,-9400.615463,-153.219100
265.237626,-1406.391290,-9696.697840,-689.485948
265.237948,-1554.432478,-9252.574275,-995.924147
265.238271,-740.205942,-8734.430116,-689.485948
265.238593,222.061783,-8216.285956,-459.657299
265.238915,1184.329507,-7994.224174,-383.047749
265.239238,1110.308913,-7920.203579,-306.438199
265.239560,1184.329507,-8364.327145,-612.876398
265.239883,74.020594,-9030.512492,-1378.971896
265.240205,-888.247130,-9548.656652,-2451.505594
265.240527,-1332.370696,-10140.821405,-3064.381992
265.240850,-1628.453072,-10658.965565,-2451.505594
265.241172,-1480.411884,-10732.986159,-1762.019645
265.241495,-962.267725,-10288.862594,-1991.848295
265.241817,-592.164754,-9770.718434,-2451.505594
265.242139,-444.123565,-9474.636058,-2451.505594
265.242462,-592.164754,-9252.574275,-2145.067394
265.242784,-444.123565,-8438.347739,-2145.067394
265.243107,-1258.350101,-8068.244768,-2068.457845
265.243429,-1036.288319,-8734.430116,-1762.019645
265.243751,-1406.391290,-9326.594869,-1225.752797
265.244074,-1776.494261,-9548.656652,-1378.971896
265.244396,-1406.391290,-9696.697840,-1608.800546
265.244719,-1184.329507,-10066.800811,-1685.410096
265.245041,-296.082377,-9548.656652,-1915.238745
265.245363,518.144159,-9770.718434,-2068.457845
265.245686,666.185348,-9252.574275,-2374.896044
265.246008,1110.308913,-9326.594869,-1685.410096
265.246331,1184.329507,-9992.780217,-2451.505594
265.246653,1110.308913,-10362.883188,-2528.115143
265.246975,1036.288319,-10510.924376,-2757.943793
265.247298,1184.329507,-10732.986159,-2451.505594
265.247620,1628.453072,-10584.944971,-1685.410096
265.247943,2368.659014,-10066.800811,-1991.848295
265.248265,2442.679609,-9474.636058,-1378.971896
265.248587,2368.659014,-9104.533087,-995.924147
265.248910,1628.453072,-9030.512492,-689.485948
265.249232,592.164754,-9104.533087,-842.705048
265.249554,-296.082377,-8734.430116,-766.095498
265.249877,-1554.432478,-8438.347739,-689.485948
265.250199,-2072.576638,-9030.512492,-995.924147
265.250522,-2368.659014,-9326.594869,-842.705048
265.250844,-2590.720797,-9178.553681,-689.485948
265.251166,-2664.741391,-8660.409521,-1302.362347
265.251489,-2368.659014,-9178.553681,-689.485948
265.251811,-2072.576638,-8068.244768,-1149.143247
265.252134,-2146.597232,-7772.162391,-1762.019645
265.252456,-2294.638420,-8660.409521,-1762.019645
265.252778,-2368.659014,-9252.574275,-1378.971896
265.253101,-2294.638420,-9326.594869,-2221.676944
265.253423,-1998.556043,-9622.677246,-2145.067394
265.253746,-1406.391290,-9696.697840,-2451.505594
265.254068,-666.185348,-9918.759623,-1915.238745
265.254390,0.000000,-9400.615463,-1685.410096
265.254713,592.164754,-9252.574275,-1302.362347
265.255035,740.205942,-9104.533087,-1225.752797
265.255358,814.226536,-9178.553681,-1225.752797
265.255680,222.061783,-8882.471304,-1149.143247
265.256002,-666.185348,-8882.471304,-1072.533697
265.256325,-1110.308913,-9252.574275,-1149.143247
265.256647,-1628.453072,-9548.656652,-536.266849
265.256970,-1480.411884,-9992.780217,-1225.752797
265.257292,-1702.473667,-10140.821405,-536.266849
265.257614,-1554.432478,-10066.800811,-383.047749
265.257937,-1184.329507,-9770.718434,-842.705048
265.258259,-518.144159,-8882.471304,-1915.238745
265.258582,-370.102971,-8142.265362,-2221.676944
265.258904,0.000000,-8290.306550,-2374.896044
265.259226,666.185348,-8882.471304,-2374.896044
265.259549,888.247130,-9622.677246,-2528.115143
265.259871,1110.308913,-10288.862594,-2757.943793
265.260194,1036.288319,-10584.944971,-2374.896044
265.260516,888.247130,-10807.006753,-2451.505594
265.260838,1110.308913,-10288.862594,-2451.505594
265.261161,814.226536,-9400.615463,-2374.896044
265.261483,444.123565,-8586.388927,-1991.848295
265.261805,0.000000,-8290.306550,-1149.143247
265.262128,-518.144159,-9104.533087,-1072.533697
265.262450,-1480.411884,-9474.636058,-1072.533697
265.262773,-1776.494261,-9696.697840,-1225.752797
265.263095,-1480.411884,-9474.636058,-1072.533697
265.263417,-666.185348,-8882.471304,-536.266849
265.263740,888.247130,-8660.409521,-229.828649
265.264062,1036.288319,-8142.265362,-383.047749
265.264385,814.226536,-7846.182985,-766.095498
265.264707,0.000000,-7994.224174,-1225.752797
265.265029,-666.185348,-8660.409521,-2298.286494
265.265352,-1332.370696,-9696.697840,-2987.772442
265.265674,-2146.597232,-10584.944971,-2987.772442
265.265997,-2146.597232,-11251.130318,-2221.676944
265.266319,-1480.411884,-11029.068536,-1838.629195
265.266641,-740.205942,-10732.986159,-2068.457845
265.266964,0.000000,-9918.759623,-1991.848295
265.267286,0.000000,-9104.533087,-1915.238745
265.267609,-370.102971,-8364.327145,-2221.676944
265.267931,-666.185348,-8068.244768,-1991.848295
265.268253,-1036.288319,-8216.285956,-1455.581446
265.268576,-1184.329507,-9252.574275,-995.924147
265.268898,-1036.288319,-9622.677246,-1302.362347
265.269221,-1480.411884,-9844.739029,-1072.533697
265.269543,-1554.432478,-9400.615463,-1072.533697
265.269865,-888.247130,-9474.636058,-1455.581446
265.270188,-296.082377,-8882.471304,-1532.190996
265.270510,370.102971,-8808.450710,-2068.457845
265.270833,592.164754,-9400.615463,-2068.457845
265.271155,518.144159,-9770.718434,-1455.581446
265.271477,666.185348,-10436.903782,-1838.629195
265.271800,740.205942,-10584.944971,-2451.505594
265.272122,1406.391290,-10807.006753,-1991.848295
265.272445,1554.432478,-10436.903782,-1149.143247
265.272767,1998.556043,-10066.800811,-1225.752797
265.273089,2146.597232,-9252.574275,-1302.362347
265.273412,2220.617826,-8734.430116,-1225.752797
265.273734,1702.473667,-8586.388927,-995.924147
265.274057,740.205942,-9178.553681,-229.828649
265.274379,148.041188,-8734.430116,-995.924147
265.274701,-370.102971,-8512.368333,-1532.190996
265.275024,-592.164754,-9252.574275,-842.705048
265.275346,-962.267725,-9326.594869,-536.266849
265.275668,-1110.308913,-9474.636058,-306.438199
265.275991,-1924.535449,-9400.615463,-766.095498
265.276313,-2220.617826,-9474.636058,-919.314598
265.276636,-2220.617826,-9030.512492,-1302.362347
265.276958,-2146.597232,-8142.265362,-1991.848295
265.277280,-1850.514855,-8216.285956,-1915.238745
265.277603,-1480.411884,-7920.203579,-1149.143247
265.277925,-1850.514855,-8734.430116,-1608.800546
265.278248,-1776.494261,-9030.512492,-2145.067394
265.278570,-1628.453072,-9622.677246,-2221.676944
265.278892,-1258.350101,-9770.718434,-2757.943793
265.279215,-962.267725,-9696.697840,-2451.505594
265.279537,-444.123565,-9400.615463,-2451.505594
265.279860,74.020594,-8956.491898,-1838.629195
265.280182,962.267725,-8660.409521,-1838.629195
265.280504,888.247130,-8956.491898,-1838.629195
265.280827,222.061783,-8586.388927,-1838.629195
265.281149,-592.164754,-9326.594869,-1991.848295
265.281472,-1036.288319,-10140.821405,-1685.410096
265.281794,-1776.494261,-10658.965565,-1915.238745
265.282116,-2146.597232,-10584.944971,-1685.410096
265.282439,-2368.659014,-9844.739029,-995.924147
265.282761,-1406.391290,-9622.677246,-919.314598
265.283084,-962.267725,-9178.553681,-1455.581446
265.283406,-592.164754,-8512.368333,-1991.848295
265.283728,-296.082377,-8438.347739,-2221.676944
265.284051,74.020594,-8808.450710,-2298.286494
265.284373,296.082377,-9400.615463,-2374.896044
265.284696,370.102971,-10510.924376,-2528.115143
265.285018,0.000000,-11251.130318,-2604.724693
265.285340,0.000000,-10955.047942,-2834.553343
265.285663,370.102971,-10436.903782,-2757.943793
265.285985,1036.288319,-9992.780217,-2604.724693
265.286308,1036.288319,-9548.656652,-2145.067394
265.286630,814.226536,-9030.512492,-1532.190996
265.286952,148.041188,-9104.533087,-919.314598
265.287275,-592.164754,-9622.677246,-689.485948
265.287597,-1406.391290,-9992.780217,-612.876398
265.287920,-1480.411884,-9622.677246,-689.485948
265.288242,-1332.370696,-9252.574275,0.000000
265.288564,-148.041188,-8142.265362,153.219100
265.288887,1184.329507,-7550.100608,0.000000
265.289209,1702.473667,-7179.997637,0.000000
265.289531,1480.411884,-7179.997637,459.657299
265.289854,296.082377,-7550.100608,-229.828649
265.290176,-296.082377,-9030.512492,-1149.143247
265.290499,-962.267725,-10214.842000,-2374.896044
265.290821,-1850.514855,-10807.006753,-2221.676944
265.291143,-2146.597232,-11251.130318,-1991.848295
265.291466,-1554.432478,-10584.944971,-1762.019645
265.291788,-814.226536,-9770.718434,-1608.800546
265.292111,0.000000,-9178.553681,-2145.067394
265.292433,0.000000,-8808.450710,-1915.238745
265.292755,-222.061783,-8364.327145,-1762.019645
265.293078,-740.205942,-8068.244768,-1302.362347
265.293400,-1258.350101,-8438.347739,-995.924147
265.293722,-1036.288319,-9326.594869,-842.705048
265.294045,-962.267725,-9474.636058,-536.266849
265.294367,-962.267725,-9178.553681,-383.047749
265.294689,-296.082377,-8586.388927,-842.705048
265.295012,740.205942,-9030.512492,-689.485948
265.295334,962.267725,-8660.409521,-1685.410096
265.295657,1258.350101,-8660.409521,-1991.848295
265.295979,666.185348,-8956.491898,-1762.019645
265.296301,148.041188,-9622.677246,-1991.848295
265.296624,0.000000,-10214.842000,-2451.505594
265.296946,74.020594,-11029.068536,-3217.601092
265.297268,148.041188,-10955.047942,-2757.943793
265.297591,518.144159,-10584.944971,-2298.286494
265.297913,888.247130,-10214.842000,-2145.067394
265.298235,1332.370696,-9178.553681,-1762.019645
265.298558,1406.391290,-9548.656652,-1915.238745
265.298880,888.247130,-9474.636058,-1149.143247
265.299203,0.000000,-9178.553681,-1378.971896
265.299525,-962.267725,-8882.471304,-1838.629195
265.299847,-1406.391290,-8882.471304,-1915.238745
265.300170,-1184.329507,-8882.471304,-1225.752797
265.300492,-1332.370696,-9474.636058,-995.924147
265.300814,-1184.329507,-9400.615463,-919.314598
265.301137,-962.267725,-9030.512492,-919.314598
265.301459,-444.123565,-8808.450710,-1149.143247
265.301781,-296.082377,-7772.162391,-1302.362347
265.302104,-1184.329507,-7476.080014,-2068.457845
265.302426,-1332.370696,-7994.224174,-1991.848295
265.302748,-1628.453072,-8586.388927,-1915.238745
265.303071,-1850.514855,-9104.533087,-2221.676944
265.303393,-1850.514855,-9474.636058,-2604.724693
265.303716,-1480.411884,-10066.800811,-2604.724693
265.304038,-962.267725,-10658.965565,-2681.334243
265.304360,-592.164754,-10288.862594,-2298.286494
265.304683,-296.082377,-9622.677246,-1991.848295
265.305005,-148.041188,-9030.512492,-1455.581446
265.305327,222.061783,-9252.574275,-2145.067394
265.305650,-592.164754,-8734.430116,-1608.800546
265.305972,-962.267725,-8882.471304,-1378.971896
265.306294,-1332.370696,-9400.615463,-1608.800546
265.306617,-1332.370696,-10066.800811,-1378.971896
265.306939,-962.267725,-10288.862594,-1225.752797
265.307262,-888.247130,-10140.821405,-842.705048
265.307584,-740.205942,-9770.718434,-536.266849
265.307906,-296.082377,-9252.574275,-766.095498
265.308229,0.000000,-8364.327145,-1608.800546
265.308551,0.000000,-8142.265362,-1991.848295
265.308873,148.041188,-8512.368333,-1225.752797
265.309196,518.144159,-9178.553681,-1991.848295
265.309518,666.185348,-10140.821405,-2451.505594
265.309840,592.164754,-11029.068536,-2451.505594
265.310163,592.164754,-11547.212695,-2221.676944
265.310485,740.205942,-10807.006753,-2298.286494
265.310808,592.164754,-10584.944971,-2221.676944
265.311130,222.061783,-9770.718434,-1991.848295
265.311452,0.000000,-9178.553681,-1685.410096
265.311775,-666.185348,-8808.450710,-1149.143247
265.312097,-1628.453072,-8438.347739,0.000000
265.312419,-1924.535449,-9178.553681,-459.657299
265.312742,-1998.556043,-9252.574275,-536.266849
265.313064,-1406.391290,-8882.471304,-459.657299
265.313386,-666.185348,-8290.306550,0.000000
265.313709,444.123565,-7698.141797,0.000000
265.314031,296.082377,-6883.915261,76.609550
265.314353,296.082377,-7179.997637,-153.219100
265.314676,-370.102971,-7624.121203,-612.876398
265.314998,-1110.308913,-8882.471304,-1762.019645
265.315321,-1480.411884,-9548.656652,-2604.724693
265.315643,-1628.453072,-10436.903782,-2451.505594
265.315965,-1480.411884,-10362.883188,-1762.019645
265.316288,-1406.391290,-10362.883188,-1455.581446
265.316610,-1258.350101,-9918.759623,-1991.848295
265.316932,-888.247130,-9474.636058,-2451.505594
265.317255,-814.226536,-9326.594869,-2757.943793
265.317577,-1258.350101,-8216.285956,-2145.067394
265.317899,-1258.350101,-8586.388927,-1915.238745
265.318222,-888.247130,-8808.450710,-1608.800546
265.318544,-296.082377,-9326.594869,-536.266849
265.318867,-222.061783,-9326.594869,-766.095498
265.319189,0.000000,-9252.574275,-383.047749
265.319511,0.000000,-9178.553681,-1302.362347
265.319834,296.082377,-9104.533087,-1378.971896
265.320156,666.185348,-9400.615463,-1608.800546
265.320478,888.247130,-9030.512492,-2221.676944
265.320801,1036.288319,-9104.533087,-2298.286494
265.321123,1332.370696,-9696.697840,-2374.896044
265.321445,1258.350101,-10584.944971,-2451.505594
265.321768,1110.308913,-10510.924376,-2834.553343
265.322090,962.267725,-10807.006753,-2757.943793
265.322412,888.247130,-10214.842000,-2298.286494
265.322735,1184.329507,-9696.697840,-1991.848295
265.323057,1406.391290,-9548.656652,-2451.505594
265.323380,1110.308913,-9030.512492,-2451.505594
265.323702,592.164754,-9178.553681,-1532.190996
265.324024,0.000000,-9400.615463,-1455.581446
265.324347,-222.061783,-9030.512492,-919.314598
265.324669,-666.185348,-9622.677246,-1532.190996
265.324991,-1110.308913,-9548.656652,-1225.752797
265.325314,-1110.308913,-9400.615463,-842.705048
265.325636,-962.267725,-9104.533087,-995.924147
265.325958,-1184.329507,-8808.450710,-612.876398
265.326281,-962.267725,-8586.388927,-1072.533697
265.326603,-740.205942,-8290.306550,-1072.533697
265.326926,-888.247130,-7994.224174,-1838.629195
265.327248,-1184.329507,-8512.368333,-1838.629195
265.327570,-1332.370696,-8882.471304,-1685.410096
265.327893,-1184.329507,-9770.718434,-1455.581446
265.328215,-1332.370696,-9474.636058,-1838.629195
265.328537,-1406.391290,-9696.697840,-2451.505594
265.328860,-1110.308913,-9548.656652,-2374.896044
265.329182,-1036.288319,-9548.656652,-2451.505594
265.329504,-740.205942,-9326.594869,-1762.019645
265.329827,-962.267725,-9326.594869,-1302.362347
265.330149,-740.205942,-9622.677246,-1455.581446
265.330471,-814.226536,-9474.636058,-1149.143247
265.330794,-1628.453072,-9178.553681,-1455.581446
265.331116,-1628.453072,-9252.574275,-1378.971896
265.331439,-2220.617826,-9030.512492,-1685.410096
265.331761,-1850.514855,-9548.656652,-1532.190996
265.332083,-1850.514855,-9770.718434,-919.314598
265.332406,-1776.494261,-9918.759623,-306.438199
265.332728,-1554.432478,-9622.677246,-766.095498
265.333050,-518.144159,-9400.615463,-1225.752797
265.333373,-222.061783,-8956.491898,-1915.238745
265.333695,0.000000,-8882.471304,-1685.410096
265.334017,222.061783,-8660.409521,-1838.629195
265.334340,666.185348,-8882.471304,-2374.896044
265.334662,1110.308913,-9918.759623,-2451.505594
265.334985,1036.288319,-10510.924376,-2221.676944
265.335307,1110.308913,-10881.027347,-2374.896044
265.335629,962.267725,-10658.965565,-2451.505594
265.335952,888.247130,-10362.883188,-1991.848295
265.336274,888.247130,-9622.677246,-1608.800546
265.336596,74.020594,-8290.306550,-919.314598
265.336919,-370.102971,-8438.347739,-689.485948
265.337241,-1110.308913,-8586.388927,-153.219100
265.337563,-1702.473667,-8882.471304,-612.876398
265.337886,-1924.535449,-8808.450710,-842.705048
265.338208,-1776.494261,-8660.409521,-229.828649
265.338531,-592.164754,-8808.450710,-459.657299
265.338853,296.082377,-8660.409521,-383.047749
265.339175,518.144159,-8068.244768,-612.876398
265.339498,222.061783,-7994.224174,-919.314598
265.339820,-222.061783,-8142.265362,-1685.410096
265.340142,-444.123565,-8660.409521,-2528.115143
265.340465,-1184.329507,-9474.636058,-3217.601092
265.340787,-1480.411884,-10214.842000,-3064.381992
265.341109,-1406.391290,-10955.047942,-2451.505594
265.341432,-1258.350101,-10732.986159,-2068.457845
265.341754,-666.185348,-10510.924376,-2221.676944
265.342076,0.000000,-9622.677246,-2374.896044
265.342399,148.041188,-9252.574275,-1991.848295
265.342721,296.082377,-8364.327145,-1991.848295
265.343044,74.020594,-8142.265362,-1915.238745
265.343366,0.000000,-8216.285956,-1455.581446
265.343688,0.000000,-9178.553681,-995.924147
265.344011,-370.102971,-9548.656652,-1072.533697
265.344333,-814.226536,-9844.739029,-1302.362347
265.344655,-592.164754,-10288.862594,-1378.971896
265.344978,0.000000,-10066.800811,-1149.143247
265.345300,370.102971,-9326.594869,-2145.067394
265.345622,518.144159,-9030.512492,-2221.676944
265.345945,814.226536,-9178.553681,-2374.896044
265.346267,666.185348,-9992.780217,-1991.848295
265.346590,444.123565,-10436.903782,-2451.505594
265.346912,444.123565,-10658.965565,-2604.724693
265.347234,444.123565,-10732.986159,-2451.505594
265.347557,740.205942,-10436.903782,-1915.238745
265.347879,1110.308913,-9770.718434,-2068.457845
265.348201,1258.350101,-9030.512492,-1762.019645
265.348524,1258.350101,-8882.471304,-1838.629195
265.348846,740.205942,-8364.327145,-459.657299
265.349168,0.000000,-9030.512492,-842.705048
265.349491,-592.164754,-9252.574275,-1072.533697
265.349813,-1258.350101,-9474.636058,-919.314598
265.350135,-1184.329507,-9548.656652,-842.705048
265.350458,-1332.370696,-9326.594869,-383.047749
265.350780,-1184.329507,-8882.471304,-689.485948
265.351103,-1036.288319,-8586.388927,-306.438199
265.351425,-888.247130,-8512.368333,-383.047749
265.351747,-1258.350101,-8068.244768,-1072.533697
265.352070,-1998.556043,-7846.182985,-766.095498
265.352392,-2294.638420,-8734.430116,-1532.190996
265.352714,-2368.659014,-9326.594869,-1608.800546
265.353037,-2664.741391,-9474.636058,-1991.848295
265.353359,-2516.700203,-9474.636058,-2374.896044
265.353681,-2220.617826,-9326.594869,-2451.505594
265.354004,-1406.391290,-9474.636058,-2834.553343
265.354326,-1554.432478,-9400.615463,-2374.896044
265.354649,-1332.370696,-9104.533087,-1991.848295
265.354971,-666.185348,-9474.636058,-1838.629195
265.355293,-296.082377,-9696.697840,-1685.410096
265.355616,0.000000,-9474.636058,-1378.971896
265.355938,-148.041188,-9178.553681,-1378.971896
265.356260,-370.102971,-9474.636058,-995.924147
265.356583,-814.226536,-9696.697840,-995.924147
265.356905,-888.247130,-9622.677246,-766.095498
265.357227,-1480.411884,-9326.594869,-689.485948
265.357550,-1258.350101,-9252.574275,-306.438199
265.357872,-592.164754,-9030.512492,-1378.971896
265.358194,-222.061783,-8364.327145,-1838.629195
265.358517,-370.102971,-7994.224174,-1915.238745
265.358839,74.020594,-8586.388927,-1915.238745
265.359162,666.185348,-9326.594869,-2681.334243
265.359484,444.123565,-9844.739029,-2757.943793
265.359806,370.102971,-10658.965565,-2911.162892
265.360129,370.102971,-11769.274478,-2604.724693
265.360451,592.164754,-11325.150913,-2604.724693
265.360773,740.205942,-10658.965565,-2298.286494
265.361096,1184.329507,-10140.821405,-2221.676944
265.361418,1110.308913,-9252.574275,-1915.238745
265.361740,592.164754,-8808.450710,-1149.143247
265.362063,-296.082377,-8808.450710,-612.876398
265.362385,-1110.308913,-8956.491898,-383.047749
265.362708,-1480.411884,-8956.491898,0.000000
265.363030,-1184.329507,-8956.491898,-766.095498
265.363352,-370.102971,-8438.347739,-306.438199
265.363675,592.164754,-8142.265362,0.000000
265.363997,1406.391290,-7698.141797,-153.219100
265.364319,1776.494261,-7550.100608,-459.657299
265.364642,444.123565,-7550.100608,-1149.143247
265.364964,-296.082377,-8660.409521,-1762.019645
265.365286,-1184.329507,-9992.780217,-2604.724693
265.365609,-1702.473667,-10510.924376,-3140.991542
265.365931,-2146.597232,-11251.130318,-2987.772442
265.366253,-2220.617826,-10955.047942,-2068.457845
265.366576,-1850.514855,-10807.006753,-2298.286494
265.366898,-1406.391290,-9770.718434,-2451.505594
265.367221,-1184.329507,-9474.636058,-2451.505594
265.367543,-1184.329507,-9030.512492,-2451.505594
265.367865,-1184.329507,-8586.388927,-1915.238745
265.368188,-1258.350101,-8734.430116,-1685.410096
265.368510,-1406.391290,-9178.553681,-1225.752797
265.368832,-1184.329507,-9696.697840,-842.705048
265.369155,-888.247130,-9548.656652,-766.095498
265.369477,-962.267725,-9178.553681,-612.876398
265.369799,74.020594,-9474.636058,-1455.581446
265.370122,888.247130,-9326.594869,-1532.190996
265.370444,1110.308913,-9252.574275,-1838.629195
265.370767,888.247130,-9252.574275,-1685.410096
265.371089,888.247130,-9770.718434,-995.924147
265.371411,518.144159,-10288.862594,-1378.971896
265.371734,518.144159,-10510.924376,-2604.724693
265.372056,296.082377,-10510.924376,-2757.943793
265.372378,370.102971,-10362.883188,-1991.848295
265.372701,666.185348,-10140.821405,-1608.800546
265.373023,1110.308913,-9622.677246,-1915.238745
265.373345,444.123565,-8882.471304,-1532.190996
265.373668,148.041188,-9252.574275,-1455.581446
265.373990,-370.102971,-9474.636058,-1225.752797
265.374313,-814.226536,-9178.553681,-1532.190996
265.374635,-1184.329507,-8808.450710,-1149.143247
265.374957,-1332.370696,-9030.512492,-1072.533697
265.375280,-1110.308913,-8882.471304,-536.266849
265.375602,-888.247130,-8882.471304,-612.876398
265.375924,-1036.288319,-8808.450710,-612.876398
265.376247,-666.185348,-8586.388927,-153.219100
265.376569,-222.061783,-8068.244768,-689.485948
265.376891,-148.041188,-8068.244768,-1302.362347
265.377214,-740.205942,-7920.203579,-1072.533697
265.377536,-814.226536,-8660.409521,-1225.752797
265.377858,-1036.288319,-9030.512492,-1532.190996
265.378181,-1258.350101,-9252.574275,-1685.410096
265.378503,-1036.288319,-9474.636058,-2298.286494
265.378826,-666.185348,-9918.759623,-2298.286494
265.379148,-370.102971,-10066.800811,-2221.676944
265.379470,-222.061783,-9844.739029,-2221.676944
265.379793,0.000000,-9548.656652,-2068.457845
265.380115,296.082377,-9474.636058,-1762.019645
265.380437,74.020594,-9252.574275,-1838.629195
265.380760,-296.082377,-8956.491898,-1532.190996
265.381082,-814.226536,-9252.574275,-1838.629195
265.381404,-1036.288319,-9696.697840,-1378.971896
265.381727,-962.267725,-9696.697840,-1455.581446
265.382049,-1480.411884,-9992.780217,-1378.971896
265.382372,-1850.514855,-9844.739029,-689.485948
265.382694,-1554.432478,-9548.656652,-842.705048
265.383016,-888.247130,-8734.430116,-1378.971896
265.383339,-370.102971,-8068.244768,-2451.505594
265.383661,-222.061783,-7920.203579,-2298.286494
265.383983,-148.041188,-8734.430116,-2374.896044
265.384306,0.000000,-9326.594869,-2451.505594
265.384628,74.020594,-10658.965565,-2834.553343
265.384950,222.061783,-11547.212695,-2451.505594
265.385273,0.000000,-11325.150913,-2451.505594
265.385595,148.041188,-10881.027347,-2834.553343
265.385917,370.102971,-10362.883188,-2451.505594
265.386240,518.144159,-9844.739029,-2145.067394
265.386562,148.041188,-8956.491898,-1762.019645
265.386885,-1036.288319,-8364.327145,-689.485948
265.387207,-1258.350101,-9030.512492,-995.924147
265.387529,-1850.514855,-9474.636058,-842.705048
265.387852,-1702.473667,-9474.636058,-689.485948
265.388174,-1036.288319,-8956.491898,-536.266849
265.388496,0.000000,-8142.265362,536.266849
265.388819,962.267725,-7624.121203,0.000000
265.389141,1110.308913,-7476.080014,-229.828649
265.389463,740.205942,-7624.121203,-459.657299
265.389786,-148.041188,-8142.265362,-1149.143247
265.390108,-740.205942,-9400.615463,-1762.019645
265.390431,-1702.473667,-9474.636058,-2528.115143
265.390753,-1924.535449,-10436.903782,-2451.505594
265.391075,-2146.597232,-10955.047942,-2221.676944
265.391398,-1628.453072,-10807.006753,-1991.848295
265.391720,-1110.308913,-9992.780217,-1915.238745
265.392042,-592.164754,-9326.594869,-2221.676944
265.392365,-518.144159,-9178.553681,-1915.238745
265.392687,-740.205942,-8586.388927,-1838.629195
265.393009,-740.205942,-8660.409521,-1532.190996
265.393332,-666.185348,-8808.450710,-995.924147
265.393654,0.000000,-9030.512492,-612.876398
265.393976,222.061783,-9474.636058,-689.485948
265.394299,222.061783,-9252.574275,-842.705048
265.394621,592.164754,-9474.636058,-842.705048
265.394944,1184.329507,-9696.697840,-536.266849
265.395266,1702.473667,-9474.636058,-995.924147
265.395588,1258.350101,-9178.553681,-1532.190996
265.395911,1480.411884,-9178.553681,-1302.362347
265.396233,1702.473667,-9622.677246,-1378.971896
265.396556,1480.411884,-9918.759623,-1915.238745
265.396878,1258.350101,-9696.697840,-2451.505594
265.397201,1258.350101,-9992.780217,-2528.115143
265.397523,888.247130,-10288.862594,-1838.629195
265.397845,814.226536,-10214.842000,-1608.800546
265.398168,148.041188,-9696.697840,-1608.800546
265.398490,0.000000,-9548.656652,-1991.848295
265.398813,-888.247130,-9178.553681,-1608.800546
265.399135,-1110.308913,-8586.388927,-842.705048
265.399458,-1258.350101,-8512.368333,-1991.848295
265.399780,-1406.391290,-8882.471304,-1608.800546
265.400102,-1406.391290,-9400.615463,-919.314598
265.400425,-1406.391290,-9474.636058,-766.095498
265.400747,-1258.350101,-9622.677246,-1072.533697
265.401070,-1036.288319,-9400.615463,-919.314598
265.401392,-518.144159,-9104.533087,-766.095498
265.401715,-296.082377,-8068.244768,-1225.752797
265.402037,-148.041188,-7328.038826,-1608.800546
265.402359,-740.205942,-7624.121203,-1608.800546
265.402682,-666.185348,-8068.244768,-1532.190996
265.403004,-1332.370696,-8882.471304,-1838.629195
265.403327,-1628.453072,-9622.677246,-2451.505594
265.403649,-1554.432478,-10140.821405,-2604.724693
265.403972,-1406.391290,-10658.965565,-3064.381992
265.404294,-962.267725,-9918.759623,-2298.286494
265.404616,-888.247130,-9696.697840,-2451.505594
265.404939,-592.164754,-9548.656652,-2374.896044
265.405261,-296.082377,-9844.739029,-2068.457845
265.405584,-518.144159,-9622.677246,-2374.896044
265.405906,-1628.453072,-9400.615463,-2374.896044
265.406229,-1924.535449,-9696.697840,-1608.800546
265.406551,-1850.514855,-10584.944971,-1685.410096
265.406873,-1924.535449,-10140.821405,-1302.362347
265.407196,-1850.514855,-9622.677246,-766.095498
265.407518,-1628.453072,-8882.471304,-612.876398
265.407841,-222.061783,-8512.368333,-1225.752797
265.408163,-370.102971,-7994.224174,-1532.190996
265.408486,-296.082377,-8068.244768,-1915.238745
265.408808,-222.061783,-8512.368333,-1762.019645
265.409131,74.020594,-9030.512492,-2374.896044
265.409453,74.020594,-9770.718434,-2451.505594
265.409775,148.041188,-10955.047942,-2911.162892
265.410098,148.041188,-11473.192101,-2834.553343
265.410420,444.123565,-11547.212695,-2451.505594
265.410743,666.185348,-10732.986159,-2068.457845
265.411065,592.164754,-10066.800811,-2068.457845
265.411388,962.267725,-9844.739029,-1762.019645
265.411710,0.000000,-9326.594869,-1378.971896
265.412032,-962.267725,-8956.491898,-306.438199
265.412355,-1332.370696,-9104.533087,-306.438199
265.412677,-1184.329507,-8956.491898,0.000000
265.413000,-1036.288319,-8290.306550,0.000000
265.413322,-222.061783,-7846.182985,229.828649
265.413645,370.102971,-7476.080014,689.485948
265.413967,962.267725,-7476.080014,229.828649
265.414289,888.247130,-7254.018232,0.000000
265.414612,296.082377,-7772.162391,-1378.971896
265.414934,-666.185348,-8068.244768,-1225.752797
265.415257,-1110.308913,-9178.553681,-1991.848295
265.415579,-1554.432478,-10214.842000,-2451.505594
265.415902,-1998.556043,-10807.006753,-2374.896044
265.416224,-1702.473667,-11399.171507,-1762.019645
265.416546,-1406.391290,-10732.986159,-1915.238745
265.416869,-1184.329507,-9770.718434,-2221.676944
265.417191,-592.164754,-9326.594869,-2298.286494
265.417514,-296.082377,-8882.471304,-2068.457845
265.417836,-296.082377,-8512.368333,-1685.410096
265.418159,-148.041188,-7994.224174,-1302.362347
265.418481,-148.041188,-8808.450710,-842.705048
265.418803,148.041188,-9400.615463,-612.876398
265.419126,296.082377,-9474.636058,-919.314598
265.419448,740.205942,-9474.636058,-919.314598
265.419771,1110.308913,-9474.636058,-306.438199
265.420093,1998.556043,-9104.533087,-1149.143247
265.420416,1924.535449,-8808.450710,-1838.629195
265.420738,1776.494261,-9030.512492,-1838.629195
265.421060,1332.370696,-9474.636058,-1685.410096
265.421383,740.205942,-9992.780217,-1915.238745
265.421705,222.061783,-10362.883188,-2528.115143
265.422028,148.041188,-10732.986159,-2834.553343
265.422350,0.000000,-10584.944971,-2757.943793
265.422673,0.000000,-10214.842000,-2451.505594
265.422995,0.000000,-9844.739029,-2528.115143
265.423317,0.000000,-9326.594869,-3217.601092
265.423640,-148.041188,-9474.636058,-2528.115143
265.423962,-518.144159,-9252.574275,-2221.676944
265.424285,-962.267725,-9400.615463,-2221.676944
265.424607,-1480.411884,-9548.656652,-1838.629195
265.424930,-1554.432478,-9844.739029,-1838.629195
265.425252,-1406.391290,-9696.697840,-842.705048
265.425574,-1406.391290,-9104.533087,-1149.143247
265.425897,-1110.308913,-8364.327145,-1072.533697
265.426219,-666.185348,-7920.203579,-1225.752797
265.426542,-222.061783,-7994.224174,-1455.581446
265.426864,-148.041188,-7846.182985,-2068.457845
265.427187,-518.144159,-8364.327145,-1225.752797
265.427509,-814.226536,-9178.553681,-1225.752797
265.427831,-1258.350101,-9622.677246,-1762.019645
265.428154,-1628.453072,-9326.594869,-2068.457845
265.428476,-1406.391290,-9178.553681,-2451.505594
265.428799,-1628.453072,-9770.718434,-2528.115143
265.429121,-1258.350101,-9918.759623,-2298.286494
265.429444,-1258.350101,-9474.636058,-2068.457845
265.429766,-1184.329507,-9992.780217,-1991.848295
265.430088,-1110.308913,-9992.780217,-1685.410096
265.430411,-1628.453072,-10140.821405,-1149.143247
265.430733,-1998.556043,-9696.697840,-1608.800546
265.431056,-2368.659014,-9400.615463,-1225.752797
265.431378,-1998.556043,-9326.594869,-1225.752797
265.431701,-1924.535449,-9104.533087,-1149.143247
265.432023,-1998.556043,-9400.615463,-766.095498
265.432345,-1924.535449,-8808.450710,0.000000
265.432668,-1110.308913,-9030.512492,-612.876398
265.432990,-444.123565,-8734.430116,-1225.752797
265.433313,0.000000,-8660.409521,-1378.971896
265.433635,-296.082377,-8586.388927,-1685.410096
265.433958,222.061783,-9030.512492,-1455.581446
265.434280,444.123565,-9400.615463,-2221.676944
265.434602,444.123565,-9992.780217,-2681.334243
265.434925,444.123565,-10881.027347,-2911.162892
265.435247,74.020594,-11177.109724,-2681.334243
265.435570,518.144159,-10881.027347,-2298.286494
265.435892,1036.288319,-10955.047942,-1991.848295
265.436215,1184.329507,-10362.883188,-1532.190996
265.436537,814.226536,-9474.636058,-1149.143247
265.436860,370.102971,-8808.450710,-459.657299
265.437182,-444.123565,-8290.306550,383.047749
265.437504,0.000000,-8882.471304,-612.876398
265.437827,-296.082377,-8734.430116,-383.047749
265.438149,-222.061783,-8438.347739,76.609550
265.438472,296.082377,-8290.306550,536.266849
265.438794,1406.391290,-8142.265362,153.219100
265.439117,1406.391290,-7328.038826,-153.219100
265.439439,1110.308913,-7402.059420,-612.876398
265.439761,148.041188,-7328.038826,-995.924147
265.440084,-592.164754,-8512.368333,-1915.238745
265.440406,-1628.453072,-9400.615463,-2757.943793
265.440729,-2146.597232,-10436.903782,-3217.601092
265.441051,-2664.741391,-10658.965565,-2528.115143
265.441374,-2590.720797,-11029.068536,-2451.505594
265.441696,-2146.597232,-10584.944971,-2681.334243
265.442018,-1480.411884,-9992.780217,-2757.943793
265.442341,-1110.308913,-9622.677246,-2451.505594
265.442663,0.000000,-9326.594869,-2451.505594
265.442986,-444.123565,-8660.409521,-2145.067394
265.443308,-296.082377,-8882.471304,-1762.019645
265.443631,0.000000,-9474.636058,-1072.533697
265.443953,148.041188,-9918.759623,-689.485948
265.444275,740.205942,-9696.697840,-1302.362347
265.444598,888.247130,-9548.656652,-1225.752797
265.444920,1554.432478,-9326.594869,-919.314598
265.445243,1776.494261,-9104.533087,-1225.752797
265.445565,1998.556043,-9030.512492,-1685.410096
265.445888,1406.391290,-9178.553681,-1608.800546
265.446210,1036.288319,-9400.615463,-1532.190996
265.446532,296.082377,-9844.739029,-1991.848295
265.446855,148.041188,-9992.780217,-2834.553343
265.447177,0.000000,-10362.883188,-3064.381992
265.447500,0.000000,-10436.903782,-1838.629195
265.447822,-370.102971,-9992.780217,-1685.410096
265.448145,-814.226536,-9918.759623,-2451.505594
265.448467,-1258.350101,-9474.636058,-2451.505594
265.448789,-1628.453072,-9622.677246,-2451.505594
265.449112,-1702.473667,-9548.656652,-2068.457845
265.449434,-2072.576638,-9252.574275,-2068.457845
265.449757,-2146.597232,-9252.574275,-1608.800546
265.450079,-1850.514855,-9400.615463,-1149.143247
265.450402,-1258.350101,-9548.656652,-459.657299
265.450724,-1110.308913,-9252.574275,-459.657299
265.451046,-518.144159,-8734.430116,-612.876398
265.451369,-518.144159,-7920.203579,-153.219100
265.451691,0.000000,-7698.141797,-229.828649
265.452014,222.061783,-7254.018232,-689.485948
265.452336,0.000000,-7476.080014,-229.828649
265.452659,-296.082377,-8142.265362,-536.266849
265.452981,-518.144159,-8512.368333,-995.924147
265.453303,-888.247130,-9252.574275,-1915.238745
265.453626,-1184.329507,-9992.780217,-1991.848295
265.453948,-1554.432478,-10584.944971,-1838.629195
265.454271,-1406.391290,-10510.924376,-1838.629195
265.454593,-1110.308913,-9474.636058,-2298.286494
265.454916,-888.247130,-9622.677246,-2298.286494
265.455238,-444.123565,-9548.656652,-2374.896044
265.455560,-518.144159,-9326.594869,-1915.238745
265.455883,-1110.308913,-9178.553681,-1608.800546
265.456205,-1258.350101,-9400.615463,-1608.800546
265.456528,-1332.370696,-9770.718434,-1608.800546
265.456850,-1850.514855,-10214.842000,-1225.752797
265.457173,-1998.556043,-10214.842000,-766.095498
265.457495,-1480.411884,-9696.697840,-383.047749
265.457817,-592.164754,-8734.430116,-919.314598
265.458140,222.061783,-7254.018232,-1149.143247
265.458462,888.247130,-7254.018232,-1532.190996
265.458785,1184.329507,-7698.141797,-1915.238745
265.459107,1258.350101,-8660.409521,-1915.238745
265.459430,740.205942,-9400.615463,-2221.676944
265.459752,814.226536,-10732.986159,-2298.286494
265.460074,518.144159,-11473.192101,-3217.601092
265.460397,148.041188,-11473.192101,-2911.162892
265.460719,518.144159,-10658.965565,-2451.505594
265.461042,592.164754,-9696.697840,-2374.896044
265.461364,1036.288319,-9178.553681,-2068.457845
265.461687,518.144159,-8438.347739,-1915.238745
265.462009,-814.226536,-8808.450710,-1225.752797
265.462331,-1776.494261,-9770.718434,-995.924147
265.462654,-2146.597232,-9622.677246,-1072.533697
265.462976,-1850.514855,-8808.450710,-1149.143247
265.463299,-740.205942,-8290.306550,-536.266849
265.463621,222.061783,-7772.162391,-306.438199
265.463944,592.164754,-7402.059420,153.219100
265.464266,666.185348,-7402.059420,-306.438199
265.464589,148.041188,-7476.080014,-689.485948
265.464911,-370.102971,-8660.409521,-1532.190996
265.465233,-1850.514855,-9400.615463,-2681.334243
265.465556,-2368.659014,-10288.862594,-2987.772442
265.465878,-2738.761985,-10955.047942,-2604.724693
265.466201,-2442.679609,-10881.027347,-2298.286494
265.466523,-2294.638420,-10362.883188,-2451.505594
265.466846,-814.226536,-10362.883188,-2528.115143
265.467168,-592.164754,-9992.780217,-2834.553343
265.467490,-444.123565,-9844.739029,-2451.505594
265.467813,0.000000,-9474.636058,-1915.238745
265.468135,0.000000,-8956.491898,-1685.410096
265.468458,-148.041188,-8660.409521,-1302.362347
265.468780,-148.041188,-9474.636058,-995.924147
265.469103,0.000000,-9474.636058,-842.705048
265.469425,0.000000,-9252.574275,-766.095498
265.469747,222.061783,-9178.553681,-766.095498
265.470070,962.267725,-9030.512492,-919.314598
265.470392,1258.350101,-8956.491898,-766.095498
265.470715,1480.411884,-9104.533087,-1302.362347
265.471037,1110.308913,-9252.574275,-919.314598
265.471360,888.247130,-9548.656652,-1302.362347
265.471682,666.185348,-9696.697840,-2298.286494
265.472004,666.185348,-10140.821405,-2528.115143
265.472327,370.102971,-10362.883188,-2145.067394
265.472649,666.185348,-10510.924376,-1685.410096
265.472972,814.226536,-10362.883188,-1685.410096
265.473294,740.205942,-9844.739029,-1915.238745
265.473617,666.185348,-9474.636058,-2145.067394
265.473939,0.000000,-9252.574275,-1838.629195
265.474261,-296.082377,-8956.491898,-1455.581446
265.474584,-740.205942,-8734.430116,-1302.362347
265.474906,-888.247130,-8586.388927,-1072.533697
265.475229,-962.267725,-8956.491898,-153.219100
265.475551,-1184.329507,-9104.533087,76.609550
265.475874,-888.247130,-9400.615463,-229.828649
265.476196,-888.247130,-9030.512492,0.000000
265.476518,-370.102971,-8364.327145,-306.438199
265.476841,148.041188,-7698.141797,-842.705048
265.477163,222.061783,-7476.080014,-995.924147
265.477486,-444.123565,-7624.121203,-689.485948
265.477808,-962.267725,-8734.430116,-1455.581446
265.478131,-1702.473667,-9400.615463,-2145.067394
265.478453,-2072.576638,-9992.780217,-2834.553343
265.478775,-1924.535449,-10362.883188,-2911.162892
265.479098,-1702.473667,-10510.924376,-2604.724693
265.479420,-1332.370696,-10214.842000,-2681.334243
265.479743,-1184.329507,-9696.697840,-2681.334243
265.480065,-962.267725,-9474.636058,-2528.115143
265.480388,-888.247130,-9474.636058,-2374.896044
265.480710,-1332.370696,-8882.471304,-2068.457845
265.481032,-2294.638420,-9622.677246,-2221.676944
265.481355,-2072.576638,-10066.800811,-1762.019645
265.481677,-1850.514855,-10510.924376,-1838.629195
265.482000,-1702.473667,-9696.697840,-1149.143247
265.482322,-1258.350101,-9326.594869,-459.657299
265.482645,-592.164754,-8438.347739,-995.924147
265.482967,0.000000,-7846.182985,-1378.971896
265.483289,0.000000,-7698.141797,-1762.019645
265.483612,-370.102971,-8216.285956,-1991.848295
265.483934,0.000000,-9252.574275,-2757.943793
265.484257,370.102971,-9696.697840,-2681.334243
265.484579,0.000000,-10881.027347,-2911.162892
265.484902,0.000000,-11547.212695,-2911.162892
265.485224,148.041188,-11547.212695,-2451.505594
265.485546,0.000000,-11103.089130,-2528.115143
265.485869,0.000000,-10436.903782,-2451.505594
265.486191,0.000000,-9992.780217,-2451.505594
265.486514,-296.082377,-9474.636058,-1915.238745
265.486836,-962.267725,-9400.615463,-1225.752797
265.487159,-1480.411884,-9030.512492,-383.047749
265.487481,-1332.370696,-8808.450710,-153.219100
265.487803,-888.247130,-8808.450710,-919.314598
265.488126,-814.226536,-7846.182985,-153.219100
265.488448,148.041188,-7476.080014,229.828649
265.488771,740.205942,-7254.018232,383.047749
265.489093,1258.350101,-7179.997637,76.609550
265.489416,1110.308913,-7772.162391,-995.924147
265.489738,148.041188,-7994.224174,-1302.362347
265.490060,-518.144159,-9030.512492,-1685.410096
265.490383,-1036.288319,-9696.697840,-2374.896044
265.490705,-1184.329507,-10288.862594,-2528.115143
265.491028,-1480.411884,-10881.027347,-1991.848295
265.491350,-1036.288319,-11103.089130,-1762.019645
265.491673,-740.205942,-10658.965565,-2298.286494
265.491995,-222.061783,-9992.780217,-2221.676944
265.492318,-148.041188,-9474.636058,-1838.629195
265.492640,222.061783,-9178.553681,-1149.143247
265.492962,0.000000,-8734.430116,-1149.143247
265.493285,0.000000,-8512.368333,-919.314598
265.493607,0.000000,-8734.430116,-229.828649
265.493930,0.000000,-9178.553681,-612.876398
265.494252,370.102971,-9326.594869,-1149.143247
265.494575,1184.329507,-9474.636058,-689.485948
265.494897,888.247130,-9326.594869,-842.705048
265.495219,1184.329507,-9474.636058,-1302.362347
265.495542,1406.391290,-9326.594869,-1915.238745
265.495864,1258.350101,-9326.594869,-1762.019645
265.496187,1258.350101,-9844.739029,-1838.629195
265.496509,296.082377,-9992.780217,-1685.410096
265.496832,296.082377,-10288.862594,-2681.334243
265.497154,222.061783,-10214.842000,-2681.334243
265.497476,148.041188,-10510.924376,-2068.457845
265.497799,222.061783,-10066.800811,-1991.848295
265.498121,222.061783,-8956.491898,-1915.238745
265.498444,-222.061783,-8882.471304,-1991.848295
265.498766,-518.144159,-9252.574275,-1532.190996
265.499089,-1184.329507,-9178.553681,-1302.362347
265.499411,-1628.453072,-9178.553681,-1532.190996
265.499734,-1924.535449,-9030.512492,-1608.800546
265.500056,-1924.535449,-9252.574275,-1225.752797
265.500378,-1480.411884,-9326.594869,-612.876398
265.500701,-1332.370696,-9178.553681,-689.485948
265.501023,-1036.288319,-8586.388927,-383.047749
265.501346,-370.102971,-8290.306550,0.000000
265.501668,148.041188,-7920.203579,-842.705048
265.501991,0.000000,-7772.162391,-1455.581446
265.502313,-444.123565,-8364.327145,-1532.190996
265.502635,-592.164754,-8882.471304,-1378.971896
265.502958,-1110.308913,-9178.553681,-1608.800546
265.503280,-1480.411884,-9178.553681,-2528.115143
265.503603,-1702.473667,-8956.491898,-2834.553343
265.503925,-1702.473667,-9474.636058,-2681.334243
265.504248,-1406.391290,-9622.677246,-2681.334243
265.504570,-1628.453072,-9622.677246,-2757.943793
265.504893,-1998.556043,-9992.780217,-2145.067394
265.505215,-1702.473667,-10362.883188,-2221.676944
265.505537,-1850.514855,-10214.842000,-2068.457845
265.505860,-1924.535449,-9918.759623,-1915.238745
265.506182,-1702.473667,-10066.800811,-1915.238745
265.506505,-1406.391290,-9474.636058,-1302.362347
265.506827,-1332.370696,-9326.594869,-766.095498
265.507150,-592.164754,-8956.491898,-689.485948
265.507472,74.020594,-8734.430116,-612.876398
265.507794,518.144159,-8586.388927,-919.314598
265.508117,814.226536,-8808.450710,-1455.581446
265.508439,666.185348,-8586.388927,-1378.971896
265.508762,666.185348,-8956.491898,-1685.410096
265.509084,814.226536,-9252.574275,-2298.286494
265.509407,962.267725,-9548.656652,-2681.334243
265.509729,888.247130,-10140.821405,-2834.553343
265.510052,888.247130,-10732.986159,-2298.286494
265.510374,222.061783,-10214.842000,-1915.238745
265.510696,518.144159,-10955.047942,-2221.676944
265.511019,296.082377,-10658.965565,-2374.896044
265.511341,0.000000,-10288.862594,-1685.410096
265.511664,-518.144159,-9770.718434,-1149.143247
265.511986,-962.267725,-9104.533087,-766.095498
265.512309,-962.267725,-8808.450710,-383.047749
265.512631,-962.267725,-8586.388927,0.000000
265.512953,-740.205942,-8068.244768,0.000000
265.513276,0.000000,-7550.100608,229.828649
265.513598,296.082377,-7698.141797,459.657299
265.513921,740.205942,-7254.018232,306.438199
265.514243,518.144159,-7550.100608,0.000000
265.514566,0.000000,-7402.059420,-612.876398
265.514888,-518.144159,-8142.265362,-1378.971896
265.515210,-1480.411884,-9104.533087,-2068.457845
265.515533,-1776.494261,-9622.677246,-2911.162892
265.515855,-2146.597232,-10214.842000,-2681.334243
265.516178,-1924.535449,-10955.047942,-2604.724693
265.516500,-1332.370696,-11029.068536,-2451.505594
265.516823,-1110.308913,-10214.842000,-2298.286494
265.517145,-740.205942,-9696.697840,-1915.238745
265.517468,-370.102971,-9474.636058,-1991.848295
265.517790,-592.164754,-8882.471304,-1762.019645
265.518112,-666.185348,-8438.347739,-1532.190996
265.518435,-1184.329507,-8512.368333,-995.924147
265.518757,-888.247130,-8956.491898,-612.876398
265.519080,-962.267725,-8882.471304,-1685.410096
265.519402,-370.102971,-9474.636058,-1378.971896
265.519725,0.000000,-9770.718434,-995.924147
265.520047,296.082377,-9548.656652,-1072.533697
265.520369,592.164754,-9252.574275,-1838.629195
265.520692,444.123565,-9104.533087,-2298.286494
265.521014,888.247130,-9770.718434,-1991.848295
265.521337,666.185348,-10436.903782,-2068.457845
265.521659,666.185348,-10807.006753,-2451.505594
265.521982,518.144159,-10881.027347,-2757.943793
265.522304,962.267725,-10807.006753,-3064.381992
265.522627,962.267725,-10214.842000,-1991.848295
265.522949,1110.308913,-10140.821405,-1991.848295
265.523271,814.226536,-9252.574275,-1991.848295
265.523594,592.164754,-9030.512492,-1685.410096
265.523916,296.082377,-8586.388927,-1685.410096
265.524239,0.000000,-8438.347739,-995.924147
265.524561,-666.185348,-8734.430116,-1378.971896
265.524884,-1036.288319,-9326.594869,-1225.752797
265.525206,-1036.288319,-9548.656652,-1072.533697
265.525528,-1036.288319,-9548.656652,-995.924147
265.525851,-666.185348,-8956.491898,-1225.752797
265.526173,74.020594,-8660.409521,-689.485948
265.526496,0.000000,-8142.265362,-1072.533697
265.526818,296.082377,-7994.224174,-1225.752797
265.527141,148.041188,-8068.244768,-995.924147
265.527463,-666.185348,-8290.306550,-1149.143247
265.527786,-814.226536,-8660.409521,-1455.581446
265.528108,-814.226536,-9178.553681,-1838.629195
265.528430,-1258.350101,-9326.594869,-2451.505594
265.528753,-1332.370696,-9548.656652,-2374.896044
265.529075,-1332.370696,-9622.677246,-1838.629195
265.529398,-962.267725,-9178.553681,-2145.067394
265.529720,-1406.391290,-9252.574275,-2451.505594
265.530043,-1110.308913,-9696.697840,-2451.505594
265.530365,-1258.350101,-9844.739029,-2145.067394
265.530687,-1332.370696,-9770.718434,-1762.019645
265.531010,-1332.370696,-9918.759623,-1762.019645
265.531332,-1258.350101,-9844.739029,-1991.848295
265.531655,-1258.350101,-10066.800811,-1302.362347
265.531977,-1332.370696,-9844.739029,-842.705048
265.532300,-1554.432478,-9696.697840,-536.266849
265.532622,-1184.329507,-8956.491898,-689.485948
265.532945,-592.164754,-8290.306550,-1072.533697
265.533267,-444.123565,-8216.285956,-1685.410096
265.533589,-740.205942,-8216.285956,-1685.410096
265.533912,-1036.288319,-8512.368333,-1762.019645
265.534234,-888.247130,-9104.533087,-2298.286494
265.534557,-1184.329507,-10584.944971,-2911.162892
265.534879,-1554.432478,-11103.089130,-3064.381992
265.535202,-1184.329507,-11399.171507,-2757.943793
265.535524,-888.247130,-11251.130318,-2528.115143
265.535846,-592.164754,-11177.109724,-2221.676944
265.536169,148.041188,-10066.800811,-2068.457845
265.536491,592.164754,-9548.656652,-1685.410096
265.536814,-222.061783,-9178.553681,-919.314598
265.537136,-740.205942,-9326.594869,-459.657299
265.537459,-814.226536,-9474.636058,0.000000
265.537781,-888.247130,-8956.491898,-306.438199
265.538104,-444.123565,-8216.285956,76.609550
265.538426,296.082377,-7624.121203,612.876398
265.538748,1184.329507,-7402.059420,536.266849
265.539071,1406.391290,-6809.894666,76.609550
265.539393,1258.350101,-6809.894666,0.000000
265.539716,888.247130,-7476.080014,-383.047749
265.540038,-370.102971,-8438.347739,-1378.971896
265.540361,-1184.329507,-9474.636058,-2451.505594
265.540683,-1850.514855,-10362.883188,-2834.553343
265.541005,-1924.535449,-11029.068536,-2604.724693
265.541328,-1332.370696,-11325.150913,-2451.505594
265.541650,-444.123565,-10955.047942,-2374.896044
265.541973,-148.041188,-10066.800811,-2298.286494
265.542295,296.082377,-9474.636058,-1991.848295
265.542618,370.102971,-9104.533087,-2145.067394
265.542940,222.061783,-9030.512492,-1685.410096
265.543263,0.000000,-8512.368333,-995.924147
265.543585,0.000000,-9252.574275,-995.924147
265.543907,0.000000,-9030.512492,-689.485948
265.544230,296.082377,-9104.533087,-842.705048
265.544552,666.185348,-9030.512492,-689.485948
265.544875,1554.432478,-8882.471304,-689.485948
265.545197,1702.473667,-8586.388927,-919.314598
265.545520,1998.556043,-9030.512492,-1991.848295
265.545842,1776.494261,-9474.636058,-1838.629195
265.546164,1036.288319,-10214.842000,-1762.019645
265.546487,296.082377,-10584.944971,-2451.505594
265.546809,518.144159,-11029.068536,-3294.210641
265.547132,222.061783,-10732.986159,-3294.210641
265.547454,370.102971,-11029.068536,-2911.162892
265.547777,148.041188,-10510.924376,-2298.286494
265.548099,148.041188,-10066.800811,-2528.115143
265.548422,-444.123565,-9474.636058,-2221.676944
265.548744,-666.185348,-9548.656652,-2068.457845
265.549066,-1776.494261,-9474.636058,-2298.286494
265.549389,-2294.638420,-9104.533087,-2068.457845
265.549711,-2442.679609,-9252.574275,-1762.019645
265.550034,-2368.659014,-9252.574275,-612.876398
265.550356,-1480.411884,-9178.553681,-689.485948
265.550679,-962.267725,-8512.368333,-842.705048
265.551001,-370.102971,-8290.306550,-689.485948
265.551323,0.000000,-8290.306550,-766.095498
265.551646,74.020594,-8142.265362,-459.657299
265.551968,0.000000,-7920.203579,-1455.581446
265.552291,-962.267725,-8438.347739,-1149.143247
265.552613,-1258.350101,-9104.533087,-1532.190996
265.552936,-1776.494261,-9252.574275,-1762.019645
265.553258,-2072.576638,-9178.553681,-2221.676944
265.553581,-2146.597232,-9104.533087,-2221.676944
265.553903,-2294.638420,-9696.697840,-1762.019645
265.554225,-1554.432478,-9844.739029,-2221.676944
265.554548,-1776.494261,-9474.636058,-2068.457845
265.554870,-1702.473667,-9622.677246,-1838.629195
265.555193,-1258.350101,-9770.718434,-2145.067394
265.555515,-1184.329507,-9992.780217,-2221.676944
265.555838,-1628.453072,-9252.574275,-1838.629195
265.556160,-1480.411884,-9548.656652,-1302.362347
265.556482,-1184.329507,-9844.739029,-1149.143247
265.556805,-592.164754,-9918.759623,-689.485948
265.557127,-148.041188,-9474.636058,-536.266849
265.557450,0.000000,-8956.491898,-536.266849
265.557772,740.205942,-8660.409521,-612.876398
265.558095,962.267725,-7994.224174,-1149.143247
265.558417,814.226536,-7994.224174,-1302.362347
265.558740,962.267725,-8290.306550,-1455.581446
265.559062,814.226536,-9030.512492,-1838.629195
265.559384,518.144159,-9918.759623,-2528.115143
265.559707,592.164754,-10955.047942,-2528.115143
265.560029,444.123565,-11399.171507,-2528.115143
265.560352,592.164754,-11177.109724,-2451.505594
265.560674,740.205942,-10584.944971,-2068.457845
265.560997,148.041188,-9992.780217,-2298.286494
265.561319,0.000000,-9844.739029,-2145.067394
265.561641,-666.185348,-9622.677246,-1915.238745
265.561964,-1258.350101,-9400.615463,-1302.362347
265.562286,-1332.370696,-9326.594869,-1532.190996
265.562609,-1036.288319,-9474.636058,-383.047749
265.562931,-666.185348,-9030.512492,-689.485948
265.563254,0.000000,-8142.265362,153.219100
265.563576,666.185348,-7476.080014,306.438199
265.563899,1184.329507,-7476.080014,0.000000
265.564221,888.247130,-6883.915261,-536.266849
265.564543,0.000000,-7624.121203,-1149.143247
265.564866,-740.205942,-8734.430116,-1302.362347
265.565188,-1628.453072,-9400.615463,-2145.067394
265.565511,-1850.514855,-9992.780217,-2528.115143
265.565833,-1628.453072,-10066.800811,-2298.286494
265.566156,-1332.370696,-10584.944971,-2221.676944
265.566478,-1258.350101,-10510.924376,-2451.505594
265.566800,-1110.308913,-10140.821405,-2451.505594
265.567123,-1258.350101,-9844.739029,-2528.115143
265.567445,-1332.370696,-9474.636058,-2451.505594
265.567768,-1554.432478,-9844.739029,-2145.067394
265.568090,-1480.411884,-9104.533087,-1685.410096
265.568413,-1258.350101,-9178.553681,-1225.752797
265.568735,-592.164754,-9326.594869,-995.924147
265.569058,-222.061783,-9030.512492,-766.095498
265.569380,444.123565,-8734.430116,-766.095498
265.569702,370.102971,-8956.491898,-919.314598
265.570025,814.226536,-9178.553681,-995.924147
265.570347,888.247130,-9178.553681,-1685.410096
265.570670,740.205942,-9104.533087,-1762.019645
265.570992,518.144159,-9474.636058,-1149.143247
265.571315,888.247130,-9770.718434,-2145.067394
265.571637,1110.308913,-9770.718434,-2451.505594
265.571959,1110.308913,-10140.821405,-3064.381992
265.572282,1184.329507,-10436.903782,-2451.505594
265.572604,1110.308913,-10658.965565,-1915.238745
265.572927,888.247130,-10362.883188,-2145.067394
265.573249,0.000000,-10066.800811,-2221.676944
265.573572,-592.164754,-9548.656652,-2068.457845
265.573894,-1110.308913,-9104.533087,-1991.848295
265.574217,-1258.350101,-9178.553681,-2145.067394
265.574539,-888.247130,-9474.636058,-1378.971896
265.574861,-888.247130,-9104.533087,-1072.533697
265.575184,-370.102971,-9474.636058,-306.438199
265.575506,74.020594,-9474.636058,-229.828649
265.575829,666.185348,-9104.533087,-229.828649
265.576151,1258.350101,-8512.368333,-612.876398
265.576474,1406.391290,-8068.244768,-153.219100
265.576796,1184.329507,-7550.100608,-459.657299
265.577118,370.102971,-7328.038826,-842.705048
265.577441,0.000000,-7994.224174,-766.095498
265.577763,-592.164754,-8438.347739,-612.876398
265.578086,-1480.411884,-8660.409521,-1455.581446
265.578408,-1554.432478,-9400.615463,-2068.457845
265.578731,-2072.576638,-9992.780217,-1915.238745
265.579053,-2220.617826,-10066.800811,-1991.848295
265.579376,-2220.617826,-9770.718434,-2145.067394
265.579698,-1924.535449,-9622.677246,-2374.896044
265.580020,-2146.597232,-9622.677246,-2451.505594
265.580343,-1776.494261,-9918.759623,-2374.896044
265.580665,-1702.473667,-9992.780217,-2451.505594
265.580988,-1776.494261,-10214.842000,-1915.238745
265.581310,-1184.329507,-10584.944971,-1455.581446
265.581633,-1258.350101,-10066.800811,-1225.752797
265.581955,-1110.308913,-9770.718434,-1302.362347
265.582277,-370.102971,-9326.594869,-995.924147
265.582600,148.041188,-8290.306550,-919.314598
265.582922,888.247130,-7772.162391,-1378.971896
265.583245,592.164754,-7698.141797,-1225.752797
265.583567,518.144159,-8068.244768,-1302.362347
265.583890,296.082377,-8808.450710,-1532.190996
265.584212,148.041188,-9918.759623,-2298.286494
265.584535,-222.061783,-10510.924376,-2911.162892
265.584857,-518.144159,-10732.986159,-2681.334243
265.585179,-296.082377,-10955.047942,-2528.115143
265.585502,-666.185348,-10955.047942,-2374.896044
265.585824,-666.185348,-10584.944971,-2451.505594
265.586147,-1184.329507,-10214.842000,-2528.115143
265.586469,-1776.494261,-10288.862594,-1608.800546
265.586792,-2072.576638,-9770.718434,-1302.362347
265.587114,-2516.700203,-9696.697840,-1072.533697
265.587436,-2368.659014,-9400.615463,-1225.752797
265.587759,-1554.432478,-8808.450710,-1149.143247
265.588081,-444.123565,-7846.182985,-689.485948
265.588404,370.102971,-7328.038826,-842.705048
265.588726,1110.308913,-7328.038826,153.219100
265.589049,1406.391290,-7624.121203,0.000000
265.589371,888.247130,-7698.141797,-383.047749
265.589694,0.000000,-8438.347739,-919.314598
265.590016,-740.205942,-8956.491898,-1455.581446
265.590338,-666.185348,-9252.574275,-2451.505594
265.590661,-1110.308913,-9474.636058,-2528.115143
265.590983,-1258.350101,-9770.718434,-2374.896044
265.591306,-1554.432478,-10140.821405,-2298.286494
265.591628,-1554.432478,-10362.883188,-1915.238745
265.591951,-1554.432478,-9770.718434,-2451.505594
265.592273,-1332.370696,-10510.924376,-2528.115143
265.592595,-1184.329507,-9992.780217,-2221.676944
265.592918,-740.205942,-9474.636058,-1762.019645
265.593240,-370.102971,-8808.450710,-1302.362347
265.593563,-222.061783,-9104.533087,-1072.533697
265.593885,0.000000,-8660.409521,-995.924147
265.594208,0.000000,-8808.450710,-1225.752797
265.594530,222.061783,-9326.594869,-995.924147
265.594853,592.164754,-9622.677246,-766.095498
265.595175,888.247130,-9178.553681,-1149.143247
265.595498,1332.370696,-8660.409521,-689.485948
265.595820,1776.494261,-8882.471304,-1225.752797
265.596143,1776.494261,-8956.491898,-1378.971896
265.596465,1702.473667,-9400.615463,-1762.019645
265.596788,1184.329507,-9622.677246,-2451.505594
265.597110,1036.288319,-9844.739029,-2604.724693
265.597433,962.267725,-10584.944971,-2145.067394
265.597755,962.267725,-10658.965565,-2068.457845
265.598078,1184.329507,-10140.821405,-2221.676944
265.598400,740.205942,-9548.656652,-2374.896044
265.598723,370.102971,-9326.594869,-1685.410096
265.599045,0.000000,-9548.656652,-1608.800546
265.599368,-444.123565,-9326.594869,-1455.581446
265.599690,-962.267725,-9622.677246,-1149.143247
265.600013,-1332.370696,-9696.697840,-842.705048
265.600336,-1110.308913,-9326.594869,-612.876398
265.600658,-370.102971,-9474.636058,-995.924147
265.600981,0.000000,-8216.285956,-383.047749
265.601303,148.041188,-8290.306550,0.000000
265.601626,0.000000,-7772.162391,-306.438199
265.601948,-296.082377,-7328.038826,-766.095498
265.602271,-888.247130,-7550.100608,-1532.190996
265.602593,-1628.453072,-8586.388927,-1915.238745
265.602916,-2294.638420,-9178.553681,-1608.800546
265.603238,-2516.700203,-9474.636058,-2374.896044
265.603561,-2664.741391,-9696.697840,-2604.724693
265.603883,-2368.659014,-9992.780217,-2987.772442
265.604206,-2368.659014,-9622.677246,-2681.334243
265.604528,-2220.617826,-9992.780217,-2987.772442
265.604851,-2072.576638,-10288.862594,-2834.553343
265.605174,-1850.514855,-10658.965565,-2604.724693
265.605496,-1776.494261,-10732.986159,-2221.676944
265.605819,-1406.391290,-10436.903782,-2221.676944
265.606141,-1924.535449,-9844.739029,-1302.362347
265.606464,-1036.288319,-10214.842000,-1149.143247
265.606786,-370.102971,-9474.636058,-995.924147
265.607109,0.000000,-8660.409521,-612.876398
265.607431,518.144159,-7920.203579,-612.876398
265.607754,888.247130,-7920.203579,-383.047749
265.608076,962.267725,-7994.224174,-766.095498
265.608399,444.123565,-8290.306550,-1149.143247
265.608721,74.020594,-8660.409521,-1378.971896
265.609044,-148.041188,-9326.594869,-2068.457845
265.609366,-370.102971,-9474.636058,-2604.724693
265.609689,-666.185348,-10362.883188,-2834.553343
265.610011,-888.247130,-11029.068536,-2911.162892
265.610334,-814.226536,-11547.212695,-2757.943793
265.610657,-888.247130,-11251.130318,-2834.553343
265.610979,-962.267725,-10807.006753,-2604.724693
265.611302,-962.267725,-10807.006753,-2451.505594
265.611624,-1258.350101,-10140.821405,-2068.457845
265.611947,-1258.350101,-9548.656652,-1225.752797
265.612269,-1110.308913,-9252.574275,-536.266849
265.612592,-444.123565,-7994.224174,-842.705048
265.612914,296.082377,-7624.121203,0.000000
265.613237,1110.308913,-7328.038826,459.657299
265.613559,1480.411884,-7179.997637,689.485948
265.613882,1924.535449,-7179.997637,536.266849
265.614204,1554.432478,-7402.059420,0.000000
265.614527,888.247130,-7402.059420,-306.438199
265.614849,0.000000,-8068.244768,-689.485948
265.615172,-1110.308913,-8660.409521,-2068.457845
265.615495,-1850.514855,-9252.574275,-2834.553343
265.615817,-2146.597232,-9844.739029,-3064.381992
265.616140,-2442.679609,-10510.924376,-2451.505594
265.616462,-1998.556043,-11547.212695,-2834.553343
265.616785,-1776.494261,-11251.130318,-2451.505594
265.617107,-1702.473667,-10584.944971,-2757.943793
265.617430,-1110.308913,-10584.944971,-2757.943793
265.617752,-592.164754,-9622.677246,-1991.848295
265.618075,-148.041188,-8882.471304,-1608.800546
265.618397,0.000000,-8586.388927,-1225.752797
265.618720,74.020594,-8586.388927,-459.657299
265.619042,222.061783,-8956.491898,-229.828649
265.619365,370.102971,-8956.491898,-842.705048
265.619687,888.247130,-8808.450710,-689.485948
265.620010,666.185348,-8512.368333,-1072.533697
265.620332,1480.411884,-8734.430116,-842.705048
265.620655,1776.494261,-8660.409521,-1302.362347
265.620978,1850.514855,-9030.512492,-1302.362347
265.621300,888.247130,-9548.656652,-1149.143247
265.621623,740.205942,-10288.862594,-2145.067394
265.621945,444.123565,-10584.944971,-3294.210641
265.622268,296.082377,-11029.068536,-3294.210641
265.622590,148.041188,-11177.109724,-2451.505594
265.622913,296.082377,-10881.027347,-2451.505594
265.623235,296.082377,-10436.903782,-2987.772442
265.623558,0.000000,-9622.677246,-2451.505594
265.623880,-592.164754,-9400.615463,-1991.848295
265.624203,-1036.288319,-9252.574275,-1915.238745
265.624525,-1554.432478,-9104.533087,-1915.238745
265.624848,-1628.453072,-8882.471304,-1455.581446
265.625170,-888.247130,-8808.450710,-766.095498
265.625493,-592.164754,-8734.430116,-536.266849
265.625816,0.000000,-8364.327145,-459.657299
265.626138,148.041188,-8290.306550,-306.438199
265.626461,518.144159,-8438.347739,-842.705048
265.626783,592.164754,-8216.285956,-459.657299
265.627106,0.000000,-8438.347739,-689.485948
265.627428,-962.267725,-8660.409521,-766.095498
265.627751,-1554.432478,-9104.533087,-1302.362347
265.628073,-1776.494261,-9104.533087,-2221.676944
265.628396,-1924.535449,-9474.636058,-2757.943793
265.628718,-2368.659014,-9400.615463,-2374.896044
265.629041,-2442.679609,-10066.800811,-2374.896044
265.629363,-2368.659014,-10140.821405,-2604.724693
265.629686,-2368.659014,-10214.842000,-2757.943793
265.630008,-2220.617826,-10288.862594,-3140.991542
265.630331,-1702.473667,-10510.924376,-2451.505594
265.630654,-1480.411884,-10140.821405,-1838.629195
265.630976,-1406.391290,-9844.739029,-1225.752797
265.631299,-1036.288319,-9918.759623,-1149.143247
265.631621,-518.144159,-9844.739029,-919.314598
265.631944,-148.041188,-9474.636058,-612.876398
265.632266,0.000000,-8660.409521,-306.438199
265.632589,740.205942,-8142.265362,-306.438199
265.632911,1110.308913,-7624.121203,-842.705048
265.633234,1036.288319,-7624.121203,-689.485948
265.633556,518.144159,-7994.224174,-612.876398
265.633879,518.144159,-9252.574275,-1762.019645
265.634201,0.000000,-9326.594869,-2374.896044
265.634524,-296.082377,-10066.800811,-2911.162892
265.634846,-740.205942,-10881.027347,-2681.334243
265.635169,-1036.288319,-10881.027347,-2451.505594
265.635491,-370.102971,-10955.047942,-2451.505594
265.635814,-592.164754,-10436.903782,-2834.553343
265.636137,-666.185348,-10510.924376,-2451.505594
265.636459,-888.247130,-10214.842000,-2374.896044
265.636782,-1258.350101,-9992.780217,-1762.019645
265.637104,-1480.411884,-9548.656652,-842.705048
265.637427,-888.247130,-9474.636058,-383.047749
265.637749,-296.082377,-8438.347739,-536.266849
265.638072,740.205942,-7624.121203,-229.828649
265.638394,1554.432478,-7179.997637,383.047749
265.638717,2220.617826,-7105.977043,1072.533697
265.639039,2368.659014,-6957.935855,229.828649
265.639362,1628.453072,-7179.997637,0.000000
265.639684,370.102971,-7624.121203,-306.438199
265.640007,-592.164754,-8290.306550,-1225.752797
265.640329,-1554.432478,-8956.491898,-2528.115143
265.640652,-1924.535449,-9400.615463,-3217.601092
265.640975,-2368.659014,-10214.842000,-3294.210641
265.641297,-2442.679609,-10881.027347,-2987.772442
265.641620,-2368.659014,-11399.171507,-2757.943793
265.641942,-2294.638420,-11251.130318,-3064.381992
265.642265,-1924.535449,-10584.944971,-3064.381992
265.642587,-1480.411884,-10510.924376,-2834.553343
265.642910,-1110.308913,-10066.800811,-2068.457845
265.643232,-666.185348,-9326.594869,-1685.410096
265.643555,-740.205942,-8734.430116,-1302.362347
265.643877,-444.123565,-9104.533087,-766.095498
265.644200,0.000000,-9178.553681,0.000000
265.644522,222.061783,-8808.450710,-612.876398
265.644845,814.226536,-8882.471304,-383.047749
265.645167,1702.473667,-8734.430116,-536.266849
265.645490,2294.638420,-8586.388927,-919.314598
265.645812,2294.638420,-8956.491898,-1149.143247
265.646135,1850.514855,-9326.594869,-1532.190996
265.646458,1480.411884,-9696.697840,-2068.457845
265.646780,1036.288319,-9844.739029,-2681.334243
265.647103,666.185348,-10732.986159,-3294.210641
265.647425,222.061783,-11029.068536,-2451.505594
265.647748,148.041188,-11399.171507,-2068.457845
265.648070,222.061783,-10955.047942,-2298.286494
265.648393,148.041188,-9992.780217,-2451.505594
265.648715,-222.061783,-9474.636058,-2068.457845
265.649038,-592.164754,-9104.533087,-1838.629195
265.649360,-962.267725,-8364.327145,-1302.362347
265.649683,-1332.370696,-8956.491898,-1225.752797
265.650005,-1702.473667,-8882.471304,-689.485948
265.650328,-1554.432478,-8956.491898,0.000000
265.650650,-666.185348,-8808.450710,-229.828649
265.650973,0.000000,-8364.327145,-383.047749
265.651296,444.123565,-8068.244768,-229.828649
265.651618,296.082377,-7624.121203,0.000000
265.651941,74.020594,-7476.080014,-612.876398
265.652263,-518.144159,-7920.203579,-1072.533697
265.652586,-1554.432478,-8438.347739,-1838.629195
265.652908,-2220.617826,-9178.553681,-1378.971896
265.653231,-2368.659014,-9474.636058,-2681.334243
265.653553,-2516.700203,-9696.697840,-2681.334243
265.653876,-2368.659014,-10140.821405,-2221.676944
265.654198,-2146.597232,-10288.862594,-2221.676944
265.654521,-1628.453072,-9844.739029,-2604.724693
265.654843,-1776.494261,-9622.677246,-2911.162892
265.655166,-1554.432478,-9992.780217,-2757.943793
265.655488,-962.267725,-10288.862594,-2221.676944
265.655811,-1480.411884,-9696.697840,-1685.410096
265.656133,-1628.453072,-9548.656652,-995.924147
265.656456,-1036.288319,-9918.759623,-1378.971896
265.656779,-444.123565,-9474.636058,-1072.533697
265.657101,74.020594,-8882.471304,-995.924147
265.657424,444.123565,-8216.285956,-766.095498
265.657746,1184.329507,-8068.244768,-842.705048
265.658069,1332.370696,-7846.182985,-689.485948
265.658391,740.205942,-8364.327145,-1072.533697
265.658714,222.061783,-9178.553681,-1915.238745
265.659036,0.000000,-9992.780217,-2298.286494
265.659359,-148.041188,-10066.800811,-2757.943793
265.659681,0.000000,-10288.862594,-3064.381992
265.660004,-296.082377,-10658.965565,-2681.334243
265.660326,-296.082377,-10881.027347,-2757.943793
265.660649,-222.061783,-10510.924376,-2604.724693
265.660971,-370.102971,-10436.903782,-2757.943793
265.661294,-740.205942,-10214.842000,-2374.896044
265.661617,-1184.329507,-10362.883188,-1762.019645
265.661939,-1702.473667,-9548.656652,-1378.971896
265.662262,-1776.494261,-9326.594869,-919.314598
265.662584,-888.247130,-8808.450710,-995.924147
265.662907,0.000000,-7994.224174,-766.095498
265.663229,1036.288319,-7550.100608,-766.095498
265.663552,1332.370696,-7402.059420,306.438199
265.663874,1628.453072,-7846.182985,459.657299
265.664197,1554.432478,-7846.182985,-306.438199
265.664519,740.205942,-8142.265362,-306.438199
265.664842,0.000000,-8142.265362,-995.924147
265.665164,-1110.308913,-8438.347739,-1455.581446
265.665487,-1184.329507,-9030.512492,-2528.115143
265.665809,-1184.329507,-9622.677246,-2681.334243
265.666132,-1406.391290,-10214.842000,-2528.115143
265.666454,-1702.473667,-10881.027347,-1991.848295
265.666777,-1776.494261,-10732.986159,-1532.190996
265.667100,-1850.514855,-10732.986159,-2451.505594
265.667422,-1480.411884,-10362.883188,-2528.115143
265.667745,-1480.411884,-9696.697840,-2221.676944
265.668067,-1332.370696,-8956.491898,-1762.019645
265.668390,-1554.432478,-8512.368333,-1072.533697
265.668712,-592.164754,-9030.512492,-766.095498
265.669035,-444.123565,-9178.553681,-689.485948
265.669357,-296.082377,-9400.615463,-1149.143247
265.669680,-148.041188,-9474.636058,-919.314598
265.670002,370.102971,-9326.594869,-229.828649
265.670325,1184.329507,-9104.533087,-1072.533697
265.670647,1184.329507,-8808.450710,-1378.971896
265.670970,1406.391290,-9030.512492,-1532.190996
265.671292,1184.329507,-9252.574275,-1532.190996
265.671615,1036.288319,-9844.739029,-2528.115143
265.671938,518.144159,-9844.739029,-2681.334243
265.672260,592.164754,-10510.924376,-2681.334243
265.672583,518.144159,-10658.965565,-2221.676944
265.672905,740.205942,-10732.986159,-1915.238745
265.673228,444.123565,-10066.800811,-2221.676944
265.673550,74.020594,-9326.594869,-2298.286494
265.673873,-370.102971,-9030.512492,-1762.019645
265.674195,-740.205942,-9030.512492,-1762.019645
265.674518,-1110.308913,-8956.491898,-1838.629195
265.674840,-1480.411884,-9104.533087,-1225.752797
265.675163,-1332.370696,-9326.594869,-766.095498
265.675485,-962.267725,-9252.574275,-612.876398
265.675808,-740.205942,-8660.409521,-919.314598
265.676130,0.000000,-8364.327145,-919.314598
265.676453,74.020594,-7846.182985,-536.266849
265.676775,222.061783,-7698.141797,0.000000
265.677098,0.000000,-7772.162391,-766.095498
265.677421,-740.205942,-8512.368333,-1608.800546
265.677743,-1554.432478,-8882.471304,-2145.067394
265.678066,-1850.514855,-9178.553681,-2528.115143
265.678388,-1998.556043,-9104.533087,-2834.553343
265.678711,-2294.638420,-9178.553681,-2681.334243
265.679033,-1554.432478,-9844.739029,-2681.334243
265.679356,-1258.350101,-10140.821405,-2451.505594
265.679678,-1110.308913,-10066.800811,-2451.505594
265.680001,-962.267725,-9992.780217,-2604.724693
265.680323,-666.185348,-10436.903782,-2221.676944
265.680646,-444.123565,-10436.903782,-1685.410096
265.680968,-962.267725,-10140.821405,-1302.362347
265.681291,-962.267725,-9918.759623,-1072.533697
265.681613,-444.123565,-9548.656652,-766.095498
265.681936,0.000000,-8956.491898,-536.266849
265.682259,814.226536,-8438.347739,-689.485948
265.682581,1184.329507,-8290.306550,-536.266849
265.682904,1258.350101,-8438.347739,-612.876398
265.683226,1110.308913,-8660.409521,-842.705048
265.683549,740.205942,-8882.471304,-1149.143247
265.683871,222.061783,-9252.574275,-2374.896044
265.684194,148.041188,-9770.718434,-2528.115143
265.684516,-370.102971,-10140.821405,-2987.772442
265.684839,-962.267725,-10658.965565,-2834.553343
265.685161,-1110.308913,-11029.068536,-2757.943793
265.685484,-1110.308913,-10881.027347,-2681.334243
265.685806,-962.267725,-10658.965565,-3294.210641
265.686129,-1406.391290,-10510.924376,-2604.724693
265.686451,-1480.411884,-10140.821405,-2221.676944
265.686774,-1924.535449,-9622.677246,-1455.581446
265.687096,-1998.556043,-9178.553681,-766.095498
265.687419,-1332.370696,-8660.409521,-383.047749
265.687742,-962.267725,-8142.265362,-766.095498
265.688064,0.000000,-7624.121203,0.000000
265.688387,444.123565,-7402.059420,459.657299
265.688709,1332.370696,-7920.203579,842.705048
265.689032,1406.391290,-7698.141797,229.828649
265.689354,888.247130,-7624.121203,-153.219100
265.689677,148.041188,-7920.203579,-612.876398
265.689999,-518.144159,-8586.388927,-1302.362347
265.690322,-1036.288319,-8956.491898,-2451.505594
265.690644,-1480.411884,-9474.636058,-3064.381992
265.690967,-1998.556043,-10436.903782,-2834.553343
265.691289,-1924.535449,-10955.047942,-2145.067394
265.691612,-2220.617826,-10955.047942,-2451.505594
265.691934,-1850.514855,-10732.986159,-2987.772442
265.692257,-1480.411884,-10510.924376,-2604.724693
265.692580,-1406.391290,-9474.636058,-1915.238745
265.692902,-1036.288319,-8956.491898,-2068.457845
265.693225,-1110.308913,-8586.388927,-1455.581446
265.693547,-666.185348,-8734.430116,-1455.581446
265.693870,-518.144159,-9178.553681,-842.705048
265.694192,-222.061783,-9030.512492,-1378.971896
265.694515,0.000000,-8956.491898,-1149.143247
265.694837,592.164754,-9178.553681,-536.266849
265.695145,1480.411884,-9178.553681,-995.924147
265.695467,1628.453072,-8808.450710,-1378.971896
265.695790,1628.453072,-8882.471304,-1685.410096
265.696112,1702.473667,-9474.636058,-1915.238745
265.696435,1110.308913,-9548.656652,-2068.457845
265.696757,1110.308913,-10066.800811,-2757.943793
265.697080,962.267725,-10436.903782,-2911.162892
265.697402,1110.308913,-10807.006753,-2604.724693
265.697725,1036.288319,-10955.047942,-2221.676944
265.698048,740.205942,-9918.759623,-1838.629195
265.698370,666.185348,-9474.636058,-2221.676944
265.698693,0.000000,-9030.512492,-2145.067394
265.699015,0.000000,-9474.636058,-1608.800546
265.699338,-444.123565,-9474.636058,-1608.800546
265.699660,-740.205942,-9104.533087,-1378.971896
265.699983,-518.144159,-9178.553681,-995.924147
265.700305,-148.041188,-8882.471304,-306.438199
265.700628,592.164754,-9030.512492,0.000000
265.700950,814.226536,-8734.430116,0.000000
265.701273,962.267725,-7994.224174,0.000000
265.701595,518.144159,-8216.285956,-306.438199
265.701918,74.020594,-7994.224174,-536.266849
265.702240,-666.185348,-7994.224174,-766.095498
265.702563,-1480.411884,-8438.347739,-1302.362347
265.702885,-1998.556043,-8734.430116,-1991.848295
265.703208,-2146.597232,-8956.491898,-1991.848295
265.703530,-2442.679609,-9252.574275,-2374.896044
265.703853,-2442.679609,-9844.739029,-2451.505594
265.704175,-2294.638420,-10584.944971,-2451.505594
265.704498,-2294.638420,-10436.903782,-2451.505594
265.704821,-1924.535449,-9992.780217,-2604.724693
265.705143,-1924.535449,-10140.821405,-2911.162892
265.705466,-2146.597232,-10362.883188,-2451.505594
265.705788,-2146.597232,-10066.800811,-1991.848295
265.706111,-2220.617826,-9844.739029,-1532.190996
265.706433,-1924.535449,-9844.739029,-1072.533697
265.706756,-666.185348,-9474.636058,-1072.533697
265.707078,0.000000,-8882.471304,-766.095498
265.707401,592.164754,-8290.306550,-766.095498
265.707723,1184.329507,-8364.327145,-689.485948
265.708046,1258.350101,-8068.244768,-306.438199
265.708368,1110.308913,-8290.306550,-842.705048
265.708691,148.041188,-9030.512492,-1685.410096
265.709013,0.000000,-9474.636058,-2374.896044
265.709336,0.000000,-9992.780217,-2604.724693
265.709658,-296.082377,-10510.924376,-2757.943793
265.709981,0.000000,-10807.006753,-2757.943793
265.710303,-444.123565,-11103.089130,-2528.115143
265.710626,-518.144159,-10584.944971,-2528.115143
265.710948,-1110.308913,-10362.883188,-2681.334243
265.711271,-1406.391290,-10362.883188,-2451.505594
265.711594,-2072.576638,-10140.821405,-1762.019645
265.711916,-2886.803174,-9178.553681,-689.485948
265.712239,-2220.617826,-9104.533087,-766.095498
265.712561,-1332.370696,-8660.409521,-766.095498
265.712884,-222.061783,-7994.224174,-459.657299
265.713206,666.185348,-7476.080014,0.000000
265.713529,1184.329507,-7550.100608,383.047749
265.713851,1924.535449,-7254.018232,229.828649
265.714174,1554.432478,-7772.162391,-229.828649
265.714496,814.226536,-7698.141797,-383.047749
