#time,accel_x,accel_y,accel_z
438.808086,-148.041188,-9474.636058,-1378.971896
438.808407,-222.061783,-9474.636058,-995.924147
438.808729,-518.144159,-9474.636058,-1149.143247
438.809051,-222.061783,-9178.553681,-1072.533697
438.809373,-222.061783,-8808.450710,-919.314598
438.809694,0.000000,-9326.594869,-1378.971896
438.810016,0.000000,-8808.450710,-1225.752797
438.810338,0.000000,-9104.533087,-1225.752797
438.810660,-222.061783,-9474.636058,-1302.362347
438.810981,0.000000,-9548.656652,-995.924147
438.811303,-222.061783,-9326.594869,-1762.019645
438.811625,0.000000,-9622.677246,-1455.581446
438.811947,-296.082377,-9696.697840,-1378.971896
438.812268,-296.082377,-9252.574275,-1532.190996
438.812590,0.000000,-9252.574275,-1532.190996
438.812912,-222.061783,-9252.574275,-1149.143247
438.813234,0.000000,-9178.553681,-1685.410096
438.813555,-296.082377,-9104.533087,-1532.190996
438.813877,-444.123565,-9400.615463,-1455.581446
438.814199,-518.144159,-9548.656652,-1685.410096
438.814521,-740.205942,-9474.636058,-1378.971896
438.814842,-296.082377,-9622.677246,-1302.362347
438.815164,-148.041188,-9474.636058,-1915.238745
438.815486,-592.164754,-9474.636058,-1608.800546
438.815808,-444.123565,-9400.615463,-1838.629195
438.816129,-370.102971,-9400.615463,-1762.019645
438.816451,-518.144159,-9178.553681,-1685.410096
438.816773,-296.082377,-9474.636058,-2221.676944
438.817095,-518.144159,-9622.677246,-2145.067394
438.817416,-740.205942,-9770.718434,-1762.019645
438.817738,-888.247130,-9696.697840,-1608.800546
438.818060,-518.144159,-9992.780217,-1838.629195
438.818382,-444.123565,-9696.697840,-1991.848295
438.818703,-518.144159,-9548.656652,-1685.410096
438.819025,-296.082377,-9474.636058,-1685.410096
438.819347,-296.082377,-9548.656652,-1915.238745
438.819669,-370.102971,-9252.574275,-1378.971896
438.819990,-370.102971,-9400.615463,-1378.971896
438.820312,-296.082377,-9474.636058,-1762.019645
438.820634,-296.082377,-9696.697840,-1685.410096
438.820956,-370.102971,-9622.677246,-1608.800546
438.821277,-370.102971,-9474.636058,-1532.190996
438.821599,74.020594,-9400.615463,-1608.800546
438.821921,-296.082377,-9252.574275,-1455.581446
438.822243,0.000000,-9104.533087,-1685.410096
438.822564,-370.102971,-9178.553681,-1532.190996
438.822886,-222.061783,-9252.574275,-1608.800546
438.823208,0.000000,-9252.574275,-995.924147
438.823530,-444.123565,-8956.491898,-1532.190996
438.823851,-518.144159,-9474.636058,-1149.143247
438.824173,-222.061783,-9474.636058,-1149.143247
438.824495,-296.082377,-9326.594869,-1149.143247
438.824817,-148.041188,-9178.553681,-1532.190996
438.825138,0.000000,-8586.388927,-1378.971896
438.825460,0.000000,-9178.553681,-1225.752797
438.825782,0.000000,-9178.553681,-1302.362347
438.826104,296.082377,-9400.615463,-1378.971896
438.826425,962.267725,-9844.739029,-1225.752797
438.826747,1258.350101,-10066.800811,-919.314598
438.827069,666.185348,-9548.656652,-306.438199
438.827391,592.164754,-8808.450710,-306.438199
438.827712,444.123565,-8808.450710,-1225.752797
438.828034,0.000000,-8956.491898,-1532.190996
438.828356,-888.247130,-8364.327145,-1302.362347
438.828678,-814.226536,-8586.388927,-1685.410096
438.828999,-444.123565,-9104.533087,-1762.019645
438.829321,0.000000,-10288.862594,-1685.410096
438.829643,0.000000,-10362.883188,-689.485948
438.829965,-370.102971,-9474.636058,-536.266849
438.830286,740.205942,-8956.491898,-1149.143247
438.830608,1628.453072,-9696.697840,-2068.457845
438.830930,1998.556043,-10362.883188,-1762.019645
438.831252,962.267725,-9104.533087,-306.438199
438.831573,1628.453072,-8734.430116,-536.266849
438.831895,3108.864956,-9326.594869,-995.924147
438.832217,3775.050304,-9696.697840,-1072.533697
438.832539,2738.761985,-8956.491898,-153.219100
438.832860,2294.638420,-8142.265362,-383.047749
438.833182,3034.844362,-8216.285956,-919.314598
438.833504,3256.906145,-8956.491898,-1455.581446
438.833826,2368.659014,-9252.574275,-919.314598
438.834147,2516.700203,-8290.306550,-1378.971896
438.834469,2960.823768,-8808.450710,-2451.505594
438.834791,3775.050304,-10436.903782,-2528.115143
438.835113,3775.050304,-10732.986159,-1685.410096
438.835434,3034.844362,-9844.739029,-1378.971896
438.835756,4071.132681,-10362.883188,-2451.505594
438.836078,4737.318029,-10881.027347,-2221.676944
438.836400,4663.297435,-10066.800811,-2451.505594
438.836721,4145.153275,-9474.636058,-2451.505594
438.837043,3923.091493,-9474.636058,-1149.143247
438.837365,3997.112087,-8808.450710,-1378.971896
438.837687,4663.297435,-8586.388927,-1915.238745
438.838008,4885.359217,-8808.450710,-2145.067394
438.838330,5107.421000,-9104.533087,-1608.800546
438.838652,5255.462188,-9474.636058,-1532.190996
438.838974,5329.482782,-8586.388927,-1455.581446
438.839295,5551.544565,-9104.533087,-1378.971896
438.839617,4515.256246,-9252.574275,-1915.238745
438.839939,2812.782580,-9992.780217,-2681.334243
438.840261,1258.350101,-11177.109724,-2604.724693
438.840582,222.061783,-12287.418637,-1991.848295
438.840904,0.000000,-12509.480420,-1378.971896
438.841226,-296.082377,-13249.686362,-229.828649
438.841548,0.000000,-12583.501014,459.657299
438.841869,1036.288319,-11399.171507,842.705048
438.842191,1776.494261,-9770.718434,1455.581446
438.842513,1480.411884,-7994.224174,1685.410096
438.842835,740.205942,-6439.791695,1455.581446
438.843156,-296.082377,-4589.276840,0.000000
438.843478,-296.082377,-4515.256246,-1455.581446
438.843800,222.061783,-4737.318029,-2528.115143
438.844122,2146.597232,-5329.482782,-3217.601092
438.844443,4589.276840,-6365.771101,-4060.306139
438.844765,5773.606348,-8068.244768,-3753.867940
438.845087,6957.935855,-10510.924376,-3140.991542
438.845409,6365.771101,-12435.459826,-3217.601092
438.845730,5107.421000,-13989.892304,-3064.381992
438.846052,4589.276840,-14063.912898,-2451.505594
438.846374,4219.173869,-14359.995275,-2221.676944
438.846696,3330.926739,-13619.789333,-383.047749
438.847017,1924.535449,-11843.295072,2374.896044
438.847339,1258.350101,-9548.656652,3600.648841
438.847661,1998.556043,-7105.977043,3370.820191
438.847983,1776.494261,-5255.462188,2681.334243
438.848304,888.247130,-3775.050304,2757.943793
438.848626,-148.041188,-2886.803174,2145.067394
438.848948,0.000000,-4367.215058,383.047749
438.849270,592.164754,-6587.832884,-383.047749
438.849591,518.144159,-8586.388927,-1838.629195
438.849913,148.041188,-10140.821405,-3524.039291
438.850235,518.144159,-12287.418637,-4596.572988
438.850557,1036.288319,-14211.954086,-4903.011187
438.850878,814.226536,-16654.633695,-5362.668486
438.851200,518.144159,-16506.592507,-4673.182538
438.851522,296.082377,-14508.036463,-4366.744339
438.851844,1480.411884,-11769.274478,-3677.258390
438.852165,2886.803174,-9844.739029,-3294.210641
438.852487,4663.297435,-8364.327145,-1608.800546
438.852809,5773.606348,-8142.265362,689.485948
438.853131,6439.791695,-7624.121203,2145.067394
438.853452,7031.956449,-6883.915261,3524.039291
438.853774,8660.409521,-4959.379811,2374.896044
438.854096,8438.347739,-4811.338623,1915.238745
438.854418,6439.791695,-4515.256246,2987.772442
438.854739,3997.112087,-3552.988522,3064.381992
438.855061,3256.906145,-5625.565159,-1838.629195
438.855383,2442.679609,-8882.471304,-4060.306139
438.855705,296.082377,-9918.759623,-2911.162892
438.856026,-1702.473667,-11843.295072,-2757.943793
438.856348,-2146.597232,-15544.324782,-3370.820191
438.856670,-2368.659014,-16580.613101,-4213.525239
438.856992,-3330.926739,-13471.748144,-5056.230287
438.857313,-2664.741391,-10288.862594,-5132.839837
438.857635,-296.082377,-9844.739029,-4673.182538
438.857957,1258.350101,-9770.718434,-4749.792088
438.858279,3330.926739,-8956.491898,-3370.820191
438.858600,5773.606348,-9104.533087,-766.095498
438.858922,7698.141797,-9474.636058,229.828649
438.859244,8734.430116,-9548.656652,842.705048
438.859566,8290.306550,-8216.285956,1072.533697
438.859887,7550.100608,-6809.894666,306.438199
438.860209,6217.729913,-7476.080014,459.657299
438.860531,3849.070898,-9030.512492,919.314598
438.860853,0.000000,-8438.347739,1302.362347
438.861174,-2960.823768,-7846.182985,536.266849
438.861496,-2812.782580,-9178.553681,-1072.533697
438.861818,-1702.473667,-10732.986159,-2604.724693
438.862140,0.000000,-10955.047942,-3217.601092
438.862461,518.144159,-10288.862594,-1378.971896
438.862783,2220.617826,-9918.759623,536.266849
438.863105,4441.235652,-9474.636058,-995.924147
438.863427,5699.585753,-9252.574275,-4290.134789
438.863748,5329.482782,-9622.677246,-4596.572988
438.864070,4737.318029,-9474.636058,-2911.162892
438.864392,4737.318029,-8956.491898,-1685.410096
438.864714,4737.318029,-8734.430116,-1532.190996
438.865035,3997.112087,-8364.327145,-383.047749
438.865357,1924.535449,-7772.162391,76.609550
438.865679,1480.411884,-7772.162391,-1532.190996
438.866001,1776.494261,-9178.553681,-3217.601092
438.866322,1184.329507,-10955.047942,-2298.286494
438.866644,-592.164754,-9326.594869,2451.505594
438.866966,-1702.473667,-6513.812290,4136.915689
438.867288,-1110.308913,-8364.327145,229.828649
438.867609,1332.370696,-11473.192101,-3370.820191
438.867931,2516.700203,-13471.748144,-3677.258390
438.868253,2072.576638,-14137.933492,-1532.190996
438.868575,3478.967927,-14285.974681,2528.115143
438.868896,5181.441594,-12805.562797,3294.210641
438.869218,6513.812290,-9474.636058,689.485948
438.869540,7550.100608,-6143.709319,-1532.190996
438.869862,7624.121203,-7031.956449,-2834.553343
438.870183,8660.409521,-9400.615463,-3677.258390
438.870505,8808.450710,-8956.491898,-536.266849
438.870827,8512.368333,-7328.038826,2221.676944
438.871149,6587.832884,-6957.935855,3294.210641
438.871470,3923.091493,-6439.791695,2298.286494
438.871792,296.082377,-3701.029710,-1532.190996
438.872114,-2886.803174,-3108.864956,-5056.230287
438.872436,-4737.318029,-6735.874072,-5132.839837
438.872757,-4515.256246,-11991.336260,-3524.039291
438.873079,-3108.864956,-12287.418637,-2451.505594
438.873401,-1258.350101,-12139.377449,-2681.334243
438.873723,592.164754,-13841.851115,-1378.971896
438.874044,666.185348,-13619.789333,-1225.752797
438.874366,-1554.432478,-11695.253884,-3217.601092
438.874688,-2146.597232,-9770.718434,-4979.620737
438.875010,888.247130,-11029.068536,-4673.182538
438.875332,3552.988522,-12805.562797,-4290.134789
438.875654,5995.668130,-13175.665768,-1762.019645
438.875976,8512.368333,-11103.089130,2987.772442
438.876298,10881.027347,-8512.368333,4519.963438
438.876620,11991.336260,-6291.750507,3983.696590
438.876942,11251.130318,-5403.503377,1455.581446
438.877264,9770.718434,-5107.421000,-2298.286494
438.877586,8068.244768,-6735.874072,-1838.629195
438.877908,5551.544565,-6439.791695,-842.705048
438.878230,666.185348,-7031.956449,-229.828649
438.878552,-2146.597232,-7994.224174,0.000000
438.878874,-2442.679609,-9400.615463,-2757.943793
438.879196,-2886.803174,-10288.862594,-5898.935335
438.879518,-3552.988522,-11991.336260,-6588.421283
438.879840,-5995.668130,-13175.665768,-3447.429741
438.880162,-7550.100608,-12731.542202,-1991.848295
438.880484,-7772.162391,-10732.986159,-3064.381992
438.880806,-6809.894666,-11399.171507,-5515.887586
438.881128,-5329.482782,-12879.583391,-5975.544884
438.881450,-2738.761985,-12805.562797,-3524.039291
438.881772,222.061783,-10732.986159,-612.876398
438.882094,4145.153275,-8438.347739,1608.800546
438.882416,9104.533087,-6217.729913,2528.115143
438.882738,11029.068536,-4219.173869,1378.971896
438.883060,10288.862594,-3775.050304,153.219100
438.883382,8586.388927,-4885.359217,689.485948
438.883704,7328.038826,-6291.750507,919.314598
438.884026,7105.977043,-8364.327145,306.438199
438.884347,6587.832884,-9400.615463,-1302.362347
438.884669,6143.709319,-10955.047942,-1991.848295
438.884991,4441.235652,-12361.439231,-1378.971896
438.885313,2294.638420,-13767.830521,0.000000
438.885635,0.000000,-12657.521608,-919.314598
438.885957,-2368.659014,-11547.212695,-2298.286494
438.886279,-3701.029710,-12509.480420,-2834.553343
438.886601,-4293.194464,-13249.686362,-2604.724693
438.886923,-4145.153275,-10881.027347,-2451.505594
438.887245,-2960.823768,-9178.553681,-459.657299
438.887567,-1332.370696,-9104.533087,1225.752797
438.887889,-1258.350101,-7105.977043,1532.190996
438.888211,-148.041188,-6069.688724,0.000000
438.888533,888.247130,-6587.832884,-1378.971896
438.888855,1628.453072,-6809.894666,153.219100
438.889177,518.144159,-5107.421000,0.000000
438.889499,-296.082377,-4811.338623,-1915.238745
438.889821,-666.185348,-6735.874072,-3524.039291
438.890143,-1776.494261,-8364.327145,-4213.525239
438.890465,-2368.659014,-11103.089130,-4673.182538
438.890787,-1332.370696,-14878.139434,-2834.553343
438.891109,444.123565,-16580.613101,-1532.190996
438.891431,1480.411884,-15766.386565,-1378.971896
438.891753,2220.617826,-13397.727550,-306.438199
438.892075,3552.988522,-10881.027347,383.047749
438.892397,4071.132681,-9474.636058,-536.266849
438.892719,3478.967927,-7772.162391,-1225.752797
438.893041,3552.988522,-5921.647536,612.876398
438.893363,4293.194464,-5921.647536,1991.848295
438.893685,4367.215058,-6957.935855,2528.115143
438.894007,2294.638420,-5847.626942,1991.848295
438.894329,-1332.370696,-4367.215058,536.266849
438.894651,-5255.462188,-3923.091493,-612.876398
438.894973,-8364.327145,-6957.935855,-2374.896044
438.895295,-9622.677246,-9696.697840,-4443.353888
438.895617,-10066.800811,-10732.986159,-5898.935335
438.895939,-9400.615463,-11251.130318,-4903.011187
438.896261,-7402.059420,-11843.295072,-3907.087040
438.896582,-6439.791695,-12435.459826,-4136.915689
438.896904,-4737.318029,-12139.377449,-4443.353888
438.897226,-2294.638420,-10807.006753,-4519.963438
438.897548,296.082377,-9844.739029,-4903.011187
438.897870,2294.638420,-10510.924376,-3600.648841
438.898192,3552.988522,-10288.862594,-766.095498
438.898514,4293.194464,-7920.203579,0.000000
438.898836,5921.647536,-6661.853478,-995.924147
438.899158,6809.894666,-7105.977043,-1149.143247
438.899480,5033.400406,-8660.409521,76.609550
438.899802,1332.370696,-7698.141797,1149.143247
438.900124,-296.082377,-8216.285956,1762.019645
438.900446,666.185348,-10214.842000,-689.485948
438.900768,1850.514855,-12065.356855,-1991.848295
438.901090,1998.556043,-11103.089130,-1608.800546
438.901412,1776.494261,-9400.615463,-229.828649
438.901734,2442.679609,-11029.068536,0.000000
438.902056,2294.638420,-11769.274478,-1149.143247
438.902378,962.267725,-11621.233289,-3140.991542
438.902700,296.082377,-10066.800811,-3677.258390
438.903022,0.000000,-9400.615463,-3830.477490
438.903344,-296.082377,-8808.450710,-3447.429741
438.903666,-1850.514855,-8956.491898,-3140.991542
438.903988,-3775.050304,-9252.574275,-2374.896044
438.904310,-5625.565159,-9548.656652,-1378.971896
438.904632,-6957.935855,-9696.697840,-1532.190996
438.904954,-6735.874072,-8734.430116,-2528.115143
438.905276,-5551.544565,-7994.224174,-2757.943793
438.905598,-4367.215058,-8438.347739,-1072.533697
438.905920,-2886.803174,-8734.430116,1608.800546
438.906242,-1776.494261,-7550.100608,1991.848295
438.906564,222.061783,-7624.121203,612.876398
438.906886,2146.597232,-7920.203579,-612.876398
438.907208,4145.153275,-8808.450710,-306.438199
438.907530,5995.668130,-9326.594869,-459.657299
438.907852,7179.997637,-9992.780217,153.219100
438.908174,7328.038826,-10362.883188,1378.971896
438.908496,5625.565159,-9030.512492,995.924147
438.908818,4441.235652,-9178.553681,-383.047749
438.909139,2738.761985,-10214.842000,-1685.410096
438.909461,1036.288319,-10066.800811,-2221.676944
438.909783,-592.164754,-8808.450710,-1608.800546
438.910105,-1184.329507,-8956.491898,76.609550
438.910427,-1554.432478,-9326.594869,-153.219100
438.910749,-2590.720797,-8882.471304,-842.705048
438.911071,-3552.988522,-9326.594869,-689.485948
438.911393,-4367.215058,-9770.718434,-306.438199
438.911715,-4441.235652,-9104.533087,-1149.143247
438.912037,-3923.091493,-8364.327145,-1915.238745
438.912359,-2294.638420,-9178.553681,-2451.505594
438.912681,-1110.308913,-9104.533087,-2298.286494
438.913003,-1184.329507,-8586.388927,-2221.676944
438.913325,-2294.638420,-8438.347739,-1915.238745
438.913647,-3256.906145,-9548.656652,-2068.457845
438.913969,-4071.132681,-10807.006753,-3370.820191
438.914291,-3478.967927,-11769.274478,-3524.039291
438.914613,-2738.761985,-11695.253884,-3140.991542
438.914935,-1110.308913,-11029.068536,-2298.286494
438.915257,740.205942,-10881.027347,-1532.190996
438.915579,1628.453072,-9770.718434,0.000000
438.915901,2368.659014,-9548.656652,-842.705048
438.916223,2442.679609,-9696.697840,-612.876398
438.916545,2664.741391,-8808.450710,0.000000
438.916867,2812.782580,-7624.121203,-995.924147
438.917189,3034.844362,-8216.285956,-1532.190996
438.917511,1554.432478,-9030.512492,-995.924147
438.917833,-1332.370696,-8734.430116,-306.438199
438.918155,-2442.679609,-8586.388927,-1302.362347
438.918477,-3330.926739,-9326.594869,-3370.820191
438.918799,-4441.235652,-10140.821405,-3600.648841
438.919121,-5699.585753,-9770.718434,-1915.238745
438.919443,-5847.626942,-9548.656652,-2221.676944
438.919765,-3478.967927,-9696.697840,-2451.505594
438.920087,-1554.432478,-9548.656652,-2757.943793
438.920409,-888.247130,-8808.450710,-2604.724693
438.920731,-370.102971,-8438.347739,-1532.190996
438.921053,444.123565,-8512.368333,-1302.362347
438.921375,2294.638420,-9400.615463,-1378.971896
438.921696,3775.050304,-10066.800811,-1838.629195
438.922018,4219.173869,-9104.533087,-1072.533697
438.922340,2738.761985,-7031.956449,229.828649
438.922662,1998.556043,-6291.750507,689.485948
438.922984,1480.411884,-6439.791695,-2451.505594
438.923306,666.185348,-7698.141797,-3907.087040
438.923628,-1480.411884,-9548.656652,-2068.457845
438.923950,-3182.885551,-10510.924376,-459.657299
438.924272,-1776.494261,-11621.233289,-995.924147
438.924594,296.082377,-13323.706956,-2374.896044
438.924916,370.102971,-13989.892304,-1838.629195
438.925238,0.000000,-12065.356855,-536.266849
438.925560,222.061783,-9030.512492,-459.657299
438.925882,1776.494261,-8956.491898,-1838.629195
438.926204,3256.906145,-10362.883188,-2834.553343
438.926526,2812.782580,-10436.903782,-1991.848295
438.926848,2220.617826,-9252.574275,-229.828649
438.927170,2146.597232,-8882.471304,612.876398
438.927492,1480.411884,-9178.553681,-1072.533697
438.927814,-296.082377,-8808.450710,-2298.286494
438.928136,-2886.803174,-8956.491898,-1915.238745
438.928458,-4737.318029,-8734.430116,-995.924147
438.928780,-4737.318029,-9622.677246,-1149.143247
438.929102,-4071.132681,-10066.800811,-1378.971896
438.929424,-3478.967927,-8956.491898,-1532.190996
438.929746,-2812.782580,-8882.471304,-1072.533697
438.930068,-1998.556043,-8882.471304,-995.924147
438.930390,-1406.391290,-8734.430116,-536.266849
438.930712,-518.144159,-8438.347739,-766.095498
438.931034,888.247130,-8734.430116,-1762.019645
438.931356,1924.535449,-9992.780217,-2145.067394
438.931678,2072.576638,-10436.903782,-306.438199
438.932000,1110.308913,-10066.800811,536.266849
438.932322,148.041188,-9400.615463,0.000000
438.932644,-518.144159,-8956.491898,-995.924147
438.932966,-888.247130,-8734.430116,-459.657299
438.933288,-1184.329507,-8438.347739,-306.438199
438.933610,-814.226536,-7698.141797,-612.876398
438.933932,-148.041188,-7476.080014,-306.438199
438.934253,0.000000,-7920.203579,0.000000
438.934575,-888.247130,-8290.306550,-229.828649
438.934897,-1850.514855,-8734.430116,0.000000
438.935219,-1850.514855,-9400.615463,-1225.752797
438.935541,-1110.308913,-9696.697840,-2221.676944
438.935863,0.000000,-10510.924376,-2451.505594
438.936185,592.164754,-10658.965565,-1225.752797
438.936507,888.247130,-9992.780217,-536.266849
438.936829,-518.144159,-8512.368333,-2145.067394
438.937151,-1776.494261,-9474.636058,-3753.867940
438.937473,-2960.823768,-10066.800811,-3600.648841
438.937795,-3923.091493,-10658.965565,-2757.943793
438.938117,-4293.194464,-11029.068536,-1991.848295
438.938439,-3108.864956,-11251.130318,-1915.238745
438.938761,-1628.453072,-11103.089130,-1532.190996
438.939083,-222.061783,-10214.842000,-1915.238745
438.939405,222.061783,-9030.512492,-1532.190996
438.939727,1184.329507,-7402.059420,-1149.143247
438.940049,1776.494261,-7179.997637,-1225.752797
438.940371,2812.782580,-7920.203579,-1838.629195
438.940693,3108.864956,-9548.656652,-2068.457845
438.941015,2590.720797,-10288.862594,-1149.143247
438.941337,2294.638420,-10214.842000,-995.924147
438.941659,1998.556043,-10436.903782,-1991.848295
438.941981,1036.288319,-11251.130318,-2298.286494
438.942303,-666.185348,-11325.150913,-1762.019645
438.942625,-1628.453072,-9992.780217,-1225.752797
438.942947,-666.185348,-8808.450710,-1915.238745
438.943269,814.226536,-8364.327145,-2221.676944
438.943591,740.205942,-7402.059420,-1991.848295
438.943913,-148.041188,-7476.080014,-995.924147
438.944235,-888.247130,-8364.327145,-306.438199
438.944557,-962.267725,-8586.388927,-459.657299
438.944879,0.000000,-8660.409521,-1532.190996
438.945201,1184.329507,-8882.471304,-2298.286494
438.945523,1184.329507,-8882.471304,-1685.410096
438.945845,1184.329507,-8660.409521,-766.095498
438.946167,888.247130,-8586.388927,-689.485948
438.946489,222.061783,-8808.450710,-1915.238745
438.946810,-888.247130,-9400.615463,-2451.505594
438.947132,-2220.617826,-10214.842000,-2757.943793
438.947454,-3034.844362,-10881.027347,-2221.676944
438.947776,-2146.597232,-10881.027347,-1838.629195
438.948098,-740.205942,-11399.171507,-1225.752797
438.948420,0.000000,-11177.109724,-536.266849
438.948742,0.000000,-10436.903782,536.266849
438.949064,-444.123565,-9400.615463,153.219100
438.949386,0.000000,-9178.553681,-459.657299
438.949708,1036.288319,-8808.450710,-919.314598
438.950030,1554.432478,-8438.347739,-1378.971896
438.950352,1184.329507,-8068.244768,-1378.971896
438.950674,1850.514855,-8734.430116,459.657299
438.950996,1332.370696,-9178.553681,-306.438199
438.951318,-518.144159,-10214.842000,-1302.362347
438.951640,-2738.761985,-10658.965565,-1378.971896
438.951962,-4589.276840,-9992.780217,-536.266849
438.952284,-4663.297435,-10214.842000,-1838.629195
438.952606,-3849.070898,-9992.780217,-2451.505594
438.952928,-3108.864956,-9104.533087,-2757.943793
438.953250,-2368.659014,-7698.141797,-1915.238745
438.953572,-2220.617826,-8068.244768,-612.876398
438.953894,-2368.659014,-8364.327145,76.609550
438.954216,-2220.617826,-7920.203579,-1608.800546
438.954538,-1924.535449,-7994.224174,-3217.601092
438.954860,-1702.473667,-9992.780217,-2987.772442
438.955182,-1332.370696,-10140.821405,-1302.362347
438.955504,-666.185348,-7994.224174,-689.485948
438.955826,592.164754,-7994.224174,-2374.896044
438.956148,1110.308913,-10214.842000,-1608.800546
438.956470,0.000000,-10807.006753,-612.876398
438.956792,-888.247130,-9548.656652,-459.657299
438.957114,0.000000,-9400.615463,-995.924147
438.957436,1702.473667,-9400.615463,-1915.238745
438.957758,1850.514855,-8586.388927,-1762.019645
438.958080,1554.432478,-8290.306550,-306.438199
438.958402,1258.350101,-8660.409521,229.828649
438.958724,1998.556043,-8808.450710,-1149.143247
438.959046,2590.720797,-9474.636058,-1532.190996
438.959367,2072.576638,-10214.842000,-1762.019645
438.959689,1406.391290,-9400.615463,-1378.971896
438.960011,1332.370696,-9252.574275,-2451.505594
438.960333,1036.288319,-9844.739029,-2451.505594
438.960655,-222.061783,-10658.965565,-1532.190996
438.960977,-2590.720797,-9474.636058,-2451.505594
438.961299,-3923.091493,-9622.677246,-3830.477490
438.961621,-3627.009116,-11547.212695,-3370.820191
438.961943,-2812.782580,-12509.480420,-2451.505594
438.962265,-2368.659014,-11399.171507,-1685.410096
438.962587,-1554.432478,-10066.800811,153.219100
438.962909,-148.041188,-8956.491898,229.828649
438.963231,962.267725,-7994.224174,-995.924147
438.963553,2220.617826,-6883.915261,-2451.505594
438.963875,3182.885551,-6587.832884,-2451.505594
438.964197,4219.173869,-8068.244768,-1762.019645
438.964519,2960.823768,-8808.450710,-306.438199
438.964841,740.205942,-9326.594869,229.828649
438.965163,-666.185348,-9918.759623,-1455.581446
438.965485,-1332.370696,-11325.150913,-3370.820191
438.965807,-2072.576638,-11843.295072,-3447.429741
438.966129,-2738.761985,-9770.718434,-1762.019645
438.966451,-1332.370696,-9622.677246,-1915.238745
438.966773,740.205942,-9770.718434,-2145.067394
438.967095,1776.494261,-9474.636058,-612.876398
438.967417,1036.288319,-7772.162391,-229.828649
438.967739,888.247130,-7624.121203,-1225.752797
438.968061,740.205942,-8438.347739,-1991.848295
438.968383,222.061783,-9400.615463,-1532.190996
438.968705,-222.061783,-9696.697840,-689.485948
438.969027,-296.082377,-8808.450710,-153.219100
438.969349,518.144159,-8216.285956,-1149.143247
438.969671,962.267725,-7624.121203,-1838.629195
438.969993,0.000000,-8364.327145,-2528.115143
438.970315,-2442.679609,-9252.574275,-1991.848295
438.970637,-4219.173869,-10066.800811,-995.924147
438.970959,-3775.050304,-10807.006753,-1915.238745
438.971281,-2664.741391,-11621.233289,-3140.991542
438.971603,-1776.494261,-11473.192101,-2451.505594
438.971924,-2664.741391,-10584.944971,0.000000
438.972246,-2368.659014,-9918.759623,0.000000
438.972568,-1184.329507,-9474.636058,-995.924147
438.972890,0.000000,-9400.615463,-1685.410096
438.973212,740.205942,-8438.347739,-1225.752797
438.973534,1332.370696,-7772.162391,-1225.752797
438.973856,1554.432478,-7698.141797,-1762.019645
438.974178,888.247130,-9030.512492,-919.314598
438.974500,-296.082377,-9696.697840,0.000000
438.974822,-2146.597232,-8734.430116,-229.828649
438.975143,-2072.576638,-9622.677246,-2145.067394
438.975465,-1850.514855,-10881.027347,-1915.238745
438.975787,-1406.391290,-10584.944971,-995.924147
438.976109,-740.205942,-9178.553681,-842.705048
438.976430,148.041188,-8142.265362,-1149.143247
438.976752,-148.041188,-8142.265362,-383.047749
438.977074,-1184.329507,-8438.347739,-766.095498
438.977396,-2368.659014,-7994.224174,-2451.505594
438.977717,-1924.535449,-8438.347739,-2604.724693
438.978039,-222.061783,-9178.553681,-2451.505594
438.978361,1332.370696,-9696.697840,-2374.896044
438.978682,1036.288319,-9030.512492,-1608.800546
438.979004,666.185348,-8438.347739,-842.705048
438.979326,296.082377,-9326.594869,-2145.067394
438.979648,0.000000,-10584.944971,-3294.210641
438.979969,-1628.453072,-9918.759623,-2451.505594
438.980291,-2146.597232,-9622.677246,-995.924147
438.980613,-1406.391290,-10214.842000,-995.924147
438.980935,296.082377,-9918.759623,-2221.676944
438.981256,1776.494261,-9992.780217,-1685.410096
438.981578,2368.659014,-9252.574275,-306.438199
438.981900,2442.679609,-8068.244768,-842.705048
438.982222,2220.617826,-8438.347739,-1149.143247
438.982543,1406.391290,-9104.533087,-1072.533697
438.982865,1480.411884,-9844.739029,-1762.019645
438.983187,1258.350101,-10140.821405,-2451.505594
438.983509,888.247130,-8734.430116,-1378.971896
438.983830,0.000000,-8956.491898,-1532.190996
438.984152,-1406.391290,-9548.656652,-3370.820191
438.984474,-2368.659014,-10584.944971,-3370.820191
438.984796,-3256.906145,-11917.315666,-2221.676944
438.985117,-3404.947333,-11399.171507,-1762.019645
438.985439,-1924.535449,-10436.903782,-2451.505594
438.985761,-1258.350101,-9696.697840,-2145.067394
438.986083,-1036.288319,-9474.636058,-766.095498
438.986404,-222.061783,-8882.471304,-306.438199
438.986726,518.144159,-7994.224174,-995.924147
438.987048,1406.391290,-7402.059420,-995.924147
438.987370,2960.823768,-7624.121203,-689.485948
438.987691,3404.947333,-7105.977043,-1532.190996
438.988013,2738.761985,-7772.162391,-919.314598
438.988335,1332.370696,-8734.430116,0.000000
438.988657,-592.164754,-8364.327145,-1532.190996
438.988978,-1702.473667,-9252.574275,-3294.210641
438.989300,-3108.864956,-10732.986159,-2834.553343
438.989622,-3849.070898,-11843.295072,-1225.752797
438.989944,-3404.947333,-11177.109724,-536.266849
438.990265,-1850.514855,-10066.800811,-536.266849
438.990587,-666.185348,-8882.471304,-383.047749
438.990909,-666.185348,-7698.141797,-1225.752797
438.991230,-888.247130,-7179.997637,-2145.067394
438.991552,-666.185348,-7920.203579,-1762.019645
438.991874,666.185348,-9400.615463,-1149.143247
438.992196,740.205942,-10066.800811,-995.924147
438.992517,962.267725,-9548.656652,-1149.143247
438.992839,1036.288319,-9326.594869,-1149.143247
438.993161,814.226536,-9104.533087,-2374.896044
438.993483,-666.185348,-8734.430116,-3600.648841
438.993804,-2220.617826,-9178.553681,-3064.381992
438.994126,-2664.741391,-10732.986159,-2221.676944
438.994448,-3552.988522,-11473.192101,-1455.581446
438.994770,-3627.009116,-11325.150913,-1302.362347
438.995091,-2960.823768,-10584.944971,-1838.629195
438.995413,-1036.288319,-9844.739029,-2681.334243
438.995735,0.000000,-9252.574275,-1838.629195
438.996057,444.123565,-9548.656652,-1149.143247
438.996378,1036.288319,-8882.471304,-153.219100
438.996700,2146.597232,-8734.430116,0.000000
438.997022,1998.556043,-8660.409521,-1072.533697
438.997344,1480.411884,-8734.430116,-1378.971896
438.997665,592.164754,-8216.285956,-1532.190996
438.997987,74.020594,-7920.203579,-2145.067394
438.998309,-814.226536,-9474.636058,-2374.896044
438.998631,-1850.514855,-10140.821405,-1532.190996
438.998952,-2812.782580,-10584.944971,-842.705048
438.999274,-2738.761985,-9992.780217,-1225.752797
438.999596,-1480.411884,-10140.821405,-3294.210641
438.999918,-592.164754,-9252.574275,-3064.381992
439.000239,-518.144159,-8364.327145,-1378.971896
439.000561,-1036.288319,-8068.244768,-612.876398
439.000883,-444.123565,-8142.265362,-536.266849
439.001205,888.247130,-8956.491898,-459.657299
439.001526,962.267725,-9178.553681,-1762.019645
439.001848,2072.576638,-9104.533087,-1608.800546
439.002170,2516.700203,-8808.450710,-1225.752797
439.002492,2220.617826,-9030.512492,-306.438199
439.002813,1110.308913,-9104.533087,-689.485948
439.003135,-888.247130,-9474.636058,-842.705048
439.003457,-2072.576638,-9844.739029,-1838.629195
439.003779,-2738.761985,-10362.883188,-2528.115143
439.004100,-2442.679609,-10214.842000,-2298.286494
439.004422,-888.247130,-9400.615463,-1532.190996
439.004744,888.247130,-9474.636058,-689.485948
439.005065,2368.659014,-9252.574275,-689.485948
439.005387,2886.803174,-9474.636058,-459.657299
439.005709,2516.700203,-9178.553681,-995.924147
439.006031,1924.535449,-8956.491898,-1378.971896
439.006352,1850.514855,-9770.718434,-2068.457845
439.006674,1184.329507,-9844.739029,-1838.629195
439.006996,0.000000,-9326.594869,-1608.800546
439.007318,-1480.411884,-9474.636058,-1762.019645
439.007639,-3256.906145,-9104.533087,-2221.676944
439.007961,-3923.091493,-9696.697840,-2757.943793
439.008283,-4219.173869,-10510.924376,-2528.115143
439.008605,-3775.050304,-10658.965565,-2221.676944
439.008926,-2960.823768,-10584.944971,-1378.971896
439.009248,-2368.659014,-9548.656652,-383.047749
439.009570,-1554.432478,-9326.594869,-306.438199
439.009892,-592.164754,-9326.594869,-1915.238745
439.010213,-222.061783,-9326.594869,-1838.629195
439.010535,814.226536,-9474.636058,-766.095498
439.010857,1776.494261,-8438.347739,76.609550
439.011179,2886.803174,-7920.203579,-459.657299
439.011500,4367.215058,-8216.285956,-842.705048
439.011822,3701.029710,-8364.327145,-1685.410096
439.012144,1776.494261,-8216.285956,-1302.362347
439.012466,-666.185348,-8364.327145,-612.876398
439.012787,-2368.659014,-9326.594869,-1378.971896
439.013109,-3849.070898,-10658.965565,-2451.505594
439.013431,-4663.297435,-10214.842000,-1532.190996
439.013753,-4737.318029,-10584.944971,-766.095498
439.014074,-3997.112087,-9770.718434,-1302.362347
439.014396,-2072.576638,-8364.327145,-1762.019645
439.014718,-1110.308913,-8882.471304,-1149.143247
439.015040,-962.267725,-9030.512492,459.657299
439.015361,-518.144159,-8512.368333,-153.219100
439.015683,592.164754,-7476.080014,-2221.676944
439.016005,2220.617826,-8882.471304,-2911.162892
439.016327,1480.411884,-9030.512492,-2145.067394
439.016648,222.061783,-8438.347739,-1455.581446
439.016970,-888.247130,-8734.430116,-1532.190996
439.017292,-666.185348,-10214.842000,-2834.553343
439.017614,-1628.453072,-10807.006753,-3830.477490
439.017935,-2368.659014,-11399.171507,-2528.115143
439.018257,-2442.679609,-10955.047942,-1915.238745
439.018579,-888.247130,-10436.903782,-2068.457845
439.018900,592.164754,-10066.800811,-2451.505594
439.019222,1110.308913,-9770.718434,-1378.971896
439.019544,1110.308913,-9252.574275,-383.047749
439.019866,1702.473667,-7846.182985,-383.047749
439.020187,2590.720797,-8290.306550,-842.705048
439.020509,2886.803174,-9104.533087,-842.705048
439.020831,2368.659014,-9622.677246,-689.485948
439.021153,888.247130,-9178.553681,-689.485948
439.021474,370.102971,-8660.409521,-536.266849
439.021796,74.020594,-7994.224174,-1915.238745
439.022118,-1110.308913,-8290.306550,-3447.429741
439.022440,-2220.617826,-9178.553681,-2604.724693
439.022761,-3034.844362,-9622.677246,-2528.115143
439.023083,-3182.885551,-10732.986159,-3064.381992
439.023405,-2664.741391,-11029.068536,-2528.115143
439.023727,-2368.659014,-10288.862594,-2374.896044
439.024048,-1850.514855,-9992.780217,-2145.067394
439.024370,-1184.329507,-9992.780217,-1378.971896
439.024692,-888.247130,-9474.636058,-383.047749
439.025014,-592.164754,-7698.141797,-459.657299
439.025335,666.185348,-7031.956449,-1302.362347
439.025657,1998.556043,-7846.182985,-1915.238745
439.025979,1924.535449,-8068.244768,-919.314598
439.026301,1554.432478,-8586.388927,-306.438199
439.026622,1332.370696,-9400.615463,0.000000
439.026944,296.082377,-9844.739029,0.000000
439.027266,-518.144159,-10140.821405,-536.266849
439.027588,-888.247130,-10214.842000,-766.095498
439.027909,-370.102971,-9992.780217,-1991.848295
439.028231,222.061783,-9474.636058,-2451.505594
439.028553,296.082377,-9400.615463,-766.095498
439.028875,0.000000,-10288.862594,-459.657299
439.029196,-296.082377,-9992.780217,-536.266849
439.029518,-814.226536,-9622.677246,-1608.800546
439.029840,-592.164754,-9548.656652,-1915.238745
439.030162,-222.061783,-9548.656652,-1991.848295
439.030483,-740.205942,-9770.718434,-1685.410096
439.030805,-1998.556043,-10288.862594,-766.095498
439.031127,-2664.741391,-10362.883188,-689.485948
439.031449,-3330.926739,-9770.718434,-1302.362347
439.031770,-3997.112087,-9030.512492,-995.924147
439.032092,-4145.153275,-7920.203579,-995.924147
439.032414,-2886.803174,-8734.430116,-2221.676944
439.032735,-1406.391290,-9104.533087,-1991.848295
439.033057,-962.267725,-9104.533087,-153.219100
439.033379,-666.185348,-9326.594869,153.219100
439.033701,-592.164754,-9918.759623,-153.219100
439.034022,0.000000,-9770.718434,-1225.752797
439.034344,962.267725,-9400.615463,-1915.238745
439.034666,2294.638420,-9474.636058,-1685.410096
439.034988,3182.885551,-8364.327145,-1072.533697
439.035309,3404.947333,-7698.141797,-612.876398
439.035631,3478.967927,-7476.080014,-1608.800546
439.035953,1776.494261,-8068.244768,-1991.848295
439.036275,-666.185348,-9104.533087,-1915.238745
439.036596,-3182.885551,-9918.759623,-1225.752797
439.036918,-3923.091493,-10362.883188,-1302.362347
439.037240,-3404.947333,-9474.636058,-2298.286494
439.037562,-3108.864956,-9622.677246,-1685.410096
439.037883,-2812.782580,-9474.636058,-689.485948
439.038205,-2146.597232,-8586.388927,-689.485948
439.038527,-1036.288319,-8216.285956,-1685.410096
439.038849,222.061783,-8290.306550,-1072.533697
439.039170,1332.370696,-8438.347739,-1608.800546
439.039492,2294.638420,-8586.388927,-2604.724693
439.039814,2664.741391,-8734.430116,-2757.943793
439.040136,1998.556043,-9178.553681,-1915.238745
439.040457,592.164754,-9474.636058,-2298.286494
439.040779,-518.144159,-9992.780217,-2757.943793
439.041101,-1406.391290,-11843.295072,-2987.772442
439.041423,-1776.494261,-13027.624579,-2221.676944
439.041744,-1110.308913,-12287.418637,-1302.362347
439.042066,0.000000,-10214.842000,-1532.190996
439.042388,888.247130,-9104.533087,-1838.629195
439.042710,888.247130,-8734.430116,-536.266849
439.043031,370.102971,-8956.491898,-995.924147
439.043353,-222.061783,-8956.491898,-1149.143247
439.043675,-740.205942,-9104.533087,-306.438199
439.043997,-888.247130,-9252.574275,-383.047749
439.044318,-518.144159,-9104.533087,-1455.581446
439.044640,148.041188,-8956.491898,-1532.190996
439.044962,222.061783,-8808.450710,-1455.581446
439.045283,-518.144159,-9030.512492,-1532.190996
439.045605,-1924.535449,-8586.388927,-1532.190996
439.045927,-3034.844362,-9104.533087,-1838.629195
439.046249,-2960.823768,-10807.006753,-2604.724693
439.046570,-2368.659014,-11325.150913,-3524.039291
439.046892,-1480.411884,-10955.047942,-2604.724693
439.047214,-1332.370696,-10066.800811,0.000000
439.047536,-1036.288319,-8808.450710,76.609550
439.047857,-296.082377,-7846.182985,-995.924147
439.048179,296.082377,-8808.450710,-1915.238745
439.048501,666.185348,-8956.491898,-842.705048
439.048823,1110.308913,-7624.121203,-229.828649
439.049144,1924.535449,-6957.935855,0.000000
439.049466,2886.803174,-7550.100608,612.876398
439.049788,2368.659014,-7624.121203,0.000000
439.050110,518.144159,-7772.162391,-1455.581446
439.050431,-296.082377,-8512.368333,-1838.629195
439.050753,-666.185348,-9992.780217,-1685.410096
439.051075,-148.041188,-10732.986159,-1685.410096
439.051397,0.000000,-11029.068536,-919.314598
439.051718,0.000000,-10658.965565,-306.438199
439.052040,0.000000,-9622.677246,-1532.190996
439.052362,-148.041188,-9474.636058,-2911.162892
439.052684,-814.226536,-9622.677246,-2068.457845
439.053005,-1406.391290,-9104.533087,-842.705048
439.053327,-962.267725,-8660.409521,-2145.067394
439.053649,444.123565,-9548.656652,-2911.162892
439.053971,1036.288319,-11325.150913,-1378.971896
439.054292,148.041188,-10955.047942,-153.219100
439.054614,-1406.391290,-8882.471304,-306.438199
439.054936,-1776.494261,-9252.574275,-1762.019645
439.055258,-2294.638420,-9992.780217,-1991.848295
439.055579,-3182.885551,-10214.842000,-1532.190996
439.055901,-2960.823768,-9548.656652,-1225.752797
439.056223,-1110.308913,-9030.512492,-1838.629195
439.056545,1036.288319,-10066.800811,-2374.896044
439.056866,1628.453072,-10436.903782,-1455.581446
439.057188,444.123565,-9696.697840,-153.219100
439.057510,444.123565,-9252.574275,-459.657299
439.057832,1554.432478,-9770.718434,-2221.676944
439.058153,2664.741391,-9548.656652,-2145.067394
439.058475,2294.638420,-8586.388927,-1762.019645
439.058797,1258.350101,-7476.080014,-919.314598
439.059118,888.247130,-7402.059420,-995.924147
439.059440,296.082377,-8290.306550,-2374.896044
439.059762,-1702.473667,-8808.450710,-2528.115143
439.060084,-3256.906145,-9474.636058,-1685.410096
439.060405,-4293.194464,-10066.800811,-842.705048
439.060727,-3627.009116,-10140.821405,-1915.238745
439.061049,-2516.700203,-9696.697840,-1762.019645
439.061371,-2220.617826,-8882.471304,-689.485948
439.061692,-1850.514855,-7994.224174,-383.047749
439.062014,-1406.391290,-7698.141797,-1072.533697
439.062336,-222.061783,-7328.038826,-1915.238745
439.062658,1258.350101,-7920.203579,-2298.286494
439.062979,2294.638420,-9030.512492,-1762.019645
439.063301,2146.597232,-9696.697840,-1532.190996
439.063623,1406.391290,-9992.780217,-1149.143247
439.063945,1036.288319,-9844.739029,-2221.676944
439.064266,666.185348,-10288.862594,-3140.991542
439.064588,0.000000,-11029.068536,-2604.724693
439.064910,-1110.308913,-11177.109724,-995.924147
439.065232,-1110.308913,-11029.068536,-1762.019645
439.065553,74.020594,-10584.944971,-1378.971896
439.065875,444.123565,-11029.068536,-1072.533697
439.066197,0.000000,-9918.759623,-383.047749
439.066519,-740.205942,-8734.430116,-689.485948
439.066840,-666.185348,-7624.121203,-995.924147
439.067162,-222.061783,-8364.327145,-612.876398
439.067484,-296.082377,-8364.327145,-919.314598
439.067806,-518.144159,-8882.471304,-1455.581446
439.068127,-222.061783,-9104.533087,-1838.629195
439.068449,-370.102971,-10066.800811,-1455.581446
439.068771,-740.205942,-10066.800811,-1838.629195
439.069093,-2146.597232,-10214.842000,-689.485948
439.069414,-2812.782580,-10140.821405,-995.924147
439.069736,-2294.638420,-10066.800811,-2451.505594
439.070058,-1184.329507,-10214.842000,-2757.943793
439.070380,-370.102971,-10362.883188,-1532.190996
439.070701,-592.164754,-9252.574275,-842.705048
439.071023,-222.061783,-8068.244768,0.000000
439.071345,370.102971,-8882.471304,0.000000
439.071667,518.144159,-9030.512492,-229.828649
439.071988,222.061783,-7328.038826,-612.876398
439.072310,1332.370696,-6587.832884,-842.705048
439.072632,2146.597232,-7920.203579,0.000000
439.072953,2516.700203,-7846.182985,153.219100
439.073275,2146.597232,-8290.306550,-1455.581446
439.073597,814.226536,-9548.656652,-1991.848295
439.073919,-222.061783,-11177.109724,229.828649
439.074240,-1776.494261,-10436.903782,-612.876398
439.074562,-1628.453072,-9252.574275,-2451.505594
439.074884,-666.185348,-9474.636058,-2987.772442
439.075206,-296.082377,-10436.903782,-2221.676944
439.075527,-370.102971,-9400.615463,-995.924147
439.075849,-148.041188,-7550.100608,-1072.533697
439.076171,0.000000,-8142.265362,-2374.896044
439.076493,222.061783,-10214.842000,-2681.334243
439.076814,-740.205942,-9992.780217,-2298.286494
439.077136,-1110.308913,-9622.677246,-2221.676944
439.077458,-1110.308913,-9844.739029,-919.314598
439.077780,-1184.329507,-9548.656652,-1532.190996
439.078102,-2146.597232,-9104.533087,-3370.820191
439.078423,-2886.803174,-9770.718434,-2604.724693
439.078745,-3034.844362,-11399.171507,-1378.971896
439.079067,-2220.617826,-11177.109724,-842.705048
439.079389,-1036.288319,-10362.883188,-1762.019645
439.079710,888.247130,-9696.697840,-1225.752797
439.080032,1702.473667,-9400.615463,-842.705048
439.080354,1332.370696,-9252.574275,-536.266849
439.080676,1258.350101,-8882.471304,-612.876398
439.080998,1480.411884,-8142.265362,-1762.019645
439.081319,1776.494261,-8956.491898,-1991.848295
439.081641,2072.576638,-8438.347739,-766.095498
439.081963,2146.597232,-7994.224174,-153.219100
439.082285,1554.432478,-7254.018232,-1302.362347
439.082607,148.041188,-7179.997637,-2068.457845
439.082928,-1628.453072,-8586.388927,-2834.553343
439.083250,-4071.132681,-10807.006753,-2451.505594
439.083572,-5699.585753,-11621.233289,-2298.286494
439.083894,-5181.441594,-11177.109724,-1915.238745
439.084215,-2590.720797,-10881.027347,-2374.896044
439.084537,-888.247130,-9992.780217,-2681.334243
439.084859,74.020594,-8512.368333,-1225.752797
439.085181,518.144159,-8142.265362,-766.095498
439.085503,666.185348,-7920.203579,-612.876398
439.085824,666.185348,-8216.285956,-459.657299
439.086146,666.185348,-8068.244768,-2145.067394
439.086468,962.267725,-8808.450710,-2298.286494
439.086790,2368.659014,-9918.759623,-1455.581446
439.087111,3330.926739,-10214.842000,-995.924147
439.087433,3330.926739,-9474.636058,-306.438199
439.087755,1480.411884,-8068.244768,153.219100
439.088077,-296.082377,-9696.697840,0.000000
439.088399,-1480.411884,-11177.109724,-1302.362347
439.088720,-1776.494261,-10436.903782,-2911.162892
439.089042,-1480.411884,-10584.944971,-2987.772442
439.089364,-592.164754,-10881.027347,0.000000
439.089686,-1110.308913,-9992.780217,995.924147
439.090008,-962.267725,-8734.430116,-76.609550
439.090329,-814.226536,-8808.450710,-1378.971896
439.090651,-148.041188,-9252.574275,-2374.896044
439.090973,-148.041188,-8956.491898,-3370.820191
439.091295,-592.164754,-9178.553681,-1302.362347
439.091616,-296.082377,-9104.533087,76.609550
439.091938,-148.041188,-9252.574275,-306.438199
439.092260,-518.144159,-9474.636058,-2068.457845
439.092582,-1406.391290,-10510.924376,-2681.334243
439.092904,-2812.782580,-10436.903782,-1455.581446
439.093225,-2294.638420,-10288.862594,-1608.800546
439.093547,-666.185348,-9844.739029,-1762.019645
439.093869,296.082377,-9696.697840,-919.314598
439.094191,814.226536,-9474.636058,76.609550
439.094513,1036.288319,-8586.388927,0.000000
439.094834,1628.453072,-8734.430116,-1608.800546
439.095156,1776.494261,-8734.430116,-1455.581446
439.095478,1628.453072,-8364.327145,-383.047749
439.095800,1998.556043,-7846.182985,0.000000
439.096121,2442.679609,-7476.080014,-1072.533697
439.096443,2368.659014,-8808.450710,-1838.629195
439.096765,222.061783,-9992.780217,-842.705048
439.097087,-2664.741391,-9474.636058,-612.876398
439.097409,-4071.132681,-9548.656652,-1762.019645
439.097730,-3552.988522,-10214.842000,-2834.553343
439.098052,-3478.967927,-10140.821405,-2834.553343
439.098374,-3182.885551,-9178.553681,-1532.190996
439.098696,-2590.720797,-8808.450710,-1532.190996
439.099017,-962.267725,-9178.553681,-1915.238745
439.099339,-444.123565,-9326.594869,-2068.457845
439.099661,-1258.350101,-9474.636058,-919.314598
439.099983,-962.267725,-8882.471304,-995.924147
439.100305,0.000000,-8660.409521,-2834.553343
439.100626,1184.329507,-9548.656652,-3524.039291
439.100948,1406.391290,-10140.821405,-1378.971896
439.101270,1184.329507,-8956.491898,-536.266849
439.101592,74.020594,-7846.182985,-1302.362347
439.101914,-1332.370696,-9474.636058,-1302.362347
439.102235,-1850.514855,-10807.006753,-1302.362347
439.102557,-2368.659014,-10732.986159,-2068.457845
439.102879,-2294.638420,-10881.027347,-1378.971896
439.103201,-1628.453072,-10214.842000,0.000000
439.103522,444.123565,-10066.800811,-995.924147
439.103844,1332.370696,-9178.553681,-1072.533697
439.104166,1258.350101,-9474.636058,383.047749
439.104488,666.185348,-8882.471304,0.000000
439.104810,962.267725,-7550.100608,-1302.362347
439.105131,1628.453072,-7105.977043,-2451.505594
439.105453,1406.391290,-8216.285956,-2298.286494
439.105775,518.144159,-7994.224174,-2221.676944
439.106097,-444.123565,-7550.100608,-2221.676944
439.106419,-1850.514855,-8882.471304,-3677.258390
439.106740,-3034.844362,-11177.109724,-2757.943793
439.107062,-5033.400406,-11695.253884,-2068.457845
439.107384,-5625.565159,-10732.986159,-1838.629195
439.107706,-3256.906145,-10658.965565,-2604.724693
439.108027,-518.144159,-10066.800811,-2911.162892
439.108349,444.123565,-9844.739029,-1608.800546
439.108671,296.082377,-9030.512492,383.047749
439.108993,1406.391290,-8364.327145,919.314598
439.109315,2738.761985,-7920.203579,-842.705048
439.109636,4293.194464,-8142.265362,-1608.800546
439.109958,4737.318029,-8438.347739,-995.924147
439.110280,4293.194464,-7402.059420,306.438199
439.110602,3552.988522,-7920.203579,0.000000
439.110923,2738.761985,-9400.615463,-842.705048
439.111245,1110.308913,-10140.821405,-1378.971896
439.111567,-1258.350101,-10807.006753,-2451.505594
439.111889,-3108.864956,-11621.233289,-2757.943793
439.112211,-3256.906145,-11695.253884,-2145.067394
439.112532,-3034.844362,-12509.480420,-1762.019645
439.112854,-2516.700203,-11547.212695,-1225.752797
439.113176,-1776.494261,-10140.821405,-919.314598
439.113498,-1332.370696,-9030.512492,-1532.190996
439.113820,-1332.370696,-8142.265362,-1149.143247
439.114141,-1110.308913,-7550.100608,-1302.362347
439.114463,-444.123565,-7402.059420,-1532.190996
439.114785,74.020594,-8364.327145,-995.924147
439.115107,0.000000,-8734.430116,0.000000
439.115428,-370.102971,-7698.141797,-612.876398
439.115750,-592.164754,-8660.409521,-1455.581446
439.116072,-1480.411884,-9474.636058,-1608.800546
439.116394,-2442.679609,-9622.677246,-1608.800546
439.116716,-2368.659014,-9474.636058,-1378.971896
439.117037,-740.205942,-9030.512492,-1608.800546
439.117359,592.164754,-9474.636058,-1991.848295
439.117681,222.061783,-9474.636058,-1838.629195
439.118003,-296.082377,-9252.574275,-995.924147
439.118325,-296.082377,-9400.615463,-1149.143247
439.118646,296.082377,-9326.594869,-1838.629195
439.118968,592.164754,-8586.388927,-1302.362347
439.119290,1480.411884,-8586.388927,-1225.752797
439.119612,1998.556043,-8808.450710,-383.047749
439.119933,962.267725,-8364.327145,-153.219100
439.120255,-296.082377,-8364.327145,-995.924147
439.120577,-1184.329507,-7772.162391,-3217.601092
439.120899,-2812.782580,-9622.677246,-3217.601092
439.121221,-4367.215058,-11029.068536,-2528.115143
439.121542,-4515.256246,-11325.150913,-2374.896044
439.121864,-2368.659014,-11251.130318,-2911.162892
439.122186,148.041188,-11621.233289,-2987.772442
439.122508,1702.473667,-11695.253884,-1149.143247
439.122829,1924.535449,-10066.800811,-536.266849
439.123151,1850.514855,-9030.512492,-1302.362347
439.123473,2368.659014,-9178.553681,-1915.238745
439.123795,2590.720797,-9178.553681,-1608.800546
439.124117,2072.576638,-7846.182985,-2068.457845
439.124438,1406.391290,-7476.080014,-995.924147
439.124760,740.205942,-8364.327145,-919.314598
439.125082,74.020594,-9178.553681,-995.924147
439.125404,-1184.329507,-9844.739029,-1532.190996
439.125726,-3108.864956,-10140.821405,-1302.362347
439.126047,-4219.173869,-10214.842000,-1455.581446
439.126369,-4811.338623,-9770.718434,-2145.067394
439.126691,-4219.173869,-9918.759623,-2604.724693
439.127013,-3034.844362,-9844.739029,-2451.505594
439.127334,-2368.659014,-9474.636058,-1991.848295
439.127656,-1480.411884,-9326.594869,-1072.533697
439.127978,-222.061783,-9474.636058,-766.095498
439.128300,518.144159,-9178.553681,-995.924147
439.128622,1776.494261,-9252.574275,-1608.800546
439.128943,2886.803174,-9400.615463,-1915.238745
439.129265,2886.803174,-9030.512492,-1378.971896
439.129587,1998.556043,-7105.977043,-229.828649
439.129909,666.185348,-7698.141797,-306.438199
439.130231,-814.226536,-8068.244768,-153.219100
439.130552,-2220.617826,-9104.533087,-612.876398
439.130874,-2590.720797,-9696.697840,-1302.362347
439.131196,-1850.514855,-9918.759623,-1455.581446
439.131518,-222.061783,-9622.677246,-459.657299
439.131839,148.041188,-9622.677246,536.266849
439.132161,518.144159,-9178.553681,383.047749
439.132483,888.247130,-8216.285956,-1072.533697
439.132805,296.082377,-8734.430116,-1991.848295
439.133127,444.123565,-9770.718434,-1302.362347
439.133448,1184.329507,-9326.594869,-1378.971896
439.133770,2368.659014,-9030.512492,-2528.115143
439.134092,2886.803174,-9622.677246,-1302.362347
439.134414,1480.411884,-10288.862594,229.828649
439.134735,-222.061783,-8956.491898,-1378.971896
439.135057,-1702.473667,-8438.347739,-3753.867940
439.135379,-3034.844362,-10066.800811,-4136.915689
439.135701,-4589.276840,-11325.150913,-3217.601092
439.136023,-5107.421000,-10510.924376,-2068.457845
439.136344,-3256.906145,-11103.089130,-1685.410096
439.136666,-962.267725,-12287.418637,-1685.410096
439.136988,0.000000,-10881.027347,-689.485948
439.137310,0.000000,-8586.388927,-536.266849
439.137632,1332.370696,-8808.450710,-995.924147
439.137953,3108.864956,-9104.533087,-689.485948
439.138275,2812.782580,-8142.265362,-612.876398
439.138597,2146.597232,-7920.203579,0.000000
439.138919,1554.432478,-8512.368333,0.000000
439.139240,666.185348,-9474.636058,-1378.971896
439.139562,-592.164754,-10066.800811,-1915.238745
439.139884,-2294.638420,-9770.718434,-1225.752797
439.140206,-2886.803174,-8956.491898,-2145.067394
439.140528,-2442.679609,-9178.553681,-2451.505594
439.140849,-1924.535449,-10066.800811,-1608.800546
439.141171,-2294.638420,-8734.430116,-1685.410096
439.141493,-2294.638420,-7402.059420,-2298.286494
439.141815,-1036.288319,-8586.388927,-1991.848295
439.142137,-444.123565,-10140.821405,-2145.067394
439.142458,-666.185348,-9030.512492,-1838.629195
439.142780,0.000000,-8216.285956,-1378.971896
439.143102,1332.370696,-8956.491898,-1149.143247
439.143424,1406.391290,-9252.574275,-1378.971896
439.143745,0.000000,-8808.450710,-1455.581446
439.144067,-1702.473667,-8068.244768,-1072.533697
439.144389,-2368.659014,-8438.347739,-1302.362347
439.144711,-2294.638420,-8882.471304,-2757.943793
439.145033,-1998.556043,-9400.615463,-2145.067394
439.145354,-1702.473667,-9622.677246,-1838.629195
439.145676,-1406.391290,-9918.759623,-995.924147
439.145998,-296.082377,-10510.924376,-1225.752797
439.146320,1406.391290,-10510.924376,-1991.848295
439.146641,2294.638420,-11251.130318,-2451.505594
439.146963,3108.864956,-10955.047942,-1378.971896
439.147285,3404.947333,-9326.594869,-1149.143247
439.147607,4071.132681,-8364.327145,-2068.457845
439.147929,3701.029710,-8586.388927,-1762.019645
439.148250,2368.659014,-9178.553681,-1225.752797
439.148572,0.000000,-8512.368333,-1532.190996
439.148894,-1776.494261,-9400.615463,-2451.505594
439.149216,-3182.885551,-11103.089130,-1991.848295
439.149538,-4441.235652,-12213.398043,-1838.629195
439.149859,-5329.482782,-11103.089130,-1378.971896
439.150181,-5477.523971,-9474.636058,-842.705048
439.150503,-4293.194464,-9400.615463,-2374.896044
439.150825,-2886.803174,-8808.450710,-3983.696590
439.151146,-1776.494261,-9400.615463,-3140.991542
439.151468,-1554.432478,-9696.697840,-1302.362347
439.151790,-666.185348,-10140.821405,-153.219100
439.152112,1628.453072,-9326.594869,-995.924147
439.152434,2812.782580,-9770.718434,-1149.143247
439.152755,2516.700203,-9548.656652,-1302.362347
439.153077,1332.370696,-8290.306550,-536.266849
439.153399,962.267725,-7550.100608,-995.924147
439.153721,1036.288319,-8882.471304,-612.876398
439.154043,-814.226536,-8808.450710,306.438199
439.154364,-1924.535449,-7994.224174,76.609550
439.154686,-1258.350101,-7846.182985,-842.705048
439.155008,148.041188,-9400.615463,-1685.410096
439.155330,0.000000,-9474.636058,-919.314598
439.155651,-1258.350101,-7920.203579,612.876398
439.155973,-1480.411884,-7624.121203,766.095498
439.156295,-296.082377,-8660.409521,-1225.752797
439.156617,740.205942,-9548.656652,-3140.991542
439.156939,592.164754,-9474.636058,-2221.676944
439.157260,1036.288319,-9104.533087,-766.095498
439.157582,1924.535449,-8956.491898,-1149.143247
439.157904,2516.700203,-8956.491898,-2987.772442
439.158226,740.205942,-9474.636058,-2757.943793
439.158547,-1924.535449,-9400.615463,-2451.505594
439.158869,-3034.844362,-9696.697840,-3217.601092
439.159191,-2960.823768,-10066.800811,-3600.648841
439.159513,-2072.576638,-11843.295072,-2757.943793
439.159835,-1332.370696,-11695.253884,-919.314598
439.160156,-518.144159,-10881.027347,-536.266849
439.160478,592.164754,-10066.800811,-766.095498
439.160800,1184.329507,-10362.883188,-689.485948
439.161122,962.267725,-9178.553681,-459.657299
439.161444,740.205942,-8364.327145,-1378.971896
439.161765,1628.453072,-8512.368333,-1378.971896
439.162087,2886.803174,-9178.553681,-689.485948
439.162409,3256.906145,-8956.491898,-689.485948
439.162731,2220.617826,-8068.244768,-766.095498
439.163052,666.185348,-9918.759623,-689.485948
439.163374,-444.123565,-11399.171507,-1455.581446
439.163696,-1554.432478,-11621.233289,-2757.943793
439.164018,-2368.659014,-10214.842000,-1838.629195
439.164340,-2442.679609,-9548.656652,-766.095498
439.164661,-2368.659014,-9030.512492,-2221.676944
439.164983,-2664.741391,-7179.997637,-2604.724693
439.165305,-3182.885551,-7179.997637,-1838.629195
439.165627,-3108.864956,-8068.244768,-1762.019645
439.165948,-1924.535449,-7920.203579,-2145.067394
439.166270,-1480.411884,-7179.997637,-1915.238745
439.166592,-888.247130,-9252.574275,-612.876398
439.166914,-296.082377,-9992.780217,0.000000
439.167236,-518.144159,-8808.450710,-1302.362347
439.167557,0.000000,-8808.450710,-2374.896044
439.167879,-444.123565,-9252.574275,-1149.143247
439.168201,-1110.308913,-9548.656652,-919.314598
439.168523,-1628.453072,-9400.615463,-842.705048
439.168845,-444.123565,-9844.739029,-1149.143247
439.169166,444.123565,-10955.047942,-1762.019645
439.169488,814.226536,-10436.903782,-1685.410096
439.169810,740.205942,-9252.574275,-842.705048
439.170132,888.247130,-8142.265362,-1225.752797
439.170453,1258.350101,-8586.388927,-1991.848295
439.170775,1036.288319,-9400.615463,-1991.848295
439.171097,518.144159,-9326.594869,-1455.581446
439.171419,740.205942,-9548.656652,-1915.238745
439.171741,962.267725,-9844.739029,-2374.896044
439.172062,518.144159,-10362.883188,-2298.286494
439.172384,-1258.350101,-10362.883188,-2221.676944
439.172706,-3330.926739,-10658.965565,-2068.457845
439.173028,-4589.276840,-10955.047942,-1762.019645
439.173350,-4515.256246,-11547.212695,-2604.724693
439.173671,-3849.070898,-11843.295072,-2681.334243
439.173993,-3256.906145,-10732.986159,-1608.800546
439.174315,-2590.720797,-9178.553681,-306.438199
439.174637,-888.247130,-8438.347739,-612.876398
439.174958,0.000000,-7846.182985,-1915.238745
439.175280,0.000000,-7254.018232,-1378.971896
439.175602,296.082377,-7105.977043,-1225.752797
439.175924,1258.350101,-8290.306550,-1378.971896
439.176246,1776.494261,-8882.471304,-1762.019645
439.176567,2516.700203,-9770.718434,-919.314598
439.176889,2812.782580,-11177.109724,-995.924147
439.177211,2146.597232,-10881.027347,-536.266849
439.177533,592.164754,-9178.553681,-766.095498
439.177855,-222.061783,-8586.388927,-1455.581446
439.178176,-296.082377,-8216.285956,-1838.629195
439.178498,518.144159,-9178.553681,-2451.505594
439.178820,-370.102971,-8586.388927,-1532.190996
439.179142,-1036.288319,-8512.368333,0.000000
439.179464,-1554.432478,-8438.347739,612.876398
439.179786,-1924.535449,-8660.409521,0.000000
439.180107,-2442.679609,-8068.244768,-1302.362347
439.180429,-1850.514855,-7846.182985,-1915.238745
439.180751,-518.144159,-7994.224174,-2757.943793
439.181073,0.000000,-8586.388927,-2528.115143
439.181395,-888.247130,-9252.574275,-689.485948
439.181717,-2220.617826,-9252.574275,-1149.143247
439.182038,-3182.885551,-10436.903782,-2757.943793
439.182360,-4589.276840,-11399.171507,-3447.429741
439.182682,-5477.523971,-11399.171507,-3217.601092
439.183004,-5477.523971,-10436.903782,-3677.258390
439.183326,-4071.132681,-10436.903782,-2374.896044
439.183648,-2294.638420,-11325.150913,-766.095498
439.183969,-2368.659014,-10510.924376,-306.438199
439.184291,-2738.761985,-8660.409521,-842.705048
439.184613,-1998.556043,-8438.347739,-1532.190996
439.184935,-1406.391290,-8956.491898,-1762.019645
439.185257,-1480.411884,-8956.491898,-1532.190996
439.185578,-1924.535449,-8438.347739,-1608.800546
439.185900,-1184.329507,-8956.491898,-995.924147
439.186222,-962.267725,-9474.636058,-1072.533697
439.186544,-2146.597232,-9696.697840,-1991.848295
439.186866,-3775.050304,-9918.759623,-2451.505594
439.187188,-5551.544565,-10362.883188,-2451.505594
439.187509,-6439.791695,-10140.821405,-2834.553343
439.187831,-7031.956449,-9770.718434,-2987.772442
439.188153,-6513.812290,-9548.656652,-2145.067394
439.188475,-6291.750507,-8734.430116,-2757.943793
439.188797,-5625.565159,-8068.244768,-2451.505594
439.189119,-4811.338623,-8216.285956,-1838.629195
439.189440,-4515.256246,-8364.327145,-995.924147
439.189762,-4367.215058,-8438.347739,-1838.629195
439.190084,-4663.297435,-8216.285956,-1762.019645
439.190406,-3849.070898,-7994.224174,-612.876398
439.190728,-2442.679609,-7772.162391,-1532.190996
439.191049,-1332.370696,-7772.162391,-2987.772442
439.191371,-962.267725,-8438.347739,-1762.019645
439.191693,-1406.391290,-9474.636058,-459.657299
439.192015,-1332.370696,-10436.903782,-229.828649
439.192337,-2072.576638,-11103.089130,-1302.362347
439.192659,-3478.967927,-11769.274478,-1149.143247
439.192980,-5477.523971,-11103.089130,-842.705048
439.193302,-5773.606348,-9474.636058,-1225.752797
439.193624,-4441.235652,-8512.368333,-2298.286494
439.193946,-2368.659014,-8438.347739,-1149.143247
439.194268,-1036.288319,-8216.285956,0.000000
439.194590,-222.061783,-7328.038826,306.438199
439.194911,444.123565,-7994.224174,0.000000
439.195233,296.082377,-8808.450710,-1302.362347
439.195555,-1406.391290,-8512.368333,-2451.505594
439.195877,-3404.947333,-7846.182985,-3370.820191
439.196199,-3849.070898,-7772.162391,-3524.039291
439.196520,-3478.967927,-9252.574275,-4443.353888
439.196842,-3404.947333,-10288.862594,-4826.401637
439.197164,-3923.091493,-10807.006753,-3140.991542
439.197486,-4663.297435,-11843.295072,-2451.505594
439.197808,-5107.421000,-13175.665768,-2451.505594
439.198130,-6143.709319,-13693.809927,-2221.676944
439.198451,-8216.285956,-12435.459826,-1532.190996
439.198773,-8882.471304,-10584.944971,-1302.362347
439.199095,-8142.265362,-8364.327145,-1685.410096
439.199417,-5551.544565,-7846.182985,-1378.971896
439.199739,-2738.761985,-6735.874072,-459.657299
439.200061,-444.123565,-6587.832884,459.657299
439.200382,1406.391290,-6735.874072,1455.581446
439.200704,2960.823768,-7179.997637,2374.896044
439.201026,3478.967927,-7994.224174,689.485948
439.201348,2368.659014,-8068.244768,-612.876398
439.201670,370.102971,-8290.306550,-2068.457845
439.201992,-2146.597232,-9104.533087,-3217.601092
439.202313,-4811.338623,-9844.739029,-4060.306139
439.202635,-7031.956449,-10288.862594,-4136.915689
439.202957,-7994.224174,-10732.986159,-4136.915689
439.203279,-8068.244768,-11473.192101,-4673.182538
439.203601,-7550.100608,-12213.398043,-4519.963438
439.203922,-6957.935855,-12139.377449,-3447.429741
439.204244,-6513.812290,-11103.089130,-1455.581446
439.204566,-6513.812290,-9104.533087,-536.266849
439.204888,-5699.585753,-7624.121203,-766.095498
439.205210,-5255.462188,-7550.100608,-842.705048
439.205532,-5181.441594,-8956.491898,536.266849
439.205853,-4663.297435,-8586.388927,2451.505594
439.206175,-2812.782580,-7105.977043,1915.238745
439.206497,888.247130,-7105.977043,153.219100
439.206819,3849.070898,-7698.141797,0.000000
439.207141,4367.215058,-7179.997637,459.657299
439.207463,2886.803174,-6735.874072,1149.143247
439.207784,1628.453072,-7846.182985,76.609550
439.208106,592.164754,-9252.574275,-2911.162892
439.208428,-1110.308913,-9770.718434,-4903.011187
439.208750,-2960.823768,-10510.924376,-5286.058936
439.209072,-4293.194464,-11547.212695,-4979.620737
439.209393,-5477.523971,-11917.315666,-4136.915689
439.209715,-6735.874072,-12805.562797,-3294.210641
439.210037,-8290.306550,-11843.295072,-2298.286494
439.210359,-8586.388927,-9770.718434,-2911.162892
439.210681,-8142.265362,-8586.388927,-5056.230287
439.211003,-7105.977043,-8586.388927,-5439.278036
439.211324,-5995.668130,-8956.491898,-2451.505594
439.211646,-5033.400406,-8438.347739,995.924147
439.211968,-3627.009116,-8586.388927,2451.505594
439.212290,-1628.453072,-8734.430116,1608.800546
439.212612,148.041188,-8364.327145,-153.219100
439.212934,1554.432478,-7550.100608,-842.705048
439.213255,1998.556043,-6809.894666,-459.657299
439.213577,3627.009116,-6513.812290,-383.047749
439.213899,5255.462188,-7920.203579,-3140.991542
439.214221,4885.359217,-11917.315666,-3830.477490
439.214543,2368.659014,-15100.201217,-1302.362347
439.214864,-2590.720797,-15618.345376,1225.752797
439.215186,-7179.997637,-14804.118840,689.485948
439.215508,-9622.677246,-11991.336260,-1532.190996
439.215830,-10066.800811,-8068.244768,-4290.134789
439.216152,-10288.862594,-4589.276840,-5745.716235
439.216474,-10881.027347,-3108.864956,-4136.915689
439.216795,-9770.718434,-4737.318029,-1149.143247
439.217117,-8512.368333,-6661.853478,-153.219100
439.217439,-6883.915261,-8956.491898,-842.705048
439.217761,-5699.585753,-10807.006753,-1225.752797
439.218083,-4811.338623,-11547.212695,-1149.143247
439.218405,-3552.988522,-10510.924376,-2068.457845
439.218726,-1628.453072,-8660.409521,-2604.724693
439.219048,74.020594,-7031.956449,-1991.848295
439.219370,444.123565,-6069.688724,-2451.505594
439.219692,-592.164754,-6809.894666,-3370.820191
439.220014,-2146.597232,-9474.636058,-3064.381992
439.220336,-3108.864956,-12361.439231,-2451.505594
439.220657,-4367.215058,-14211.954086,-1532.190996
439.220979,-4737.318029,-14434.015869,-153.219100
439.221301,-5329.482782,-12805.562797,1225.752797
439.221623,-5773.606348,-9474.636058,1608.800546
439.221945,-4811.338623,-6957.935855,459.657299
439.222266,-2886.803174,-3701.029710,-919.314598
439.222588,-740.205942,-2812.782580,-1378.971896
439.222910,1332.370696,-4367.215058,-689.485948
439.223232,2072.576638,-6809.894666,689.485948
439.223554,2072.576638,-9178.553681,-459.657299
439.223876,962.267725,-11769.274478,-2221.676944
439.224197,-814.226536,-14063.912898,-2681.334243
439.224519,-3404.947333,-14211.954086,-2911.162892
439.224841,-5699.585753,-12879.583391,-3600.648841
439.225163,-6883.915261,-11843.295072,-3983.696590
439.225485,-6883.915261,-12065.356855,-4136.915689
439.225807,-7550.100608,-11029.068536,-2987.772442
439.226128,-8808.450710,-8808.450710,-1991.848295
439.226450,-9178.553681,-7179.997637,-1685.410096
439.226772,-7772.162391,-7179.997637,-2911.162892
439.227094,-5699.585753,-8364.327145,-3830.477490
439.227416,-4811.338623,-8882.471304,-3600.648841
439.227737,-4441.235652,-8142.265362,-995.924147
439.228059,-3256.906145,-6957.935855,689.485948
439.228381,-1480.411884,-5551.544565,-919.314598
439.228703,296.082377,-7105.977043,-2911.162892
439.229025,962.267725,-9992.780217,-4366.744339
439.229347,666.185348,-13175.665768,-2604.724693
439.229668,-148.041188,-16210.510130,1149.143247
439.229990,-296.082377,-16284.530724,4979.620737
439.230312,1258.350101,-12065.356855,4903.011187
439.230634,2960.823768,-9844.739029,842.705048
439.230956,4071.132681,-10140.821405,-919.314598
439.231278,2664.741391,-10214.842000,2221.676944
439.231599,0.000000,-7698.141797,5898.935335
439.231921,-2516.700203,-4885.359217,6205.373534
439.232243,-3256.906145,-3849.070898,4596.572988
439.232565,-6069.688724,-3701.029710,842.705048
439.232887,-9474.636058,-2664.741391,-1991.848295
439.233209,-11251.130318,-3108.864956,-3600.648841
439.233530,-10732.986159,-5847.626942,-4749.792088
439.233852,-9400.615463,-6883.915261,-5132.839837
439.234174,-8438.347739,-8660.409521,-5286.058936
439.234496,-7698.141797,-13989.892304,-5286.058936
439.234818,-7328.038826,-18505.148550,-4596.572988
439.235139,-7402.059420,-18875.251521,-3983.696590
439.235461,-5921.647536,-15840.407159,-2757.943793
439.235783,-2146.597232,-13397.727550,-1991.848295
439.236105,-666.185348,-11547.212695,306.438199
439.236427,-962.267725,-7846.182985,2987.772442
439.236749,-888.247130,-3849.070898,5132.839837
439.237070,444.123565,-2368.659014,5515.887586
439.237392,814.226536,-2442.679609,3830.477490
439.237714,444.123565,-4589.276840,2221.676944
439.238036,-148.041188,-7179.997637,3064.381992
439.238358,0.000000,-9770.718434,4136.915689
439.238680,1184.329507,-11325.150913,2451.505594
439.239001,3478.967927,-11843.295072,-689.485948
439.239323,4145.153275,-9400.615463,-3064.381992
439.239645,2664.741391,-10140.821405,-3447.429741
439.239967,592.164754,-13767.830521,-3370.820191
439.240289,0.000000,-17024.736666,-2757.943793
439.240610,0.000000,-16506.592507,-3830.477490
439.240932,-222.061783,-16210.510130,-2987.772442
439.241254,0.000000,-15026.180623,536.266849
439.241576,-962.267725,-11547.212695,2681.334243
439.241898,-2368.659014,-7179.997637,3064.381992
439.242220,-2072.576638,-3552.988522,3983.696590
439.242541,-370.102971,-1110.308913,2451.505594
439.242863,814.226536,666.185348,153.219100
439.243185,1628.453072,-666.185348,306.438199
439.243507,1924.535449,-4663.297435,3370.820191
439.243829,1406.391290,-7031.956449,4826.401637
439.244151,2072.576638,-9252.574275,1608.800546
439.244472,3108.864956,-12065.356855,-3830.477490
439.244794,3256.906145,-13249.686362,-5822.325785
439.245116,1184.329507,-13175.665768,-3907.087040
439.245438,-814.226536,-15322.262999,-689.485948
439.245760,-1924.535449,-17616.901420,1302.362347
439.246081,-2738.761985,-15840.407159,-306.438199
439.246403,-3627.009116,-13545.768739,-1991.848295
439.246725,-3478.967927,-12953.603985,1072.533697
439.247047,-3330.926739,-11621.233289,4060.306139
439.247369,-3775.050304,-9474.636058,5822.325785
439.247691,-4145.153275,-6439.791695,7890.783629
439.248012,-4071.132681,-5255.462188,7507.735880
439.248334,-3404.947333,-6513.812290,3370.820191
439.248656,-3552.988522,-7772.162391,2451.505594
439.248978,-3330.926739,-6587.832884,5132.839837
439.249300,148.041188,-5773.606348,4290.134789
439.249622,4737.318029,-6143.709319,842.705048
439.249943,6735.874072,-4145.153275,0.000000
439.250265,5107.421000,-3108.864956,-1608.800546
439.250587,2886.803174,-9622.677246,-3830.477490
439.250909,592.164754,-15840.407159,-3600.648841
439.251231,-4071.132681,-16654.633695,-3064.381992
439.251553,-9770.718434,-16580.613101,-2451.505594
439.251874,-12065.356855,-18357.107362,1685.410096
439.252196,-12509.480420,-15988.448347,3907.087040
439.252518,-12065.356855,-11177.109724,1915.238745
439.252840,-9918.759623,-9474.636058,2528.115143
439.253162,-7031.956449,-9844.739029,6281.983084
439.253483,-5329.482782,-8586.388927,8733.488677
439.253805,-3330.926739,-2960.823768,11031.775171
439.254127,222.061783,2294.638420,10725.336972
439.254449,5181.441594,888.247130,5822.325785
439.254771,10362.883188,-2146.597232,1685.410096
439.255093,11399.171507,-4219.173869,153.219100
439.255414,8808.450710,-6661.853478,2298.286494
439.255736,6957.935855,-14878.139434,5975.544884
439.256058,4737.318029,-21317.931130,5592.497135
439.256380,1036.288319,-20059.581028,-689.485948
439.256702,-2590.720797,-16580.613101,-4443.353888
439.257024,-3330.926739,-16432.571912,-1762.019645
439.257345,-2812.782580,-11917.315666,536.266849
439.257667,-3404.947333,-4367.215058,689.485948
439.257989,-2960.823768,-1850.514855,2221.676944
439.258311,-2146.597232,-5699.585753,4519.963438
439.258633,-2738.761985,-7254.018232,4519.963438
439.258954,-5255.462188,-6513.812290,3064.381992
439.259276,-3552.988522,-7402.059420,3370.820191
439.259598,518.144159,-10288.862594,5286.058936
439.259920,2368.659014,-9770.718434,7967.393179
439.260242,2738.761985,-5107.421000,7584.345430
439.260564,7402.059420,-2368.659014,1608.800546
439.260885,11695.253884,-4885.359217,-5592.497135
439.261207,9992.780217,-6661.853478,-4903.011187
439.261529,2960.823768,-7624.121203,0.000000
439.261851,-1924.535449,-14285.974681,306.438199
439.262173,-3849.070898,-21762.054695,-2374.896044
439.262495,-5329.482782,-21836.075289,-6052.154434
439.262816,-6143.709319,-17542.880825,-6818.249932
439.263138,-3552.988522,-14211.954086,-3370.820191
439.263460,-518.144159,-10732.986159,229.828649
439.263782,370.102971,-7476.080014,1838.629195
439.264104,1628.453072,-4959.379811,3677.258390
439.264425,2960.823768,-6069.688724,2374.896044
439.264747,1628.453072,-8660.409521,0.000000
439.265069,814.226536,-9178.553681,2757.943793
439.265391,1480.411884,-7254.018232,3140.991542
439.265713,4071.132681,-7920.203579,-306.438199
439.266035,6217.729913,-10436.903782,0.000000
439.266356,3256.906145,-10214.842000,2221.676944
439.266678,-3849.070898,-9326.594869,2145.067394
439.267000,-8364.327145,-9548.656652,842.705048
439.267322,-10658.965565,-9474.636058,-3217.601092
439.267644,-11991.336260,-8290.306550,-9269.755526
439.267966,-13397.727550,-9252.574275,-9882.631924
439.268287,-12139.377449,-14211.954086,-5362.668486
439.268609,-9104.533087,-16654.633695,-1532.190996
439.268931,-5699.585753,-15322.262999,-383.047749
439.269253,-2960.823768,-14211.954086,1072.533697
439.269575,-740.205942,-13101.645173,2604.724693
439.269897,1776.494261,-7328.038826,2221.676944
439.270218,4959.379811,-592.164754,-842.705048
439.270540,9400.615463,1776.494261,-153.219100
439.270862,11695.253884,-814.226536,4749.792088
439.271184,9696.697840,-4885.359217,8273.831378
439.271506,5255.462188,-8882.471304,8810.098227
439.271827,2220.617826,-11991.336260,7354.516781
439.272149,296.082377,-14211.954086,3753.867940
439.272471,-1184.329507,-14211.954086,459.657299
439.272793,-2146.597232,-10732.986159,919.314598
439.273115,-1258.350101,-7476.080014,2145.067394
439.273437,-888.247130,-6291.750507,2451.505594
439.273758,-1702.473667,-7550.100608,3064.381992
439.274080,-4367.215058,-8956.491898,919.314598
439.274402,-7179.997637,-10881.027347,-1225.752797
439.274724,-7698.141797,-13471.748144,-1455.581446
439.275046,-6365.771101,-13989.892304,536.266849
439.275368,-4219.173869,-11473.192101,2451.505594
439.275689,-1628.453072,-9400.615463,2834.553343
439.276011,0.000000,-8586.388927,3830.477490
439.276333,888.247130,-8734.430116,4826.401637
439.276655,1628.453072,-7550.100608,3907.087040
439.276976,3701.029710,-5995.668130,2298.286494
439.277298,6291.750507,-6217.729913,1915.238745
439.277620,7105.977043,-7772.162391,2987.772442
439.277941,5107.421000,-9696.697840,5515.887586
439.278263,1850.514855,-10807.006753,6128.763984
439.278585,-370.102971,-11843.295072,3217.601092
439.278907,-1554.432478,-13175.665768,0.000000
439.279228,-2146.597232,-14211.954086,-383.047749
439.279550,-1924.535449,-14137.933492,1302.362347
439.279872,222.061783,-12361.439231,3140.991542
439.280193,2886.803174,-11399.171507,4903.011187
439.280515,4071.132681,-10214.842000,4979.620737
439.280837,2738.761985,-9252.574275,4519.963438
439.281158,-666.185348,-8438.347739,3370.820191
439.281480,-3256.906145,-7698.141797,2528.115143
439.281802,-3330.926739,-8734.430116,1762.019645
439.282123,-1110.308913,-9474.636058,1915.238745
439.282445,1258.350101,-8734.430116,3524.039291
439.282767,2146.597232,-7550.100608,4903.011187
439.283089,2220.617826,-7550.100608,4366.744339
439.283410,1036.288319,-6883.915261,2604.724693
439.283732,-1628.453072,-6587.832884,0.000000
439.284054,-5033.400406,-7031.956449,-2374.896044
439.284375,-7105.977043,-9104.533087,-2528.115143
439.284697,-8660.409521,-11103.089130,-2298.286494
439.285019,-8956.491898,-12139.377449,-1838.629195
439.285340,-7624.121203,-13175.665768,-1302.362347
439.285662,-5625.565159,-13545.768739,-689.485948
439.285984,-3552.988522,-12731.542202,536.266849
439.286305,-2442.679609,-10955.047942,1378.971896
439.286627,-1924.535449,-8586.388927,2145.067394
439.286949,-1110.308913,-6143.709319,2451.505594
439.287271,370.102971,-5255.462188,1762.019645
439.287592,2146.597232,-4959.379811,1762.019645
439.287914,3997.112087,-5033.400406,2068.457845
439.288236,6291.750507,-6291.750507,2068.457845
439.288557,7550.100608,-8364.327145,1378.971896
439.288879,7772.162391,-9918.759623,919.314598
439.289201,6513.812290,-9178.553681,459.657299
439.289522,4589.276840,-8068.244768,-2374.896044
439.289844,1628.453072,-8216.285956,-4749.792088
439.290166,-1702.473667,-9696.697840,-6435.202183
439.290487,-4885.359217,-12065.356855,-6435.202183
439.290809,-7624.121203,-14656.077652,-4596.572988
439.291131,-8068.244768,-16950.716072,-2834.553343
439.291452,-7476.080014,-17246.798449,-2911.162892
439.291774,-5625.565159,-14063.912898,-2987.772442
439.292096,-3701.029710,-11029.068536,-2681.334243
439.292418,-1036.288319,-8512.368333,-1378.971896
439.292739,1036.288319,-6439.791695,-229.828649
439.293061,2590.720797,-5699.585753,766.095498
439.293383,3256.906145,-5699.585753,2068.457845
439.293704,4145.153275,-6735.874072,2757.943793
439.294026,4737.318029,-7846.182985,842.705048
439.294348,5181.441594,-7994.224174,-1608.800546
439.294669,4959.379811,-8142.265362,-2068.457845
439.294991,4441.235652,-9326.594869,-1532.190996
439.295313,2442.679609,-12065.356855,-1991.848295
439.295634,-518.144159,-12435.459826,-2221.676944
439.295956,-3923.091493,-12657.521608,-3370.820191
439.296278,-5403.503377,-13767.830521,-4213.525239
439.296600,-6365.771101,-14211.954086,-4673.182538
439.296921,-7179.997637,-11251.130318,-4366.744339
439.297243,-7031.956449,-9770.718434,-2145.067394
439.297565,-4959.379811,-9696.697840,1991.848295
439.297886,-2960.823768,-8586.388927,2757.943793
439.298208,-962.267725,-6735.874072,2145.067394
439.298530,370.102971,-5255.462188,2068.457845
439.298851,2960.823768,-3923.091493,2451.505594
439.299173,4737.318029,-2368.659014,1302.362347
439.299495,5699.585753,-2590.720797,1532.190996
439.299816,5551.544565,-5181.441594,2681.334243
439.300138,5699.585753,-9178.553681,536.266849
439.300460,3997.112087,-12509.480420,-995.924147
439.300782,1628.453072,-14063.912898,0.000000
439.301103,-1702.473667,-14137.933492,459.657299
439.301425,-3849.070898,-14211.954086,0.000000
439.301747,-3997.112087,-11103.089130,-536.266849
439.302068,-2664.741391,-8882.471304,-3140.991542
439.302390,-1406.391290,-7920.203579,-3217.601092
439.302712,-296.082377,-9622.677246,0.000000
439.303033,-1406.391290,-9400.615463,2681.334243
439.303355,-2146.597232,-8512.368333,3064.381992
439.303677,-1406.391290,-8438.347739,1762.019645
439.303998,-518.144159,-8068.244768,-153.219100
439.304320,-1110.308913,-6883.915261,-919.314598
439.304642,-1628.453072,-5551.544565,536.266849
439.304964,-296.082377,-6735.874072,153.219100
439.305285,1258.350101,-9030.512492,-842.705048
439.305607,518.144159,-9770.718434,-1685.410096
439.305929,-3108.864956,-10658.965565,-1608.800546
439.306250,-5329.482782,-13249.686362,-1991.848295
439.306572,-5699.585753,-15396.283594,-2987.772442
439.306894,-5329.482782,-14508.036463,-4443.353888
439.307215,-4515.256246,-12435.459826,-3830.477490
439.307537,-1554.432478,-11399.171507,-1532.190996
439.307859,1702.473667,-9030.512492,0.000000
439.308180,3552.988522,-6513.812290,-612.876398
439.308502,3552.988522,-5255.462188,306.438199
439.308824,2812.782580,-5847.626942,459.657299
439.309146,2664.741391,-7476.080014,612.876398
439.309467,2294.638420,-9252.574275,0.000000
439.309789,1628.453072,-9326.594869,-459.657299
439.310111,2072.576638,-8586.388927,-1072.533697
439.310432,2516.700203,-8734.430116,-536.266849
439.310754,1702.473667,-10362.883188,-1762.019645
439.311076,-1110.308913,-10362.883188,-3217.601092
439.311397,-2664.741391,-10658.965565,-3830.477490
439.311719,-3404.947333,-13101.645173,-3294.210641
439.312041,-3108.864956,-13397.727550,-3217.601092
439.312362,-2368.659014,-10658.965565,-4366.744339
439.312684,-1110.308913,-8364.327145,-3983.696590
439.313006,666.185348,-8290.306550,-2451.505594
439.313328,1036.288319,-7920.203579,-2145.067394
439.313649,444.123565,-7105.977043,-2757.943793
439.313971,296.082377,-7476.080014,-2068.457845
439.314293,814.226536,-9030.512492,-1225.752797
439.314614,1036.288319,-8734.430116,-1915.238745
439.314936,666.185348,-7254.018232,-1532.190996
439.315258,0.000000,-7105.977043,-842.705048
439.315579,-518.144159,-8216.285956,-689.485948
439.315901,-1332.370696,-10066.800811,-1455.581446
439.316223,-1702.473667,-10955.047942,-2451.505594
439.316544,-1628.453072,-11769.274478,-2528.115143
439.316866,-666.185348,-11399.171507,-1685.410096
439.317188,1036.288319,-10288.862594,-919.314598
439.317509,1998.556043,-9104.533087,-1915.238745
439.317831,962.267725,-7772.162391,-2604.724693
439.318153,814.226536,-7402.059420,-2451.505594
439.318475,740.205942,-7698.141797,-2681.334243
439.318796,-370.102971,-8734.430116,-3294.210641
439.319118,-1702.473667,-9696.697840,-1991.848295
439.319440,-2294.638420,-10288.862594,-689.485948
439.319761,-2072.576638,-10140.821405,0.000000
439.320083,-2368.659014,-9252.574275,-383.047749
439.320405,-2590.720797,-8956.491898,-2145.067394
439.320726,-2812.782580,-9104.533087,-2987.772442
439.321048,-2590.720797,-9548.656652,-1302.362347
439.321370,-1258.350101,-10807.006753,-229.828649
439.321691,296.082377,-10140.821405,-229.828649
439.322013,1924.535449,-9252.574275,-536.266849
439.322335,2368.659014,-9030.512492,0.000000
439.322657,2294.638420,-9104.533087,-536.266849
439.322978,2368.659014,-7846.182985,-1685.410096
439.323300,2590.720797,-8068.244768,-1762.019645
439.323622,2146.597232,-9252.574275,-1149.143247
439.323943,1258.350101,-9326.594869,-612.876398
439.324265,0.000000,-8660.409521,-689.485948
439.324587,-1036.288319,-9474.636058,-919.314598
439.324908,-1998.556043,-10584.944971,-766.095498
439.325230,-2960.823768,-10214.842000,-2145.067394
439.325552,-3404.947333,-10066.800811,-1915.238745
439.325873,-3108.864956,-10584.944971,-229.828649
439.326195,-2146.597232,-10140.821405,306.438199
439.326517,-1184.329507,-8142.265362,306.438199
439.326839,-148.041188,-7105.977043,0.000000
439.327160,296.082377,-7550.100608,-1072.533697
439.327482,666.185348,-7550.100608,-2221.676944
439.327804,888.247130,-7550.100608,-1608.800546
439.328125,1258.350101,-8734.430116,-459.657299
439.328447,1406.391290,-9918.759623,-1072.533697
439.328769,1332.370696,-10288.862594,-1685.410096
439.329090,814.226536,-11547.212695,-2145.067394
439.329412,-888.247130,-12213.398043,-1225.752797
439.329734,-2220.617826,-12583.501014,-995.924147
439.330055,-2294.638420,-11843.295072,-1149.143247
439.330377,-1702.473667,-10066.800811,-1608.800546
439.330699,-592.164754,-9696.697840,-2068.457845
439.331021,1036.288319,-8956.491898,-995.924147
439.331342,1998.556043,-8438.347739,536.266849
439.331664,2368.659014,-8512.368333,383.047749
439.331986,2072.576638,-8660.409521,0.000000
439.332307,1110.308913,-8660.409521,0.000000
439.332629,666.185348,-7772.162391,-306.438199
439.332951,444.123565,-8512.368333,-1532.190996
439.333272,74.020594,-8438.347739,-3217.601092
439.333594,-888.247130,-9400.615463,-2911.162892
439.333916,-2516.700203,-10732.986159,-1915.238745
439.334237,-4293.194464,-12287.418637,-1225.752797
439.334559,-5107.421000,-12657.521608,-2145.067394
439.334881,-4885.359217,-12287.418637,-3294.210641
439.335203,-4145.153275,-10955.047942,-3524.039291
439.335524,-2960.823768,-9918.759623,-2374.896044
439.335846,-1628.453072,-8290.306550,-689.485948
439.336168,-296.082377,-6957.935855,306.438199
439.336489,1110.308913,-5551.544565,-153.219100
439.336811,2516.700203,-5181.441594,-1149.143247
439.337133,3404.947333,-5551.544565,-2068.457845
439.337454,3404.947333,-7105.977043,-1378.971896
439.337776,2664.741391,-8512.368333,-689.485948
439.338098,2368.659014,-9474.636058,-1532.190996
439.338419,3404.947333,-11991.336260,-1991.848295
439.338741,2368.659014,-13027.624579,-2374.896044
439.339063,-296.082377,-12361.439231,-1685.410096
439.339385,-1850.514855,-10436.903782,-1302.362347
439.339706,-962.267725,-8734.430116,-1608.800546
439.340028,1184.329507,-7698.141797,-3064.381992
439.340350,1776.494261,-7031.956449,-3217.601092
439.340671,962.267725,-7920.203579,-1149.143247
439.340993,-296.082377,-9992.780217,2221.676944
439.341315,-1924.535449,-10436.903782,2911.162892
439.341636,-2220.617826,-7402.059420,459.657299
439.341958,-444.123565,-4885.359217,-2757.943793
439.342280,518.144159,-4293.194464,-3983.696590
439.342601,814.226536,-5329.482782,-3983.696590
439.342923,0.000000,-8586.388927,-2528.115143
439.343245,-1110.308913,-12731.542202,-689.485948
439.343566,-2886.803174,-16432.571912,0.000000
439.343888,-5403.503377,-17024.736666,-842.705048
439.344210,-6365.771101,-15396.283594,-1838.629195
439.344532,-4737.318029,-12435.459826,-2987.772442
439.344853,-1924.535449,-8956.491898,-3294.210641
439.345175,1036.288319,-5551.544565,-2451.505594
439.345497,2812.782580,-4515.256246,229.828649
439.345818,3330.926739,-6143.709319,2068.457845
439.346140,1184.329507,-7476.080014,689.485948
439.346462,-518.144159,-8290.306550,-1302.362347
439.346783,-148.041188,-8882.471304,-3140.991542
439.347105,740.205942,-9178.553681,-3447.429741
439.347427,814.226536,-8586.388927,-2987.772442
439.347748,518.144159,-8808.450710,-1685.410096
439.348070,0.000000,-9918.759623,-1225.752797
439.348392,-1554.432478,-10510.924376,-2068.457845
439.348714,-3404.947333,-11843.295072,-3983.696590
439.349035,-3552.988522,-13323.706956,-4366.744339
439.349357,-2368.659014,-13027.624579,-4443.353888
439.349679,-1036.288319,-11325.150913,-2834.553343
439.350000,1184.329507,-9696.697840,0.000000
439.350322,3701.029710,-7846.182985,1072.533697
439.350644,4145.153275,-6587.832884,-612.876398
439.350965,3849.070898,-6217.729913,-2451.505594
439.351287,3330.926739,-6513.812290,-1302.362347
439.351609,3701.029710,-7105.977043,-383.047749
439.351930,3923.091493,-7476.080014,-1378.971896
439.352252,3256.906145,-7550.100608,-1225.752797
439.352574,2738.761985,-8734.430116,-1225.752797
439.352896,592.164754,-10584.944971,-2451.505594
439.353217,-3108.864956,-12879.583391,-3064.381992
439.353539,-6291.750507,-14359.995275,-2451.505594
439.353861,-7846.182985,-14656.077652,-2298.286494
439.354182,-7254.018232,-13767.830521,-2681.334243
439.354504,-5181.441594,-10658.965565,-2528.115143
439.354826,-3404.947333,-7105.977043,-1915.238745
439.355147,-2220.617826,-4811.338623,-1302.362347
439.355469,-1554.432478,-4737.318029,-536.266849
439.355791,-1924.535449,-6291.750507,-612.876398
439.356112,-2442.679609,-7698.141797,-1072.533697
439.356434,-2664.741391,-8808.450710,-919.314598
439.356756,-1554.432478,-8882.471304,-1378.971896
439.357078,814.226536,-8142.265362,-2911.162892
439.357399,3182.885551,-8364.327145,-2911.162892
439.357721,2738.761985,-9622.677246,-1762.019645
439.358043,888.247130,-10807.006753,-306.438199
439.358364,-370.102971,-12139.377449,0.000000
439.358686,-296.082377,-11917.315666,306.438199
439.359008,1258.350101,-10584.944971,76.609550
439.359329,3330.926739,-8068.244768,-995.924147
439.359651,5107.421000,-6365.771101,-842.705048
439.359973,5181.441594,-6291.750507,1378.971896
439.360294,4515.256246,-7402.059420,3064.381992
439.360616,3256.906145,-7105.977043,2604.724693
439.360938,2146.597232,-7031.956449,919.314598
439.361260,1184.329507,-7550.100608,-536.266849
439.361581,148.041188,-6809.894666,-1149.143247
439.361903,-296.082377,-6439.791695,-1915.238745
439.362225,-1258.350101,-7846.182985,-2068.457845
439.362546,-2886.803174,-10140.821405,-1149.143247
439.362868,-6217.729913,-13323.706956,-2451.505594
439.363190,-7772.162391,-17098.757260,-3064.381992
439.363511,-8364.327145,-17764.942608,-3524.039291
439.363833,-6661.853478,-14804.118840,-4366.744339
439.364155,-2960.823768,-11399.171507,-4366.744339
439.364476,-296.082377,-7179.997637,-2451.505594
439.364798,1258.350101,-5107.421000,-1532.190996
439.365120,888.247130,-4367.215058,-1915.238745
439.365441,222.061783,-6069.688724,-1608.800546
439.365763,370.102971,-8882.471304,-1838.629195
439.366085,0.000000,-11325.150913,-2145.067394
439.366407,-814.226536,-12805.562797,-1915.238745
439.366728,-1184.329507,-12731.542202,0.000000
439.367050,-666.185348,-11325.150913,995.924147
439.367372,0.000000,-9770.718434,-383.047749
439.367693,148.041188,-8216.285956,-2068.457845
439.368015,-370.102971,-8364.327145,-3140.991542
439.368337,0.000000,-10214.842000,-2451.505594
439.368658,1628.453072,-11991.336260,-1532.190996
439.368980,2886.803174,-11177.109724,-536.266849
439.369302,3404.947333,-9030.512492,76.609550
439.369623,3330.926739,-8290.306550,306.438199
439.369945,2220.617826,-5773.606348,-689.485948
439.370267,1628.453072,-4145.153275,-3064.381992
439.370589,1554.432478,-4737.318029,-3983.696590
439.370910,888.247130,-6883.915261,-2757.943793
439.371232,-518.144159,-7920.203579,-1532.190996
439.371554,-2072.576638,-9548.656652,-995.924147
439.371875,-3182.885551,-11695.253884,-1225.752797
439.372197,-4367.215058,-11917.315666,-2681.334243
439.372519,-4737.318029,-11399.171507,-4290.134789
439.372840,-4515.256246,-10288.862594,-3140.991542
439.373162,-3034.844362,-10510.924376,-1532.190996
439.373484,-1406.391290,-9474.636058,-536.266849
439.373805,222.061783,-8290.306550,-536.266849
439.374127,1184.329507,-7179.997637,-612.876398
439.374449,1554.432478,-6809.894666,-1225.752797
439.374771,2368.659014,-6365.771101,-2145.067394
439.375092,2590.720797,-6809.894666,-2298.286494
439.375414,3108.864956,-8438.347739,-1915.238745
439.375736,2886.803174,-9474.636058,-2221.676944
439.376057,1480.411884,-10436.903782,-2528.115143
439.376379,-222.061783,-10955.047942,-2068.457845
439.376701,-1776.494261,-12139.377449,-3064.381992
439.377022,-3108.864956,-12213.398043,-4749.792088
439.377344,-3923.091493,-12065.356855,-4749.792088
439.377666,-3552.988522,-12805.562797,-3830.477490
439.377987,-3330.926739,-13101.645173,-3217.601092
439.378309,-2442.679609,-11917.315666,-1608.800546
439.378631,-2368.659014,-9992.780217,0.000000
439.378953,-888.247130,-7846.182985,-612.876398
439.379274,444.123565,-5921.647536,-3370.820191
439.379596,1332.370696,-6069.688724,-3830.477490
439.379918,1554.432478,-7994.224174,-1378.971896
439.380240,740.205942,-9992.780217,689.485948
439.380561,518.144159,-9844.739029,842.705048
439.380883,592.164754,-9622.677246,229.828649
439.381205,518.144159,-10140.821405,-995.924147
439.381527,-296.082377,-9844.739029,-2757.943793
439.381848,-962.267725,-9770.718434,-2451.505594
439.382170,-888.247130,-10436.903782,0.000000
439.382492,-444.123565,-11991.336260,1149.143247
439.382814,0.000000,-11103.089130,1149.143247
439.383135,444.123565,-8956.491898,1302.362347
439.383457,0.000000,-7031.956449,1072.533697
439.383779,-370.102971,-6069.688724,536.266849
439.384101,0.000000,-4145.153275,-459.657299
439.384422,0.000000,-3478.967927,-842.705048
439.384744,-666.185348,-5699.585753,306.438199
439.385066,-2220.617826,-7772.162391,1762.019645
439.385388,-3330.926739,-8882.471304,0.000000
439.385710,-3108.864956,-9696.697840,-2145.067394
439.386031,-3701.029710,-10436.903782,-2604.724693
439.386353,-4441.235652,-10584.944971,-2221.676944
439.386675,-4071.132681,-10881.027347,-1225.752797
439.386997,-3108.864956,-9696.697840,-1455.581446
439.387318,-1776.494261,-9474.636058,-2451.505594
439.387640,740.205942,-10066.800811,-2987.772442
439.387962,2368.659014,-10658.965565,-3677.258390
439.388284,2664.741391,-10732.986159,-3294.210641
439.388605,2812.782580,-10955.047942,-995.924147
439.388927,3923.091493,-10362.883188,229.828649
439.389249,4811.338623,-8438.347739,-689.485948
439.389571,5033.400406,-7105.977043,-1915.238745
439.389893,4367.215058,-6809.894666,-2068.457845
439.390214,2812.782580,-8290.306550,-1378.971896
439.390536,-222.061783,-10288.862594,612.876398
439.390858,-2886.803174,-12805.562797,689.485948
439.391180,-4515.256246,-13619.789333,229.828649
439.391501,-4441.235652,-12805.562797,-766.095498
439.391823,-3404.947333,-10140.821405,-1915.238745
439.392145,-1850.514855,-8142.265362,-3064.381992
439.392467,-740.205942,-7772.162391,-2451.505594
439.392788,-814.226536,-8290.306550,-995.924147
439.393110,-1998.556043,-9474.636058,-689.485948
439.393432,-2886.803174,-9918.759623,-2221.676944
439.393754,-3182.885551,-10510.924376,-3983.696590
439.394076,-2590.720797,-10807.006753,-3907.087040
439.394397,-2368.659014,-10362.883188,-3370.820191
439.394719,-1332.370696,-9104.533087,-3447.429741
439.395041,-1480.411884,-9104.533087,-2528.115143
439.395363,-2368.659014,-10288.862594,-995.924147
439.395684,-4071.132681,-9992.780217,-612.876398
439.396006,-4219.173869,-8068.244768,-1915.238745
439.396328,-2368.659014,-6661.853478,-2834.553343
439.396650,296.082377,-6587.832884,-1991.848295
439.396971,2516.700203,-5477.523971,-766.095498
439.397293,3775.050304,-6513.812290,383.047749
439.397615,4293.194464,-8808.450710,1762.019645
439.397937,4219.173869,-10362.883188,1149.143247
439.398258,3923.091493,-9548.656652,-306.438199
439.398580,4737.318029,-8068.244768,-1915.238745
439.398902,5995.668130,-7179.997637,-3294.210641
439.399224,5403.503377,-6661.853478,-3677.258390
439.399546,4219.173869,-6735.874072,-2451.505594
439.399867,2072.576638,-8438.347739,-1915.238745
439.400189,-814.226536,-11399.171507,-3064.381992
439.400511,-4441.235652,-12879.583391,-4060.306139
439.400833,-6661.853478,-13915.871710,-3600.648841
439.401154,-6661.853478,-14063.912898,-3830.477490
439.401476,-5551.544565,-11991.336260,-4136.915689
439.401798,-3701.029710,-9770.718434,-2757.943793
439.402120,-2960.823768,-8068.244768,-1302.362347
439.402441,-3108.864956,-7031.956449,-1072.533697
439.402763,-3108.864956,-7994.224174,-2298.286494
439.403085,-3256.906145,-8734.430116,-3064.381992
439.403407,-2812.782580,-8586.388927,-2757.943793
439.403729,-1776.494261,-8882.471304,-2374.896044
439.404050,444.123565,-9030.512492,-2221.676944
439.404372,1924.535449,-10510.924376,-2451.505594
439.404694,1036.288319,-11621.233289,-1455.581446
439.405016,-592.164754,-12139.377449,-1149.143247
439.405337,-1850.514855,-11843.295072,-1378.971896
439.405659,-1258.350101,-11399.171507,-1608.800546
439.405981,0.000000,-11325.150913,-2451.505594
439.406303,1184.329507,-9844.739029,-1838.629195
439.406624,2738.761985,-8512.368333,0.000000
439.406946,3256.906145,-7846.182985,995.924147
439.407268,2960.823768,-7476.080014,1532.190996
439.407590,1628.453072,-6291.750507,995.924147
439.407911,962.267725,-6069.688724,0.000000
439.408233,1406.391290,-5995.668130,-689.485948
439.408555,1924.535449,-6513.812290,-1378.971896
439.408877,2220.617826,-6883.915261,-1225.752797
439.409199,1258.350101,-7846.182985,76.609550
439.409520,-592.164754,-10066.800811,536.266849
439.409842,-2442.679609,-11843.295072,-1302.362347
439.410164,-4219.173869,-13323.706956,-2451.505594
439.410486,-4737.318029,-13471.748144,-2068.457845
439.410807,-4071.132681,-11843.295072,-919.314598
439.411129,-2368.659014,-8290.306550,-766.095498
439.411451,0.000000,-6069.688724,-766.095498
439.411773,1110.308913,-5551.544565,-766.095498
439.412094,222.061783,-6217.729913,-919.314598
439.412416,-1184.329507,-7698.141797,-1072.533697
439.412738,-2368.659014,-9474.636058,-306.438199
439.413060,-3108.864956,-11177.109724,459.657299
439.413382,-2590.720797,-10955.047942,-1532.190996
439.413703,-1406.391290,-10288.862594,-3753.867940
439.414025,-666.185348,-11251.130318,-3830.477490
439.414347,-2368.659014,-13101.645173,-2757.943793
439.414669,-4293.194464,-13619.789333,-1608.800546
439.414990,-4663.297435,-13545.768739,-1149.143247
439.415312,-2590.720797,-12139.377449,-2528.115143
439.415634,296.082377,-9622.677246,-3600.648841
439.415956,3404.947333,-8364.327145,-2451.505594
439.416277,5181.441594,-7254.018232,-459.657299
439.416599,4737.318029,-7846.182985,612.876398
439.416921,2368.659014,-8216.285956,2221.676944
439.417243,1998.556043,-8142.265362,2528.115143
439.417564,2516.700203,-7254.018232,153.219100
439.417886,2738.761985,-6957.935855,-2221.676944
439.418208,2738.761985,-6957.935855,-1608.800546
439.418530,2442.679609,-7920.203579,842.705048
439.418852,1850.514855,-9178.553681,1302.362347
439.419173,74.020594,-10214.842000,-459.657299
439.419495,-2368.659014,-10881.027347,-2068.457845
439.419817,-3997.112087,-12139.377449,-2451.505594
439.420139,-5329.482782,-11695.253884,-2834.553343
439.420460,-4219.173869,-9326.594869,-3447.429741
439.420782,-1998.556043,-8438.347739,-3294.210641
439.421104,-1258.350101,-7772.162391,-1762.019645
439.421426,-2664.741391,-7254.018232,-689.485948
439.421747,-3849.070898,-6735.874072,-1378.971896
439.422069,-3701.029710,-7254.018232,-3294.210641
439.422391,-2368.659014,-8364.327145,-4136.915689
439.422713,-1406.391290,-8956.491898,-3753.867940
439.423035,-1184.329507,-8660.409521,-2374.896044
439.423356,-1184.329507,-8660.409521,-612.876398
439.423678,-518.144159,-10288.862594,-689.485948
439.424000,148.041188,-9770.718434,-2757.943793
439.424322,148.041188,-9030.512492,-3983.696590
439.424643,1036.288319,-9992.780217,-3217.601092
439.424965,2442.679609,-11473.192101,-2221.676944
439.425287,3997.112087,-10955.047942,-1072.533697
439.425609,5255.462188,-10807.006753,0.000000
439.425930,5033.400406,-10510.924376,459.657299
439.426252,3552.988522,-8808.450710,-689.485948
439.426574,2442.679609,-7846.182985,-1838.629195
439.426896,2368.659014,-7402.059420,-2757.943793
439.427217,1924.535449,-8512.368333,-3294.210641
439.427539,74.020594,-9030.512492,-2451.505594
439.427861,-1554.432478,-9548.656652,-1302.362347
439.428183,-3256.906145,-10658.965565,-1225.752797
439.428505,-4737.318029,-11621.233289,-3064.381992
439.428826,-6587.832884,-11547.212695,-5056.230287
439.429148,-7105.977043,-11547.212695,-4443.353888
439.429470,-6143.709319,-11325.150913,-2834.553343
439.429792,-4441.235652,-9770.718434,-1991.848295
439.430113,-2146.597232,-9104.533087,-1991.848295
439.430435,-592.164754,-8216.285956,-1915.238745
439.430757,-814.226536,-8956.491898,-1378.971896
439.431079,-444.123565,-8438.347739,-1685.410096
439.431400,222.061783,-7920.203579,-1608.800546
439.431722,1998.556043,-7772.162391,-536.266849
439.432044,3404.947333,-7920.203579,0.000000
439.432366,3701.029710,-8068.244768,0.000000
439.432688,3404.947333,-9030.512492,-153.219100
439.433009,1332.370696,-10510.924376,842.705048
439.433331,-1184.329507,-10881.027347,1302.362347
439.433653,-2368.659014,-9770.718434,536.266849
439.433975,-1184.329507,-8808.450710,-612.876398
439.434296,666.185348,-8216.285956,-612.876398
439.434618,2368.659014,-7105.977043,-383.047749
439.434940,3478.967927,-5847.626942,0.000000
439.435262,3182.885551,-6587.832884,306.438199
439.435583,1332.370696,-8660.409521,-153.219100
439.435905,-666.185348,-9918.759623,-1149.143247
439.436227,-2146.597232,-10066.800811,-1915.238745
439.436549,-2072.576638,-10584.944971,-2757.943793
439.436870,-2072.576638,-10288.862594,-3600.648841
439.437192,-2368.659014,-9622.677246,-2987.772442
439.437514,-3330.926739,-10288.862594,-1378.971896
439.437836,-4441.235652,-11769.274478,-1838.629195
439.438158,-5625.565159,-12879.583391,-3064.381992
439.438479,-6143.709319,-12435.459826,-3447.429741
439.438801,-5403.503377,-10955.047942,-2068.457845
439.439123,-2738.761985,-9622.677246,-919.314598
439.439445,-296.082377,-8734.430116,-842.705048
439.439766,1480.411884,-7402.059420,-842.705048
439.440088,2368.659014,-7920.203579,76.609550
439.440410,2960.823768,-8808.450710,0.000000
439.440732,3849.070898,-8216.285956,-229.828649
439.441053,4589.276840,-7698.141797,-995.924147
439.441375,4811.338623,-8808.450710,-842.705048
439.441697,4293.194464,-8512.368333,-689.485948
439.442019,2960.823768,-9400.615463,-919.314598
439.442341,222.061783,-11843.295072,-1302.362347
439.442662,-2960.823768,-13323.706956,-383.047749
439.442984,-5107.421000,-12805.562797,-536.266849
439.443306,-5033.400406,-11399.171507,-919.314598
439.443628,-3034.844362,-9622.677246,-995.924147
439.443949,-296.082377,-6883.915261,-1378.971896
439.444271,1406.391290,-3034.844362,-766.095498
439.444593,2072.576638,-3256.906145,-536.266849
439.444915,888.247130,-6735.874072,-306.438199
439.445236,-1480.411884,-9252.574275,-766.095498
439.445558,-3330.926739,-10214.842000,-612.876398
439.445880,-2812.782580,-10214.842000,-689.485948
439.446202,-370.102971,-8882.471304,-2528.115143
439.446523,2220.617826,-7994.224174,-4366.744339
439.446845,2146.597232,-7846.182985,-3370.820191
439.447167,222.061783,-10436.903782,-689.485948
439.447489,-2368.659014,-11769.274478,0.000000
439.447811,-3552.988522,-12509.480420,-1838.629195
439.448132,-4071.132681,-11843.295072,-2987.772442
439.448454,-2812.782580,-10732.986159,-2604.724693
439.448776,-666.185348,-8808.450710,-1685.410096
439.449098,1110.308913,-6809.894666,-995.924147
439.449419,2072.576638,-5625.565159,229.828649
439.449741,2368.659014,-6291.750507,-536.266849
439.450063,2368.659014,-7105.977043,-2528.115143
439.450385,1110.308913,-8364.327145,-4136.915689
439.450706,222.061783,-9992.780217,-4060.306139
439.451028,-296.082377,-11399.171507,-4366.744339
439.451350,-444.123565,-13175.665768,-3600.648841
439.451672,-1702.473667,-14211.954086,-2145.067394
439.451994,-3849.070898,-14434.015869,-1762.019645
439.452315,-4737.318029,-13027.624579,-3370.820191
439.452637,-3478.967927,-11029.068536,-4290.134789
439.452959,-296.082377,-9548.656652,-3753.867940
439.453281,2220.617826,-8734.430116,-2604.724693
439.453602,3404.947333,-6661.853478,-536.266849
439.453924,3923.091493,-6291.750507,1532.190996
439.454246,3182.885551,-7698.141797,1149.143247
439.454568,2220.617826,-8586.388927,-612.876398
439.454889,962.267725,-8586.388927,-1915.238745
439.455211,962.267725,-8512.368333,-1991.848295
439.455533,1628.453072,-8882.471304,-1455.581446
439.455855,2072.576638,-8882.471304,-536.266849
439.456177,1850.514855,-9474.636058,-919.314598
439.456498,-148.041188,-10066.800811,-383.047749
439.456820,-2812.782580,-10214.842000,-1608.800546
439.457142,-5255.462188,-10066.800811,-2757.943793
439.457464,-5773.606348,-10658.965565,-2987.772442
439.457785,-5255.462188,-10955.047942,-2221.676944
439.458107,-4441.235652,-9770.718434,-1302.362347
439.458429,-2442.679609,-8068.244768,306.438199
439.458751,-1406.391290,-6069.688724,842.705048
439.459072,-666.185348,-5847.626942,-1378.971896
439.459394,-444.123565,-5773.606348,-3064.381992
439.459716,-222.061783,-6735.874072,-1991.848295
439.460038,444.123565,-7846.182985,-536.266849
439.460359,1184.329507,-9400.615463,-1225.752797
439.460681,2220.617826,-10658.965565,-2145.067394
439.461003,2146.597232,-11843.295072,-1378.971896
439.461325,148.041188,-12583.501014,-612.876398
439.461647,-1184.329507,-12657.521608,76.609550
439.461968,-1332.370696,-12065.356855,-919.314598
439.462290,74.020594,-11029.068536,-2298.286494
439.462612,1184.329507,-10140.821405,-842.705048
439.462934,2368.659014,-8660.409521,1991.848295
439.463255,3404.947333,-6439.791695,2451.505594
439.463577,4219.173869,-5551.544565,306.438199
439.463899,4441.235652,-6513.812290,-919.314598
439.464221,3404.947333,-7920.203579,-1378.971896
439.464542,1702.473667,-9474.636058,-1302.362347
439.464864,0.000000,-10658.965565,-1455.581446
439.465186,-222.061783,-11843.295072,-1915.238745
439.465508,-444.123565,-11177.109724,-2145.067394
439.465830,-2516.700203,-10881.027347,-2374.896044
439.466151,-4885.359217,-11843.295072,-2374.896044
439.466473,-6735.874072,-11991.336260,-2604.724693
439.466795,-6217.729913,-11325.150913,-2528.115143
439.467117,-5107.421000,-10807.006753,-1838.629195
439.467438,-4515.256246,-9474.636058,-766.095498
439.467760,-3330.926739,-7772.162391,0.000000
439.468082,-2146.597232,-6513.812290,-383.047749
439.468404,-222.061783,-6661.853478,-919.314598
439.468725,1332.370696,-7402.059420,-1455.581446
439.469047,1036.288319,-7994.224174,-383.047749
439.469369,814.226536,-7698.141797,2068.457845
439.469691,1998.556043,-7624.121203,1225.752797
439.470012,4441.235652,-8068.244768,-2681.334243
439.470334,4885.359217,-8364.327145,-4060.306139
439.470656,2442.679609,-10510.924376,-2757.943793
439.470978,-518.144159,-12361.439231,-995.924147
439.471300,-2664.741391,-13767.830521,0.000000
439.471621,-2812.782580,-13693.809927,-995.924147
439.471943,-1776.494261,-12435.459826,-2528.115143
439.472265,-592.164754,-9326.594869,-2911.162892
439.472587,296.082377,-7105.977043,-1149.143247
439.472908,296.082377,-5403.503377,1149.143247
439.473230,518.144159,-4219.173869,1378.971896
439.473552,1702.473667,-3034.844362,-153.219100
439.473874,1702.473667,-4515.256246,-2145.067394
439.474195,592.164754,-7031.956449,-3217.601092
439.474517,0.000000,-9400.615463,-3524.039291
439.474839,0.000000,-12213.398043,-3064.381992
439.475161,-444.123565,-14211.954086,-1838.629195
439.475483,-2442.679609,-13545.768739,-1378.971896
439.475804,-3478.967927,-13249.686362,-4290.134789
439.476126,-3997.112087,-12583.501014,-5132.839837
439.476448,-2738.761985,-11473.192101,-4596.572988
439.476770,-1480.411884,-10584.944971,-3983.696590
439.477091,-296.082377,-9326.594869,-2604.724693
439.477413,148.041188,-8586.388927,-383.047749
439.477735,0.000000,-8512.368333,689.485948
439.478057,0.000000,-6883.915261,-919.314598
439.478378,1110.308913,-5847.626942,-2834.553343
439.478700,1850.514855,-6661.853478,-3600.648841
439.479022,1702.473667,-7920.203579,-1915.238745
439.479344,1406.391290,-8364.327145,-1149.143247
439.479665,1702.473667,-9770.718434,-766.095498
439.479987,1702.473667,-11917.315666,-1302.362347
439.480309,-222.061783,-13545.768739,-2604.724693
439.480631,-1850.514855,-12657.521608,-2298.286494
439.480953,-1554.432478,-11843.295072,-1685.410096
439.481274,-148.041188,-11917.315666,-1915.238745
439.481596,1110.308913,-11473.192101,-689.485948
439.481918,1406.391290,-9178.553681,153.219100
439.482240,1480.411884,-6661.853478,1532.190996
439.482561,2072.576638,-5847.626942,995.924147
439.482883,1924.535449,-4367.215058,0.000000
439.483205,2072.576638,-3108.864956,-1455.581446
439.483527,1110.308913,-4219.173869,-919.314598
439.483849,296.082377,-7105.977043,383.047749
439.484170,-962.267725,-9178.553681,-383.047749
439.484492,-2294.638420,-11621.233289,-1685.410096
439.484814,-4293.194464,-14359.995275,-1608.800546
439.485136,-6883.915261,-14285.974681,-1149.143247
439.485457,-7328.038826,-12509.480420,-1378.971896
439.485779,-4811.338623,-11251.130318,-1991.848295
439.486101,-2294.638420,-9770.718434,-2911.162892
439.486423,-1332.370696,-7402.059420,-1991.848295
439.486745,-962.267725,-7031.956449,459.657299
439.487066,-222.061783,-8586.388927,2451.505594
439.487388,-370.102971,-7994.224174,919.314598
439.487710,0.000000,-6439.791695,-1302.362347
439.488032,2516.700203,-6143.709319,-1991.848295
439.488353,4589.276840,-8068.244768,-2068.457845
439.488675,4441.235652,-10362.883188,-1455.581446
439.488997,3034.844362,-11325.150913,459.657299
439.489319,2442.679609,-11547.212695,689.485948
439.489640,2072.576638,-13397.727550,-1685.410096
439.489962,-962.267725,-12657.521608,-3294.210641
439.490284,-2738.761985,-11251.130318,-2834.553343
439.490606,-2072.576638,-11621.233289,-2068.457845
439.490928,148.041188,-11473.192101,-153.219100
439.491249,1554.432478,-10288.862594,-383.047749
439.491571,0.000000,-8586.388927,766.095498
439.491893,-962.267725,-7846.182985,1915.238745
439.492215,-888.247130,-6217.729913,383.047749
439.492536,444.123565,-4663.297435,-3524.039291
439.492858,1480.411884,-3775.050304,-2911.162892
439.493180,666.185348,-5921.647536,-1378.971896
439.493502,-1184.329507,-9474.636058,0.000000
439.493824,-1776.494261,-12435.459826,-536.266849
439.494145,-2664.741391,-14211.954086,-2451.505594
439.494467,-5033.400406,-14434.015869,-3830.477490
439.494789,-6587.832884,-12879.583391,-2757.943793
439.495111,-5847.626942,-11177.109724,-1225.752797
439.495432,-2738.761985,-9326.594869,-1532.190996
439.495754,-888.247130,-6883.915261,-2987.772442
439.496076,0.000000,-6365.771101,-1225.752797
439.496398,74.020594,-7179.997637,1455.581446
439.496719,-370.102971,-7698.141797,1608.800546
439.497041,-148.041188,-6957.935855,-1225.752797
439.497363,2220.617826,-6439.791695,-2374.896044
439.497685,3775.050304,-7328.038826,-1455.581446
439.498007,3923.091493,-8438.347739,-612.876398
439.498328,3182.885551,-8512.368333,-229.828649
439.498650,3404.947333,-9992.780217,-1072.533697
439.498972,2442.679609,-11029.068536,-2681.334243
439.499294,370.102971,-10510.924376,-3140.991542
439.499615,-1110.308913,-9992.780217,-2528.115143
439.499937,-370.102971,-11029.068536,-1685.410096
439.500259,222.061783,-11843.295072,-2145.067394
439.500581,444.123565,-10807.006753,-2451.505594
439.500903,-296.082377,-9400.615463,-536.266849
439.501224,-962.267725,-8734.430116,919.314598
439.501546,-888.247130,-6661.853478,-1455.581446
439.501868,0.000000,-5329.482782,-4213.525239
439.502190,1036.288319,-5403.503377,-3983.696590
439.502511,740.205942,-8068.244768,-2604.724693
439.502833,-1258.350101,-10140.821405,-1762.019645
439.503155,-2960.823768,-11399.171507,-1608.800546
439.503477,-2738.761985,-13471.748144,-1608.800546
439.503799,-3330.926739,-14952.160028,-3064.381992
439.504120,-4145.153275,-13693.809927,-3753.867940
439.504442,-3256.906145,-11473.192101,-2298.286494
439.504764,-1184.329507,-10362.883188,-1225.752797
439.505086,444.123565,-9400.615463,-1838.629195
439.505407,1480.411884,-7328.038826,-766.095498
439.505729,1184.329507,-6439.791695,383.047749
439.506051,74.020594,-6735.874072,842.705048
439.506373,-370.102971,-6957.935855,0.000000
439.506694,74.020594,-6661.853478,-766.095498
439.507016,1406.391290,-6661.853478,-1149.143247
439.507338,888.247130,-8512.368333,-1762.019645
439.507660,-148.041188,-9622.677246,-1302.362347
439.507982,-1258.350101,-11325.150913,-919.314598
439.508303,-2442.679609,-12583.501014,-1762.019645
439.508625,-4145.153275,-12583.501014,-2221.676944
439.508947,-4145.153275,-11325.150913,-2221.676944
439.509269,-2146.597232,-9844.739029,-2374.896044
439.509590,-148.041188,-9474.636058,-2911.162892
439.509912,592.164754,-8956.491898,-2604.724693
439.510234,1110.308913,-8586.388927,-153.219100
439.510556,1184.329507,-8512.368333,1838.629195
439.510878,1110.308913,-8512.368333,383.047749
439.511199,1480.411884,-7772.162391,-1838.629195
439.511521,2812.782580,-7105.977043,-1455.581446
439.511843,3775.050304,-7476.080014,-689.485948
439.512165,3701.029710,-7254.018232,-306.438199
439.512486,2960.823768,-7476.080014,-842.705048
439.512808,1850.514855,-9030.512492,-459.657299
439.513130,-370.102971,-10955.047942,-1302.362347
439.513452,-2738.761985,-11399.171507,-2451.505594
439.513773,-3701.029710,-11399.171507,-2987.772442
439.514095,-3182.885551,-13027.624579,-1225.752797
439.514417,-2072.576638,-12213.398043,-229.828649
439.514739,-1258.350101,-9844.739029,0.000000
439.515061,-1184.329507,-7994.224174,-229.828649
439.515382,-1850.514855,-7105.977043,-306.438199
439.515704,-1628.453072,-5847.626942,-766.095498
439.516026,148.041188,-5403.503377,-2451.505594
439.516348,888.247130,-5773.606348,-2834.553343
439.516669,0.000000,-7920.203579,-1532.190996
439.516991,-962.267725,-9104.533087,0.000000
439.517313,-222.061783,-10732.986159,-995.924147
439.517635,-296.082377,-12435.459826,-3064.381992
439.517957,-2368.659014,-13619.789333,-3064.381992
439.518278,-3997.112087,-13101.645173,-995.924147
439.518600,-2960.823768,-11991.336260,0.000000
439.518922,-444.123565,-11103.089130,-1532.190996
439.519244,1036.288319,-9992.780217,-2528.115143
439.519565,1554.432478,-8586.388927,-612.876398
439.519887,1332.370696,-7328.038826,995.924147
439.520209,1628.453072,-7179.997637,1225.752797
439.520531,2146.597232,-7476.080014,-153.219100
439.520853,2368.659014,-7328.038826,-1378.971896
439.521174,1628.453072,-8068.244768,-1685.410096
439.521496,296.082377,-8586.388927,-1072.533697
439.521818,-1110.308913,-9178.553681,-1455.581446
439.522140,-2146.597232,-9992.780217,-2145.067394
439.522461,-3182.885551,-11325.150913,-2604.724693
439.522783,-4515.256246,-11843.295072,-2987.772442
439.523105,-4959.379811,-11991.336260,-3217.601092
439.523427,-4071.132681,-11843.295072,-2987.772442
439.523748,-2072.576638,-10807.006753,-2145.067394
439.524070,0.000000,-8660.409521,-1455.581446
439.524392,444.123565,-6069.688724,-612.876398
439.524714,1036.288319,-6069.688724,76.609550
439.525036,1628.453072,-6439.791695,-612.876398
439.525357,2664.741391,-6661.853478,-1915.238745
439.525679,3330.926739,-7994.224174,-919.314598
439.526001,2812.782580,-10066.800811,995.924147
439.526323,1480.411884,-10288.862594,689.485948
439.526644,1332.370696,-9548.656652,-1072.533697
439.526966,1110.308913,-9844.739029,-2374.896044
439.527288,222.061783,-11103.089130,-2834.553343
439.527610,-1702.473667,-10584.944971,-2911.162892
439.527932,-2368.659014,-10584.944971,-2451.505594
439.528253,-1850.514855,-11843.295072,-1608.800546
439.528575,-888.247130,-11695.253884,-1608.800546
439.528897,-814.226536,-9178.553681,-2068.457845
439.529219,-518.144159,-7105.977043,-1838.629195
439.529540,-888.247130,-6735.874072,-995.924147
439.529862,-1036.288319,-6439.791695,-2528.115143
439.530184,-888.247130,-6957.935855,-2374.896044
439.530506,-1258.350101,-7846.182985,-1455.581446
439.530827,-1776.494261,-9622.677246,-1225.752797
439.531149,-1850.514855,-9474.636058,-2068.457845
439.531471,-1480.411884,-9400.615463,-2604.724693
439.531793,-1036.288319,-10066.800811,-2834.553343
439.532115,-1998.556043,-11251.130318,-2604.724693
439.532436,-3034.844362,-11547.212695,-1532.190996
439.532758,-2664.741391,-11769.274478,-1532.190996
439.533080,-1776.494261,-11917.315666,-1532.190996
439.533402,0.000000,-10436.903782,-2451.505594
439.533723,1924.535449,-8956.491898,-1608.800546
439.534045,3108.864956,-7624.121203,-229.828649
439.534367,4219.173869,-6291.750507,0.000000
439.534689,5625.565159,-5403.503377,-995.924147
439.535011,5995.668130,-7105.977043,-1532.190996
439.535332,4589.276840,-9474.636058,-995.924147
439.535654,2294.638420,-10510.924376,-842.705048
439.535976,370.102971,-10807.006753,-1072.533697
439.536298,-370.102971,-10881.027347,-1378.971896
439.536619,-1184.329507,-11325.150913,-1685.410096
439.536941,-2516.700203,-9696.697840,-2374.896044
439.537263,-3330.926739,-8660.409521,-2987.772442
439.537585,-3034.844362,-9400.615463,-2834.553343
439.537907,-2516.700203,-11103.089130,-2145.067394
439.538228,-3256.906145,-11177.109724,-919.314598
439.538550,-3923.091493,-10436.903782,-459.657299
439.538872,-3701.029710,-10214.842000,-383.047749
439.539194,-2368.659014,-9104.533087,-1608.800546
439.539515,-666.185348,-7328.038826,-2451.505594
439.539837,222.061783,-5477.523971,-1915.238745
439.540159,296.082377,-6883.915261,-919.314598
439.540481,740.205942,-8364.327145,-1072.533697
439.540802,962.267725,-9992.780217,-1685.410096
439.541124,-222.061783,-11325.150913,-1302.362347
439.541446,-2368.659014,-12287.418637,-459.657299
439.541768,-3256.906145,-11843.295072,-536.266849
439.542090,-2664.741391,-9918.759623,-1455.581446
439.542411,-814.226536,-9030.512492,-1838.629195
439.542733,888.247130,-9178.553681,-1838.629195
439.543055,1332.370696,-8956.491898,-766.095498
439.543377,1184.329507,-8290.306550,1225.752797
439.543698,962.267725,-9030.512492,2145.067394
439.544020,592.164754,-8660.409521,536.266849
439.544342,814.226536,-7846.182985,-766.095498
439.544664,1036.288319,-6809.894666,-1378.971896
439.544986,0.000000,-7254.018232,-1608.800546
439.545307,-222.061783,-7920.203579,-1149.143247
439.545629,-666.185348,-8956.491898,-536.266849
439.545951,-1702.473667,-10436.903782,-689.485948
439.546273,-2664.741391,-11843.295072,-1762.019645
439.546594,-2960.823768,-12361.439231,-2528.115143
439.546916,-3256.906145,-10807.006753,-2451.505594
439.547238,-1924.535449,-10584.944971,-2451.505594
439.547560,-592.164754,-9548.656652,-1838.629195
439.547881,518.144159,-8734.430116,-1455.581446
439.548203,1036.288319,-7846.182985,-766.095498
439.548525,518.144159,-8068.244768,-689.485948
439.548847,1036.288319,-8142.265362,-1149.143247
439.549169,1850.514855,-7624.121203,-1838.629195
439.549490,2220.617826,-7846.182985,-2374.896044
439.549812,1406.391290,-9104.533087,-2298.286494
439.550134,148.041188,-9918.759623,-1608.800546
439.550456,-962.267725,-10436.903782,-1838.629195
439.550777,-2664.741391,-12213.398043,-2068.457845
439.551099,-4219.173869,-13027.624579,-2757.943793
439.551421,-4515.256246,-11917.315666,-2604.724693
439.551743,-2368.659014,-10436.903782,-2068.457845
439.552065,0.000000,-8586.388927,-2298.286494
439.552386,1924.535449,-7920.203579,-2604.724693
439.552708,2516.700203,-7402.059420,-1685.410096
439.553030,2146.597232,-7920.203579,-689.485948
439.553352,1924.535449,-8882.471304,-1072.533697
439.553673,1998.556043,-9030.512492,-2604.724693
439.553995,1702.473667,-8956.491898,-2757.943793
439.554317,1628.453072,-10140.821405,-2068.457845
439.554639,814.226536,-10436.903782,-1532.190996
439.554961,-148.041188,-10362.883188,-766.095498
439.555282,-1702.473667,-10436.903782,153.219100
439.555604,-3330.926739,-10436.903782,-153.219100
439.555926,-3552.988522,-9548.656652,-1608.800546
439.556248,-2368.659014,-8882.471304,-2604.724693
439.556569,-1406.391290,-8956.491898,-1378.971896
439.556891,-740.205942,-8216.285956,-229.828649
439.557213,740.205942,-7031.956449,76.609550
439.557535,1110.308913,-6957.935855,-459.657299
439.557856,888.247130,-7920.203579,-1991.848295
439.558178,-444.123565,-8142.265362,-2911.162892
439.558500,-1036.288319,-8660.409521,-2604.724693
439.558822,-666.185348,-10362.883188,-1072.533697
439.559144,-296.082377,-10214.842000,-2145.067394
439.559465,-740.205942,-8882.471304,-2298.286494
439.559787,-740.205942,-8216.285956,-1072.533697
439.560109,-1480.411884,-9252.574275,-919.314598
439.560431,-2442.679609,-9252.574275,-3294.210641
439.560752,-2812.782580,-9178.553681,-3370.820191
439.561074,-2072.576638,-9548.656652,-1685.410096
439.561396,-1332.370696,-10732.986159,0.000000
439.561718,0.000000,-9696.697840,-153.219100
439.562040,888.247130,-8586.388927,-459.657299
439.562361,1924.535449,-7772.162391,-1225.752797
439.562683,3330.926739,-7772.162391,-2911.162892
439.563005,4441.235652,-7920.203579,-3447.429741
439.563327,3701.029710,-8734.430116,-2528.115143
439.563648,2294.638420,-10881.027347,-1991.848295
439.563970,888.247130,-11917.315666,-2298.286494
439.564292,0.000000,-12509.480420,-3064.381992
439.564614,-1480.411884,-12509.480420,-4213.525239
439.564935,-3775.050304,-13175.665768,-4290.134789
439.565257,-5477.523971,-11843.295072,-2757.943793
439.565579,-4737.318029,-10140.821405,-1915.238745
439.565901,-2442.679609,-9104.533087,-2451.505594
439.566223,-740.205942,-8808.450710,-2145.067394
439.566544,-666.185348,-8068.244768,-612.876398
439.566866,-1036.288319,-8142.265362,153.219100
439.567188,-1702.473667,-10140.821405,0.000000
439.567510,-1998.556043,-10510.924376,-1225.752797
439.567831,-1332.370696,-8660.409521,-1378.971896
439.568153,0.000000,-6587.832884,-1225.752797
439.568475,1628.453072,-6069.688724,-1378.971896
439.568797,2812.782580,-6587.832884,-2374.896044
439.569119,2072.576638,-8882.471304,-1838.629195
439.569440,-814.226536,-11029.068536,229.828649
439.569762,-3775.050304,-13249.686362,1302.362347
439.570084,-4737.318029,-13767.830521,76.609550
439.570406,-3775.050304,-11399.171507,-1838.629195
439.570727,-2294.638420,-8586.388927,-1455.581446
439.571049,0.000000,-5107.421000,-153.219100
439.571371,2664.741391,-2812.782580,-76.609550
439.571693,4515.256246,-3627.009116,-766.095498
439.572015,3627.009116,-6587.832884,0.000000
439.572336,1702.473667,-8438.347739,536.266849
439.572658,0.000000,-8586.388927,-919.314598
439.572980,370.102971,-9696.697840,-1991.848295
439.573302,1036.288319,-10584.944971,-2451.505594
439.573623,814.226536,-10288.862594,-2374.896044
439.573945,0.000000,-10584.944971,-1225.752797
439.574267,-1480.411884,-11695.253884,76.609550
439.574589,-2220.617826,-12139.377449,-1072.533697
439.574910,-1998.556043,-11399.171507,-2987.772442
439.575232,-1628.453072,-10436.903782,-3140.991542
439.575554,-1036.288319,-9474.636058,-1762.019645
439.575876,296.082377,-8290.306550,-766.095498
439.576198,1702.473667,-7402.059420,-995.924147
439.576519,1924.535449,-7994.224174,-306.438199
439.576841,1110.308913,-9400.615463,-459.657299
439.577163,296.082377,-9178.553681,-1532.190996
439.577485,222.061783,-9326.594869,-2987.772442
439.577806,888.247130,-10436.903782,-3217.601092
439.578128,1406.391290,-11177.109724,-2221.676944
439.578450,-370.102971,-11399.171507,-1532.190996
439.578772,-2664.741391,-11843.295072,-766.095498
439.579094,-4811.338623,-13101.645173,-1225.752797
439.579415,-6291.750507,-12361.439231,-3370.820191
439.579737,-5699.585753,-11251.130318,-4596.572988
439.580059,-4293.194464,-10732.986159,-2834.553343
439.580381,-2516.700203,-9548.656652,-766.095498
439.580703,-1332.370696,-7624.121203,459.657299
439.581024,-148.041188,-6069.688724,306.438199
439.581346,1110.308913,-6217.729913,-919.314598
439.581668,1998.556043,-6513.812290,-2528.115143
439.581990,1702.473667,-5995.668130,-3217.601092
439.582312,1628.453072,-5995.668130,-2145.067394
439.582634,2738.761985,-7624.121203,-1225.752797
439.582955,4071.132681,-8068.244768,-2681.334243
439.583277,3182.885551,-8364.327145,-3447.429741
439.583599,814.226536,-10658.965565,-2451.505594
439.583921,-1702.473667,-12065.356855,-2221.676944
439.584243,-2886.803174,-12361.439231,-3294.210641
439.584565,-2738.761985,-11473.192101,-3677.258390
439.584886,-1628.453072,-9992.780217,-2145.067394
439.585208,0.000000,-7402.059420,-2221.676944
439.585530,2220.617826,-5625.565159,-2145.067394
439.585852,3478.967927,-4515.256246,-1608.800546
439.586174,2812.782580,-5921.647536,-2298.286494
439.586495,1406.391290,-6365.771101,-3217.601092
439.586817,148.041188,-7550.100608,-2604.724693
439.587139,740.205942,-9696.697840,-3907.087040
439.587461,444.123565,-11029.068536,-5132.839837
439.587783,518.144159,-10140.821405,-6128.763984
439.588105,0.000000,-10881.027347,-4903.011187
439.588426,-1480.411884,-12213.398043,-3753.867940
439.588748,-4367.215058,-13767.830521,-4596.572988
439.589070,-6143.709319,-12139.377449,-5362.668486
439.589392,-6291.750507,-11843.295072,-5975.544884
439.589714,-4515.256246,-12953.603985,-6052.154434
439.590035,-2738.761985,-12065.356855,-4903.011187
439.590357,-1554.432478,-9326.594869,-1762.019645
439.590679,740.205942,-7772.162391,-612.876398
439.591001,2738.761985,-6809.894666,-2068.457845
439.591323,2738.761985,-5551.544565,-4596.572988
439.591645,1850.514855,-4737.318029,-4903.011187
439.591966,1702.473667,-6735.874072,-3907.087040
439.592288,1332.370696,-9252.574275,-4519.963438
439.592610,1406.391290,-10658.965565,-4596.572988
439.592932,962.267725,-11177.109724,-4060.306139
439.593254,0.000000,-12435.459826,-4060.306139
439.593575,-1036.288319,-14063.912898,-4366.744339
439.593897,-2368.659014,-12953.603985,-5056.230287
439.594219,-3478.967927,-10732.986159,-4749.792088
439.594541,-2738.761985,-9622.677246,-4213.525239
439.594863,-1406.391290,-8364.327145,-3140.991542
439.595185,888.247130,-6883.915261,-1762.019645
439.595506,2442.679609,-5329.482782,-459.657299
439.595828,3923.091493,-5329.482782,-229.828649
439.596150,4515.256246,-6365.771101,76.609550
439.596472,4367.215058,-5995.668130,76.609550
439.596794,2368.659014,-5181.441594,-536.266849
439.597116,1554.432478,-5403.503377,-2068.457845
439.597437,1702.473667,-5551.544565,-4136.915689
