#time,accel_x,accel_y,accel_z
290.167257,-222.061783,-9326.594869,-1149.143247
290.167579,-296.082377,-9400.615463,-842.705048
290.167901,-370.102971,-9104.533087,-1302.362347
290.168222,-370.102971,-9252.574275,-1378.971896
290.168544,-296.082377,-9178.553681,-1532.190996
290.168866,-444.123565,-9326.594869,-1608.800546
290.169188,-518.144159,-9252.574275,-1608.800546
290.169509,-592.164754,-9548.656652,-1378.971896
290.169831,-444.123565,-9326.594869,-1608.800546
290.170153,-740.205942,-9548.656652,-1532.190996
290.170475,-592.164754,-9622.677246,-1225.752797
290.170796,-518.144159,-9474.636058,-1378.971896
290.171118,-592.164754,-9326.594869,-1762.019645
290.171440,-296.082377,-9252.574275,-1149.143247
290.171762,-666.185348,-8956.491898,-1532.190996
290.172083,-666.185348,-9400.615463,-1762.019645
290.172405,-592.164754,-9622.677246,-1608.800546
290.172727,-666.185348,-9770.718434,-1302.362347
290.173049,-444.123565,-9474.636058,-1149.143247
290.173370,-370.102971,-9252.574275,-1455.581446
290.173692,-370.102971,-9326.594869,-1608.800546
290.174014,-296.082377,-9104.533087,-1685.410096
290.174336,-296.082377,-9104.533087,-1455.581446
290.174657,-592.164754,-9104.533087,-1608.800546
290.174979,-518.144159,-9474.636058,-1608.800546
290.175301,-592.164754,-9696.697840,-1455.581446
290.175623,-518.144159,-9696.697840,-1532.190996
290.175944,-296.082377,-9696.697840,-1608.800546
290.176266,-148.041188,-9326.594869,-1685.410096
290.176588,-148.041188,-8882.471304,-1991.848295
290.176910,0.000000,-9104.533087,-1685.410096
290.177232,0.000000,-9252.574275,-1762.019645
290.177553,-296.082377,-9400.615463,-1838.629195
290.177875,-518.144159,-9474.636058,-1685.410096
290.178197,-222.061783,-9252.574275,-1532.190996
290.178519,0.000000,-9548.656652,-2068.457845
290.178840,0.000000,-9400.615463,-1762.019645
290.179162,-296.082377,-9326.594869,-1455.581446
290.179484,0.000000,-9326.594869,-1685.410096
290.179806,74.020594,-9474.636058,-1149.143247
290.180127,0.000000,-9326.594869,-1378.971896
290.180449,-222.061783,-9474.636058,-1378.971896
290.180771,0.000000,-9474.636058,-1302.362347
290.181093,0.000000,-9474.636058,-1302.362347
290.181414,0.000000,-9474.636058,-995.924147
290.181736,-296.082377,-8808.450710,-1225.752797
290.182058,-222.061783,-9400.615463,-1532.190996
290.182380,-222.061783,-9178.553681,-1532.190996
290.182701,-370.102971,-9252.574275,-1455.581446
290.183023,-370.102971,-9400.615463,-1455.581446
290.183345,0.000000,-9474.636058,-1302.362347
290.183667,-592.164754,-9400.615463,-1225.752797
290.183988,-518.144159,-9474.636058,-1302.362347
290.184310,-518.144159,-9400.615463,-1225.752797
290.184632,-444.123565,-9178.553681,-1302.362347
290.184954,-518.144159,-9326.594869,-1608.800546
290.185275,-444.123565,-8882.471304,-1225.752797
290.185597,-666.185348,-9474.636058,-1225.752797
290.185919,-518.144159,-9326.594869,-1378.971896
290.186241,74.020594,-9622.677246,-1302.362347
290.186562,1036.288319,-9918.759623,-1532.190996
290.186884,1258.350101,-10140.821405,-919.314598
290.187206,296.082377,-9178.553681,-306.438199
290.187528,0.000000,-8808.450710,-689.485948
290.187849,0.000000,-8882.471304,-1532.190996
290.188171,-592.164754,-9400.615463,-1608.800546
290.188493,-1258.350101,-9326.594869,-1455.581446
290.188815,-1258.350101,-8808.450710,-1225.752797
290.189136,-518.144159,-9474.636058,-1915.238745
290.189458,74.020594,-10584.944971,-1532.190996
290.189780,-222.061783,-10066.800811,-459.657299
290.190102,-222.061783,-9030.512492,-842.705048
290.190423,1036.288319,-9104.533087,-1838.629195
290.190745,2146.597232,-10214.842000,-2221.676944
290.191067,1406.391290,-10066.800811,-995.924147
290.191389,962.267725,-8956.491898,-153.219100
290.191710,2294.638420,-8956.491898,-919.314598
290.192032,3478.967927,-10066.800811,-1532.190996
290.192354,3330.926739,-9326.594869,76.609550
290.192676,2664.741391,-8364.327145,229.828649
290.192998,2886.803174,-7476.080014,-536.266849
290.193319,3627.009116,-8290.306550,-995.924147
290.193641,3552.988522,-9030.512492,-1455.581446
290.193963,2664.741391,-8586.388927,-842.705048
290.194285,2516.700203,-8216.285956,-1225.752797
290.194606,3552.988522,-8956.491898,-2374.896044
290.194928,4441.235652,-10955.047942,-2374.896044
290.195250,4071.132681,-10658.965565,-1762.019645
290.195572,3849.070898,-9622.677246,-1991.848295
290.195893,3997.112087,-9770.718434,-1532.190996
290.196215,4663.297435,-10658.965565,-1762.019645
290.196537,3997.112087,-10140.821405,-2451.505594
290.196859,3182.885551,-8882.471304,-2374.896044
290.197180,3256.906145,-8956.491898,-1455.581446
290.197502,4293.194464,-9696.697840,-1915.238745
290.197824,5181.441594,-9030.512492,-1915.238745
290.198146,5847.626942,-8882.471304,-2145.067394
290.198467,6439.791695,-9548.656652,-1302.362347
290.198789,6661.853478,-9474.636058,-536.266849
290.199111,6365.771101,-7994.224174,-995.924147
290.199433,5699.585753,-8438.347739,-2068.457845
290.199754,4219.173869,-9474.636058,-2451.505594
290.200076,2664.741391,-10066.800811,-2604.724693
290.200398,1184.329507,-11547.212695,-2451.505594
290.200720,222.061783,-12731.542202,-1225.752797
290.201041,370.102971,-13027.624579,-612.876398
290.201363,74.020594,-13249.686362,0.000000
290.201685,296.082377,-12509.480420,459.657299
290.202007,592.164754,-10658.965565,1072.533697
290.202328,740.205942,-8660.409521,1532.190996
290.202650,0.000000,-7550.100608,1915.238745
290.202972,-1110.308913,-5625.565159,1225.752797
290.203294,-1406.391290,-4589.276840,-383.047749
290.203615,-1036.288319,-4737.318029,-2145.067394
290.203937,0.000000,-5477.523971,-2604.724693
290.204259,1628.453072,-5403.503377,-3064.381992
290.204581,3552.988522,-6143.709319,-4060.306139
290.204902,6069.688724,-8142.265362,-4749.792088
290.205224,6661.853478,-10584.944971,-5132.839837
290.205546,6069.688724,-13027.624579,-4290.134789
290.205868,5329.482782,-14730.098246,-2757.943793
290.206189,5255.462188,-14878.139434,-2451.505594
290.206511,3701.029710,-14211.954086,-995.924147
290.206833,2294.638420,-12879.583391,919.314598
290.207155,888.247130,-10584.944971,2987.772442
290.207476,370.102971,-7698.141797,3370.820191
290.207798,740.205942,-5255.462188,2834.553343
290.208120,814.226536,-4293.194464,3064.381992
290.208442,592.164754,-3404.947333,2221.676944
290.208764,148.041188,-4885.359217,689.485948
290.209085,0.000000,-7402.059420,1149.143247
290.209407,518.144159,-7994.224174,612.876398
290.209729,1036.288319,-8290.306550,-3447.429741
290.210051,1480.411884,-10066.800811,-6205.373534
290.210372,1776.494261,-12435.459826,-6128.763984
290.210694,1258.350101,-15174.221811,-5209.449386
290.211016,-222.061783,-17394.839637,-4136.915689
290.211338,0.000000,-17024.736666,-3830.477490
290.211659,74.020594,-13323.706956,-3907.087040
290.211981,1036.288319,-9918.759623,-4443.353888
290.212303,2072.576638,-8808.450710,-2604.724693
290.212625,3478.967927,-8438.347739,-919.314598
290.212946,4071.132681,-7402.059420,1991.848295
290.213268,5329.482782,-6365.771101,3753.867940
290.213590,5033.400406,-5033.400406,5056.230287
290.213912,4515.256246,-4737.318029,4213.525239
290.214233,4959.379811,-3997.112087,2145.067394
290.214555,4811.338623,-3256.906145,-153.219100
290.214877,3330.926739,-3627.009116,612.876398
290.215199,222.061783,-6587.832884,689.485948
290.215520,-1406.391290,-10362.883188,-1532.190996
290.215842,-2220.617826,-13175.665768,-4826.401637
290.216164,-2220.617826,-13397.727550,-6205.373534
290.216486,-2442.679609,-13693.809927,-6894.859482
290.216807,-3627.009116,-16210.510130,-5898.935335
290.217129,-4367.215058,-16062.468941,-2987.772442
290.217451,-4737.318029,-11917.315666,-3524.039291
290.217773,-2072.576638,-9326.594869,-5822.325785
290.218094,1184.329507,-8660.409521,-6128.763984
290.218416,2146.597232,-9326.594869,-4290.134789
290.218738,1480.411884,-8216.285956,-536.266849
290.219060,3256.906145,-7179.997637,2604.724693
290.219381,6143.709319,-7772.162391,2068.457845
290.219703,7698.141797,-8660.409521,-306.438199
290.220025,6661.853478,-9918.759623,-306.438199
290.220347,4959.379811,-7920.203579,2145.067394
290.220668,3701.029710,-7254.018232,2221.676944
290.220990,2442.679609,-8586.388927,1072.533697
290.221312,-592.164754,-8586.388927,842.705048
290.221634,-5995.668130,-7105.977043,536.266849
290.221955,-9696.697840,-9178.553681,-1915.238745
290.222277,-11843.295072,-11991.336260,-3447.429741
290.222599,-12583.501014,-12213.398043,-4290.134789
290.222921,-12213.398043,-9400.615463,-5056.230287
290.223243,-8586.388927,-8438.347739,-5056.230287
290.223564,-3404.947333,-9918.759623,-5745.716235
290.223886,-592.164754,-11251.130318,-4290.134789
290.224208,0.000000,-10066.800811,-1991.848295
290.224530,1332.370696,-8512.368333,-766.095498
290.224851,3182.885551,-8734.430116,-2298.286494
290.225173,4811.338623,-9252.574275,-3370.820191
290.225495,4589.276840,-8586.388927,-1302.362347
290.225817,4441.235652,-6439.791695,842.705048
290.226138,5107.421000,-6513.812290,1378.971896
290.226460,4367.215058,-8586.388927,2451.505594
290.226782,1702.473667,-9474.636058,3294.210641
290.227104,-1628.453072,-8586.388927,2298.286494
290.227425,-2664.741391,-7994.224174,-229.828649
290.227747,-1924.535449,-9622.677246,-1762.019645
290.228069,-2072.576638,-9622.677246,-919.314598
290.228391,-2442.679609,-8364.327145,306.438199
290.228712,-1702.473667,-9474.636058,-229.828649
290.229034,74.020594,-12657.521608,-1149.143247
290.229356,2294.638420,-13175.665768,-2604.724693
290.229678,3997.112087,-12139.377449,-4749.792088
290.229999,5995.668130,-13175.665768,-5362.668486
290.230321,7328.038826,-13767.830521,-2221.676944
290.230643,7105.977043,-11177.109724,689.485948
290.230965,4145.153275,-6957.935855,536.266849
290.231286,1480.411884,-5033.400406,-689.485948
290.231608,-1258.350101,-6217.729913,-2221.676944
290.231930,-4885.359217,-7328.038826,-2451.505594
290.232252,-9104.533087,-6587.832884,-306.438199
290.232573,-11547.212695,-6735.874072,2221.676944
290.232895,-11251.130318,-7772.162391,1915.238745
290.233217,-10066.800811,-7846.182985,-1378.971896
290.233539,-7772.162391,-7846.182985,-3830.477490
290.233860,-4293.194464,-10288.862594,-4673.182538
290.234182,-888.247130,-13175.665768,-1838.629195
290.234504,666.185348,-12287.418637,383.047749
290.234825,4071.132681,-10140.821405,-229.828649
290.235147,9844.739029,-10584.944971,-3907.087040
290.235469,13989.892304,-12953.603985,-7124.688131
290.235790,14582.057057,-11991.336260,-5362.668486
290.236112,12287.418637,-9474.636058,-536.266849
290.236434,10140.821405,-7846.182985,2145.067394
290.236755,7698.141797,-8364.327145,1225.752797
290.237077,3627.009116,-9178.553681,-459.657299
290.237398,-2072.576638,-7402.059420,-2068.457845
290.237720,-6439.791695,-6143.709319,-2681.334243
290.238042,-9326.594869,-5477.523971,-612.876398
290.238363,-10436.903782,-4737.318029,919.314598
290.238685,-10214.842000,-5477.523971,-1532.190996
290.239007,-8068.244768,-8438.347739,-5515.887586
290.239328,-6513.812290,-12657.521608,-4519.963438
290.239650,-5477.523971,-14656.077652,-1685.410096
290.239972,-5107.421000,-13175.665768,-612.876398
290.240293,-1332.370696,-11843.295072,-2987.772442
290.240615,4071.132681,-12583.501014,-6741.640382
290.240936,6809.894666,-13545.768739,-8197.221829
290.241258,7328.038826,-12065.356855,-5669.106685
290.241580,6883.915261,-9770.718434,-1378.971896
290.241901,5773.606348,-8956.491898,0.000000
290.242223,3627.009116,-9770.718434,153.219100
290.242545,-222.061783,-8734.430116,459.657299
290.242866,-4441.235652,-5921.647536,-383.047749
290.243188,-7254.018232,-5921.647536,-1915.238745
290.243509,-8808.450710,-6587.832884,689.485948
290.243831,-10214.842000,-5255.462188,3370.820191
290.244153,-9696.697840,-6217.729913,1378.971896
290.244474,-6735.874072,-9474.636058,-1532.190996
290.244796,-2664.741391,-11103.089130,-1225.752797
290.245118,0.000000,-9622.677246,-919.314598
290.245439,2072.576638,-9992.780217,-1532.190996
290.245761,5181.441594,-12139.377449,-1762.019645
290.246083,6439.791695,-12065.356855,-2221.676944
290.246404,5107.421000,-10658.965565,-2221.676944
290.246726,5107.421000,-9178.553681,-2374.896044
290.247047,5107.421000,-8438.347739,-3600.648841
290.247369,3404.947333,-9622.677246,-3140.991542
290.247691,222.061783,-9918.759623,1378.971896
290.248012,-2368.659014,-7698.141797,3907.087040
290.248334,-4367.215058,-4293.194464,2374.896044
290.248656,-5551.544565,-2664.741391,-842.705048
290.248977,-7105.977043,-4071.132681,-2221.676944
290.249299,-8142.265362,-6809.894666,-2374.896044
290.249620,-7550.100608,-8586.388927,-153.219100
290.249942,-4737.318029,-11251.130318,1455.581446
290.250264,-444.123565,-12657.521608,1302.362347
290.250585,2590.720797,-11177.109724,-383.047749
290.250907,5403.503377,-11325.150913,-2604.724693
290.251229,7994.224174,-14285.974681,-3294.210641
290.251550,8882.471304,-15174.221811,-3140.991542
290.251872,8808.450710,-11695.253884,-2451.505594
290.252193,7254.018232,-9030.512492,-1149.143247
290.252515,5329.482782,-10066.800811,-612.876398
290.252837,2146.597232,-10436.903782,-536.266849
290.253158,-2664.741391,-9104.533087,0.000000
290.253480,-6291.750507,-7254.018232,0.000000
290.253802,-8290.306550,-6291.750507,-306.438199
290.254123,-8882.471304,-4589.276840,-229.828649
290.254445,-10140.821405,-4071.132681,-1149.143247
290.254767,-9622.677246,-6291.750507,-3064.381992
290.255088,-6957.935855,-9400.615463,-3294.210641
290.255410,-3997.112087,-12583.501014,-2528.115143
290.255731,-1702.473667,-12731.542202,-2451.505594
290.256053,1628.453072,-12139.377449,-2757.943793
290.256375,6587.832884,-13693.809927,-3983.696590
290.256696,9252.574275,-13915.871710,-3294.210641
290.257018,9326.594869,-11177.109724,-2834.553343
290.257340,9104.533087,-6661.853478,-2681.334243
290.257661,7994.224174,-7105.977043,-2145.067394
290.257983,5403.503377,-9770.718434,0.000000
290.258304,1480.411884,-9030.512492,919.314598
290.258626,-2368.659014,-6217.729913,383.047749
290.258948,-3627.009116,-5403.503377,229.828649
290.259269,-5033.400406,-5329.482782,0.000000
290.259591,-6661.853478,-5551.544565,-1225.752797
290.259913,-6957.935855,-7105.977043,-1991.848295
290.260234,-5255.462188,-8956.491898,-1762.019645
290.260556,-3256.906145,-10807.006753,-1149.143247
290.260878,-1628.453072,-11769.274478,-1378.971896
290.261199,592.164754,-11843.295072,-2221.676944
290.261521,3478.967927,-12509.480420,-4136.915689
290.261842,6291.750507,-14582.057057,-5209.449386
290.262164,7624.121203,-15396.283594,-4443.353888
290.262486,7920.203579,-11843.295072,-3064.381992
290.262807,6735.874072,-8586.388927,-2145.067394
290.263129,3997.112087,-8734.430116,-1225.752797
290.263451,0.000000,-9030.512492,-689.485948
290.263772,-4589.276840,-7624.121203,0.000000
290.264094,-8216.285956,-6069.688724,-1378.971896
290.264415,-10658.965565,-7105.977043,-1378.971896
290.264737,-11991.336260,-7846.182985,919.314598
290.265059,-12805.562797,-6291.750507,1225.752797
290.265380,-9918.759623,-6069.688724,-1149.143247
290.265702,-5255.462188,-8734.430116,-2911.162892
290.266024,-1776.494261,-10658.965565,-2221.676944
290.266345,0.000000,-10288.862594,-1532.190996
290.266667,2886.803174,-11547.212695,-1762.019645
290.266988,7105.977043,-13397.727550,-2987.772442
290.267310,9104.533087,-12879.583391,-3830.477490
290.267632,9030.512492,-10881.027347,-3524.039291
290.267953,8216.285956,-9252.574275,-2068.457845
290.268275,7328.038826,-9696.697840,-1685.410096
290.268597,4811.338623,-10658.965565,0.000000
290.268918,1406.391290,-9252.574275,1838.629195
290.269240,-1776.494261,-6217.729913,1838.629195
290.269562,-4145.153275,-4441.235652,-229.828649
290.269883,-6439.791695,-4737.318029,-229.828649
290.270205,-8142.265362,-5033.400406,-306.438199
290.270526,-8364.327145,-6661.853478,-1532.190996
290.270848,-6365.771101,-9844.739029,-995.924147
290.271170,-3849.070898,-12509.480420,1302.362347
290.271491,-1850.514855,-12287.418637,919.314598
290.271813,962.267725,-11029.068536,-1532.190996
290.272135,4811.338623,-11103.089130,-2911.162892
290.272456,6883.915261,-12509.480420,-4136.915689
290.272778,7031.956449,-12805.562797,-3830.477490
290.273099,6735.874072,-10658.965565,-2374.896044
290.273421,5551.544565,-9622.677246,-1685.410096
290.273743,3108.864956,-11251.130318,-306.438199
290.274064,-888.247130,-10881.027347,1915.238745
290.274386,-5403.503377,-7772.162391,1149.143247
290.274708,-7254.018232,-6217.729913,-1532.190996
290.275029,-7994.224174,-6661.853478,-1608.800546
290.275351,-9252.574275,-5847.626942,842.705048
290.275672,-10362.883188,-5181.441594,1149.143247
290.275994,-7920.203579,-7476.080014,-995.924147
290.276316,-3330.926739,-10584.944971,-2145.067394
290.276637,-222.061783,-10955.047942,-1838.629195
290.276959,1628.453072,-11029.068536,-1608.800546
290.277281,5033.400406,-12657.521608,-1762.019645
290.277602,7698.141797,-12953.603985,-2068.457845
290.277924,9104.533087,-11843.295072,-3217.601092
290.278246,8586.388927,-9992.780217,-2451.505594
290.278567,7402.059420,-8586.388927,-2221.676944
290.278889,5551.544565,-8512.368333,-2681.334243
290.279210,2960.823768,-9918.759623,-1225.752797
290.279532,-962.267725,-8882.471304,1455.581446
290.279854,-3923.091493,-5921.647536,1072.533697
290.280175,-5847.626942,-4811.338623,-612.876398
290.280497,-7328.038826,-6069.688724,-1225.752797
290.280819,-8808.450710,-6809.894666,-1915.238745
290.281140,-8512.368333,-7105.977043,-2298.286494
290.281462,-5773.606348,-9474.636058,-1608.800546
290.281783,-2886.803174,-11103.089130,-229.828649
290.282105,-222.061783,-10955.047942,-995.924147
290.282427,2960.823768,-11695.253884,-3600.648841
290.282748,6217.729913,-14211.954086,-4826.401637
290.283070,7402.059420,-14582.057057,-4290.134789
290.283392,7105.977043,-12435.459826,-2451.505594
290.283713,5921.647536,-9844.739029,-1378.971896
290.284035,4737.318029,-9992.780217,-1532.190996
290.284357,2368.659014,-10584.944971,-2834.553343
290.284678,-1776.494261,-9178.553681,-995.924147
290.285000,-6217.729913,-7105.977043,919.314598
290.285321,-7920.203579,-5995.668130,0.000000
290.285643,-8068.244768,-5477.523971,-383.047749
290.285965,-8586.388927,-5477.523971,-383.047749
290.286286,-9104.533087,-6661.853478,-1455.581446
290.286608,-7402.059420,-9474.636058,-1608.800546
290.286930,-3478.967927,-10732.986159,-2145.067394
290.287251,0.000000,-10584.944971,-2604.724693
290.287573,3701.029710,-11547.212695,-2834.553343
290.287894,6513.812290,-13471.748144,-3217.601092
290.288216,7846.182985,-13619.789333,-2298.286494
290.288538,7994.224174,-10881.027347,-2221.676944
290.288859,7920.203579,-7994.224174,-2604.724693
290.289181,7105.977043,-8882.471304,-3370.820191
290.289503,4293.194464,-10140.821405,-1991.848295
290.289824,74.020594,-9104.533087,1072.533697
290.290146,-2220.617826,-6069.688724,2145.067394
290.290467,-3034.844362,-4959.379811,995.924147
290.290789,-4811.338623,-5921.647536,0.000000
290.291111,-7624.121203,-6365.771101,-153.219100
290.291432,-9030.512492,-5329.482782,-612.876398
290.291754,-6439.791695,-7402.059420,-1838.629195
290.292076,-3108.864956,-10436.903782,-1225.752797
290.292397,-1554.432478,-11473.192101,-459.657299
290.292719,74.020594,-11621.233289,-1072.533697
290.293041,3108.864956,-12213.398043,-2834.553343
290.293362,5921.647536,-14137.933492,-3524.039291
290.293684,6809.894666,-13693.809927,-3524.039291
290.294005,6735.874072,-11547.212695,-3064.381992
290.294327,6439.791695,-9474.636058,-2451.505594
290.294649,5255.462188,-9474.636058,-1991.848295
290.294970,1998.556043,-9696.697840,-612.876398
290.295292,-1998.556043,-8364.327145,1455.581446
290.295614,-5181.441594,-6513.812290,383.047749
290.295935,-7031.956449,-7031.956449,-1685.410096
290.296257,-7920.203579,-8068.244768,-536.266849
290.296578,-9770.718434,-6957.935855,1378.971896
290.296900,-9622.677246,-6217.729913,0.000000
290.297222,-6587.832884,-8882.471304,-2451.505594
290.297543,-2294.638420,-10584.944971,-2221.676944
290.297865,0.000000,-10214.842000,-2298.286494
290.298187,2886.803174,-11473.192101,-2451.505594
290.298508,6143.709319,-13841.851115,-2221.676944
290.298830,7698.141797,-13767.830521,-2451.505594
290.299152,7105.977043,-11325.150913,-2604.724693
290.299473,5995.668130,-9178.553681,-2528.115143
290.299795,4885.359217,-9252.574275,-2681.334243
290.300116,3182.885551,-9548.656652,-2298.286494
290.300438,370.102971,-8660.409521,612.876398
290.300760,-1702.473667,-6291.750507,2298.286494
290.301081,-3256.906145,-5551.544565,1149.143247
290.301403,-5847.626942,-5181.441594,229.828649
290.301725,-8808.450710,-4367.215058,-76.609550
290.302046,-9696.697840,-5995.668130,-2298.286494
290.302368,-7550.100608,-9252.574275,-3217.601092
290.302689,-4589.276840,-11917.315666,-1915.238745
290.303011,-1554.432478,-13249.686362,-612.876398
290.303333,2294.638420,-12213.398043,-766.095498
290.303654,5847.626942,-12361.439231,-2221.676944
290.303976,8142.265362,-13619.789333,-3140.991542
290.304298,7698.141797,-13249.686362,-2987.772442
290.304619,6069.688724,-9992.780217,-2757.943793
290.304941,3997.112087,-7698.141797,-2221.676944
290.305262,2368.659014,-9548.656652,-1915.238745
290.305584,-222.061783,-10066.800811,0.000000
290.305906,-4145.153275,-7920.203579,1072.533697
290.306227,-7031.956449,-6217.729913,919.314598
290.306549,-7624.121203,-6143.709319,689.485948
290.306871,-7920.203579,-5773.606348,306.438199
290.307192,-8808.450710,-4663.297435,-1149.143247
290.307514,-8734.430116,-5921.647536,-1685.410096
290.307836,-6291.750507,-9696.697840,-1991.848295
290.308157,-2738.761985,-12065.356855,-2528.115143
290.308479,0.000000,-12213.398043,-2528.115143
290.308800,3627.009116,-12435.459826,-3600.648841
290.309122,6513.812290,-13841.851115,-3140.991542
290.309444,8512.368333,-13693.809927,-1915.238745
290.309765,8438.347739,-10066.800811,-2221.676944
290.310087,8364.327145,-7105.977043,-3217.601092
290.310409,7328.038826,-8068.244768,-3217.601092
290.310730,4071.132681,-9622.677246,-919.314598
290.311052,-740.205942,-8216.285956,1762.019645
290.311373,-3775.050304,-5033.400406,1838.629195
290.311695,-4441.235652,-4959.379811,-306.438199
290.312017,-5107.421000,-7031.956449,-1225.752797
290.312338,-6809.894666,-6661.853478,-995.924147
290.312660,-6809.894666,-7105.977043,-2451.505594
290.312982,-3552.988522,-9474.636058,-1762.019645
290.313303,-1036.288319,-11399.171507,-229.828649
290.313625,370.102971,-11473.192101,-612.876398
290.313947,2590.720797,-11029.068536,-2757.943793
290.314268,5625.565159,-13693.809927,-4290.134789
290.314590,8068.244768,-15766.386565,-4290.134789
290.314911,8512.368333,-13989.892304,-2681.334243
290.315233,7254.018232,-9918.759623,-1378.971896
290.315555,5699.585753,-9030.512492,-1149.143247
290.315876,3182.885551,-8142.265362,-383.047749
290.316198,-814.226536,-7550.100608,-919.314598
290.316520,-5477.523971,-6735.874072,-1915.238745
290.316841,-9474.636058,-6883.915261,-2374.896044
290.317163,-11769.274478,-7476.080014,-766.095498
290.317484,-12287.418637,-7402.059420,1149.143247
290.317806,-10362.883188,-7550.100608,-919.314598
290.318128,-6291.750507,-8142.265362,-3907.087040
290.318449,-2220.617826,-10658.965565,-3677.258390
290.318771,0.000000,-10732.986159,-612.876398
290.319093,2442.679609,-10362.883188,-1072.533697
290.319414,6217.729913,-11695.253884,-2757.943793
290.319736,8882.471304,-13693.809927,-4213.525239
290.320057,8808.450710,-13101.645173,-3524.039291
290.320379,6735.874072,-10288.862594,-1915.238745
290.320701,5477.523971,-8290.306550,-689.485948
290.321022,5107.421000,-8808.450710,-1149.143247
290.321344,2960.823768,-8290.306550,-689.485948
290.321666,-222.061783,-6735.874072,0.000000
290.321987,-3627.009116,-5255.462188,229.828649
290.322309,-6291.750507,-3775.050304,919.314598
290.322631,-8068.244768,-4515.256246,306.438199
290.322952,-8364.327145,-7031.956449,-3064.381992
290.323274,-7179.997637,-10288.862594,-4366.744339
290.323595,-5699.585753,-12805.562797,-1762.019645
290.323917,-4145.153275,-13545.768739,1149.143247
290.324239,-1554.432478,-11547.212695,459.657299
290.324560,2960.823768,-11029.068536,-2834.553343
290.324882,6513.812290,-12509.480420,-5822.325785
290.325204,7105.977043,-13249.686362,-4826.401637
290.325525,6587.832884,-10658.965565,-2451.505594
290.325847,5403.503377,-7920.203579,-995.924147
290.326168,3701.029710,-8586.388927,-153.219100
290.326490,740.205942,-9622.677246,153.219100
290.326812,-3108.864956,-8512.368333,153.219100
290.327133,-6217.729913,-7105.977043,-1149.143247
290.327455,-7920.203579,-7920.203579,-1072.533697
290.327777,-9400.615463,-6883.915261,1762.019645
290.328098,-10881.027347,-5699.585753,1838.629195
290.328420,-9252.574275,-7031.956449,-1455.581446
290.328742,-5551.544565,-9326.594869,-3447.429741
290.329063,-2072.576638,-10436.903782,-2834.553343
290.329385,-518.144159,-10807.006753,-1915.238745
290.329706,1998.556043,-12509.480420,-1302.362347
290.330028,5403.503377,-13693.809927,-1762.019645
290.330350,7624.121203,-12731.542202,-3217.601092
290.330671,8216.285956,-10807.006753,-2987.772442
290.330993,7179.997637,-8364.327145,-2221.676944
290.331315,5847.626942,-7846.182985,-2528.115143
290.331636,3404.947333,-9178.553681,-1302.362347
290.331958,222.061783,-9178.553681,1608.800546
290.332279,-2738.761985,-6661.853478,1915.238745
290.332601,-4515.256246,-4515.256246,0.000000
290.332923,-5403.503377,-5329.482782,-1302.362347
290.333244,-6439.791695,-6883.915261,-1762.019645
290.333566,-6661.853478,-7254.018232,-1838.629195
290.333888,-5033.400406,-9178.553681,-1225.752797
290.334209,-2590.720797,-10658.965565,229.828649
290.334531,518.144159,-10881.027347,-383.047749
290.334853,2812.782580,-11399.171507,-2528.115143
290.335174,5329.482782,-13323.706956,-4443.353888
290.335496,7624.121203,-14804.118840,-3524.039291
290.335818,8216.285956,-13397.727550,-2221.676944
290.336139,7550.100608,-9992.780217,-919.314598
290.336461,6069.688724,-8290.306550,-995.924147
290.336782,3923.091493,-8586.388927,-2068.457845
290.337104,518.144159,-8882.471304,-1608.800546
290.337426,-3627.009116,-7846.182985,-536.266849
290.337747,-7105.977043,-6957.935855,-689.485948
290.338069,-8956.491898,-6217.729913,-919.314598
290.338391,-10362.883188,-6735.874072,0.000000
290.338712,-10881.027347,-7105.977043,-1072.533697
290.339034,-8586.388927,-8142.265362,-3370.820191
290.339356,-5033.400406,-9918.759623,-3600.648841
290.339677,-1702.473667,-11621.233289,-1608.800546
290.339999,1110.308913,-10658.965565,-1149.143247
290.340321,4663.297435,-11695.253884,-2221.676944
290.340642,8438.347739,-13027.624579,-3830.477490
290.340964,9696.697840,-13027.624579,-4136.915689
290.341286,8956.491898,-10881.027347,-2681.334243
290.341607,7624.121203,-8660.409521,-1302.362347
290.341929,5995.668130,-8808.450710,-1915.238745
290.342251,4219.173869,-10140.821405,-1378.971896
290.342572,962.267725,-8586.388927,0.000000
290.342894,-2664.741391,-6069.688724,153.219100
290.343216,-5551.544565,-5107.421000,153.219100
290.343537,-7105.977043,-6069.688724,0.000000
290.343859,-8882.471304,-6587.832884,-995.924147
290.344181,-8068.244768,-7846.182985,-3600.648841
290.344502,-5551.544565,-10214.842000,-3677.258390
290.344824,-2960.823768,-12361.439231,-689.485948
290.345146,-1702.473667,-11695.253884,1149.143247
290.345467,1258.350101,-10955.047942,-536.266849
290.345789,4811.338623,-12361.439231,-3907.087040
290.346111,7105.977043,-13767.830521,-5439.278036
290.346432,7328.038826,-11547.212695,-4366.744339
290.346754,6217.729913,-8142.265362,-1685.410096
290.347075,5181.441594,-8364.327145,-689.485948
290.347397,2442.679609,-9474.636058,0.000000
290.347719,-1258.350101,-9326.594869,-229.828649
290.348040,-4811.338623,-7920.203579,-995.924147
290.348362,-7698.141797,-7254.018232,-2145.067394
290.348684,-9770.718434,-7698.141797,-612.876398
290.349005,-11843.295072,-6439.791695,1838.629195
290.349327,-11325.150913,-6439.791695,689.485948
290.349649,-8068.244768,-7179.997637,-2221.676944
290.349970,-4219.173869,-9474.636058,-3140.991542
290.350292,-1776.494261,-10362.883188,-919.314598
290.350614,518.144159,-11325.150913,-383.047749
290.350935,4293.194464,-12287.418637,-919.314598
290.351257,7624.121203,-12879.583391,-2298.286494
290.351579,8734.430116,-11991.336260,-2374.896044
290.351900,7846.182985,-9178.553681,-1915.238745
290.352222,6439.791695,-7772.162391,-1915.238745
290.352544,5255.462188,-9030.512492,-2221.676944
290.352865,3182.885551,-9770.718434,0.000000
290.353187,0.000000,-7994.224174,1455.581446
290.353509,-2738.761985,-6291.750507,1378.971896
290.353830,-5181.441594,-5329.482782,459.657299
290.354152,-6587.832884,-5699.585753,-306.438199
290.354474,-8290.306550,-7031.956449,-1838.629195
290.354795,-8068.244768,-9104.533087,-2298.286494
290.355117,-5995.668130,-11177.109724,-1378.971896
290.355439,-3478.967927,-11843.295072,0.000000
290.355760,0.000000,-10807.006753,-229.828649
290.356082,2738.761985,-10214.842000,-1685.410096
290.356404,5255.462188,-11917.315666,-2987.772442
290.356725,6735.874072,-13027.624579,-2681.334243
290.357047,7105.977043,-10955.047942,-3140.991542
290.357368,7550.100608,-9622.677246,-2757.943793
290.357690,6439.791695,-10214.842000,-1532.190996
290.358012,3701.029710,-10881.027347,0.000000
290.358333,-518.144159,-9104.533087,1072.533697
290.358655,-3478.967927,-7179.997637,689.485948
290.358977,-5625.565159,-6587.832884,-689.485948
290.359298,-7328.038826,-6661.853478,-2298.286494
290.359620,-8808.450710,-6661.853478,-612.876398
290.359942,-8882.471304,-7624.121203,-306.438199
290.360263,-6661.853478,-8956.491898,-919.314598
290.360585,-2960.823768,-10955.047942,-1302.362347
290.360907,-740.205942,-10362.883188,-1608.800546
290.361228,1110.308913,-9770.718434,-3217.601092
290.361550,4071.132681,-11251.130318,-4213.525239
290.361872,6661.853478,-12953.603985,-3447.429741
290.362193,7476.080014,-11843.295072,-2681.334243
290.362515,7550.100608,-9030.512492,-3524.039291
290.362837,7254.018232,-8808.450710,-3447.429741
290.363158,5181.441594,-11177.109724,-1762.019645
290.363480,592.164754,-11251.130318,-229.828649
290.363802,-3404.947333,-8438.347739,0.000000
290.364123,-4959.379811,-6365.771101,-1455.581446
290.364445,-5847.626942,-6513.812290,-1532.190996
290.364767,-7698.141797,-6809.894666,-1762.019645
290.365088,-8660.409521,-5921.647536,-1685.410096
290.365410,-6809.894666,-7031.956449,-1762.019645
290.365732,-3330.926739,-9548.656652,-1149.143247
290.366053,-962.267725,-11103.089130,-689.485948
290.366375,962.267725,-11103.089130,-1378.971896
290.366697,3849.070898,-12509.480420,-2987.772442
290.367018,7031.956449,-14508.036463,-3447.429741
290.367340,7920.203579,-13545.768739,-2604.724693
290.367662,7179.997637,-10362.883188,-1915.238745
290.367983,5551.544565,-7698.141797,-1915.238745
290.368305,4145.153275,-8586.388927,-2451.505594
290.368626,1406.391290,-9548.656652,-1532.190996
290.368948,-2516.700203,-8956.491898,-229.828649
290.369270,-6439.791695,-7402.059420,229.828649
290.369591,-8882.471304,-7105.977043,229.828649
290.369913,-10510.924376,-6513.812290,689.485948
290.370235,-11399.171507,-5773.606348,-612.876398
290.370556,-9844.739029,-6587.832884,-3217.601092
290.370878,-6883.915261,-8586.388927,-3907.087040
290.371200,-3552.988522,-10362.883188,-1302.362347
290.371521,-666.185348,-9696.697840,0.000000
290.371843,3404.947333,-10214.842000,-1225.752797
290.372165,7550.100608,-12139.377449,-2911.162892
290.372486,9474.636058,-13323.706956,-3370.820191
290.372808,8808.450710,-10881.027347,-2298.286494
290.373130,7476.080014,-8808.450710,-1762.019645
290.373451,6365.771101,-9178.553681,-842.705048
290.373773,4219.173869,-9474.636058,-766.095498
290.374095,888.247130,-8364.327145,-459.657299
290.374416,-1776.494261,-6883.915261,536.266849
290.374738,-4515.256246,-6587.832884,306.438199
290.375060,-7105.977043,-6439.791695,612.876398
290.375381,-8586.388927,-6439.791695,76.609550
290.375703,-8068.244768,-7698.141797,-1915.238745
290.376025,-5921.647536,-9844.739029,-2987.772442
290.376346,-3849.070898,-11399.171507,-1302.362347
290.376668,-2072.576638,-11251.130318,0.000000
290.376990,222.061783,-10510.924376,-1072.533697
290.377311,3627.009116,-11843.295072,-2987.772442
290.377633,6365.771101,-14063.912898,-4749.792088
290.377955,7105.977043,-13471.748144,-3907.087040
290.378276,7179.997637,-10807.006753,-2757.943793
290.378598,5921.647536,-9178.553681,-1302.362347
290.378919,3923.091493,-9474.636058,-306.438199
290.379241,444.123565,-9178.553681,306.438199
290.379563,-4145.153275,-7920.203579,-536.266849
290.379884,-7254.018232,-7105.977043,-919.314598
290.380206,-9030.512492,-7550.100608,-1225.752797
290.380528,-9992.780217,-7105.977043,306.438199
290.380849,-9696.697840,-7105.977043,612.876398
290.381171,-6957.935855,-7994.224174,-689.485948
290.381493,-2812.782580,-8660.409521,-1762.019645
290.381814,222.061783,-9696.697840,-1378.971896
290.382136,2664.741391,-9918.759623,-1532.190996
290.382458,5033.400406,-11621.233289,-2068.457845
290.382779,7179.997637,-13101.645173,-2068.457845
290.383101,7994.224174,-12657.521608,-2298.286494
290.383423,7105.977043,-9918.759623,-2145.067394
290.383744,5921.647536,-8808.450710,-2604.724693
290.384066,4515.256246,-9474.636058,-2757.943793
290.384388,1554.432478,-9696.697840,-1455.581446
290.384709,-1924.535449,-8290.306550,689.485948
290.385031,-5107.421000,-5625.565159,1072.533697
290.385353,-6883.915261,-4515.256246,76.609550
290.385674,-7624.121203,-5329.482782,-1302.362347
290.385996,-8216.285956,-6883.915261,-2911.162892
290.386318,-7772.162391,-8512.368333,-3064.381992
290.386639,-6069.688724,-10214.842000,-306.438199
290.386961,-3108.864956,-10807.006753,1149.143247
290.387283,0.000000,-11103.089130,-383.047749
290.387604,3404.947333,-11251.130318,-3753.867940
290.387926,6513.812290,-12879.583391,-5056.230287
290.388248,8290.306550,-13767.830521,-3830.477490
290.388569,9104.533087,-12583.501014,-2374.896044
290.388891,8216.285956,-10066.800811,-1455.581446
290.389212,6143.709319,-8956.491898,-229.828649
290.389534,3182.885551,-9030.512492,-153.219100
290.389856,-814.226536,-8808.450710,-919.314598
290.390177,-4367.215058,-7846.182985,-1762.019645
290.390499,-8216.285956,-6883.915261,-1302.362347
290.390821,-9474.636058,-6365.771101,383.047749
290.391142,-9326.594869,-6513.812290,689.485948
290.391464,-8068.244768,-7179.997637,-1149.143247
290.391786,-5329.482782,-8734.430116,-1991.848295
290.392107,-3182.885551,-9474.636058,-1685.410096
290.392429,-1184.329507,-9622.677246,-995.924147
290.392751,1110.308913,-9252.574275,-2145.067394
290.393072,4589.276840,-10807.006753,-4443.353888
290.393394,6957.935855,-12361.439231,-4979.620737
290.393716,7624.121203,-12509.480420,-3753.867940
290.394037,7254.018232,-10955.047942,-2298.286494
290.394359,6957.935855,-10584.944971,-2374.896044
290.394681,5181.441594,-11103.089130,-995.924147
290.395002,1850.514855,-10584.944971,76.609550
290.395324,-1406.391290,-7476.080014,459.657299
290.395646,-3330.926739,-5255.462188,-536.266849
290.395967,-4663.297435,-5255.462188,-536.266849
290.396289,-6143.709319,-5921.647536,383.047749
290.396611,-7254.018232,-6365.771101,76.609550
290.396932,-5995.668130,-8216.285956,-1225.752797
290.397254,-3108.864956,-10732.986159,-536.266849
290.397576,-1036.288319,-11325.150913,0.000000
290.397897,962.267725,-11103.089130,-995.924147
290.398219,3478.967927,-11621.233289,-2604.724693
290.398541,5995.668130,-13027.624579,-3217.601092
290.398862,7105.977043,-13027.624579,-2757.943793
290.399184,7031.956449,-11103.089130,-3370.820191
290.399505,6291.750507,-10140.821405,-3524.039291
290.399827,4071.132681,-10658.965565,-2451.505594
290.400149,296.082377,-10584.944971,-766.095498
290.400470,-3552.988522,-9400.615463,689.485948
290.400792,-6957.935855,-7920.203579,-842.705048
290.401114,-8882.471304,-7254.018232,-1455.581446
290.401435,-9918.759623,-6587.832884,-766.095498
290.401757,-10362.883188,-5699.585753,0.000000
290.402079,-8956.491898,-5921.647536,-306.438199
290.402400,-6365.771101,-7624.121203,-229.828649
290.402722,-3182.885551,-8660.409521,-842.705048
290.403044,0.000000,-9252.574275,-1838.629195
290.403365,2738.761985,-9844.739029,-2911.162892
290.403687,5773.606348,-12139.377449,-3447.429741
290.404009,7328.038826,-13323.706956,-2374.896044
290.404330,7772.162391,-12139.377449,-1685.410096
290.404652,7105.977043,-10436.903782,-1991.848295
290.404974,6365.771101,-10436.903782,-2451.505594
290.405295,4145.153275,-10881.027347,-2298.286494
290.405617,592.164754,-9696.697840,-842.705048
290.405939,-2442.679609,-6957.935855,689.485948
290.406260,-4663.297435,-5921.647536,536.266849
290.406582,-6513.812290,-5921.647536,0.000000
290.406904,-8438.347739,-6291.750507,0.000000
290.407225,-9030.512492,-6217.729913,-1302.362347
290.407547,-7550.100608,-7624.121203,-1608.800546
290.407869,-4219.173869,-9918.759623,-612.876398
290.408190,-1480.411884,-10807.006753,76.609550
290.408512,1554.432478,-11103.089130,-1608.800546
290.408834,4737.318029,-12139.377449,-3064.381992
290.409155,6809.894666,-13249.686362,-2451.505594
290.409477,6735.874072,-12583.501014,-2604.724693
290.409798,5995.668130,-10955.047942,-2911.162892
290.410120,5329.482782,-9844.739029,-2987.772442
290.410442,3256.906145,-10732.986159,-1991.848295
290.410763,222.061783,-10807.006753,-306.438199
290.411085,-2886.803174,-8956.491898,842.705048
290.411407,-5403.503377,-6883.915261,0.000000
290.411728,-7105.977043,-6217.729913,-689.485948
290.412050,-7772.162391,-6217.729913,-306.438199
290.412372,-8142.265362,-5995.668130,-766.095498
290.412693,-6883.915261,-6883.915261,-1225.752797
290.413015,-4293.194464,-8512.368333,-229.828649
290.413337,-1258.350101,-9992.780217,-306.438199
290.413658,1628.453072,-9474.636058,-1915.238745
290.413980,4811.338623,-9844.739029,-3217.601092
290.414302,7846.182985,-11843.295072,-3447.429741
290.414623,9326.594869,-13027.624579,-2145.067394
290.414945,8438.347739,-11325.150913,-1838.629195
290.415267,7105.977043,-9622.677246,-2145.067394
290.415588,5625.565159,-10436.903782,-2451.505594
290.415910,2590.720797,-10436.903782,-1608.800546
290.416232,-1258.350101,-8364.327145,-459.657299
290.416553,-4145.153275,-6661.853478,0.000000
290.416875,-5255.462188,-5847.626942,-76.609550
290.417197,-6143.709319,-6513.812290,-459.657299
290.417518,-7698.141797,-6661.853478,-536.266849
290.417840,-7698.141797,-6883.915261,-1455.581446
290.418162,-5181.441594,-7698.141797,-2145.067394
290.418483,-1776.494261,-10362.883188,-1838.629195
290.418805,370.102971,-11917.315666,-1378.971896
290.419127,2442.679609,-12509.480420,-2374.896044
290.419448,5773.606348,-13397.727550,-3140.991542
290.419770,8216.285956,-13619.789333,-2757.943793
290.420091,8142.265362,-12731.542202,-2757.943793
290.420413,6661.853478,-9548.656652,-2528.115143
290.420735,5033.400406,-8586.388927,-2834.553343
290.421056,2960.823768,-9770.718434,-2604.724693
290.421378,-148.041188,-10214.842000,-1149.143247
290.421700,-3849.070898,-9326.594869,0.000000
290.422021,-7105.977043,-8438.347739,-612.876398
290.422343,-8734.430116,-7920.203579,76.609550
290.422665,-9474.636058,-6587.832884,153.219100
290.422986,-9104.533087,-5921.647536,-1608.800546
290.423308,-7105.977043,-6661.853478,-2911.162892
290.423630,-4515.256246,-8438.347739,-1762.019645
290.423951,-2146.597232,-9326.594869,-1149.143247
290.424273,592.164754,-9696.697840,-1915.238745
290.424595,4145.153275,-11029.068536,-3447.429741
290.424916,6365.771101,-12731.542202,-3907.087040
290.425238,7698.141797,-13693.809927,-3064.381992
290.425560,7105.977043,-11621.233289,-2681.334243
290.425881,7105.977043,-9696.697840,-2757.943793
290.426203,6291.750507,-9918.759623,-2145.067394
290.426525,2220.617826,-9474.636058,0.000000
290.426846,-1850.514855,-7105.977043,995.924147
290.427168,-3923.091493,-6217.729913,-383.047749
290.427490,-5107.421000,-6883.915261,-1302.362347
290.427811,-6883.915261,-7328.038826,766.095498
290.428133,-8660.409521,-6143.709319,995.924147
290.428455,-7772.162391,-6587.832884,-612.876398
290.428776,-5181.441594,-8882.471304,-1378.971896
290.429098,-3108.864956,-10732.986159,-536.266849
290.429420,-1332.370696,-10362.883188,-1072.533697
290.429741,1184.329507,-9992.780217,-2221.676944
290.430063,4071.132681,-12065.356855,-2911.162892
290.430384,5625.565159,-13767.830521,-1685.410096
290.430706,4959.379811,-11843.295072,-1762.019645
290.431028,4737.318029,-8882.471304,-3064.381992
290.431349,4737.318029,-9622.677246,-3524.039291
290.431671,2664.741391,-11029.068536,-1762.019645
290.431993,-1702.473667,-11029.068536,-153.219100
290.432314,-5329.482782,-9104.533087,1302.362347
290.432636,-6587.832884,-8364.327145,995.924147
290.432958,-7031.956449,-7402.059420,-689.485948
290.433279,-7476.080014,-5921.647536,-919.314598
290.433601,-7920.203579,-5255.462188,-612.876398
290.433923,-6809.894666,-6069.688724,306.438199
290.434245,-2886.803174,-7550.100608,306.438199
290.434566,592.164754,-8660.409521,-459.657299
290.434888,3330.926739,-9178.553681,-1915.238745
290.435210,5699.585753,-10510.924376,-1991.848295
290.435532,7179.997637,-12435.459826,-1378.971896
290.435853,7402.059420,-12213.398043,-919.314598
290.436175,7105.977043,-10214.842000,-2374.896044
290.436497,6217.729913,-9178.553681,-3753.867940
290.436819,4589.276840,-10658.965565,-2604.724693
290.437140,1036.288319,-9992.780217,-612.876398
290.437462,-1776.494261,-8808.450710,-153.219100
290.437784,-3775.050304,-6957.935855,76.609550
290.438106,-5403.503377,-6069.688724,-459.657299
290.438427,-7179.997637,-6217.729913,-1455.581446
290.438749,-8290.306550,-6957.935855,-2757.943793
290.439071,-6883.915261,-8068.244768,-2834.553343
290.439393,-4293.194464,-9696.697840,-842.705048
290.439714,-1480.411884,-10436.903782,-383.047749
290.440036,962.267725,-11695.253884,-1378.971896
290.440358,4293.194464,-11917.315666,-1915.238745
290.440680,6735.874072,-11843.295072,-3064.381992
290.441002,8364.327145,-12731.542202,-3447.429741
290.441323,8142.265362,-12213.398043,-2757.943793
290.441645,7402.059420,-10066.800811,-2528.115143
290.441967,5329.482782,-9770.718434,-2221.676944
290.442289,1776.494261,-11325.150913,-995.924147
290.442610,-1924.535449,-11547.212695,229.828649
290.442932,-4737.318029,-8586.388927,-1378.971896
290.443254,-6587.832884,-7105.977043,-2451.505594
290.443576,-8290.306550,-7179.997637,-383.047749
290.443897,-9474.636058,-5921.647536,612.876398
290.444219,-9622.677246,-4589.276840,-1685.410096
290.444541,-6883.915261,-6217.729913,-3064.381992
290.444863,-3552.988522,-9400.615463,-1991.848295
290.445184,-1554.432478,-10881.027347,-1838.629195
290.445506,1036.288319,-10881.027347,-2834.553343
290.445828,5477.523971,-11473.192101,-2834.553343
290.446150,8808.450710,-11769.274478,-2528.115143
290.446471,9474.636058,-11695.253884,-2604.724693
290.446793,7698.141797,-9622.677246,-2604.724693
290.447115,6439.791695,-8956.491898,-2451.505594
290.447437,4219.173869,-9918.759623,-1302.362347
290.447759,962.267725,-10288.862594,-229.828649
290.448080,-2294.638420,-8956.491898,306.438199
290.448402,-4441.235652,-6957.935855,383.047749
290.448724,-5773.606348,-6513.812290,0.000000
290.449046,-6439.791695,-6291.750507,76.609550
290.449367,-6809.894666,-5921.647536,-919.314598
290.449689,-5699.585753,-7031.956449,-1762.019645
290.450011,-3552.988522,-9548.656652,-536.266849
290.450333,-1480.411884,-11103.089130,76.609550
290.450654,888.247130,-11917.315666,-995.924147
290.450976,3552.988522,-12139.377449,-2145.067394
290.451298,5033.400406,-12657.521608,-2298.286494
290.451620,5551.544565,-12065.356855,-2298.286494
290.451941,5033.400406,-9696.697840,-2604.724693
290.452263,4441.235652,-8290.306550,-3294.210641
290.452585,2886.803174,-9770.718434,-2834.553343
290.452907,-740.205942,-10214.842000,-536.266849
290.453228,-4293.194464,-10140.821405,536.266849
290.453550,-6957.935855,-9030.512492,-306.438199
290.453872,-8068.244768,-7994.224174,-689.485948
290.454194,-8438.347739,-7402.059420,-459.657299
290.454515,-8512.368333,-6513.812290,-842.705048
290.454837,-7328.038826,-6587.832884,-1608.800546
290.455159,-4293.194464,-7994.224174,-995.924147
290.455481,-1036.288319,-8956.491898,-306.438199
290.455803,1628.453072,-8956.491898,-1072.533697
290.456124,4145.153275,-10436.903782,-1915.238745
290.456446,6587.832884,-12213.398043,-2145.067394
290.456768,7772.162391,-12657.521608,-1991.848295
290.457090,7772.162391,-10732.986159,-2221.676944
290.457411,7105.977043,-9326.594869,-2068.457845
290.457733,5699.585753,-9844.739029,-1225.752797
290.458055,2368.659014,-9104.533087,-766.095498
290.458377,-1480.411884,-8216.285956,-612.876398
290.458698,-3849.070898,-7920.203579,0.000000
290.459020,-5551.544565,-7179.997637,-229.828649
290.459342,-7476.080014,-6809.894666,-536.266849
290.459664,-8660.409521,-6439.791695,-919.314598
290.459985,-8586.388927,-7105.977043,-2068.457845
290.460307,-6291.750507,-8512.368333,-2298.286494
290.460629,-3627.009116,-9696.697840,-1532.190996
290.460951,-1110.308913,-11029.068536,-1532.190996
290.461272,1776.494261,-11325.150913,-1608.800546
290.461594,3923.091493,-12509.480420,-2681.334243
290.461916,5255.462188,-13101.645173,-2221.676944
290.462238,5995.668130,-12139.377449,-2221.676944
290.462559,6143.709319,-9992.780217,-3294.210641
290.462881,5329.482782,-9696.697840,-3830.477490
290.463203,2368.659014,-11621.233289,-1838.629195
290.463525,-1036.288319,-11029.068536,1378.971896
290.463847,-3701.029710,-8586.388927,995.924147
290.464168,-5033.400406,-6957.935855,-842.705048
290.464490,-5773.606348,-6661.853478,-1072.533697
290.464812,-6735.874072,-6439.791695,-229.828649
290.465134,-7254.018232,-6143.709319,-766.095498
290.465455,-6587.832884,-7476.080014,-536.266849
290.465777,-3108.864956,-9770.718434,76.609550
290.466099,-222.061783,-10288.862594,-1225.752797
290.466421,1850.514855,-9622.677246,-2451.505594
290.466742,4293.194464,-10436.903782,-3217.601092
290.467064,6661.853478,-11769.274478,-2987.772442
290.467386,7920.203579,-11547.212695,-2451.505594
290.467708,7846.182985,-9696.697840,-3294.210641
290.468029,7254.018232,-9474.636058,-3447.429741
290.468351,5033.400406,-10658.965565,-1915.238745
290.468673,1332.370696,-10881.027347,0.000000
290.468995,-1776.494261,-8734.430116,536.266849
290.469316,-3330.926739,-6883.915261,0.000000
290.469638,-4515.256246,-6217.729913,-306.438199
290.469960,-6661.853478,-5403.503377,-306.438199
290.470282,-7994.224174,-4959.379811,-612.876398
290.470603,-6883.915261,-5773.606348,-1455.581446
290.470925,-3997.112087,-9030.512492,-1915.238745
290.471247,-1554.432478,-11843.295072,-1532.190996
290.471569,518.144159,-13101.645173,-1225.752797
290.471891,3182.885551,-13249.686362,-1532.190996
290.472212,5625.565159,-13101.645173,-1532.190996
290.472534,7328.038826,-12435.459826,-1608.800546
290.472856,6661.853478,-9992.780217,-2911.162892
290.473178,5107.421000,-8142.265362,-4213.525239
290.473499,3701.029710,-9474.636058,-3447.429741
290.473821,962.267725,-11251.130318,-1455.581446
290.474143,-2442.679609,-11473.192101,612.876398
290.474465,-5181.441594,-9474.636058,842.705048
290.474786,-6661.853478,-8290.306550,0.000000
290.475108,-7550.100608,-7624.121203,-153.219100
290.475430,-8216.285956,-5255.462188,-536.266849
290.475752,-8586.388927,-4959.379811,-1838.629195
290.476073,-6513.812290,-5995.668130,-1378.971896
290.476395,-3256.906145,-8142.265362,-919.314598
290.476717,0.000000,-10140.821405,-1532.190996
290.477039,2812.782580,-10436.903782,-2068.457845
290.477360,5847.626942,-11621.233289,-2528.115143
290.477682,7105.977043,-13101.645173,-2068.457845
290.478004,7179.997637,-11917.315666,-2145.067394
290.478326,6587.832884,-9474.636058,-2987.772442
290.478647,5699.585753,-8808.450710,-4213.525239
290.478969,3552.988522,-10362.883188,-2221.676944
290.479291,444.123565,-9918.759623,0.000000
290.479613,-2590.720797,-7402.059420,383.047749
290.479935,-4219.173869,-6587.832884,-153.219100
290.480256,-5625.565159,-7031.956449,306.438199
290.480578,-7772.162391,-6291.750507,0.000000
290.480900,-8660.409521,-6069.688724,-1378.971896
290.481222,-7402.059420,-7328.038826,-1915.238745
290.481543,-4367.215058,-9474.636058,-1532.190996
290.481865,-1702.473667,-11325.150913,-919.314598
290.482187,888.247130,-11843.295072,-919.314598
290.482509,3775.050304,-11769.274478,-1915.238745
290.482830,6069.688724,-12879.583391,-2451.505594
290.483152,6957.935855,-13323.706956,-2451.505594
290.483474,6439.791695,-11325.150913,-2681.334243
290.483796,5329.482782,-8882.471304,-3294.210641
290.484117,2812.782580,-9030.512492,-2681.334243
290.484439,592.164754,-11621.233289,-689.485948
290.484761,-2886.803174,-10807.006753,459.657299
290.485083,-5921.647536,-8512.368333,-153.219100
290.485404,-7328.038826,-7846.182985,-1149.143247
290.485726,-7550.100608,-7550.100608,-1225.752797
290.486048,-8586.388927,-6883.915261,-612.876398
290.486370,-8586.388927,-5995.668130,-919.314598
290.486692,-5773.606348,-7624.121203,-689.485948
290.487013,-1998.556043,-9474.636058,-612.876398
290.487335,518.144159,-9844.739029,-1149.143247
290.487657,3256.906145,-9030.512492,-1532.190996
290.487979,6069.688724,-10362.883188,-2451.505594
290.488300,8290.306550,-12287.418637,-2221.676944
290.488622,8438.347739,-11843.295072,-2145.067394
290.488944,7105.977043,-9474.636058,-2528.115143
290.489266,6217.729913,-9474.636058,-2681.334243
290.489587,3775.050304,-10362.883188,-1225.752797
290.489909,74.020594,-9696.697840,76.609550
290.490231,-3034.844362,-7402.059420,0.000000
290.490553,-4441.235652,-6439.791695,0.000000
290.490874,-5477.523971,-6735.874072,-459.657299
290.491196,-7476.080014,-5995.668130,-766.095498
290.491518,-8808.450710,-6069.688724,-1225.752797
290.491840,-7550.100608,-7105.977043,-1302.362347
290.492161,-4515.256246,-9252.574275,-1225.752797
290.492483,-1480.411884,-10807.006753,-1762.019645
290.492805,1332.370696,-11843.295072,-3217.601092
290.493127,3552.988522,-12287.418637,-2451.505594
290.493448,5477.523971,-12657.521608,-1225.752797
290.493770,6587.832884,-11843.295072,-1608.800546
290.494092,6365.771101,-10214.842000,-3294.210641
290.494414,5625.565159,-9770.718434,-4213.525239
290.494736,3256.906145,-10881.027347,-2757.943793
290.495057,-370.102971,-11991.336260,-229.828649
290.495379,-3404.947333,-10732.986159,1225.752797
290.495701,-4737.318029,-8808.450710,536.266849
290.496023,-5551.544565,-7179.997637,-229.828649
290.496344,-6883.915261,-6439.791695,-689.485948
290.496666,-7920.203579,-5403.503377,-689.485948
290.496988,-7402.059420,-5403.503377,-1072.533697
290.497310,-4293.194464,-7179.997637,-1378.971896
290.497631,-740.205942,-9474.636058,-1685.410096
290.497953,2072.576638,-10807.006753,-2221.676944
290.498275,4367.215058,-11547.212695,-2145.067394
290.498597,6809.894666,-11695.253884,-1532.190996
290.498918,8142.265362,-11695.253884,-1532.190996
290.499240,8290.306550,-10658.965565,-3217.601092
290.499562,7179.997637,-9326.594869,-4673.182538
290.499884,4885.359217,-9696.697840,-3677.258390
290.500205,2220.617826,-10881.027347,-1225.752797
290.500527,-962.267725,-9696.697840,0.000000
290.500849,-3404.947333,-7772.162391,-229.828649
290.501171,-4885.359217,-6587.832884,-612.876398
290.501492,-6365.771101,-6957.935855,-1072.533697
290.501814,-8216.285956,-6291.750507,-1378.971896
290.502136,-7920.203579,-5699.585753,-2298.286494
290.502458,-5329.482782,-7254.018232,-2528.115143
290.502780,-2368.659014,-10362.883188,-1915.238745
290.503101,666.185348,-12435.459826,-1302.362347
290.503423,2812.782580,-13323.706956,-1685.410096
290.503745,5921.647536,-13693.809927,-1838.629195
290.504067,8068.244768,-13175.665768,-1378.971896
290.504388,8216.285956,-11399.171507,-2068.457845
290.504710,6735.874072,-8956.491898,-3217.601092
290.505032,4959.379811,-9104.533087,-3370.820191
290.505354,1554.432478,-10214.842000,-2298.286494
290.505675,-1998.556043,-10955.047942,0.000000
290.505997,-5107.421000,-9622.677246,536.266849
290.506319,-7105.977043,-8660.409521,76.609550
290.506641,-8956.491898,-8734.430116,-153.219100
290.506962,-9622.677246,-7550.100608,76.609550
290.507284,-9548.656652,-5773.606348,-1225.752797
290.507606,-8216.285956,-5107.421000,-2374.896044
290.507928,-5551.544565,-7105.977043,-1378.971896
290.508249,-3404.947333,-8660.409521,-1455.581446
290.508571,148.041188,-9474.636058,-3064.381992
290.508893,3256.906145,-10732.986159,-3907.087040
290.509215,6217.729913,-12953.603985,-2757.943793
290.509536,6957.935855,-13027.624579,-1532.190996
290.509858,6217.729913,-11029.068536,-1532.190996
290.510180,5995.668130,-9474.636058,-2757.943793
290.510502,4959.379811,-9992.780217,-2145.067394
290.510824,1702.473667,-9474.636058,-612.876398
290.511145,-1850.514855,-7105.977043,536.266849
290.511467,-3849.070898,-5921.647536,689.485948
290.511789,-5181.441594,-6069.688724,459.657299
290.512111,-6217.729913,-6661.853478,306.438199
290.512432,-7698.141797,-7105.977043,-766.095498
290.512754,-7105.977043,-8142.265362,-306.438199
290.513076,-4219.173869,-9030.512492,153.219100
290.513398,-1110.308913,-9622.677246,-842.705048
290.513719,2368.659014,-10510.924376,-2221.676944
290.514041,5033.400406,-11251.130318,-1762.019645
290.514363,6661.853478,-12509.480420,-1762.019645
290.514685,6809.894666,-13619.789333,-1838.629195
290.515006,5921.647536,-12361.439231,-1762.019645
290.515328,4811.338623,-10584.944971,-2911.162892
290.515650,2738.761985,-10214.842000,-3830.477490
290.515972,-222.061783,-11547.212695,-1608.800546
290.516293,-4219.173869,-10066.800811,306.438199
290.516615,-7031.956449,-7846.182985,153.219100
290.516937,-7846.182985,-6439.791695,-995.924147
290.517259,-8660.409521,-7031.956449,-1149.143247
290.517580,-9104.533087,-6809.894666,-1762.019645
290.517902,-8956.491898,-6439.791695,-1838.629195
290.518224,-5773.606348,-7179.997637,-689.485948
290.518546,-2220.617826,-8808.450710,-459.657299
290.518868,814.226536,-8882.471304,-1685.410096
290.519189,3108.864956,-9178.553681,-2451.505594
290.519511,5995.668130,-10436.903782,-3524.039291
290.519833,8808.450710,-12287.418637,-2987.772442
290.520155,9918.759623,-11991.336260,-2528.115143
290.520476,9918.759623,-10140.821405,-2834.553343
290.520798,9030.512492,-9400.615463,-2221.676944
290.521120,6291.750507,-10362.883188,-919.314598
290.521442,2146.597232,-10066.800811,-229.828649
290.521763,-1480.411884,-8290.306550,-842.705048
290.522085,-3701.029710,-6883.915261,-919.314598
290.522407,-5107.421000,-7105.977043,-1915.238745
290.522729,-7772.162391,-7328.038826,-1072.533697
290.523050,-9104.533087,-6883.915261,-306.438199
290.523372,-6883.915261,-7105.977043,-1991.848295
290.523694,-3404.947333,-9030.512492,-2834.553343
290.524016,0.000000,-11473.192101,-2451.505594
290.524337,1924.535449,-12361.439231,-2528.115143
290.524659,3627.009116,-13249.686362,-2374.896044
290.524981,5403.503377,-12879.583391,-919.314598
290.525303,6513.812290,-11473.192101,-1608.800546
290.525625,6365.771101,-9696.697840,-4673.182538
290.525946,5033.400406,-8882.471304,-5439.278036
290.526268,2220.617826,-11621.233289,-3140.991542
290.526590,-1406.391290,-12953.603985,76.609550
290.526912,-4071.132681,-10955.047942,1762.019645
290.527233,-5181.441594,-8290.306550,612.876398
290.527555,-6439.791695,-7105.977043,-1225.752797
290.527877,-7476.080014,-7254.018232,-1608.800546
290.528199,-8808.450710,-5921.647536,-842.705048
290.528520,-8142.265362,-5329.482782,-459.657299
290.528842,-5181.441594,-6439.791695,0.000000
290.529164,-1258.350101,-7994.224174,-766.095498
290.529486,1332.370696,-9104.533087,-1608.800546
290.529807,3701.029710,-9844.739029,-2298.286494
290.530129,6365.771101,-11177.109724,-2145.067394
290.530451,7920.203579,-12435.459826,-1225.752797
290.530773,7105.977043,-11843.295072,-995.924147
290.531094,6291.750507,-10066.800811,-2145.067394
290.531416,4293.194464,-9770.718434,-2528.115143
290.531738,2072.576638,-9844.739029,-1915.238745
290.532060,-592.164754,-8956.491898,-842.705048
290.532381,-3627.009116,-7476.080014,0.000000
290.532703,-5403.503377,-6587.832884,1455.581446
290.533025,-7179.997637,-5995.668130,689.485948
290.533347,-7624.121203,-5847.626942,-612.876398
290.533669,-7772.162391,-6365.771101,-1762.019645
290.533990,-6587.832884,-7476.080014,-1532.190996
290.534312,-4367.215058,-9474.636058,76.609550
290.534634,-1406.391290,-11103.089130,-689.485948
290.534956,1850.514855,-11473.192101,-1915.238745
290.535277,4515.256246,-11843.295072,-3064.381992
290.535599,5847.626942,-13323.706956,-2374.896044
290.535921,5847.626942,-12879.583391,-1685.410096
290.536243,4959.379811,-10510.924376,-2528.115143
290.536564,4515.256246,-10066.800811,-3830.477490
290.536886,2368.659014,-11325.150913,-2221.676944
290.537208,-1036.288319,-11103.089130,0.000000
290.537530,-4515.256246,-8808.450710,153.219100
290.537852,-5625.565159,-7994.224174,0.000000
290.538174,-6587.832884,-8068.244768,-459.657299
290.538496,-7698.141797,-7105.977043,-1302.362347
290.538818,-8290.306550,-6735.874072,-1608.800546
290.539140,-7031.956449,-7328.038826,-612.876398
290.539461,-4071.132681,-8438.347739,-536.266849
290.539783,-222.061783,-9178.553681,-1838.629195
290.540105,2516.700203,-9178.553681,-2987.772442
290.540427,4737.318029,-9992.780217,-3370.820191
290.540749,6217.729913,-11843.295072,-2374.896044
290.541071,6809.894666,-12213.398043,-1302.362347
290.541393,6217.729913,-10362.883188,-2604.724693
290.541715,6735.874072,-9178.553681,-3983.696590
290.542037,5329.482782,-10732.986159,-2681.334243
290.542359,1702.473667,-11029.068536,0.000000
290.542681,-1924.535449,-8956.491898,1378.971896
290.543002,-3775.050304,-7031.956449,612.876398
290.543324,-3923.091493,-6513.812290,-995.924147
290.543646,-5773.606348,-6883.915261,-1378.971896
290.543968,-7698.141797,-5995.668130,-995.924147
290.544290,-7550.100608,-5699.585753,-689.485948
290.544612,-4737.318029,-7994.224174,-1608.800546
290.544934,-1406.391290,-10214.842000,-1532.190996
290.545256,1184.329507,-11547.212695,-2451.505594
290.545578,3627.009116,-11695.253884,-2451.505594
290.545900,6439.791695,-12065.356855,-1838.629195
290.546221,7772.162391,-12879.583391,-1149.143247
290.546543,7624.121203,-11843.295072,-1685.410096
290.546865,5699.585753,-10066.800811,-3294.210641
290.547187,3330.926739,-10584.944971,-3370.820191
290.547509,0.000000,-11917.315666,-1838.629195
290.547831,-2812.782580,-10955.047942,153.219100
290.548153,-4737.318029,-8216.285956,-306.438199
290.548475,-6217.729913,-7105.977043,-383.047749
290.548797,-6883.915261,-7105.977043,76.609550
290.549119,-7772.162391,-5699.585753,-229.828649
290.549440,-7624.121203,-5033.400406,-1991.848295
290.549762,-5403.503377,-6735.874072,-2221.676944
290.550084,-3108.864956,-9030.512492,-995.924147
290.550406,-1258.350101,-9992.780217,-689.485948
290.550728,1480.411884,-9844.739029,-1608.800546
290.551050,4663.297435,-10732.986159,-2604.724693
290.551372,7179.997637,-12213.398043,-3217.601092
290.551694,7994.224174,-12435.459826,-2911.162892
290.552016,7328.038826,-9918.759623,-2451.505594
290.552338,6661.853478,-9548.656652,-2528.115143
290.552660,5181.441594,-10955.047942,-1378.971896
290.552981,1702.473667,-10658.965565,-306.438199
290.553303,-2220.617826,-8216.285956,76.609550
290.553625,-4071.132681,-6883.915261,-612.876398
290.553947,-5033.400406,-6661.853478,-919.314598
290.554269,-6069.688724,-6365.771101,-689.485948
290.554591,-6883.915261,-5773.606348,-842.705048
290.554913,-5921.647536,-7105.977043,-689.485948
290.555235,-3256.906145,-9252.574275,0.000000
290.555557,-1406.391290,-10807.006753,-919.314598
290.555879,518.144159,-11547.212695,-2145.067394
290.556200,2664.741391,-11991.336260,-2604.724693
290.556522,4367.215058,-12435.459826,-2451.505594
290.556844,4737.318029,-11991.336260,-1991.848295
290.557166,4663.297435,-11103.089130,-2604.724693
290.557488,3849.070898,-9474.636058,-3753.867940
290.557810,2664.741391,-9844.739029,-3830.477490
290.558132,-148.041188,-11399.171507,-1608.800546
290.558454,-3849.070898,-11547.212695,766.095498
290.558776,-5921.647536,-9696.697840,995.924147
290.559098,-6661.853478,-7476.080014,0.000000
290.559419,-7105.977043,-6735.874072,-1149.143247
290.559741,-7698.141797,-6217.729913,-1455.581446
290.560063,-7920.203579,-5699.585753,-1608.800546
290.560385,-5921.647536,-6217.729913,-459.657299
290.560707,-2368.659014,-8068.244768,229.828649
290.561029,666.185348,-9474.636058,-1302.362347
290.561351,3182.885551,-9178.553681,-2911.162892
290.561673,5033.400406,-10288.862594,-2987.772442
290.561995,6217.729913,-12509.480420,-1685.410096
290.562317,6809.894666,-11917.315666,-1225.752797
290.562639,5847.626942,-10436.903782,-2757.943793
290.562960,5329.482782,-10066.800811,-2451.505594
290.563282,3404.947333,-10658.965565,-1149.143247
290.563604,370.102971,-9992.780217,76.609550
290.563926,-2368.659014,-7328.038826,536.266849
290.564248,-3034.844362,-6587.832884,0.000000
290.564570,-4293.194464,-6291.750507,-766.095498
290.564892,-6439.791695,-6365.771101,-1455.581446
290.565214,-7994.224174,-6365.771101,-995.924147
290.565536,-7105.977043,-7402.059420,-536.266849
290.565858,-4441.235652,-9770.718434,-1838.629195
290.566179,-962.267725,-11843.295072,-2604.724693
290.566501,2294.638420,-12361.439231,-2911.162892
290.566823,4071.132681,-12731.542202,-2298.286494
290.567145,5255.462188,-12805.562797,-306.438199
290.567467,5625.565159,-11251.130318,-306.438199
290.567789,5255.462188,-10066.800811,-3370.820191
290.568111,4589.276840,-9548.656652,-5056.230287
290.568433,2442.679609,-11695.253884,-3294.210641
290.568755,-1110.308913,-12435.459826,306.438199
290.569077,-3256.906145,-10732.986159,2298.286494
290.569398,-4367.215058,-7328.038826,1532.190996
290.569720,-3997.112087,-6883.915261,306.438199
290.570042,-5255.462188,-6291.750507,-995.924147
290.570364,-6883.915261,-5403.503377,-1608.800546
290.570686,-6883.915261,-5699.585753,-1072.533697
290.571008,-4071.132681,-7402.059420,306.438199
290.571330,-1480.411884,-9696.697840,-995.924147
290.571652,888.247130,-10510.924376,-1685.410096
290.571974,2886.803174,-10510.924376,-2374.896044
290.572296,4959.379811,-11103.089130,-2298.286494
290.572618,6291.750507,-11399.171507,-1608.800546
290.572939,6661.853478,-10658.965565,-2145.067394
290.573261,5699.585753,-8142.265362,-3140.991542
290.573583,4811.338623,-8660.409521,-2911.162892
290.573905,2220.617826,-9474.636058,-1072.533697
290.574227,-666.185348,-9326.594869,-383.047749
290.574549,-3330.926739,-8364.327145,-612.876398
290.574871,-4811.338623,-7624.121203,-229.828649
290.575193,-5921.647536,-7698.141797,-1072.533697
290.575515,-7254.018232,-7254.018232,-1915.238745
290.575837,-6439.791695,-6883.915261,-1762.019645
290.576158,-4293.194464,-7402.059420,-1915.238745
290.576480,-1184.329507,-9400.615463,-1762.019645
290.576802,1850.514855,-11177.109724,-1762.019645
290.577124,4145.153275,-12213.398043,-2221.676944
290.577446,5921.647536,-12361.439231,-1838.629195
290.577768,7846.182985,-12361.439231,0.000000
290.578090,7920.203579,-11251.130318,-995.924147
290.578412,7179.997637,-9474.636058,-3753.867940
290.578734,5773.606348,-9696.697840,-3983.696590
290.579056,2072.576638,-11621.233289,-1762.019645
290.579377,-2220.617826,-11917.315666,536.266849
290.579699,-4959.379811,-9918.759623,383.047749
290.580021,-6143.709319,-7920.203579,-1149.143247
290.580343,-7846.182985,-7624.121203,-2068.457845
290.580665,-9918.759623,-7179.997637,-1838.629195
290.580987,-10288.862594,-6291.750507,-2221.676944
290.581309,-7698.141797,-6217.729913,-3064.381992
290.581631,-3478.967927,-8142.265362,-1685.410096
290.581953,-962.267725,-9844.739029,-1838.629195
290.582275,1110.308913,-10732.986159,-2221.676944
290.582597,2960.823768,-10881.027347,-1915.238745
290.582918,5107.421000,-11843.295072,-2451.505594
290.583240,6217.729913,-11769.274478,-2834.553343
290.583562,5995.668130,-9992.780217,-3447.429741
290.583884,5477.523971,-9030.512492,-3370.820191
290.584206,4441.235652,-9918.759623,-1685.410096
290.584528,2294.638420,-10288.862594,229.828649
290.584850,-888.247130,-8586.388927,153.219100
290.585172,-3256.906145,-7402.059420,0.000000
290.585494,-4441.235652,-7402.059420,-1149.143247
290.585816,-5403.503377,-7402.059420,-1532.190996
290.586137,-5995.668130,-7402.059420,-1532.190996
290.586459,-5773.606348,-7476.080014,-383.047749
290.586781,-4219.173869,-8290.306550,766.095498
290.587103,-2368.659014,-9918.759623,-536.266849
290.587425,-444.123565,-11473.192101,-1915.238745
290.587747,1776.494261,-11843.295072,-2374.896044
290.588069,3478.967927,-11399.171507,-2451.505594
290.588391,4071.132681,-10881.027347,-1225.752797
290.588713,4885.359217,-10658.965565,-1072.533697
290.589035,4737.318029,-9622.677246,-2681.334243
290.589356,2886.803174,-10362.883188,-3447.429741
290.589678,-296.082377,-11769.274478,-766.095498
290.590000,-3923.091493,-10881.027347,1608.800546
290.590322,-6143.709319,-8512.368333,306.438199
290.590644,-7476.080014,-7105.977043,-536.266849
290.590966,-7254.018232,-7179.997637,-1072.533697
290.591288,-7328.038826,-6957.935855,-1762.019645
290.591610,-6735.874072,-6217.729913,-1225.752797
290.591932,-4367.215058,-7550.100608,0.000000
290.592254,-1406.391290,-8956.491898,76.609550
290.592576,666.185348,-8808.450710,-842.705048
290.592897,2368.659014,-9548.656652,-1915.238745
290.593219,4293.194464,-11029.068536,-2298.286494
290.593541,6513.812290,-11399.171507,-1608.800546
290.593863,7179.997637,-10288.862594,-2145.067394
290.594185,7031.956449,-8808.450710,-1991.848295
290.594507,6587.832884,-8956.491898,-1302.362347
290.594829,4219.173869,-9400.615463,-842.705048
290.595151,962.267725,-9474.636058,0.000000
290.595473,-1850.514855,-8660.409521,229.828649
290.595795,-3330.926739,-8734.430116,-1302.362347
290.596116,-5255.462188,-8734.430116,-1762.019645
290.596438,-7105.977043,-8068.244768,0.000000
290.596760,-7550.100608,-6291.750507,229.828649
290.597082,-5625.565159,-6365.771101,-1608.800546
290.597404,-2516.700203,-9178.553681,-3217.601092
290.597726,370.102971,-10955.047942,-2987.772442
290.598048,2590.720797,-11473.192101,-2451.505594
290.598370,4515.256246,-12435.459826,-1225.752797
290.598692,6439.791695,-12805.562797,1225.752797
290.599014,7328.038826,-11325.150913,-383.047749
290.599335,6439.791695,-9326.594869,-3907.087040
290.599657,4959.379811,-9400.615463,-4903.011187
290.599979,2516.700203,-11399.171507,-2911.162892
290.600301,-888.247130,-11769.274478,-919.314598
290.600623,-3404.947333,-9622.677246,1072.533697
290.600945,-3849.070898,-7772.162391,536.266849
290.601267,-4293.194464,-7920.203579,-1532.190996
290.601589,-5995.668130,-7846.182985,-2068.457845
290.601911,-8068.244768,-6735.874072,-1685.410096
290.602233,-7476.080014,-6439.791695,-1302.362347
290.602555,-4885.359217,-8882.471304,-1302.362347
290.602876,-2812.782580,-10140.821405,-1072.533697
290.603198,-148.041188,-9770.718434,-1991.848295
290.603520,2442.679609,-9696.697840,-2911.162892
290.603842,4737.318029,-10510.924376,-2604.724693
290.604164,6217.729913,-11251.130318,-1838.629195
290.604486,6439.791695,-9474.636058,-2451.505594
290.604808,6439.791695,-8364.327145,-3294.210641
290.605130,6069.688724,-9696.697840,-2681.334243
290.605452,3256.906145,-10955.047942,-766.095498
290.605774,-1036.288319,-9622.677246,306.438199
290.606095,-2886.803174,-9104.533087,0.000000
290.606417,-3849.070898,-8882.471304,-612.876398
290.606739,-4811.338623,-7994.224174,-1455.581446
290.607061,-6217.729913,-6439.791695,-1532.190996
290.607383,-6143.709319,-5995.668130,-919.314598
290.607705,-4293.194464,-7772.162391,-842.705048
290.608027,-2590.720797,-9474.636058,-1149.143247
290.608349,-1332.370696,-11029.068536,-1378.971896
290.608671,296.082377,-11843.295072,-1378.971896
290.608993,2664.741391,-11843.295072,-1762.019645
290.609314,4885.359217,-11547.212695,-2145.067394
290.609636,5181.441594,-10881.027347,-2374.896044
290.609958,5033.400406,-9474.636058,-2451.505594
290.610280,3701.029710,-9178.553681,-2681.334243
290.610602,1480.411884,-10807.006753,-1762.019645
290.610924,-2072.576638,-10658.965565,459.657299
290.611246,-4663.297435,-10288.862594,-383.047749
290.611568,-6439.791695,-8956.491898,-612.876398
290.611890,-7031.956449,-8364.327145,0.000000
290.612212,-7476.080014,-6883.915261,0.000000
290.612534,-7179.997637,-5699.585753,-1378.971896
290.612855,-5995.668130,-6217.729913,-1532.190996
290.613177,-3627.009116,-8142.265362,-842.705048
290.613499,-1258.350101,-8142.265362,-612.876398
290.613821,814.226536,-8438.347739,-1608.800546
290.614143,3182.885551,-10362.883188,-2451.505594
290.614465,5625.565159,-11621.233289,-1838.629195
290.614787,6217.729913,-11621.233289,-1685.410096
290.615109,5773.606348,-9622.677246,-2068.457845
290.615431,5625.565159,-9474.636058,-1991.848295
290.615753,4589.276840,-9770.718434,-1608.800546
290.616074,1628.453072,-9770.718434,-995.924147
290.616396,-1628.453072,-8660.409521,229.828649
290.616718,-3034.844362,-7994.224174,-383.047749
290.617040,-4145.153275,-8068.244768,-1302.362347
290.617362,-5329.482782,-7994.224174,-1378.971896
290.617684,-6735.874072,-7476.080014,-612.876398
290.618006,-5921.647536,-7105.977043,-383.047749
290.618328,-4071.132681,-8438.347739,-459.657299
290.618650,-1628.453072,-9918.759623,-1455.581446
290.618972,444.123565,-10955.047942,-2374.896044
290.619293,2590.720797,-11325.150913,-1991.848295
290.619615,4367.215058,-11473.192101,-383.047749
290.619937,5699.585753,-11103.089130,-1072.533697
290.620259,6365.771101,-10140.821405,-2451.505594
290.620581,6661.853478,-9622.677246,-4060.306139
290.620903,5181.441594,-11251.130318,-3983.696590
290.621225,1628.453072,-12731.542202,-1302.362347
290.621547,-1850.514855,-11843.295072,1532.190996
290.621869,-3849.070898,-8808.450710,919.314598
290.622191,-4589.276840,-7402.059420,-1302.362347
290.622513,-5773.606348,-7402.059420,-2298.286494
290.622834,-7476.080014,-6587.832884,-2221.676944
290.623156,-7550.100608,-6513.812290,-2145.067394
290.623478,-5699.585753,-7920.203579,-536.266849
290.623800,-2664.741391,-9844.739029,229.828649
290.624122,-444.123565,-9622.677246,-612.876398
290.624444,1480.411884,-8512.368333,-2451.505594
290.624766,4293.194464,-9104.533087,-2681.334243
290.625088,5625.565159,-9992.780217,-1991.848295
290.625410,6513.812290,-9844.739029,-2145.067394
290.625732,6365.771101,-8290.306550,-3217.601092
290.626053,6439.791695,-9030.512492,-2987.772442
290.626375,4663.297435,-11103.089130,-1225.752797
290.626697,1110.308913,-10881.027347,-459.657299
290.627019,-2590.720797,-9548.656652,-1072.533697
290.627341,-3849.070898,-9400.615463,-1302.362347
290.627663,-5107.421000,-9696.697840,-1532.190996
290.627985,-6883.915261,-8364.327145,-1378.971896
290.628307,-7698.141797,-6291.750507,-919.314598
290.628629,-5773.606348,-6365.771101,-1455.581446
290.628951,-3404.947333,-8068.244768,-1608.800546
290.629272,-1776.494261,-9326.594869,-1838.629195
290.629594,0.000000,-10658.965565,-2145.067394
290.629916,2516.700203,-11843.295072,-1302.362347
290.630238,4737.318029,-12139.377449,-1149.143247
290.630560,5625.565159,-11843.295072,-1685.410096
290.630882,5699.585753,-10584.944971,-2298.286494
290.631204,5403.503377,-9770.718434,-3217.601092
290.631526,3997.112087,-10436.903782,-3447.429741
290.631848,1184.329507,-11843.295072,-1838.629195
290.632170,-2368.659014,-11251.130318,229.828649
290.632492,-4663.297435,-9918.759623,-229.828649
290.632813,-5329.482782,-9252.574275,-995.924147
290.633135,-6439.791695,-8512.368333,-842.705048
290.633457,-7846.182985,-6291.750507,-383.047749
290.633779,-7031.956449,-5699.585753,-1991.848295
290.634101,-5181.441594,-6661.853478,-1762.019645
290.634423,-2368.659014,-8290.306550,-842.705048
290.634745,0.000000,-8512.368333,-612.876398
290.635067,2442.679609,-8586.388927,-1685.410096
290.635389,4737.318029,-9252.574275,-1838.629195
290.635711,6661.853478,-10732.986159,-1608.800546
290.636032,6735.874072,-10288.862594,-1915.238745
290.636354,6217.729913,-9400.615463,-2374.896044
290.636696,5625.565159,-9770.718434,-1991.848295
290.637018,3775.050304,-10881.027347,-995.924147
290.637340,0.000000,-10214.842000,383.047749
290.637662,-2146.597232,-8438.347739,0.000000
290.637984,-3478.967927,-7624.121203,-1225.752797
290.638306,-4589.276840,-7846.182985,-1225.752797
290.638628,-5699.585753,-7105.977043,-995.924147
290.638950,-6513.812290,-6217.729913,-1378.971896
290.639272,-5181.441594,-8068.244768,-842.705048
290.639594,-3404.947333,-9548.656652,-383.047749
290.639916,-1628.453072,-9770.718434,-1532.190996
290.640238,444.123565,-10214.842000,-2528.115143
290.640560,3330.926739,-10881.027347,-2374.896044
290.640882,4737.318029,-11473.192101,-1532.190996
290.641204,5181.441594,-11325.150913,-1762.019645
290.641526,5551.544565,-10288.862594,-2221.676944
290.641848,5477.523971,-10436.903782,-3294.210641
290.642170,2960.823768,-11399.171507,-2451.505594
290.642492,-370.102971,-11991.336260,-153.219100
290.642813,-4737.318029,-10066.800811,689.485948
290.643135,-6291.750507,-8882.471304,-766.095498
290.643457,-7105.977043,-8586.388927,-1838.629195
290.643779,-7994.224174,-7772.162391,-1991.848295
290.644101,-8438.347739,-6661.853478,-1838.629195
290.644423,-6883.915261,-7179.997637,-1225.752797
290.644745,-3997.112087,-8956.491898,-612.876398
290.645067,-1332.370696,-9178.553681,-383.047749
290.645389,888.247130,-8808.450710,-1991.848295
290.645711,3256.906145,-9326.594869,-2528.115143
290.646033,5255.462188,-11399.171507,-1991.848295
290.646355,6217.729913,-11769.274478,-995.924147
290.646677,5551.544565,-9474.636058,-919.314598
290.646999,5329.482782,-8216.285956,-1762.019645
290.647321,4441.235652,-9178.553681,-1608.800546
290.647643,1258.350101,-9770.718434,-1225.752797
290.647965,-2294.638420,-9252.574275,-229.828649
290.648287,-4737.318029,-8290.306550,-612.876398
290.648609,-5403.503377,-9104.533087,-1302.362347
290.648931,-6217.729913,-9178.553681,-1532.190996
290.649252,-7179.997637,-7846.182985,-1072.533697
290.649574,-6587.832884,-7179.997637,-1455.581446
290.649896,-4515.256246,-8290.306550,-842.705048
290.650218,-2072.576638,-9326.594869,-1225.752797
290.650540,-296.082377,-9770.718434,-2451.505594
290.650862,2146.597232,-10436.903782,-1532.190996
290.651184,3701.029710,-11843.295072,-1225.752797
290.651506,4959.379811,-11769.274478,-1225.752797
290.651828,6365.771101,-10362.883188,-2298.286494
290.652150,7402.059420,-9400.615463,-2757.943793
290.652472,6365.771101,-10362.883188,-2528.115143
290.652794,2960.823768,-10807.006753,0.000000
290.653116,-1480.411884,-9770.718434,1455.581446
290.653438,-3701.029710,-7994.224174,229.828649
290.653760,-4515.256246,-7846.182985,-2221.676944
290.654082,-5551.544565,-8216.285956,-2757.943793
290.654404,-7328.038826,-7772.162391,-2145.067394
290.654726,-7179.997637,-6513.812290,-612.876398
290.655048,-4367.215058,-7550.100608,-842.705048
290.655369,-962.267725,-9030.512492,-1455.581446
290.655691,592.164754,-9178.553681,-1838.629195
290.656013,1628.453072,-9400.615463,-2528.115143
290.656335,3627.009116,-10362.883188,-3064.381992
290.656657,6291.750507,-10658.965565,-3140.991542
290.656979,7624.121203,-10436.903782,-2911.162892
290.657301,7624.121203,-9474.636058,-2451.505594
290.657623,7105.977043,-9178.553681,-1838.629195
290.657945,5773.606348,-10066.800811,-766.095498
290.658267,2590.720797,-10732.986159,-229.828649
290.658589,-962.267725,-9918.759623,-536.266849
290.658911,-2960.823768,-9030.512492,-1685.410096
290.659233,-3923.091493,-8734.430116,-1532.190996
290.659555,-5255.462188,-8142.265362,-689.485948
290.659877,-6291.750507,-5625.565159,-995.924147
290.660199,-5107.421000,-6291.750507,-1455.581446
290.660521,-3330.926739,-9104.533087,-2451.505594
290.660843,-2146.597232,-11843.295072,-2451.505594
290.661165,-888.247130,-12731.542202,-1838.629195
290.661487,814.226536,-12509.480420,-919.314598
290.661808,2664.741391,-11621.233289,-995.924147
290.662130,4293.194464,-10436.903782,-2068.457845
290.662452,4811.338623,-9030.512492,-3753.867940
290.662774,5107.421000,-8956.491898,-5056.230287
290.663096,3108.864956,-10584.944971,-2987.772442
290.663418,-370.102971,-12509.480420,383.047749
290.663740,-4293.194464,-10658.965565,2451.505594
290.664062,-5847.626942,-8660.409521,459.657299
290.664384,-6587.832884,-8364.327145,-1378.971896
290.664706,-7476.080014,-7846.182985,-1915.238745
290.665028,-8734.430116,-6291.750507,-1225.752797
290.665350,-8068.244768,-5921.647536,-919.314598
290.665672,-4367.215058,-7476.080014,-536.266849
290.665994,-1332.370696,-8290.306550,-536.266849
290.666316,74.020594,-8586.388927,-1532.190996
290.666638,1924.535449,-9770.718434,-2604.724693
290.666960,4071.132681,-11621.233289,-3064.381992
290.667282,5255.462188,-12287.418637,-2374.896044
290.667604,4811.338623,-11103.089130,-1225.752797
290.667926,4367.215058,-9548.656652,-1072.533697
290.668247,3775.050304,-8808.450710,-1838.629195
290.668569,2072.576638,-9326.594869,-1762.019645
290.668891,-888.247130,-9252.574275,-689.485948
290.669213,-3182.885551,-7846.182985,-383.047749
290.669535,-4367.215058,-7624.121203,-1072.533697
290.669857,-5255.462188,-8438.347739,-1302.362347
290.670179,-6587.832884,-7846.182985,-612.876398
290.670501,-7179.997637,-6883.915261,-689.485948
290.670823,-5847.626942,-7994.224174,-1378.971896
290.671145,-3478.967927,-9770.718434,-1762.019645
290.671467,-1628.453072,-10658.965565,-1915.238745
290.671789,518.144159,-10362.883188,-1532.190996
290.672111,3256.906145,-11621.233289,-1225.752797
290.672433,5551.544565,-11843.295072,-1608.800546
290.672755,6809.894666,-10436.903782,-2451.505594
290.673077,6809.894666,-9252.574275,-2681.334243
290.673399,6217.729913,-10288.862594,-2068.457845
290.673721,3849.070898,-11251.130318,-612.876398
290.674043,-370.102971,-11325.150913,612.876398
290.674364,-3034.844362,-9400.615463,1225.752797
290.674686,-3923.091493,-7846.182985,-153.219100
290.675008,-4589.276840,-7328.038826,-1991.848295
290.675330,-5921.647536,-6735.874072,-1991.848295
290.675652,-7105.977043,-6439.791695,-1225.752797
290.675974,-5699.585753,-7254.018232,-689.485948
290.676296,-2886.803174,-9178.553681,-995.924147
290.676618,-518.144159,-9548.656652,-1532.190996
290.676940,1184.329507,-8882.471304,-2068.457845
290.677262,3404.947333,-9918.759623,-2451.505594
290.677584,5255.462188,-10807.006753,-2298.286494
290.677906,6735.874072,-9844.739029,-2681.334243
290.678228,7402.059420,-8660.409521,-3600.648841
290.678550,7550.100608,-8660.409521,-2911.162892
290.678872,6291.750507,-9770.718434,-1072.533697
290.679194,2886.803174,-10584.944971,0.000000
290.679516,-296.082377,-9696.697840,306.438199
290.679838,-1776.494261,-9400.615463,-842.705048
290.680160,-2738.761985,-9400.615463,-2451.505594
290.680482,-4663.297435,-8586.388927,-2528.115143
290.680803,-5921.647536,-6735.874072,-842.705048
290.681125,-5255.462188,-6291.750507,-842.705048
290.681447,-3330.926739,-7920.203579,-1149.143247
290.681769,-2294.638420,-10140.821405,-1378.971896
290.682091,-1036.288319,-10955.047942,-1532.190996
290.682413,148.041188,-10732.986159,-2145.067394
290.682735,2738.761985,-12361.439231,-2068.457845
290.683057,4885.359217,-12065.356855,-2068.457845
290.683379,5773.606348,-10362.883188,-2757.943793
290.683701,5773.606348,-9696.697840,-3524.039291
290.684023,4589.276840,-10807.006753,-3370.820191
290.684345,814.226536,-11917.315666,-842.705048
290.684667,-4145.153275,-11251.130318,229.828649
290.684989,-6883.915261,-9474.636058,-766.095498
290.685311,-7698.141797,-9104.533087,-2068.457845
290.685633,-8364.327145,-8438.347739,-2451.505594
290.685955,-8956.491898,-6513.812290,-1762.019645
290.686277,-7772.162391,-5699.585753,-1455.581446
290.686599,-4737.318029,-7402.059420,-1608.800546
290.686921,-1554.432478,-9252.574275,-919.314598
290.687242,-222.061783,-9104.533087,-306.438199
290.687564,1332.370696,-9178.553681,-995.924147
290.687886,3849.070898,-10288.862594,-2298.286494
290.688208,5921.647536,-11547.212695,-2528.115143
290.688530,6069.688724,-10658.965565,-1991.848295
290.688852,5255.462188,-8734.430116,-1302.362347
290.689174,5255.462188,-8290.306550,-1378.971896
290.689496,4515.256246,-9326.594869,-1685.410096
290.689818,1110.308913,-9548.656652,-919.314598
290.690140,-2812.782580,-8216.285956,-306.438199
290.690462,-4885.359217,-7179.997637,-306.438199
290.690784,-5329.482782,-7624.121203,-919.314598
290.691106,-5625.565159,-8438.347739,-2145.067394
290.691428,-6365.771101,-8364.327145,-1608.800546
290.691750,-6069.688724,-8956.491898,-689.485948
290.692072,-4293.194464,-10214.842000,-229.828649
290.692394,-1850.514855,-10807.006753,-612.876398
290.692716,740.205942,-10510.924376,-2221.676944
290.693038,2442.679609,-10066.800811,-2911.162892
290.693360,4293.194464,-10881.027347,-1991.848295
290.693681,5551.544565,-10214.842000,-1302.362347
290.694003,6365.771101,-8290.306550,-1991.848295
290.694325,6513.812290,-8364.327145,-3064.381992
290.694647,5329.482782,-11547.212695,-1915.238745
290.694969,1110.308913,-13027.624579,0.000000
290.695291,-3330.926739,-11695.253884,842.705048
290.695613,-5329.482782,-9548.656652,0.000000
290.695935,-5625.565159,-8216.285956,-1762.019645
290.696257,-6587.832884,-7031.956449,-2068.457845
290.696579,-7550.100608,-5995.668130,-2068.457845
290.696901,-6809.894666,-6439.791695,-1378.971896
290.697223,-3849.070898,-8808.450710,-1225.752797
290.697545,-1258.350101,-10436.903782,-1149.143247
290.697867,148.041188,-10214.842000,-1302.362347
290.698189,2590.720797,-10584.944971,-2068.457845
290.698511,4515.256246,-10510.924376,-1915.238745
290.698833,5921.647536,-9844.739029,-2145.067394
290.699155,6513.812290,-8438.347739,-2604.724693
290.699477,6217.729913,-7254.018232,-2757.943793
290.699798,5995.668130,-8512.368333,-1378.971896
290.700120,3552.988522,-10066.800811,0.000000
290.700442,222.061783,-10362.883188,153.219100
290.700764,-2072.576638,-9696.697840,-689.485948
290.701086,-3404.947333,-9474.636058,-2374.896044
290.701408,-5033.400406,-9474.636058,-1838.629195
290.701730,-7476.080014,-7476.080014,-1149.143247
290.702052,-8586.388927,-5995.668130,-995.924147
290.702374,-7105.977043,-6735.874072,-1608.800546
290.702696,-4219.173869,-9178.553681,-2451.505594
290.703018,-1628.453072,-10658.965565,-2681.334243
290.703340,666.185348,-12287.418637,-1378.971896
290.703662,2886.803174,-12805.562797,0.000000
290.703984,4663.297435,-11251.130318,383.047749
290.704306,6069.688724,-9400.615463,-919.314598
290.704628,6661.853478,-8068.244768,-3524.039291
290.704950,6143.709319,-9474.636058,-5515.887586
290.705272,3404.947333,-11251.130318,-2528.115143
290.705594,-222.061783,-12287.418637,1225.752797
290.705916,-3108.864956,-11177.109724,2604.724693
290.706237,-3849.070898,-9474.636058,459.657299
290.706559,-4145.153275,-7994.224174,-1608.800546
290.706881,-6069.688724,-7105.977043,-2604.724693
290.707203,-7624.121203,-5625.565159,-2911.162892
290.707525,-6883.915261,-6439.791695,-2757.943793
290.707847,-4071.132681,-8882.471304,-1838.629195
290.708169,-1554.432478,-10066.800811,-1302.362347
290.708491,666.185348,-10658.965565,-1532.190996
290.708813,2812.782580,-11251.130318,-2451.505594
290.709135,5255.462188,-11547.212695,-2298.286494
290.709457,6735.874072,-10658.965565,-1455.581446
290.709779,7105.977043,-8660.409521,-1532.190996
290.710101,7179.997637,-7476.080014,-2221.676944
290.710423,6217.729913,-7846.182985,-2374.896044
290.710745,3849.070898,-9178.553681,-1608.800546
290.711067,444.123565,-9622.677246,-306.438199
290.711389,-2738.761985,-9474.636058,0.000000
290.711711,-4663.297435,-9178.553681,-153.219100
290.712033,-5847.626942,-9252.574275,-995.924147
290.712355,-6513.812290,-8660.409521,-1532.190996
290.712676,-5921.647536,-7328.038826,-1532.190996
290.712998,-4737.318029,-7772.162391,-1378.971896
290.713320,-3404.947333,-9178.553681,-995.924147
290.713642,-1554.432478,-9770.718434,-919.314598
290.713964,370.102971,-10807.006753,-1762.019645
290.714286,2590.720797,-11843.295072,-1991.848295
290.714608,4589.276840,-11621.233289,-1302.362347
290.714930,5995.668130,-9696.697840,-1915.238745
290.715252,6735.874072,-8660.409521,-2987.772442
290.715574,5995.668130,-9326.594869,-2451.505594
290.715896,2368.659014,-10807.006753,-919.314598
290.716218,-2368.659014,-10807.006753,153.219100
290.716540,-5699.585753,-9770.718434,-459.657299
290.716862,-6883.915261,-9400.615463,-2681.334243
290.717184,-7920.203579,-8882.471304,-2911.162892
290.717506,-9400.615463,-7624.121203,-1532.190996
290.717828,-9104.533087,-6513.812290,-919.314598
290.718150,-6513.812290,-6661.853478,-1455.581446
290.718472,-3256.906145,-8438.347739,-1762.019645
290.718794,-962.267725,-8882.471304,-1455.581446
290.719115,74.020594,-8956.491898,-1378.971896
290.719437,2738.761985,-9770.718434,-1991.848295
290.719759,5107.421000,-10510.924376,-1608.800546
290.720081,6439.791695,-9622.677246,-1532.190996
290.720403,6661.853478,-8142.265362,-1685.410096
290.720725,6513.812290,-8068.244768,-1762.019645
290.721047,5403.503377,-9548.656652,-1225.752797
290.721369,2590.720797,-10288.862594,-153.219100
290.721691,-740.205942,-9548.656652,229.828649
290.722013,-3701.029710,-8364.327145,-536.266849
290.722335,-4885.359217,-8438.347739,-2528.115143
290.722657,-5847.626942,-9104.533087,-3064.381992
290.722979,-6513.812290,-8882.471304,-2987.772442
290.723301,-5921.647536,-8660.409521,-1378.971896
290.723623,-4515.256246,-10140.821405,-229.828649
290.723945,-2664.741391,-11029.068536,0.000000
290.724267,-814.226536,-10658.965565,-1072.533697
290.724589,1628.453072,-10436.903782,-2374.896044
290.724911,3849.070898,-10955.047942,-2298.286494
290.725232,5551.544565,-10510.924376,-1532.190996
290.725554,6365.771101,-9474.636058,-1302.362347
290.725876,7031.956449,-8956.491898,-2068.457845
290.726198,6439.791695,-10881.027347,-1225.752797
290.726520,2960.823768,-11621.233289,-459.657299
290.726842,-1258.350101,-11399.171507,612.876398
290.727164,-4441.235652,-9622.677246,76.609550
290.727486,-5329.482782,-8068.244768,-1608.800546
290.727808,-6365.771101,-7624.121203,-1991.848295
290.728130,-7476.080014,-7105.977043,-2298.286494
290.728452,-7179.997637,-7476.080014,-2221.676944
290.728774,-5329.482782,-8882.471304,-1302.362347
290.729096,-2738.761985,-10214.842000,-842.705048
290.729418,-592.164754,-10807.006753,-1072.533697
290.729740,1258.350101,-10066.800811,-1608.800546
290.730062,3775.050304,-9622.677246,-2145.067394
290.730384,6365.771101,-9400.615463,-2221.676944
290.730706,7476.080014,-7624.121203,-2068.457845
290.731028,7624.121203,-6661.853478,-2298.286494
290.731350,6809.894666,-7476.080014,-1225.752797
290.731671,5033.400406,-9474.636058,-383.047749
290.731993,1702.473667,-10288.862594,0.000000
290.732315,-1554.432478,-9622.677246,-153.219100
290.732637,-3108.864956,-9400.615463,-306.438199
290.732959,-4219.173869,-9474.636058,-2221.676944
290.733281,-6143.709319,-8660.409521,-1915.238745
290.733603,-7105.977043,-6587.832884,-1072.533697
290.733925,-6143.709319,-6883.915261,-1685.410096
290.734247,-3701.029710,-9548.656652,-2681.334243
290.734569,-1480.411884,-10955.047942,-3294.210641
290.734891,0.000000,-11991.336260,-1762.019645
290.735213,1998.556043,-12287.418637,-612.876398
290.735535,4219.173869,-11843.295072,-153.219100
290.735857,5847.626942,-9918.759623,-1302.362347
290.736179,6809.894666,-8364.327145,-3140.991542
290.736501,6217.729913,-8660.409521,-3907.087040
290.736823,3849.070898,-10214.842000,-1838.629195
290.737145,0.000000,-11399.171507,229.828649
290.737467,-3478.967927,-10881.027347,1072.533697
290.737789,-5033.400406,-9918.759623,-306.438199
290.738110,-6143.709319,-9326.594869,-3140.991542
290.738432,-8216.285956,-8142.265362,-2834.553343
290.738754,-9548.656652,-6365.771101,-1991.848295
290.739076,-8216.285956,-6069.688724,-2221.676944
290.739398,-4959.379811,-8142.265362,-2068.457845
290.739720,-2368.659014,-9696.697840,-1532.190996
290.740042,-370.102971,-10140.821405,-2068.457845
290.740364,1850.514855,-9992.780217,-2528.115143
290.740686,4811.338623,-10955.047942,-2451.505594
290.741008,6735.874072,-10436.903782,-1991.848295
290.741330,6957.935855,-8882.471304,-1685.410096
290.741652,6661.853478,-7179.997637,-2145.067394
290.741974,5773.606348,-8438.347739,-1302.362347
290.742296,3478.967927,-9548.656652,-1149.143247
290.742618,0.000000,-9474.636058,0.000000
290.742940,-2886.803174,-9326.594869,-306.438199
290.743262,-4959.379811,-8586.388927,-459.657299
290.743584,-5995.668130,-8808.450710,-1455.581446
290.743906,-7179.997637,-8142.265362,-1302.362347
290.744228,-7179.997637,-7476.080014,-1532.190996
290.744550,-5847.626942,-8586.388927,-2145.067394
290.744872,-3701.029710,-10288.862594,-1608.800546
290.745193,-1850.514855,-11325.150913,-766.095498
290.745515,370.102971,-11399.171507,-919.314598
290.745837,3034.844362,-11325.150913,-1762.019645
290.746159,5255.462188,-11399.171507,-1991.848295
290.746481,6365.771101,-10214.842000,-2221.676944
290.746803,6143.709319,-8734.430116,-2604.724693
290.747125,4737.318029,-9030.512492,-2528.115143
290.747447,1998.556043,-11177.109724,-1225.752797
290.747769,-1480.411884,-12213.398043,612.876398
290.748091,-4441.235652,-10732.986159,383.047749
290.748413,-5255.462188,-9178.553681,-1072.533697
290.748735,-6661.853478,-8216.285956,-1072.533697
290.749057,-7550.100608,-7105.977043,-689.485948
290.749379,-7846.182985,-5995.668130,-995.924147
290.749701,-5773.606348,-6735.874072,-1838.629195
290.750023,-3182.885551,-8438.347739,-1378.971896
290.750345,-962.267725,-10288.862594,-1072.533697
290.750667,1110.308913,-10732.986159,-919.314598
290.750989,3701.029710,-10584.944971,-919.314598
290.751311,7031.956449,-10955.047942,-1302.362347
290.751633,8734.430116,-10362.883188,-1225.752797
290.751954,9252.574275,-8216.285956,-1225.752797
290.752276,8142.265362,-7105.977043,-1532.190996
290.752598,6587.832884,-8364.327145,-919.314598
290.752920,3775.050304,-9770.718434,76.609550
290.753242,0.000000,-9252.574275,0.000000
290.753564,-2664.741391,-9252.574275,-459.657299
290.753886,-4737.318029,-9104.533087,-612.876398
290.754208,-6217.729913,-9252.574275,-1378.971896
290.754530,-7772.162391,-7402.059420,-1149.143247
290.754852,-7254.018232,-6291.750507,-1149.143247
290.755174,-4811.338623,-7698.141797,-1378.971896
290.755496,-1998.556043,-9622.677246,-2757.943793
290.755818,-370.102971,-10881.027347,-2451.505594
290.756140,1406.391290,-11695.253884,-1532.190996
290.756462,3478.967927,-12509.480420,-459.657299
290.756784,5699.585753,-11843.295072,-842.705048
290.757106,6513.812290,-9696.697840,-2451.505594
290.757428,6439.791695,-8660.409521,-3600.648841
290.757750,4885.359217,-9844.739029,-2528.115143
290.758072,1554.432478,-10881.027347,-689.485948
290.758394,-2442.679609,-10140.821405,995.924147
290.758716,-4959.379811,-8512.368333,459.657299
290.759037,-5847.626942,-8290.306550,-2374.896044
290.759359,-7402.059420,-9104.533087,-2757.943793
290.759681,-9474.636058,-8068.244768,-1685.410096
290.760003,-8808.450710,-7476.080014,-1532.190996
290.760325,-5773.606348,-7476.080014,-2757.943793
290.760647,-2220.617826,-9474.636058,-2757.943793
290.760969,-592.164754,-10436.903782,-2068.457845
290.761291,1036.288319,-10584.944971,-1915.238745
290.761613,3849.070898,-10436.903782,-2451.505594
290.761935,6587.832884,-10955.047942,-2987.772442
290.762257,7624.121203,-10288.862594,-1685.410096
290.762579,7254.018232,-8438.347739,-2604.724693
290.762901,6513.812290,-7994.224174,-2528.115143
290.763223,4737.318029,-9770.718434,-1991.848295
290.763545,1776.494261,-10732.986159,-612.876398
290.763867,-1998.556043,-9178.553681,-459.657299
290.764189,-4589.276840,-8586.388927,-612.876398
290.764511,-5995.668130,-8660.409521,-1915.238745
290.764833,-7550.100608,-8364.327145,-1838.629195
290.765155,-8142.265362,-6365.771101,-1762.019645
290.765477,-7328.038826,-5995.668130,-2298.286494
290.765798,-4737.318029,-8734.430116,-2068.457845
290.766120,-1480.411884,-11399.171507,-1838.629195
290.766442,592.164754,-11917.315666,-1532.190996
290.766764,2590.720797,-12065.356855,-2068.457845
290.767086,5181.441594,-12805.562797,-842.705048
290.767408,7254.018232,-11621.233289,-612.876398
290.767730,7105.977043,-7846.182985,-2451.505594
290.768052,6291.750507,-7105.977043,-3524.039291
290.768374,5181.441594,-9474.636058,-2221.676944
290.768696,1776.494261,-11547.212695,-383.047749
290.769018,-2368.659014,-11029.068536,919.314598
290.769340,-5033.400406,-10510.924376,1532.190996
290.769662,-5625.565159,-10288.862594,0.000000
290.769984,-7179.997637,-8808.450710,-1302.362347
290.770306,-8808.450710,-6439.791695,-1302.362347
290.770628,-8290.306550,-5033.400406,-1302.362347
290.770950,-5033.400406,-6587.832884,-2451.505594
290.771272,-1998.556043,-8956.491898,-2374.896044
290.771594,148.041188,-9770.718434,-1225.752797
290.771916,2072.576638,-10362.883188,-1302.362347
290.772238,4145.153275,-11917.315666,-766.095498
290.772559,5995.668130,-12361.439231,0.000000
290.772881,6661.853478,-9918.759623,-1378.971896
290.773203,6883.915261,-8142.265362,-3217.601092
290.773525,6217.729913,-8586.388927,-2374.896044
290.773847,3775.050304,-9400.615463,-536.266849
290.774169,518.144159,-8660.409521,842.705048
290.774491,-2590.720797,-7476.080014,689.485948
290.774813,-3849.070898,-8142.265362,-612.876398
290.775135,-5995.668130,-8882.471304,-1225.752797
290.775457,-8068.244768,-7846.182985,-1302.362347
290.775779,-8142.265362,-6883.915261,-1302.362347
290.776101,-5699.585753,-7772.162391,-1532.190996
290.776423,-2368.659014,-9696.697840,-2068.457845
290.776745,-370.102971,-10881.027347,-1685.410096
290.777067,1258.350101,-11473.192101,-1455.581446
290.777389,3182.885551,-12213.398043,-1072.533697
290.777711,5699.585753,-12139.377449,-766.095498
290.778033,7031.956449,-11103.089130,-1991.848295
290.778355,6735.874072,-8734.430116,-2604.724693
290.778677,5329.482782,-8956.491898,-2221.676944
290.778999,2442.679609,-10214.842000,-1149.143247
290.779321,-1480.411884,-11029.068536,76.609550
290.779642,-4515.256246,-9696.697840,536.266849
290.779964,-6439.791695,-8364.327145,-995.924147
290.780286,-7402.059420,-8882.471304,-2145.067394
290.780608,-9104.533087,-8142.265362,-1455.581446
290.780930,-9474.636058,-6661.853478,-1225.752797
290.781252,-7476.080014,-5847.626942,-2528.115143
290.781574,-3478.967927,-7698.141797,-2604.724693
290.781896,-1258.350101,-10140.821405,-2374.896044
290.782218,222.061783,-10732.986159,-1685.410096
290.782540,2886.803174,-11029.068536,-1915.238745
290.782862,6365.771101,-11621.233289,-2068.457845
290.783184,8882.471304,-11695.253884,-1991.848295
290.783506,8956.491898,-9252.574275,-2145.067394
290.783828,8068.244768,-7105.977043,-2221.676944
290.784150,7031.956449,-8142.265362,-1762.019645
290.784472,4441.235652,-9622.677246,-229.828649
290.784794,518.144159,-9104.533087,306.438199
290.785116,-2812.782580,-8290.306550,-919.314598
290.785438,-4811.338623,-8512.368333,-1378.971896
290.785760,-6809.894666,-9474.636058,-1915.238745
290.786082,-7920.203579,-7846.182985,-1532.190996
290.786403,-7254.018232,-5995.668130,-1838.629195
290.786725,-4589.276840,-7624.121203,-3064.381992
290.787047,-1406.391290,-11177.109724,-3524.039291
290.787369,962.267725,-12435.459826,-2681.334243
290.787691,2220.617826,-12509.480420,-1762.019645
290.788013,4441.235652,-12879.583391,-919.314598
290.788335,6513.812290,-11843.295072,-153.219100
290.788657,7624.121203,-9696.697840,-2451.505594
290.788979,7031.956449,-7402.059420,-4366.744339
290.789301,5921.647536,-9030.512492,-2911.162892
290.789623,2368.659014,-11251.130318,-383.047749
290.789945,-1850.514855,-10732.986159,1149.143247
290.790267,-4441.235652,-9918.759623,919.314598
290.790589,-6291.750507,-9030.512492,-306.438199
290.790911,-7476.080014,-9326.594869,-2298.286494
290.791233,-9474.636058,-7920.203579,-2221.676944
290.791555,-9252.574275,-5995.668130,-1762.019645
290.791877,-5773.606348,-6439.791695,-1455.581446
290.792199,-2664.741391,-8068.244768,-1762.019645
290.792521,-296.082377,-9326.594869,-1072.533697
290.792843,1184.329507,-9474.636058,-1225.752797
290.793165,3701.029710,-10732.986159,-2068.457845
290.793486,6217.729913,-12509.480420,-1991.848295
290.793808,7698.141797,-11843.295072,-1302.362347
290.794130,7328.038826,-9178.553681,-1378.971896
290.794452,7031.956449,-7772.162391,-1225.752797
290.794774,5625.565159,-8586.388927,-689.485948
290.795096,2368.659014,-9178.553681,306.438199
290.795418,-1924.535449,-7402.059420,766.095498
290.795740,-4737.318029,-7846.182985,76.609550
290.796062,-6439.791695,-8734.430116,-612.876398
290.796384,-8068.244768,-8586.388927,-612.876398
290.796706,-8882.471304,-7254.018232,-1225.752797
290.797028,-7846.182985,-7105.977043,-1915.238745
290.797350,-5181.441594,-9104.533087,-2068.457845
290.797672,-3256.906145,-10436.903782,-1302.362347
290.797994,-1554.432478,-10658.965565,-689.485948
290.798316,888.247130,-11325.150913,-1378.971896
290.798638,3775.050304,-11769.274478,-2221.676944
290.798960,6143.709319,-11695.253884,-2681.334243
290.799282,6439.791695,-9474.636058,-2834.553343
290.799604,5699.585753,-8142.265362,-2604.724693
290.799926,4367.215058,-9622.677246,-1762.019645
290.800247,740.205942,-11769.274478,-612.876398
290.800569,-3923.091493,-11621.233289,0.000000
290.800891,-6735.874072,-10362.883188,-383.047749
290.801213,-7476.080014,-9918.759623,-1838.629195
290.801535,-8364.327145,-8586.388927,-1762.019645
290.801857,-8808.450710,-5995.668130,-1608.800546
290.802179,-7402.059420,-5107.421000,-1532.190996
290.802501,-4515.256246,-7105.977043,-2298.286494
290.802823,-1850.514855,-8808.450710,-1302.362347
290.803145,0.000000,-9474.636058,-1532.190996
290.803467,1924.535449,-10584.944971,-1991.848295
290.803789,4589.276840,-11917.315666,-2145.067394
290.804111,6809.894666,-11991.336260,-1532.190996
290.804433,7179.997637,-10140.821405,-2068.457845
290.804755,7179.997637,-8290.306550,-2451.505594
290.805077,7105.977043,-8364.327145,-2757.943793
290.805399,5403.503377,-9622.677246,-1685.410096
290.805721,1628.453072,-9918.759623,-153.219100
290.806043,-1776.494261,-8808.450710,-306.438199
290.806365,-3552.988522,-8882.471304,-1455.581446
290.806687,-5033.400406,-8882.471304,-1838.629195
290.807008,-7031.956449,-7254.018232,-1378.971896
290.807330,-7772.162391,-5329.482782,-2528.115143
290.807652,-5329.482782,-7105.977043,-2911.162892
290.807974,-1776.494261,-10362.883188,-2681.334243
290.808296,666.185348,-11325.150913,-2145.067394
290.808618,2220.617826,-11399.171507,-1072.533697
290.808940,4219.173869,-11917.315666,612.876398
290.809262,6439.791695,-11473.192101,1225.752797
290.809584,6883.915261,-9622.677246,-1991.848295
290.809906,6143.709319,-8660.409521,-3753.867940
290.810228,4811.338623,-9104.533087,-2681.334243
290.810550,3034.844362,-10584.944971,-995.924147
290.810872,74.020594,-11177.109724,1149.143247
290.811194,-2072.576638,-10732.986159,1608.800546
290.811516,-4071.132681,-8734.430116,459.657299
290.811838,-5329.482782,-7920.203579,-1685.410096
290.812160,-7105.977043,-7772.162391,-2451.505594
290.812482,-8364.327145,-6883.915261,-1838.629195
290.812804,-7328.038826,-6365.771101,-2757.943793
290.813126,-4959.379811,-8364.327145,-2374.896044
290.813448,-1628.453072,-10066.800811,-2374.896044
290.813770,1110.308913,-10584.944971,-2068.457845
290.814091,3330.926739,-11251.130318,-2374.896044
290.814413,5699.585753,-11769.274478,-1072.533697
290.814735,6883.915261,-11251.130318,-229.828649
290.815057,7402.059420,-8956.491898,-995.924147
290.815379,7402.059420,-7328.038826,-2451.505594
290.815701,6513.812290,-7698.141797,-2298.286494
290.816023,3552.988522,-9030.512492,-536.266849
290.816345,-444.123565,-8882.471304,1685.410096
290.816667,-3404.947333,-8142.265362,1225.752797
290.816989,-4737.318029,-8068.244768,-383.047749
290.817311,-6291.750507,-9178.553681,-1991.848295
290.817633,-7920.203579,-8512.368333,-2145.067394
290.817955,-7920.203579,-6439.791695,-1455.581446
290.818277,-6143.709319,-7550.100608,-2528.115143
290.818599,-3034.844362,-10436.903782,-2068.457845
290.818921,-962.267725,-11399.171507,-1838.629195
290.819243,444.123565,-11325.150913,-2221.676944
290.819565,2368.659014,-11695.253884,-2068.457845
290.819887,4737.318029,-12139.377449,-919.314598
290.820209,5329.482782,-9844.739029,-2221.676944
290.820531,4885.359217,-7624.121203,-3447.429741
290.820852,4071.132681,-8734.430116,-2604.724693
290.821174,1480.411884,-10658.965565,-1072.533697
290.821496,-1924.535449,-11103.089130,306.438199
290.821818,-4515.256246,-9474.636058,0.000000
290.822140,-5847.626942,-9178.553681,-1378.971896
290.822462,-7105.977043,-9326.594869,-1532.190996
290.822784,-8882.471304,-7846.182985,-1149.143247
290.823106,-9178.553681,-5699.585753,-1915.238745
290.823428,-6365.771101,-6439.791695,-3217.601092
290.823750,-3108.864956,-8956.491898,-2911.162892
290.824072,-1850.514855,-10140.821405,-2145.067394
290.824394,-296.082377,-9992.780217,-1072.533697
290.824716,2664.741391,-10510.924376,-1991.848295
290.825038,5625.565159,-11695.253884,-2604.724693
290.825360,6661.853478,-11621.233289,-2221.676944
290.825682,5995.668130,-9474.636058,-1608.800546
290.826004,5551.544565,-8364.327145,-1532.190996
290.826326,4959.379811,-9400.615463,-1072.533697
290.826648,2590.720797,-9030.512492,0.000000
290.826970,-444.123565,-8142.265362,-229.828649
290.827292,-2960.823768,-7624.121203,-612.876398
290.827614,-4441.235652,-8290.306550,-1455.581446
290.827935,-5847.626942,-8734.430116,-1378.971896
290.828257,-6809.894666,-7031.956449,-919.314598
290.828579,-5329.482782,-6217.729913,-2374.896044
290.828901,-3108.864956,-9326.594869,-2451.505594
290.829223,-592.164754,-11251.130318,-1762.019645
290.829545,1332.370696,-11325.150913,-1608.800546
290.829867,3330.926739,-11621.233289,-1455.581446
290.830189,5477.523971,-12953.603985,-459.657299
290.830511,6661.853478,-12139.377449,-229.828649
290.830833,6513.812290,-8808.450710,-1915.238745
290.831155,5699.585753,-7550.100608,-2528.115143
290.831477,4959.379811,-9030.512492,-1762.019645
290.831799,1998.556043,-10140.821405,-689.485948
290.832121,-1554.432478,-9992.780217,383.047749
290.832443,-4293.194464,-9400.615463,842.705048
290.832765,-5403.503377,-9622.677246,0.000000
290.833087,-7031.956449,-8660.409521,-1149.143247
290.833409,-8364.327145,-7105.977043,-1225.752797
290.833731,-8068.244768,-6291.750507,-2298.286494
290.834053,-5477.523971,-8068.244768,-2298.286494
290.834375,-2590.720797,-9474.636058,-2604.724693
290.834696,0.000000,-10214.842000,-2221.676944
290.835018,1554.432478,-11029.068536,-1149.143247
290.835340,3478.967927,-11399.171507,0.000000
290.835662,5033.400406,-10584.944971,-612.876398
290.835984,5995.668130,-8882.471304,-2681.334243
290.836306,6513.812290,-8216.285956,-2987.772442
290.836628,6365.771101,-9104.533087,-2145.067394
290.836950,4737.318029,-9252.574275,-153.219100
290.837272,2220.617826,-8956.491898,1608.800546
290.837594,-444.123565,-9030.512492,1225.752797
290.837916,-1998.556043,-8882.471304,-995.924147
290.838237,-4885.359217,-8882.471304,-2068.457845
290.838559,-7476.080014,-7550.100608,-1225.752797
290.838881,-8216.285956,-6217.729913,-1608.800546
290.839203,-7105.977043,-7254.018232,-3600.648841
290.839525,-3849.070898,-9918.759623,-4060.306139
290.839847,-1184.329507,-11843.295072,-3294.210641
290.840169,370.102971,-12731.542202,-2221.676944
290.840491,2664.741391,-13915.871710,-766.095498
290.840812,5329.482782,-12731.542202,0.000000
290.841134,6439.791695,-10066.800811,-1608.800546
290.841456,6439.791695,-7920.203579,-3064.381992
290.841778,4959.379811,-7624.121203,-2604.724693
290.842100,3182.885551,-8734.430116,-2145.067394
290.842422,740.205942,-9326.594869,0.000000
290.842744,-2146.597232,-10066.800811,766.095498
290.843066,-4515.256246,-10362.883188,612.876398
290.843387,-5773.606348,-9770.718434,-459.657299
290.843709,-7031.956449,-8438.347739,-1225.752797
290.844031,-7402.059420,-6513.812290,-2298.286494
290.844353,-6587.832884,-6069.688724,-3064.381992
290.844675,-5181.441594,-7624.121203,-2834.553343
290.844997,-3478.967927,-8808.450710,-1685.410096
290.845319,-1184.329507,-9696.697840,-1762.019645
290.845641,1702.473667,-10658.965565,-2834.553343
290.845962,4367.215058,-13027.624579,-2374.896044
290.846284,5773.606348,-12361.439231,-1762.019645
290.846606,6439.791695,-9770.718434,-919.314598
290.846928,7105.977043,-8068.244768,-1762.019645
290.847250,6957.935855,-8216.285956,-2221.676944
290.847572,4737.318029,-7994.224174,-842.705048
290.847894,1110.308913,-7624.121203,0.000000
290.848216,-1702.473667,-8364.327145,0.000000
290.848537,-3997.112087,-9474.636058,-536.266849
290.848859,-5995.668130,-9474.636058,-459.657299
290.849181,-7402.059420,-7624.121203,-842.705048
290.849503,-7105.977043,-7328.038826,-2298.286494
290.849825,-4737.318029,-8808.450710,-3370.820191
290.850147,-1776.494261,-11177.109724,-2834.553343
290.850469,0.000000,-11621.233289,-1762.019645
290.850791,1702.473667,-11843.295072,-459.657299
290.851112,3775.050304,-11991.336260,306.438199
290.851434,5625.565159,-10658.965565,-459.657299
290.851756,5921.647536,-8660.409521,-2604.724693
290.852078,5699.585753,-7994.224174,-3524.039291
290.852400,4663.297435,-9030.512492,-2374.896044
290.852722,1924.535449,-10066.800811,-536.266849
290.853044,-1702.473667,-10510.924376,1532.190996
290.853366,-4441.235652,-10436.903782,1455.581446
290.853687,-6217.729913,-10214.842000,-612.876398
290.854009,-7920.203579,-9326.594869,-2374.896044
290.854331,-9696.697840,-7402.059420,-1915.238745
290.854653,-10066.800811,-6217.729913,-1072.533697
290.854975,-8364.327145,-6661.853478,-2221.676944
290.855297,-5551.544565,-7994.224174,-2374.896044
290.855619,-3256.906145,-9474.636058,-1762.019645
290.855941,-1258.350101,-10214.842000,-1532.190996
290.856262,1554.432478,-10658.965565,-1302.362347
290.856584,4071.132681,-11769.274478,-1685.410096
290.856906,5995.668130,-10955.047942,-995.924147
290.857228,6883.915261,-9474.636058,-995.924147
290.857550,7031.956449,-8142.265362,-1991.848295
290.857872,6513.812290,-7846.182985,-1532.190996
290.858194,4589.276840,-8290.306550,536.266849
290.858516,814.226536,-8660.409521,995.924147
290.858838,-2368.659014,-8660.409521,229.828649
290.859159,-4145.153275,-8586.388927,-1072.533697
290.859481,-5477.523971,-8882.471304,-2145.067394
290.859803,-6809.894666,-7772.162391,-1991.848295
290.860125,-7105.977043,-6661.853478,-995.924147
290.860447,-5625.565159,-7550.100608,-1762.019645
290.860769,-3108.864956,-9918.759623,-2528.115143
290.861091,-148.041188,-11177.109724,-2451.505594
290.861413,2072.576638,-11029.068536,-2221.676944
290.861734,4219.173869,-12139.377449,-1838.629195
290.862056,5847.626942,-11917.315666,0.000000
290.862378,6809.894666,-9548.656652,-229.828649
290.862700,6143.709319,-7846.182985,-2451.505594
290.863022,5255.462188,-8956.491898,-3600.648841
290.863344,3182.885551,-10807.006753,-1838.629195
290.863666,0.000000,-10881.027347,-612.876398
290.863988,-2738.761985,-10140.821405,153.219100
290.864309,-3775.050304,-9844.739029,76.609550
290.864631,-4293.194464,-9252.574275,-1302.362347
290.864953,-6069.688724,-7254.018232,-2221.676944
290.865275,-7031.956449,-6069.688724,-2451.505594
290.865597,-5699.585753,-6809.894666,-2374.896044
290.865919,-3330.926739,-8882.471304,-2757.943793
290.866241,-962.267725,-10288.862594,-2451.505594
290.866563,1554.432478,-10510.924376,-2145.067394
290.866884,3701.029710,-10881.027347,-1991.848295
290.867206,6217.729913,-11547.212695,-1991.848295
290.867528,7920.203579,-10362.883188,-1838.629195
290.867850,8586.388927,-8808.450710,-2451.505594
290.868172,8290.306550,-8364.327145,-2757.943793
290.868494,6661.853478,-9326.594869,-1455.581446
290.868816,3108.864956,-10140.821405,0.000000
290.869138,-518.144159,-9326.594869,0.000000
290.869459,-2960.823768,-9400.615463,-1608.800546
290.869781,-5107.421000,-10066.800811,-1991.848295
290.870103,-7550.100608,-9326.594869,-842.705048
290.870425,-9178.553681,-6513.812290,-995.924147
290.870747,-7476.080014,-6883.915261,-2451.505594
290.871069,-3775.050304,-8956.491898,-2987.772442
290.871391,-1332.370696,-10436.903782,-2451.505594
290.871713,0.000000,-9918.759623,-1915.238745
290.872034,1554.432478,-11177.109724,153.219100
290.872356,3849.070898,-11843.295072,766.095498
290.872678,5255.462188,-9696.697840,-536.266849
290.873000,5181.441594,-8068.244768,-2834.553343
290.873322,4515.256246,-8216.285956,-2911.162892
290.873644,3478.967927,-9178.553681,-2221.676944
290.873966,1184.329507,-10214.842000,-1149.143247
290.874288,-2072.576638,-10955.047942,842.705048
290.874609,-4737.318029,-11103.089130,1532.190996
290.874931,-6661.853478,-10288.862594,0.000000
290.875253,-8290.306550,-9326.594869,-2221.676944
290.875575,-9474.636058,-7105.977043,-2528.115143
290.875897,-9178.553681,-6513.812290,-2221.676944
290.876219,-7846.182985,-7105.977043,-1838.629195
290.876541,-6143.709319,-8142.265362,-766.095498
290.876863,-3404.947333,-8290.306550,-919.314598
290.877184,-296.082377,-9252.574275,-2068.457845
290.877506,2072.576638,-11103.089130,-2451.505594
290.877828,3552.988522,-11399.171507,-1762.019645
290.878150,4663.297435,-10436.903782,-766.095498
290.878472,5699.585753,-9178.553681,-1302.362347
290.878794,6143.709319,-8290.306550,-2068.457845
290.879116,5033.400406,-8364.327145,-1378.971896
290.879438,2294.638420,-9030.512492,-766.095498
290.879759,-962.267725,-9622.677246,-536.266849
290.880081,-3404.947333,-9548.656652,0.000000
290.880403,-4589.276840,-9400.615463,-919.314598
290.880725,-5625.565159,-8660.409521,-1302.362347
290.881047,-6217.729913,-7624.121203,-2451.505594
290.881369,-5477.523971,-7179.997637,-1915.238745
290.881691,-3552.988522,-8290.306550,-1532.190996
290.882013,-1332.370696,-9844.739029,-1532.190996
290.882334,1258.350101,-10436.903782,-995.924147
290.882656,3849.070898,-11399.171507,-1762.019645
290.882978,5477.523971,-12139.377449,-1072.533697
290.883300,6661.853478,-11325.150913,-229.828649
290.883622,6513.812290,-9252.574275,-1225.752797
290.883944,5773.606348,-8142.265362,-2911.162892
290.884266,4293.194464,-9696.697840,-2451.505594
290.884588,1184.329507,-11251.130318,-1455.581446
290.884909,-1998.556043,-11177.109724,-995.924147
290.885231,-3849.070898,-10658.965565,-1072.533697
290.885553,-4737.318029,-10584.944971,-536.266849
290.885875,-5255.462188,-8956.491898,-689.485948
290.886197,-6587.832884,-6513.812290,-1455.581446
290.886519,-6143.709319,-5699.585753,-1991.848295
290.886841,-3923.091493,-7476.080014,-2451.505594
290.887163,-1332.370696,-8956.491898,-2221.676944
290.887485,814.226536,-9400.615463,-2757.943793
290.887806,2960.823768,-9770.718434,-1608.800546
290.888128,5477.523971,-10732.986159,0.000000
290.888450,7550.100608,-10288.862594,-383.047749
290.888772,8216.285956,-9104.533087,-1915.238745
290.889094,8068.244768,-8364.327145,-2604.724693
290.889416,7105.977043,-8660.409521,-1608.800546
290.889738,3923.091493,-10288.862594,-1072.533697
290.890060,370.102971,-10807.006753,0.000000
290.890381,-2442.679609,-9918.759623,-306.438199
290.890703,-4737.318029,-10140.821405,-1915.238745
290.891025,-6661.853478,-9844.739029,-1991.848295
290.891347,-8438.347739,-7624.121203,-1991.848295
290.891669,-8586.388927,-6217.729913,-2987.772442
290.891991,-5995.668130,-7994.224174,-3447.429741
290.892313,-2442.679609,-10140.821405,-2298.286494
290.892635,-740.205942,-9992.780217,-1225.752797
290.892956,1184.329507,-10584.944971,-689.485948
290.893278,3701.029710,-12361.439231,306.438199
290.893600,5403.503377,-11251.130318,536.266849
290.893922,5403.503377,-8142.265362,-1302.362347
290.894244,5181.441594,-6883.915261,-2834.553343
290.894566,5033.400406,-8956.491898,-2987.772442
290.894888,3256.906145,-9844.739029,-2221.676944
290.895210,0.000000,-10732.986159,-689.485948
290.895531,-3330.926739,-11325.150913,842.705048
290.895853,-5329.482782,-11547.212695,459.657299
290.896175,-7105.977043,-10436.903782,-1225.752797
290.896497,-8438.347739,-8068.244768,-2681.334243
290.896819,-8364.327145,-6217.729913,-2987.772442
290.897141,-7105.977043,-6069.688724,-2834.553343
290.897463,-5403.503377,-7328.038826,-1991.848295
290.897785,-3775.050304,-7698.141797,-842.705048
290.898106,-1480.411884,-8660.409521,-1378.971896
290.898428,1406.391290,-10288.862594,-2221.676944
290.898750,3478.967927,-11473.192101,-1762.019645
290.899072,4367.215058,-10658.965565,-1302.362347
290.899394,5107.421000,-9104.533087,-1302.362347
290.899716,5625.565159,-8364.327145,-1302.362347
290.900038,4663.297435,-8512.368333,-1378.971896
290.900360,2738.761985,-9030.512492,-1072.533697
290.900681,-222.061783,-9548.656652,-995.924147
290.901003,-2738.761985,-10362.883188,-995.924147
290.901325,-4293.194464,-11029.068536,-612.876398
290.901647,-5699.585753,-10436.903782,-995.924147
290.901969,-7254.018232,-8586.388927,-842.705048
290.902291,-7328.038826,-6735.874072,-1762.019645
290.902613,-5107.421000,-7698.141797,-2911.162892
290.902935,-2368.659014,-9252.574275,-2681.334243
290.903256,444.123565,-9992.780217,-1685.410096
290.903578,2442.679609,-10362.883188,-1532.190996
290.903900,5033.400406,-11473.192101,-842.705048
290.904222,6809.894666,-11399.171507,153.219100
290.904544,7031.956449,-9030.512492,-1149.143247
290.904866,6217.729913,-7920.203579,-2604.724693
290.905188,4811.338623,-9474.636058,-3140.991542
290.905510,2368.659014,-11325.150913,-1762.019645
290.905831,-962.267725,-11991.336260,-919.314598
290.906153,-3849.070898,-11843.295072,0.000000
290.906475,-5403.503377,-10584.944971,842.705048
290.906797,-6957.935855,-7698.141797,0.000000
290.907119,-7031.956449,-6439.791695,-3370.820191
290.907441,-5625.565159,-6217.729913,-3370.820191
290.907763,-3330.926739,-7031.956449,-2451.505594
290.908085,-814.226536,-8808.450710,-1302.362347
290.908406,1110.308913,-9918.759623,459.657299
290.908728,3627.009116,-9844.739029,383.047749
290.909050,5255.462188,-10140.821405,-536.266849
290.909372,6143.709319,-10140.821405,0.000000
290.909694,5995.668130,-9104.533087,-306.438199
290.910016,5551.544565,-7772.162391,-1762.019645
290.910338,5921.647536,-8142.265362,-2221.676944
290.910660,5551.544565,-9548.656652,-766.095498
290.910981,2886.803174,-10140.821405,383.047749
290.911303,-518.144159,-9992.780217,919.314598
290.911625,-3404.947333,-9770.718434,459.657299
290.911947,-5477.523971,-8734.430116,-766.095498
290.912269,-7402.059420,-8438.347739,-2451.505594
290.912591,-9030.512492,-7179.997637,-2451.505594
290.912913,-8956.491898,-6661.853478,-2757.943793
290.913235,-6365.771101,-8660.409521,-2987.772442
290.913556,-2886.803174,-9992.780217,-2834.553343
290.913878,0.000000,-11325.150913,-2298.286494
290.914200,2220.617826,-12361.439231,-1915.238745
290.914522,4145.153275,-12657.521608,-306.438199
290.914844,5477.523971,-10732.986159,306.438199
290.915166,5699.585753,-8216.285956,-1608.800546
290.915488,4737.318029,-7402.059420,-3370.820191
290.915810,2516.700203,-8882.471304,-2451.505594
290.916132,-148.041188,-10732.986159,-689.485948
290.916453,-3182.885551,-10955.047942,383.047749
290.916775,-4663.297435,-11325.150913,842.705048
290.917097,-5033.400406,-10288.862594,0.000000
290.917419,-5625.565159,-8734.430116,-1608.800546
290.917741,-5995.668130,-6587.832884,-2528.115143
290.918063,-5773.606348,-5625.565159,-2374.896044
290.918385,-4589.276840,-6587.832884,-2298.286494
290.918707,-3330.926739,-8364.327145,-1762.019645
290.919028,-1554.432478,-9252.574275,-2221.676944
290.919350,592.164754,-9844.739029,-2451.505594
290.919672,3108.864956,-10881.027347,-2528.115143
290.919994,4885.359217,-11399.171507,-1991.848295
290.920316,6143.709319,-10066.800811,-2145.067394
290.920638,6513.812290,-8808.450710,-1685.410096
290.920960,5477.523971,-8882.471304,-2451.505594
290.921282,3404.947333,-9474.636058,-1608.800546
290.921603,370.102971,-9326.594869,-1302.362347
290.921925,-2368.659014,-9474.636058,-2068.457845
290.922247,-3478.967927,-10362.883188,-2068.457845
290.922569,-4737.318029,-10362.883188,-1302.362347
290.922891,-6365.771101,-8734.430116,-536.266849
290.923213,-6735.874072,-6661.853478,-766.095498
290.923535,-4885.359217,-6587.832884,-2451.505594
290.923857,-1850.514855,-8216.285956,-3677.258390
290.924178,148.041188,-9474.636058,-2987.772442
290.924500,2516.700203,-10584.944971,-2221.676944
290.924822,4441.235652,-12213.398043,-1225.752797
290.925144,6513.812290,-12953.603985,1072.533697
290.925466,7550.100608,-10436.903782,229.828649
290.925788,7328.038826,-7624.121203,-2681.334243
290.926110,6143.709319,-8290.306550,-3677.258390
290.926432,3775.050304,-10881.027347,-2528.115143
290.926753,296.082377,-11621.233289,-459.657299
290.927075,-3034.844362,-10955.047942,76.609550
290.927397,-4663.297435,-11325.150913,459.657299
290.927719,-5699.585753,-10288.862594,-766.095498
290.928041,-7698.141797,-7772.162391,-1915.238745
290.928363,-8512.368333,-5995.668130,-2451.505594
290.928685,-7476.080014,-6217.729913,-1608.800546
290.929007,-5699.585753,-7031.956449,-919.314598
290.929328,-4367.215058,-7328.038826,0.000000
290.929650,-2072.576638,-7624.121203,-1149.143247
290.929972,888.247130,-8734.430116,-2298.286494
290.930294,3404.947333,-10807.006753,-2221.676944
290.930616,4589.276840,-11621.233289,-995.924147
290.930938,5699.585753,-10510.924376,-842.705048
290.931260,6735.874072,-10288.862594,-1608.800546
290.931582,6809.894666,-10214.842000,-1378.971896
290.931903,4589.276840,-9918.759623,-153.219100
290.932225,814.226536,-9400.615463,459.657299
290.932547,-2738.761985,-8956.491898,76.609550
290.932869,-3923.091493,-9622.677246,-766.095498
290.933191,-5181.441594,-9696.697840,-1608.800546
290.933513,-6439.791695,-8586.388927,-1072.533697
290.933835,-6365.771101,-7402.059420,-842.705048
290.934157,-4737.318029,-8216.285956,-612.876398
290.934478,-2368.659014,-8956.491898,-383.047749
290.934800,-1258.350101,-8882.471304,-383.047749
290.935122,0.000000,-9252.574275,-1072.533697
290.935444,1702.473667,-10066.800811,-1532.190996
290.935766,3478.967927,-11251.130318,-1608.800546
290.936088,4071.132681,-10658.965565,-1991.848295
290.936410,3552.988522,-9622.677246,-2221.676944
290.936732,3108.864956,-9844.739029,-2221.676944
290.937053,1480.411884,-11843.295072,-2068.457845
290.937375,-1480.411884,-12583.501014,-1302.362347
290.937697,-4293.194464,-11621.233289,-919.314598
290.938019,-5699.585753,-9622.677246,-1072.533697
290.938341,-6069.688724,-8438.347739,-1608.800546
290.938663,-6217.729913,-7031.956449,-2221.676944
290.938985,-6439.791695,-5181.441594,-2451.505594
290.939307,-5477.523971,-5773.606348,-1302.362347
290.939628,-3627.009116,-7698.141797,-383.047749
290.939950,-1110.308913,-8660.409521,-1149.143247
290.940272,1850.514855,-8586.388927,-1532.190996
290.940594,4737.318029,-8956.491898,-1149.143247
290.940916,6957.935855,-9252.574275,-689.485948
290.941237,8290.306550,-8956.491898,-459.657299
290.941559,8660.409521,-8512.368333,-2221.676944
290.941881,8068.244768,-8956.491898,-2757.943793
290.942203,5921.647536,-10510.924376,-2298.286494
290.942525,2442.679609,-11769.274478,-1532.190996
290.942847,-1110.308913,-11621.233289,-1225.752797
290.943168,-3108.864956,-11769.274478,-1072.533697
290.943490,-4219.173869,-10807.006753,-2451.505594
290.943812,-5773.606348,-9400.615463,-2221.676944
290.944134,-7105.977043,-6513.812290,-1608.800546
290.944456,-6587.832884,-4885.359217,-2451.505594
290.944777,-4367.215058,-6217.729913,-3370.820191
290.945099,-1850.514855,-9030.512492,-3217.601092
290.945421,222.061783,-10955.047942,-2451.505594
290.945743,2072.576638,-11843.295072,-1838.629195
290.946065,4737.318029,-12805.562797,-229.828649
290.946387,6587.832884,-11547.212695,1302.362347
290.946708,6809.894666,-8364.327145,-459.657299
290.947030,6365.771101,-6661.853478,-3830.477490
290.947352,5403.503377,-9474.636058,-3983.696590
290.947674,3256.906145,-11843.295072,-2451.505594
290.947996,0.000000,-12139.377449,-842.705048
290.948317,-3108.864956,-12213.398043,306.438199
290.948639,-4071.132681,-12361.439231,842.705048
290.948961,-5477.523971,-10140.821405,-842.705048
290.949283,-6513.812290,-7031.956449,-2911.162892
290.949605,-6587.832884,-5329.482782,-2834.553343
290.949927,-5181.441594,-5921.647536,-1991.848295
290.950248,-4219.173869,-6883.915261,-689.485948
290.950570,-2516.700203,-7402.059420,-229.828649
290.950892,0.000000,-8068.244768,-766.095498
290.951214,2812.782580,-9548.656652,-1685.410096
290.951536,4367.215058,-10881.027347,-1762.019645
290.951857,4367.215058,-10510.924376,-995.924147
290.952179,4589.276840,-9252.574275,-689.485948
