#time,accel_x,accel_y,accel_z
556.796273,-592.164754,-9252.574275,-1455.581446
556.796595,-222.061783,-9474.636058,-1608.800546
556.796917,-148.041188,-9474.636058,-995.924147
556.797240,0.000000,-9696.697840,-1378.971896
556.797562,-370.102971,-9844.739029,-1302.362347
556.797884,-740.205942,-9696.697840,-1378.971896
556.798207,-740.205942,-9548.656652,-1225.752797
556.798529,-592.164754,-9474.636058,-1378.971896
556.798851,-296.082377,-9400.615463,-1532.190996
556.799174,-370.102971,-9326.594869,-1302.362347
556.799496,-370.102971,-9326.594869,-1149.143247
556.799818,-370.102971,-9326.594869,-1225.752797
556.800141,-370.102971,-9252.574275,-1149.143247
556.800463,-296.082377,-9178.553681,-1608.800546
556.800785,-296.082377,-9400.615463,-1302.362347
556.801108,-370.102971,-9326.594869,-1455.581446
556.801430,-222.061783,-9252.574275,-1225.752797
556.801752,-370.102971,-9178.553681,-1378.971896
556.802075,0.000000,-8956.491898,-995.924147
556.802397,-444.123565,-9252.574275,-1149.143247
556.802719,-444.123565,-9178.553681,-1225.752797
556.803042,-518.144159,-9252.574275,-1072.533697
556.803364,-444.123565,-9178.553681,-1378.971896
556.803686,-222.061783,-8808.450710,-1838.629195
556.804009,-296.082377,-9030.512492,-919.314598
556.804331,-518.144159,-9030.512492,-1532.190996
556.804653,-296.082377,-9252.574275,-1455.581446
556.804976,-370.102971,-9252.574275,-1532.190996
556.805298,-518.144159,-9252.574275,-1608.800546
556.805620,0.000000,-9696.697840,-1608.800546
556.805943,-592.164754,-9326.594869,-1225.752797
556.806265,-370.102971,-9326.594869,-1685.410096
556.806587,-296.082377,-9178.553681,-1762.019645
556.806910,-518.144159,-9400.615463,-1838.629195
556.807232,-444.123565,-9178.553681,-1991.848295
556.807554,-370.102971,-9178.553681,-1532.190996
556.807877,-370.102971,-9252.574275,-1685.410096
556.808199,-296.082377,-9400.615463,-2068.457845
556.808521,0.000000,-9474.636058,-1991.848295
556.808844,-148.041188,-9252.574275,-2221.676944
556.809166,-962.267725,-9696.697840,-1532.190996
556.809488,-444.123565,-9548.656652,-2068.457845
556.809811,-370.102971,-9548.656652,-2068.457845
556.810133,-592.164754,-9548.656652,-2374.896044
556.810455,-444.123565,-9474.636058,-2221.676944
556.810778,-370.102971,-9400.615463,-1225.752797
556.811100,-518.144159,-9474.636058,-1685.410096
556.811422,-444.123565,-9474.636058,-2068.457845
556.811745,-370.102971,-9696.697840,-1991.848295
556.812067,-444.123565,-9474.636058,-1991.848295
556.812389,-666.185348,-9622.677246,-1532.190996
556.812712,-592.164754,-9474.636058,-1915.238745
556.813034,-518.144159,-9400.615463,-1991.848295
556.813356,-370.102971,-9474.636058,-1915.238745
556.813679,0.000000,-9178.553681,-1608.800546
556.814001,1036.288319,-9474.636058,-2221.676944
556.814323,2368.659014,-9918.759623,-2221.676944
556.814646,2442.679609,-9474.636058,-842.705048
556.814968,1702.473667,-8660.409521,-306.438199
556.815290,814.226536,-8512.368333,-1225.752797
556.815613,0.000000,-9178.553681,-2451.505594
556.815935,-1258.350101,-9548.656652,-2068.457845
556.816257,-2960.823768,-9400.615463,-1608.800546
556.816580,-3997.112087,-9622.677246,-1915.238745
556.816902,-3478.967927,-9104.533087,-2528.115143
556.817224,-888.247130,-9770.718434,-2451.505594
556.817547,1776.494261,-10807.006753,-1378.971896
556.817869,2590.720797,-10288.862594,0.000000
556.818191,2368.659014,-8956.491898,766.095498
556.818514,1850.514855,-8364.327145,0.000000
556.818836,2294.638420,-9400.615463,-1532.190996
556.819158,2368.659014,-10066.800811,-1991.848295
556.819481,962.267725,-8956.491898,-689.485948
556.819803,-148.041188,-7624.121203,0.000000
556.820125,296.082377,-7105.977043,-536.266849
556.820448,2146.597232,-9030.512492,-2451.505594
556.820770,1924.535449,-10214.842000,-1532.190996
556.821092,0.000000,-9326.594869,306.438199
556.821415,-888.247130,-8438.347739,-766.095498
556.821737,-222.061783,-9252.574275,-3677.258390
556.822059,666.185348,-9548.656652,-3370.820191
556.822382,1110.308913,-10584.944971,-1455.581446
556.822704,1184.329507,-11103.089130,0.000000
556.823026,2442.679609,-9844.739029,-1608.800546
556.823349,4071.132681,-9474.636058,-1608.800546
556.823671,4737.318029,-10807.006753,-383.047749
556.823993,4219.173869,-11325.150913,-383.047749
556.824316,2516.700203,-9474.636058,-995.924147
556.824638,2220.617826,-7994.224174,-1225.752797
556.824960,2220.617826,-7994.224174,-842.705048
556.825283,2220.617826,-8290.306550,-1302.362347
556.825605,1554.432478,-7254.018232,-1378.971896
556.825927,1332.370696,-7846.182985,-1378.971896
556.826250,1850.514855,-9474.636058,-536.266849
556.826572,3034.844362,-10510.924376,-995.924147
556.826894,2516.700203,-9474.636058,-1685.410096
556.827217,1998.556043,-9622.677246,-2221.676944
556.827539,2442.679609,-10140.821405,-1149.143247
556.827861,3034.844362,-9474.636058,-1762.019645
556.828184,3182.885551,-9104.533087,-2987.772442
556.828506,2886.803174,-9252.574275,-2451.505594
556.828828,2960.823768,-10066.800811,-1302.362347
556.829151,3478.967927,-9696.697840,-1149.143247
556.829473,2960.823768,-9548.656652,-2221.676944
556.829795,2590.720797,-9474.636058,-1838.629195
556.830118,2220.617826,-8660.409521,-919.314598
556.830440,1480.411884,-7624.121203,-995.924147
556.830762,444.123565,-7624.121203,-1608.800546
556.831085,0.000000,-8290.306550,-2068.457845
556.831407,-74.020594,-9326.594869,-1608.800546
556.831729,-370.102971,-9770.718434,-919.314598
556.832052,-148.041188,-11177.109724,-1608.800546
556.832374,74.020594,-11917.315666,-1302.362347
556.832696,666.185348,-11621.233289,-459.657299
556.833019,1110.308913,-10732.986159,-536.266849
556.833341,1480.411884,-9548.656652,-1915.238745
556.833663,1406.391290,-8808.450710,-1915.238745
556.833986,1184.329507,-7994.224174,-1762.019645
556.834308,1184.329507,-7920.203579,-1072.533697
556.834630,1258.350101,-8438.347739,-1685.410096
556.834953,1406.391290,-9104.533087,-2451.505594
556.835275,888.247130,-9030.512492,-1225.752797
556.835597,888.247130,-9178.553681,-1072.533697
556.835919,888.247130,-8290.306550,-1991.848295
556.836242,1406.391290,-8068.244768,-2604.724693
556.836564,2072.576638,-8808.450710,-2451.505594
556.836886,1998.556043,-9030.512492,-1762.019645
556.837209,1406.391290,-9696.697840,-1302.362347
556.837531,1036.288319,-10510.924376,-1608.800546
556.837853,962.267725,-11769.274478,-1915.238745
556.838176,1036.288319,-12065.356855,-1532.190996
556.838498,444.123565,-11473.192101,-766.095498
556.838820,1036.288319,-10584.944971,-919.314598
556.839143,1184.329507,-9400.615463,-383.047749
556.839465,1702.473667,-8808.450710,-383.047749
556.839787,2072.576638,-8364.327145,-383.047749
556.840110,2368.659014,-7920.203579,-766.095498
556.840432,3478.967927,-7698.141797,-1608.800546
556.840754,4515.256246,-8068.244768,-1532.190996
556.841077,5255.462188,-8438.347739,-1455.581446
556.841399,4959.379811,-8734.430116,-1378.971896
556.841721,4737.318029,-9030.512492,-1685.410096
556.842044,4293.194464,-10140.821405,-2604.724693
556.842366,3330.926739,-11325.150913,-2604.724693
556.842688,2072.576638,-12287.418637,-1915.238745
556.843011,740.205942,-12065.356855,-995.924147
556.843333,0.000000,-11325.150913,-383.047749
556.843655,444.123565,-9622.677246,0.000000
556.843978,222.061783,-7846.182985,536.266849
556.844300,222.061783,-6291.750507,383.047749
556.844622,666.185348,-4959.379811,0.000000
556.844945,1110.308913,-4515.256246,-383.047749
556.845267,1702.473667,-5181.441594,-919.314598
556.845589,1776.494261,-6217.729913,-995.924147
556.845912,1406.391290,-8512.368333,-1378.971896
556.846234,962.267725,-10066.800811,-1838.629195
556.846556,888.247130,-11695.253884,-2068.457845
556.846879,1036.288319,-11917.315666,-2834.553343
556.847201,592.164754,-11177.109724,-2834.553343
556.847523,74.020594,-11103.089130,-3064.381992
556.847846,-962.267725,-11029.068536,-2911.162892
556.848168,-1332.370696,-11547.212695,-2834.553343
556.848490,-2072.576638,-11991.336260,-2528.115143
556.848813,-2738.761985,-12065.356855,-1532.190996
556.849135,-2590.720797,-11843.295072,-536.266849
556.849457,-1332.370696,-11177.109724,-536.266849
556.849780,0.000000,-9474.636058,0.000000
556.850102,1332.370696,-7846.182985,459.657299
556.850424,2886.803174,-6217.729913,383.047749
556.850747,4515.256246,-4515.256246,0.000000
556.851069,5699.585753,-5181.441594,-919.314598
556.851391,6069.688724,-5847.626942,-842.705048
556.851714,6365.771101,-6883.915261,-1378.971896
556.852036,6587.832884,-8364.327145,-3370.820191
556.852358,6735.874072,-10807.006753,-3677.258390
556.852681,6217.729913,-12435.459826,-3294.210641
556.853003,2812.782580,-12435.459826,-1302.362347
556.853325,-518.144159,-12361.439231,-766.095498
556.853648,-3627.009116,-11103.089130,-1532.190996
556.853970,-5773.606348,-10510.924376,-3983.696590
556.854292,-6365.771101,-9992.780217,-4290.134789
556.854615,-6809.894666,-9104.533087,-2604.724693
556.854937,-6069.688724,-7920.203579,-2451.505594
556.855259,-3256.906145,-8660.409521,-995.924147
556.855582,666.185348,-8364.327145,-383.047749
556.855904,4071.132681,-8660.409521,-1838.629195
556.856226,7105.977043,-10584.944971,-3064.381992
556.856549,9918.759623,-10881.027347,-1762.019645
556.856871,12065.356855,-10362.883188,-766.095498
556.857193,14063.912898,-8438.347739,-536.266849
556.857516,14730.098246,-7550.100608,153.219100
556.857838,13471.748144,-8734.430116,-1378.971896
556.858160,10214.842000,-9400.615463,-536.266849
556.858483,5625.565159,-9770.718434,229.828649
556.858805,1036.288319,-11251.130318,-766.095498
556.859127,-2368.659014,-12213.398043,-1302.362347
556.859450,-4885.359217,-11695.253884,-995.924147
556.859772,-7624.121203,-11325.150913,536.266849
556.860094,-9622.677246,-9474.636058,2834.553343
556.860417,-10510.924376,-5107.421000,2834.553343
556.860739,-9030.512492,-3256.906145,-1685.410096
556.861061,-5403.503377,-4441.235652,-3983.696590
556.861384,-962.267725,-6883.915261,-4749.792088
556.861706,2738.761985,-9104.533087,-3830.477490
556.862028,5847.626942,-10658.965565,-2987.772442
556.862351,9178.553681,-12435.459826,-2681.334243
556.862683,10881.027347,-13471.748144,-3140.991542
556.863005,9548.656652,-12435.459826,-3217.601092
556.863327,5403.503377,-9844.739029,-2528.115143
556.863649,2294.638420,-8660.409521,-3830.477490
556.863971,1184.329507,-10584.944971,-5592.497135
556.864294,296.082377,-12139.377449,-2987.772442
556.864616,-3182.885551,-10807.006753,2451.505594
556.864938,-6069.688724,-10066.800811,5132.839837
556.865260,-6661.853478,-8068.244768,3600.648841
556.865582,-3478.967927,-8734.430116,0.000000
556.865904,-296.082377,-8364.327145,-1072.533697
556.866227,3108.864956,-7476.080014,229.828649
556.866549,6365.771101,-6217.729913,1302.362347
556.866871,11103.089130,-6291.750507,536.266849
556.867193,14211.954086,-7920.203579,-306.438199
556.867515,12879.583391,-9548.656652,-306.438199
556.867837,8364.327145,-10214.842000,76.609550
556.868159,3330.926739,-11325.150913,-3983.696590
556.868482,-592.164754,-14804.118840,-7277.907231
556.868804,-3701.029710,-16432.571912,-4903.011187
556.869126,-7772.162391,-11473.192101,-1685.410096
556.869448,-11843.295072,-6439.791695,-1302.362347
556.869770,-7846.182985,-6587.832884,-2145.067394
556.870092,-4663.297435,-5033.400406,-3447.429741
556.870414,-2960.823768,-7105.977043,-3217.601092
556.870737,-3849.070898,-7476.080014,2221.676944
556.871059,-2368.659014,-7846.182985,4519.963438
556.871381,296.082377,-6513.812290,536.266849
556.871703,4145.153275,-6439.791695,-2911.162892
556.872025,5329.482782,-7402.059420,-2834.553343
556.872347,5255.462188,-8956.491898,-2528.115143
556.872669,5033.400406,-11843.295072,-2298.286494
556.872992,5699.585753,-12731.542202,-1685.410096
556.873314,6883.915261,-11991.336260,-3983.696590
556.873636,7698.141797,-11917.315666,-5362.668486
556.873958,6069.688724,-11843.295072,-3753.867940
556.874280,3256.906145,-11473.192101,-1225.752797
556.874602,296.082377,-10955.047942,0.000000
556.874925,-1110.308913,-10732.986159,-766.095498
556.875247,-2146.597232,-11325.150913,-2145.067394
556.875569,-2664.741391,-11177.109724,-1455.581446
556.875891,-1480.411884,-10584.944971,919.314598
556.876213,2294.638420,-8512.368333,1608.800546
556.876535,6069.688724,-6957.935855,2374.896044
556.876857,7920.203579,-5403.503377,2604.724693
556.877180,8142.265362,-4885.359217,1915.238745
556.877502,7105.977043,-5255.462188,-689.485948
556.877824,5477.523971,-5625.565159,-3370.820191
556.878146,3330.926739,-6957.935855,-4519.963438
556.878468,1628.453072,-8660.409521,-5132.839837
556.878790,-962.267725,-11473.192101,-6205.373534
556.879112,-4219.173869,-14211.954086,-5439.278036
556.879435,-5995.668130,-14730.098246,-2451.505594
556.879757,-4885.359217,-13323.706956,-2451.505594
556.880079,-3330.926739,-11991.336260,-6128.763984
556.880401,-1406.391290,-11621.233289,-5898.935335
556.880723,-592.164754,-11843.295072,-1532.190996
556.881045,666.185348,-10584.944971,2451.505594
556.881368,3775.050304,-9474.636058,2911.162892
556.881690,7105.977043,-9474.636058,536.266849
556.882012,8882.471304,-8734.430116,-229.828649
556.882334,7994.224174,-7476.080014,3753.867940
556.882656,6513.812290,-5477.523971,7967.393179
556.882978,7031.956449,-3775.050304,4596.572988
556.883300,9252.574275,-3478.967927,-1532.190996
556.883623,10214.842000,-5107.421000,-3830.477490
556.883945,8734.430116,-7105.977043,-536.266849
556.884267,4959.379811,-8216.285956,2221.676944
556.884589,1110.308913,-9252.574275,0.000000
556.884911,-1924.535449,-11843.295072,-3140.991542
556.885233,-4885.359217,-12361.439231,-5056.230287
556.885555,-8438.347739,-11473.192101,-5898.935335
556.885878,-10140.821405,-11917.315666,-6052.154434
556.886200,-9252.574275,-12287.418637,-5592.497135
556.886522,-7328.038826,-12213.398043,-3524.039291
556.886844,-6143.709319,-9474.636058,-229.828649
556.887166,-5033.400406,-9400.615463,1072.533697
556.887488,-2812.782580,-10881.027347,-1072.533697
556.887810,-814.226536,-10732.986159,-3217.601092
556.888133,74.020594,-8956.491898,-1378.971896
556.888455,2072.576638,-6661.853478,1915.238745
556.888777,5847.626942,-6217.729913,2221.676944
556.889099,9326.594869,-6069.688724,919.314598
556.889421,10362.883188,-5773.606348,229.828649
556.889743,10066.800811,-7105.977043,306.438199
556.890066,9252.574275,-9326.594869,-306.438199
556.890388,7105.977043,-10436.903782,-995.924147
556.890710,3108.864956,-11917.315666,-2604.724693
556.891032,-1184.329507,-12361.439231,-2528.115143
556.891354,-2442.679609,-11399.171507,-2221.676944
556.891676,-2220.617826,-11251.130318,-4903.011187
556.891998,-1628.453072,-11695.253884,-6205.373534
556.892321,-2886.803174,-10288.862594,-3217.601092
556.892643,-3330.926739,-11621.233289,-919.314598
556.892965,-3034.844362,-12139.377449,306.438199
556.893287,-3404.947333,-11399.171507,-1149.143247
556.893609,-4737.318029,-8364.327145,-2604.724693
556.893931,-2886.803174,-7328.038826,-2911.162892
556.894253,1924.535449,-6365.771101,-2604.724693
556.894576,5181.441594,-6513.812290,-4136.915689
556.894898,7772.162391,-7179.997637,-766.095498
556.895220,9400.615463,-6661.853478,2911.162892
556.895542,10807.006753,-6883.915261,2145.067394
556.895864,9400.615463,-7105.977043,-1302.362347
556.896186,4663.297435,-8068.244768,-2604.724693
556.896508,1406.391290,-10066.800811,-2068.457845
556.896831,592.164754,-11251.130318,-2834.553343
556.897153,148.041188,-10288.862594,-3830.477490
556.897475,-592.164754,-10140.821405,-2834.553343
556.897797,296.082377,-11399.171507,-919.314598
556.898119,740.205942,-15174.221811,0.000000
556.898441,740.205942,-15544.324782,1072.533697
556.898764,-592.164754,-11991.336260,2145.067394
556.899086,-148.041188,-8808.450710,459.657299
556.899408,3701.029710,-8142.265362,-1149.143247
556.899730,7772.162391,-5181.441594,-2221.676944
556.900052,7994.224174,-2368.659014,-2757.943793
556.900374,7402.059420,-3923.091493,383.047749
556.900696,7031.956449,-7328.038826,2757.943793
556.901019,5033.400406,-9844.739029,-229.828649
556.901341,1406.391290,-11399.171507,-4519.963438
556.901663,-2442.679609,-13175.665768,-3830.477490
556.901985,-4663.297435,-12435.459826,-3830.477490
556.902307,-5477.523971,-10288.862594,-4826.401637
556.902629,-5403.503377,-9326.594869,-3524.039291
556.902951,-6957.935855,-9770.718434,-1302.362347
556.903274,-6439.791695,-11325.150913,1302.362347
556.903596,-5107.421000,-11769.274478,536.266849
556.903918,-1776.494261,-13027.624579,-1915.238745
556.904240,2294.638420,-11991.336260,-1838.629195
556.904562,5403.503377,-8882.471304,612.876398
556.904884,6735.874072,-6809.894666,4673.182538
556.905207,7105.977043,-2886.803174,4290.134789
556.905529,5699.585753,-814.226536,0.000000
556.905851,3108.864956,-3552.988522,-2221.676944
556.906173,296.082377,-6587.832884,-2145.067394
556.906495,-2960.823768,-7772.162391,-4290.134789
556.906817,-6439.791695,-9696.697840,-5515.887586
556.907139,-7031.956449,-11325.150913,-4443.353888
556.907462,-7179.997637,-13175.665768,-4366.744339
556.907784,-6513.812290,-14656.077652,-5132.839837
556.908106,-7550.100608,-14656.077652,-6435.202183
556.908428,-6513.812290,-14804.118840,-3830.477490
556.908750,-3923.091493,-13841.851115,-2145.067394
556.909072,-296.082377,-12213.398043,-919.314598
556.909394,2294.638420,-10955.047942,383.047749
556.909717,5921.647536,-7550.100608,919.314598
556.910039,9104.533087,-5403.503377,919.314598
556.910361,10955.047942,-3775.050304,2911.162892
556.910683,9622.677246,-3478.967927,3677.258390
556.911005,6365.771101,-4515.256246,919.314598
556.911327,2294.638420,-5403.503377,-919.314598
556.911649,-1258.350101,-6143.709319,-1532.190996
556.911972,-5773.606348,-8068.244768,-3524.039291
556.912294,-8216.285956,-11103.089130,-5132.839837
556.912616,-7920.203579,-11177.109724,-4903.011187
556.912938,-4811.338623,-13027.624579,-4903.011187
556.913260,-2516.700203,-12953.603985,-4213.525239
556.913582,-1776.494261,-15100.201217,-1685.410096
556.913905,-148.041188,-14211.954086,-1378.971896
556.914227,1924.535449,-12065.356855,-2221.676944
556.914549,2442.679609,-10436.903782,-3064.381992
556.914871,2590.720797,-9770.718434,-2374.896044
556.915193,2220.617826,-6291.750507,0.000000
556.915515,2072.576638,-4737.318029,-383.047749
556.915837,1258.350101,-5625.565159,-766.095498
556.916160,-962.267725,-4219.173869,-306.438199
556.916482,-4071.132681,-3108.864956,-1762.019645
556.916804,-5403.503377,-6957.935855,-3753.867940
556.917126,-4441.235652,-11399.171507,-4213.525239
556.917448,-4293.194464,-12509.480420,-4366.744339
556.917770,-3182.885551,-12213.398043,-2757.943793
556.918092,-666.185348,-12287.418637,-1991.848295
556.918415,3034.844362,-13767.830521,-2451.505594
556.918737,5847.626942,-13027.624579,-2451.505594
556.919059,6143.709319,-11843.295072,-612.876398
556.919381,5921.647536,-11251.130318,229.828649
556.919703,7105.977043,-11843.295072,-306.438199
556.920025,7846.182985,-11325.150913,-536.266849
556.920348,5255.462188,-9178.553681,76.609550
556.920670,-370.102971,-5995.668130,2451.505594
556.920992,-4515.256246,-4663.297435,2834.553343
556.921314,-6217.729913,-3701.029710,-536.266849
556.921636,-7031.956449,-3478.967927,-4136.915689
556.921958,-6735.874072,-6217.729913,-4903.011187
556.922280,-5551.544565,-9252.574275,-2528.115143
556.922603,-3330.926739,-12213.398043,-1608.800546
556.922925,-1628.453072,-13175.665768,-612.876398
556.923247,-518.144159,-13027.624579,-536.266849
556.923569,-740.205942,-12213.398043,-1915.238745
556.923891,-1628.453072,-9992.780217,-2528.115143
556.924213,-1036.288319,-9030.512492,-3447.429741
556.924535,370.102971,-10140.821405,-4290.134789
556.924858,1110.308913,-11473.192101,-2451.505594
556.925180,1184.329507,-10658.965565,1762.019645
556.925502,0.000000,-7476.080014,2604.724693
556.925824,-888.247130,-7031.956449,995.924147
556.926146,-1110.308913,-7402.059420,919.314598
556.926468,-666.185348,-6513.812290,919.314598
556.926790,-1480.411884,-4589.276840,-1378.971896
556.927113,-1702.473667,-4737.318029,-995.924147
556.927435,-814.226536,-6291.750507,0.000000
556.927757,888.247130,-8734.430116,-612.876398
556.928079,1702.473667,-10584.944971,-2068.457845
556.928401,1110.308913,-10955.047942,-2145.067394
556.928723,1036.288319,-12509.480420,-2374.896044
556.929046,518.144159,-14582.057057,-2911.162892
556.929368,-3256.906145,-13767.830521,-2298.286494
556.929690,-7105.977043,-10807.006753,-2374.896044
556.930012,-7254.018232,-8290.306550,-5286.058936
556.930334,-5403.503377,-7846.182985,-7660.954980
556.930656,-3108.864956,-8808.450710,-5286.058936
556.930978,-1628.453072,-8882.471304,-1302.362347
556.931301,74.020594,-9770.718434,0.000000
556.931623,2220.617826,-10214.842000,919.314598
556.931945,2960.823768,-9400.615463,459.657299
556.932267,2516.700203,-7994.224174,-1915.238745
556.932589,2368.659014,-7698.141797,-3447.429741
556.932911,3404.947333,-7105.977043,-2374.896044
556.933233,4145.153275,-7254.018232,-1455.581446
556.933556,3997.112087,-10288.862594,-1302.362347
556.933878,2442.679609,-12657.521608,-842.705048
556.934200,0.000000,-11769.274478,-1149.143247
556.934522,-1628.453072,-11399.171507,-2681.334243
556.934844,-2812.782580,-10955.047942,-3370.820191
556.935166,-2738.761985,-10732.986159,-3753.867940
556.935489,-2294.638420,-8438.347739,-3524.039291
556.935811,-518.144159,-8068.244768,-2221.676944
556.936133,518.144159,-9030.512492,-536.266849
556.936455,2072.576638,-8290.306550,-612.876398
556.936777,2812.782580,-7550.100608,-3064.381992
556.937099,2220.617826,-8142.265362,-2451.505594
556.937421,888.247130,-10807.006753,919.314598
556.937744,0.000000,-10955.047942,919.314598
556.938066,-740.205942,-9622.677246,-2374.896044
556.938388,-1628.453072,-8216.285956,-4136.915689
556.938710,-2590.720797,-7254.018232,-2451.505594
556.939032,-2812.782580,-6809.894666,-842.705048
556.939354,-3552.988522,-7254.018232,-1838.629195
556.939676,-2146.597232,-9844.739029,-2221.676944
556.939999,222.061783,-12139.377449,-1378.971896
556.940321,1924.535449,-12657.521608,-612.876398
556.940643,2294.638420,-11177.109724,536.266849
556.940965,2368.659014,-9696.697840,1302.362347
556.941287,2738.761985,-8364.327145,76.609550
556.941609,2442.679609,-7994.224174,0.000000
556.941931,1332.370696,-6069.688724,536.266849
556.942254,962.267725,-6809.894666,-919.314598
556.942576,222.061783,-9474.636058,-2068.457845
556.942898,-2590.720797,-9770.718434,-229.828649
556.943220,-5773.606348,-9474.636058,0.000000
556.943542,-7402.059420,-9770.718434,-3217.601092
556.943864,-7179.997637,-9622.677246,-5439.278036
556.944187,-6365.771101,-9104.533087,-4136.915689
556.944509,-4589.276840,-10066.800811,-4136.915689
556.944831,-3108.864956,-11473.192101,-2681.334243
556.945153,-1332.370696,-12139.377449,-1072.533697
556.945475,1110.308913,-13249.686362,-383.047749
556.945797,3108.864956,-12731.542202,-689.485948
556.946119,2812.782580,-9474.636058,-1532.190996
556.946442,1850.514855,-6809.894666,-306.438199
556.946764,2368.659014,-5995.668130,229.828649
556.947086,1998.556043,-7846.182985,-995.924147
556.947408,-666.185348,-8068.244768,-612.876398
556.947730,-3478.967927,-6809.894666,919.314598
556.948052,-4589.276840,-7254.018232,-689.485948
556.948374,-3330.926739,-9474.636058,-2374.896044
556.948697,-2368.659014,-9770.718434,-2221.676944
556.949019,-2146.597232,-8660.409521,-1608.800546
556.949341,-740.205942,-8660.409521,-1455.581446
556.949663,592.164754,-8660.409521,-306.438199
556.949985,1702.473667,-9030.512492,-2221.676944
556.950307,1036.288319,-9770.718434,-4290.134789
556.950629,444.123565,-11399.171507,-3753.867940
556.950952,740.205942,-11843.295072,-1225.752797
556.951274,1702.473667,-11473.192101,-1072.533697
556.951596,1702.473667,-10214.842000,-2068.457845
556.951918,222.061783,-8586.388927,-995.924147
556.952240,-1702.473667,-6365.771101,-306.438199
556.952562,-2812.782580,-5995.668130,-2145.067394
556.952885,-2738.761985,-7402.059420,-3983.696590
556.953207,-2516.700203,-8068.244768,-3064.381992
556.953529,-1184.329507,-8956.491898,-1762.019645
556.953851,666.185348,-10881.027347,-229.828649
556.954173,2738.761985,-11325.150913,612.876398
556.954495,4441.235652,-10362.883188,-229.828649
556.954817,4811.338623,-9030.512492,-1838.629195
556.955140,5255.462188,-9548.656652,-1302.362347
556.955462,4737.318029,-9178.553681,-1455.581446
556.955784,3404.947333,-8882.471304,-2451.505594
556.956106,1036.288319,-10066.800811,-1915.238745
556.956428,-2072.576638,-10955.047942,-1915.238745
556.956750,-4737.318029,-10658.965565,-2604.724693
556.957072,-6439.791695,-9770.718434,-3830.477490
556.957395,-7254.018232,-9844.739029,-3830.477490
556.957717,-6439.791695,-10362.883188,-3370.820191
556.958039,-4737.318029,-9400.615463,-3370.820191
556.958361,-2738.761985,-8586.388927,-2604.724693
556.958683,-370.102971,-8882.471304,-842.705048
556.959005,2590.720797,-9548.656652,-1685.410096
556.959328,4145.153275,-9992.780217,-3600.648841
556.959650,3849.070898,-9770.718434,-2221.676944
556.959972,3923.091493,-9400.615463,-306.438199
556.960294,3923.091493,-10658.965565,-612.876398
556.960616,2146.597232,-11325.150913,-995.924147
556.960938,-592.164754,-9104.533087,-383.047749
556.961260,-3256.906145,-7105.977043,-842.705048
556.961583,-3404.947333,-7772.162391,-1685.410096
556.961905,-3849.070898,-8808.450710,0.000000
556.962227,-3775.050304,-8068.244768,0.000000
556.962549,-2220.617826,-7402.059420,-766.095498
556.962871,-296.082377,-7846.182985,-766.095498
556.963194,1406.391290,-8586.388927,1072.533697
556.963516,1480.411884,-8290.306550,-153.219100
556.963838,1480.411884,-8438.347739,-2374.896044
556.964160,1332.370696,-10140.821405,-2298.286494
556.964483,888.247130,-10510.924376,-153.219100
556.964805,0.000000,-10288.862594,-1302.362347
556.965127,-1184.329507,-10436.903782,-3294.210641
556.965449,-1776.494261,-9844.739029,-3983.696590
556.965772,-2960.823768,-9178.553681,-2528.115143
556.966094,-3997.112087,-8956.491898,-1685.410096
556.966416,-5773.606348,-8290.306550,-766.095498
556.966738,-4885.359217,-8956.491898,-3140.991542
556.967060,-2442.679609,-10436.903782,-4290.134789
556.967383,74.020594,-11251.130318,-1225.752797
556.967705,1554.432478,-10436.903782,1915.238745
556.968027,3108.864956,-8734.430116,1225.752797
556.968349,5329.482782,-8808.450710,306.438199
556.968672,6957.935855,-7846.182985,459.657299
556.968994,5921.647536,-7179.997637,0.000000
556.969316,3404.947333,-8142.265362,-1455.581446
556.969638,518.144159,-9474.636058,-2145.067394
556.969961,-1702.473667,-9770.718434,-1685.410096
556.970283,-4219.173869,-9400.615463,-2451.505594
556.970605,-6661.853478,-10288.862594,-2757.943793
556.970927,-7920.203579,-10362.883188,-2911.162892
556.971250,-6069.688724,-10066.800811,-4060.306139
556.971572,-3108.864956,-9548.656652,-4903.011187
556.971894,-296.082377,-9326.594869,-3217.601092
556.972216,1110.308913,-8808.450710,-1225.752797
556.972539,1998.556043,-10362.883188,-1608.800546
556.972861,2590.720797,-10584.944971,-1838.629195
556.973183,2368.659014,-9622.677246,-1915.238745
556.973505,1702.473667,-9030.512492,-1685.410096
556.973828,1480.411884,-9770.718434,-2451.505594
556.974150,1406.391290,-9104.533087,-2374.896044
556.974472,0.000000,-8290.306550,-842.705048
556.974794,-1480.411884,-8068.244768,153.219100
556.975116,-2590.720797,-8290.306550,459.657299
556.975439,-3627.009116,-7550.100608,-383.047749
556.975761,-3330.926739,-6513.812290,-1608.800546
556.976083,-2146.597232,-8216.285956,-3600.648841
556.976405,-592.164754,-10732.986159,-1378.971896
556.976728,1036.288319,-10214.842000,459.657299
556.977050,2812.782580,-9104.533087,-1302.362347
556.977372,3997.112087,-10658.965565,-3140.991542
556.977694,3256.906145,-11621.233289,-2068.457845
556.978017,2294.638420,-11473.192101,-383.047749
556.978339,740.205942,-11251.130318,-2298.286494
556.978661,-1036.288319,-11103.089130,-3524.039291
556.978983,-2516.700203,-8956.491898,-2221.676944
556.979306,-4885.359217,-8512.368333,-2374.896044
556.979628,-5255.462188,-8956.491898,-1378.971896
556.979950,-5477.523971,-8068.244768,-1455.581446
556.980272,-3701.029710,-8438.347739,-2604.724693
556.980595,-1554.432478,-8734.430116,-2987.772442
556.980917,740.205942,-9622.677246,-612.876398
556.981239,2294.638420,-9474.636058,1455.581446
556.981561,3627.009116,-8586.388927,229.828649
556.981884,4737.318029,-9252.574275,-1532.190996
556.982206,4737.318029,-9178.553681,0.000000
556.982528,4737.318029,-7402.059420,0.000000
556.982850,2738.761985,-7846.182985,-1915.238745
556.983173,444.123565,-9844.739029,-1685.410096
556.983495,-1924.535449,-10066.800811,-689.485948
556.983817,-4885.359217,-9696.697840,-2451.505594
556.984139,-6365.771101,-11177.109724,-3217.601092
556.984461,-7105.977043,-11177.109724,-2911.162892
556.984784,-7105.977043,-9770.718434,-1838.629195
556.985106,-5107.421000,-7698.141797,-3447.429741
556.985428,-2516.700203,-7328.038826,-2987.772442
556.985750,518.144159,-8438.347739,-766.095498
556.986073,3923.091493,-9770.718434,0.000000
556.986395,5625.565159,-8882.471304,-1378.971896
556.986717,5773.606348,-9252.574275,-1149.143247
556.987039,5403.503377,-10584.944971,-383.047749
556.987362,4737.318029,-11621.233289,-229.828649
556.987684,2590.720797,-10584.944971,0.000000
556.988006,-1332.370696,-7698.141797,-1532.190996
556.988328,-2590.720797,-7624.121203,-3064.381992
556.988651,-3256.906145,-8882.471304,-2221.676944
556.988973,-4293.194464,-9474.636058,-153.219100
556.989295,-5847.626942,-8808.450710,-306.438199
556.989617,-4959.379811,-8290.306550,-1991.848295
556.989940,-2072.576638,-8512.368333,-3140.991542
556.990262,962.267725,-9548.656652,-1991.848295
556.990584,2146.597232,-10288.862594,-1072.533697
556.990906,2368.659014,-9622.677246,-153.219100
556.991229,2664.741391,-8808.450710,0.000000
556.991551,2516.700203,-8364.327145,-919.314598
556.991873,1480.411884,-10140.821405,-3830.477490
556.992195,-666.185348,-10584.944971,-4290.134789
556.992518,-3182.885551,-10140.821405,-2681.334243
556.992840,-4959.379811,-9696.697840,-1072.533697
556.993162,-5329.482782,-9992.780217,-1455.581446
556.993484,-5847.626942,-9326.594869,-2145.067394
556.993806,-4367.215058,-8882.471304,-3140.991542
556.994129,-1924.535449,-9178.553681,-3753.867940
556.994451,518.144159,-9326.594869,-2221.676944
556.994773,2664.741391,-9548.656652,-536.266849
556.995095,4589.276840,-10140.821405,612.876398
556.995418,5181.441594,-10214.842000,383.047749
556.995740,5477.523971,-9474.636058,-536.266849
556.996062,5625.565159,-8512.368333,-1915.238745
556.996384,5181.441594,-8808.450710,-2068.457845
556.996707,2812.782580,-9252.574275,-1532.190996
556.997029,592.164754,-9400.615463,76.609550
556.997351,-1998.556043,-10066.800811,-459.657299
556.997673,-3256.906145,-10140.821405,-1378.971896
556.997996,-4367.215058,-9474.636058,-2221.676944
556.998318,-3330.926739,-9104.533087,-2681.334243
556.998640,-2960.823768,-8142.265362,-3447.429741
556.998962,-2146.597232,-8438.347739,-919.314598
556.999285,0.000000,-9030.512492,1455.581446
556.999607,2072.576638,-9400.615463,153.219100
556.999929,3034.844362,-8734.430116,-1685.410096
557.000251,1924.535449,-9178.553681,-1991.848295
557.000574,296.082377,-9770.718434,-612.876398
557.000896,-370.102971,-10362.883188,-1149.143247
557.001218,-1036.288319,-10288.862594,-2374.896044
557.001540,-2516.700203,-9770.718434,-3140.991542
557.001863,-4293.194464,-8512.368333,-2221.676944
557.002185,-5773.606348,-9178.553681,-995.924147
557.002507,-6809.894666,-9474.636058,-1302.362347
557.002829,-5033.400406,-9992.780217,-2298.286494
557.003151,-3034.844362,-9252.574275,-3524.039291
557.003474,-888.247130,-8808.450710,-1838.629195
557.003796,1110.308913,-7920.203579,995.924147
557.004118,3256.906145,-8512.368333,-459.657299
557.004440,4367.215058,-9622.677246,-1302.362347
557.004763,4071.132681,-9696.697840,1072.533697
557.005085,3330.926739,-8438.347739,536.266849
557.005407,2590.720797,-9178.553681,-2451.505594
557.005729,1628.453072,-9252.574275,-3370.820191
557.006052,-518.144159,-9474.636058,-2604.724693
557.006374,-3997.112087,-9178.553681,-1149.143247
557.006696,-5921.647536,-8808.450710,-766.095498
557.007018,-6809.894666,-8586.388927,-2451.505594
557.007341,-5181.441594,-8734.430116,-4979.620737
557.007663,-3923.091493,-9622.677246,-4903.011187
557.007985,-2072.576638,-10214.842000,-1915.238745
557.008307,1110.308913,-10140.821405,-459.657299
557.008630,4293.194464,-10140.821405,-536.266849
557.008952,6365.771101,-10510.924376,-1455.581446
557.009274,5921.647536,-9992.780217,0.000000
557.009596,4663.297435,-8216.285956,76.609550
557.009919,3256.906145,-7994.224174,-1991.848295
557.010241,1184.329507,-8660.409521,-2451.505594
557.010563,-740.205942,-9474.636058,-1685.410096
557.010885,-4145.153275,-9030.512492,-2068.457845
557.011208,-5403.503377,-9548.656652,-2221.676944
557.011530,-4811.338623,-10436.903782,-1915.238745
557.011852,-3404.947333,-9696.697840,-2451.505594
557.012174,-1924.535449,-9104.533087,-3370.820191
557.012496,-888.247130,-8364.327145,-1915.238745
557.012819,1036.288319,-8956.491898,-153.219100
557.013141,2886.803174,-10066.800811,-842.705048
557.013463,3997.112087,-10140.821405,-1608.800546
557.013785,3923.091493,-9326.594869,-995.924147
557.014108,4145.153275,-10066.800811,-1225.752797
557.014430,4367.215058,-11547.212695,-689.485948
557.014752,3108.864956,-10362.883188,-153.219100
557.015074,0.000000,-8364.327145,-1455.581446
557.015397,-3404.947333,-7402.059420,-1455.581446
557.015719,-4441.235652,-7402.059420,-842.705048
557.016041,-4145.153275,-7846.182985,-2145.067394
557.016363,-3182.885551,-9104.533087,-4366.744339
557.016686,-3330.926739,-10214.842000,-3294.210641
557.017008,-2294.638420,-9844.739029,306.438199
557.017330,0.000000,-9918.759623,0.000000
557.017652,1036.288319,-11177.109724,-2834.553343
557.017975,1258.350101,-10881.027347,-2221.676944
557.018297,592.164754,-8882.471304,-306.438199
557.018619,592.164754,-7402.059420,-2145.067394
557.018941,666.185348,-9030.512492,-3524.039291
557.019264,0.000000,-9548.656652,-1532.190996
557.019586,-1332.370696,-9400.615463,-536.266849
557.019908,-2072.576638,-9326.594869,-1838.629195
557.020230,-2886.803174,-9844.739029,-2068.457845
557.020552,-2960.823768,-10510.924376,-1762.019645
557.020875,-2368.659014,-10288.862594,-842.705048
557.021197,-1998.556043,-9770.718434,-995.924147
557.021519,-814.226536,-7994.224174,-536.266849
557.021841,888.247130,-7179.997637,-1532.190996
557.022164,2294.638420,-8512.368333,-1072.533697
557.022486,2516.700203,-9696.697840,689.485948
557.022808,1628.453072,-10066.800811,842.705048
557.023130,1036.288319,-10288.862594,-612.876398
557.023453,518.144159,-10510.924376,-1915.238745
557.023775,-740.205942,-9400.615463,-1838.629195
557.024097,-3034.844362,-7920.203579,-2221.676944
557.024419,-5329.482782,-8290.306550,-2221.676944
557.024742,-5921.647536,-9622.677246,-1455.581446
557.025064,-5403.503377,-9030.512492,-1378.971896
557.025386,-4293.194464,-9326.594869,-3064.381992
557.025708,-2664.741391,-10288.862594,-3600.648841
557.026031,-222.061783,-10436.903782,-1302.362347
557.026353,1628.453072,-10066.800811,-153.219100
557.026675,2368.659014,-9400.615463,-153.219100
557.026997,1850.514855,-8586.388927,0.000000
557.027320,1332.370696,-7476.080014,0.000000
557.027642,2072.576638,-8290.306550,-1762.019645
557.027964,2072.576638,-9474.636058,-2298.286494
557.028286,1480.411884,-8956.491898,0.000000
557.028609,-370.102971,-6809.894666,306.438199
557.028931,-1776.494261,-7179.997637,-1072.533697
557.029253,-2590.720797,-9844.739029,-1149.143247
557.029575,-3404.947333,-9474.636058,-1762.019645
557.029897,-3849.070898,-8882.471304,-4596.572988
557.030220,-2516.700203,-10066.800811,-5286.058936
557.030542,74.020594,-10881.027347,-2604.724693
557.030864,2516.700203,-10214.842000,-459.657299
557.031186,3478.967927,-11547.212695,-995.924147
557.031509,4515.256246,-11769.274478,-229.828649
557.031831,4737.318029,-10436.903782,-919.314598
557.032153,4293.194464,-9252.574275,-2834.553343
557.032475,3034.844362,-9622.677246,-2451.505594
557.032798,666.185348,-8068.244768,-536.266849
557.033120,-2368.659014,-5921.647536,-1915.238745
557.033442,-4367.215058,-7105.977043,-3140.991542
557.033764,-4959.379811,-9400.615463,-2987.772442
557.034087,-4589.276840,-10584.944971,-2451.505594
557.034409,-3404.947333,-9696.697840,-2757.943793
557.034731,-814.226536,-10362.883188,-3370.820191
557.035053,814.226536,-11029.068536,-459.657299
557.035376,2516.700203,-11251.130318,995.924147
557.035698,2368.659014,-9918.759623,-842.705048
557.036020,1702.473667,-9030.512492,-1378.971896
557.036342,1406.391290,-7402.059420,-1991.848295
557.036665,1184.329507,-7920.203579,-3140.991542
557.036987,666.185348,-9400.615463,-2681.334243
557.037309,-1036.288319,-9326.594869,-1225.752797
557.037631,-2442.679609,-8438.347739,-1532.190996
557.037954,-2812.782580,-9030.512492,-1991.848295
557.038276,-2886.803174,-10288.862594,-1915.238745
557.038598,-3108.864956,-9622.677246,-995.924147
557.038920,-2664.741391,-8660.409521,-2834.553343
557.039242,-1554.432478,-9474.636058,-3447.429741
557.039565,-518.144159,-9770.718434,-612.876398
557.039887,666.185348,-9696.697840,306.438199
557.040209,1036.288319,-9770.718434,-1378.971896
557.040531,1480.411884,-10288.862594,-1532.190996
557.040854,1924.535449,-9844.739029,-612.876398
557.041176,2146.597232,-8956.491898,-766.095498
557.041498,1776.494261,-9030.512492,-1378.971896
557.041820,0.000000,-8438.347739,-229.828649
557.042143,-1850.514855,-7402.059420,-612.876398
557.042465,-3627.009116,-8142.265362,-1608.800546
557.042787,-4293.194464,-9474.636058,-1225.752797
557.043109,-3923.091493,-11029.068536,-1991.848295
557.043432,-2368.659014,-10658.965565,-3600.648841
557.043754,-296.082377,-10584.944971,-2451.505594
557.044076,1406.391290,-9844.739029,0.000000
557.044398,2368.659014,-8808.450710,-229.828649
557.044721,2516.700203,-8882.471304,-2145.067394
557.045043,1480.411884,-8882.471304,-2681.334243
557.045365,370.102971,-9252.574275,-1915.238745
557.045687,-444.123565,-10140.821405,-2145.067394
557.046010,-1628.453072,-11251.130318,-1455.581446
557.046332,-2960.823768,-10066.800811,-995.924147
557.046654,-4219.173869,-8216.285956,-2451.505594
557.046976,-4219.173869,-8734.430116,-2451.505594
557.047299,-3997.112087,-9326.594869,-1532.190996
557.047621,-2960.823768,-8068.244768,-1455.581446
557.047943,-1628.453072,-7402.059420,-3140.991542
557.048265,74.020594,-8882.471304,-2528.115143
557.048587,2294.638420,-10214.842000,-1302.362347
557.048910,3034.844362,-11325.150913,-536.266849
557.049232,2516.700203,-10066.800811,-229.828649
557.049554,1776.494261,-8364.327145,0.000000
557.049876,2220.617826,-7550.100608,-1072.533697
557.050199,2294.638420,-7772.162391,-1685.410096
557.050521,1702.473667,-9400.615463,-1225.752797
557.050843,-296.082377,-8882.471304,-153.219100
557.051165,-1628.453072,-8142.265362,-536.266849
557.051488,-2960.823768,-8660.409521,-1532.190996
557.051810,-3478.967927,-9696.697840,-995.924147
557.052132,-2812.782580,-9474.636058,-919.314598
557.052454,-1850.514855,-9696.697840,-2987.772442
557.052777,222.061783,-9622.677246,-2834.553343
557.053099,2368.659014,-9474.636058,-1072.533697
557.053421,3627.009116,-9474.636058,-995.924147
557.053743,3108.864956,-9844.739029,-1149.143247
557.054066,2072.576638,-10288.862594,-612.876398
557.054388,2072.576638,-10214.842000,-1838.629195
557.054710,2146.597232,-10066.800811,-3983.696590
557.055032,296.082377,-10510.924376,-2911.162892
557.055355,-1850.514855,-10214.842000,-919.314598
557.055677,-2738.761985,-10584.944971,-689.485948
557.055999,-3182.885551,-10436.903782,-1378.971896
557.056321,-4071.132681,-9104.533087,-1225.752797
557.056643,-3034.844362,-8364.327145,-1762.019645
557.056966,-2072.576638,-8216.285956,-2604.724693
557.057288,0.000000,-8290.306550,-1608.800546
557.057610,592.164754,-8808.450710,383.047749
557.057932,1110.308913,-9326.594869,229.828649
557.058255,592.164754,-9696.697840,-842.705048
557.058577,-592.164754,-8438.347739,-1225.752797
557.058899,-444.123565,-8364.327145,-1991.848295
557.059221,740.205942,-10362.883188,-3294.210641
557.059544,592.164754,-9844.739029,-1838.629195
557.059866,-666.185348,-8660.409521,-842.705048
557.060188,-3034.844362,-8882.471304,-1532.190996
557.060510,-4071.132681,-9548.656652,-1532.190996
557.060833,-4737.318029,-10214.842000,-1608.800546
557.061155,-4737.318029,-9622.677246,-3140.991542
557.061477,-3478.967927,-9400.615463,-3753.867940
557.061799,-2220.617826,-8734.430116,-1838.629195
557.062122,-518.144159,-8142.265362,612.876398
557.062444,1036.288319,-9326.594869,1149.143247
557.062766,1554.432478,-10066.800811,-919.314598
557.063088,1628.453072,-8586.388927,-1608.800546
557.063411,1776.494261,-6513.812290,-1838.629195
557.063733,1924.535449,-7846.182985,-2374.896044
557.064055,1702.473667,-9622.677246,-1762.019645
557.064377,74.020594,-10214.842000,-1072.533697
557.064700,-2220.617826,-9696.697840,-1532.190996
557.065022,-3552.988522,-11029.068536,-1762.019645
557.065344,-3701.029710,-11029.068536,-1838.629195
557.065666,-2738.761985,-9622.677246,-3830.477490
557.065989,-740.205942,-9770.718434,-4903.011187
557.066311,1628.453072,-10436.903782,-1608.800546
557.066633,4219.173869,-9770.718434,612.876398
557.066955,5329.482782,-8364.327145,-306.438199
557.067278,4737.318029,-8216.285956,-1072.533697
557.067600,3182.885551,-8290.306550,-1072.533697
557.067922,1628.453072,-8364.327145,-1532.190996
557.068244,0.000000,-9844.739029,-3294.210641
557.068567,-1554.432478,-11103.089130,-2451.505594
557.068889,-2368.659014,-11251.130318,-2221.676944
557.069211,-3552.988522,-9918.759623,-2451.505594
557.069534,-4589.276840,-9474.636058,-1532.190996
557.069856,-4589.276840,-9992.780217,-1532.190996
557.070178,-3182.885551,-8512.368333,-3140.991542
557.070500,-1258.350101,-7846.182985,-4673.182538
557.070823,0.000000,-8142.265362,-3217.601092
557.071145,1406.391290,-8216.285956,-766.095498
557.071467,1702.473667,-9844.739029,76.609550
557.071789,1554.432478,-10066.800811,-766.095498
557.072112,2146.597232,-10140.821405,-1762.019645
557.072434,2738.761985,-9474.636058,-1991.848295
557.072756,3108.864956,-8290.306550,-1149.143247
557.073078,1628.453072,-8290.306550,-995.924147
557.073401,148.041188,-8290.306550,-306.438199
557.073723,-1554.432478,-9104.533087,-919.314598
557.074045,-4293.194464,-9548.656652,-919.314598
557.074368,-5773.606348,-10288.862594,0.000000
557.074690,-5255.462188,-8142.265362,-2145.067394
557.075012,-3330.926739,-7105.977043,-4903.011187
557.075334,296.082377,-8734.430116,-3370.820191
557.075657,3034.844362,-9696.697840,459.657299
557.075979,4219.173869,-9474.636058,0.000000
557.076301,4589.276840,-9770.718434,-842.705048
557.076623,4071.132681,-10510.924376,-229.828649
557.076946,2886.803174,-10732.986159,-1762.019645
557.077268,222.061783,-10807.006753,-3217.601092
557.077590,-3034.844362,-10214.842000,-1302.362347
557.077913,-4663.297435,-9696.697840,-842.705048
557.078235,-5551.544565,-9326.594869,-1685.410096
557.078557,-5995.668130,-8438.347739,-1532.190996
557.078879,-5699.585753,-8290.306550,-995.924147
557.079202,-4145.153275,-8216.285956,-2145.067394
557.079524,-1258.350101,-9252.574275,-3753.867940
557.079846,888.247130,-10140.821405,-1608.800546
557.080168,2220.617826,-9400.615463,612.876398
557.080491,2590.720797,-9548.656652,-229.828649
557.080813,2960.823768,-9696.697840,-689.485948
557.081135,2294.638420,-9400.615463,0.000000
557.081457,1554.432478,-8734.430116,-2451.505594
557.081780,1776.494261,-10510.924376,-3294.210641
557.082102,1036.288319,-11991.336260,-1915.238745
557.082424,-296.082377,-10288.862594,-229.828649
557.082747,-2442.679609,-9400.615463,-766.095498
557.083069,-3330.926739,-9770.718434,-1302.362347
557.083391,-3627.009116,-9178.553681,-2068.457845
557.083713,-2590.720797,-7920.203579,-2987.772442
557.084036,-1702.473667,-7105.977043,-3140.991542
557.084358,0.000000,-8364.327145,-1072.533697
557.084680,2516.700203,-9992.780217,536.266849
557.085002,3997.112087,-9548.656652,1072.533697
557.085325,4071.132681,-10658.965565,-459.657299
557.085647,3330.926739,-9622.677246,-306.438199
557.085969,2368.659014,-9104.533087,-1149.143247
557.086292,962.267725,-8216.285956,-2451.505594
557.086614,-296.082377,-9326.594869,-1991.848295
557.086936,-2664.741391,-9474.636058,-1455.581446
557.087258,-4737.318029,-9474.636058,-1225.752797
557.087581,-5625.565159,-8438.347739,-1225.752797
557.087903,-4737.318029,-8586.388927,-2298.286494
557.088225,-2294.638420,-9252.574275,-3830.477490
557.088547,-444.123565,-8512.368333,-2911.162892
557.088870,296.082377,-8660.409521,0.000000
557.089192,1406.391290,-9474.636058,766.095498
557.089514,2220.617826,-8586.388927,-1302.362347
557.089837,1924.535449,-8882.471304,-3447.429741
557.090159,1406.391290,-9474.636058,-2221.676944
557.090481,1702.473667,-9770.718434,-2451.505594
557.090803,740.205942,-9770.718434,-2757.943793
557.091126,-370.102971,-9474.636058,-1378.971896
557.091448,-2294.638420,-10436.903782,-1225.752797
557.091770,-4515.256246,-10732.986159,-1838.629195
557.092092,-6143.709319,-9400.615463,-1915.238745
557.092415,-6069.688724,-7920.203579,-3140.991542
557.092737,-3849.070898,-8364.327145,-4903.011187
557.093059,-740.205942,-9474.636058,-3753.867940
557.093381,1184.329507,-9326.594869,-766.095498
557.093704,3330.926739,-10140.821405,536.266849
557.094026,5181.441594,-12435.459826,76.609550
557.094348,5329.482782,-11843.295072,-689.485948
557.094671,3849.070898,-8438.347739,-1149.143247
557.094993,2294.638420,-6587.832884,-2145.067394
557.095315,2146.597232,-7624.121203,-3294.210641
557.095637,666.185348,-9252.574275,-2604.724693
557.095960,-2442.679609,-9400.615463,-1378.971896
557.096282,-5625.565159,-9474.636058,-1378.971896
557.096604,-7031.956449,-10955.047942,-1378.971896
557.096926,-5551.544565,-11251.130318,-2834.553343
557.097249,-4145.153275,-9770.718434,-4213.525239
557.097571,-2368.659014,-9252.574275,-4443.353888
557.097893,-148.041188,-9178.553681,-1915.238745
557.098216,2294.638420,-8586.388927,536.266849
557.098538,3552.988522,-8142.265362,-1072.533697
557.098860,3849.070898,-8586.388927,-2528.115143
557.099182,3182.885551,-9770.718434,-1455.581446
557.099505,2368.659014,-10066.800811,-306.438199
557.099827,1628.453072,-10066.800811,-383.047749
557.100149,148.041188,-9918.759623,-306.438199
557.100471,-2368.659014,-8734.430116,0.000000
557.100794,-2886.803174,-8142.265362,-459.657299
557.101116,-3478.967927,-8956.491898,-536.266849
557.101438,-3330.926739,-9030.512492,-459.657299
557.101761,-2368.659014,-7624.121203,-1378.971896
557.102083,-1184.329507,-7179.997637,-2221.676944
557.102405,592.164754,-8956.491898,-383.047749
557.102727,2368.659014,-10140.821405,76.609550
557.103050,2886.803174,-10066.800811,-1991.848295
557.103372,2738.761985,-10362.883188,-1532.190996
557.103694,3256.906145,-10658.965565,229.828649
557.104016,3182.885551,-9696.697840,-1072.533697
557.104339,2146.597232,-8882.471304,-2221.676944
557.104661,0.000000,-9030.512492,-1915.238745
557.104983,-2664.741391,-9030.512492,-1608.800546
557.105305,-5551.544565,-9844.739029,-1991.848295
557.105628,-7550.100608,-9918.759623,-1455.581446
557.105950,-6735.874072,-9548.656652,-2757.943793
557.106272,-3404.947333,-9622.677246,-4366.744339
557.106595,-444.123565,-8734.430116,-3524.039291
557.106917,814.226536,-8364.327145,306.438199
557.107239,1480.411884,-8808.450710,1915.238745
557.107561,2960.823768,-8808.450710,153.219100
557.107884,3478.967927,-9548.656652,-2145.067394
557.108206,3404.947333,-9400.615463,-2757.943793
557.108528,3034.844362,-9696.697840,-3064.381992
557.108850,2442.679609,-10214.842000,-1685.410096
557.109173,1332.370696,-9622.677246,383.047749
557.109495,-814.226536,-8660.409521,0.000000
557.109817,-2738.761985,-9474.636058,-1915.238745
557.110140,-4293.194464,-9992.780217,-2221.676944
557.110462,-4959.379811,-9326.594869,-2834.553343
557.110784,-4219.173869,-9178.553681,-3447.429741
557.111106,-2368.659014,-9474.636058,-2528.115143
557.111429,296.082377,-9474.636058,-766.095498
557.111751,2812.782580,-9252.574275,-612.876398
557.112073,3849.070898,-9622.677246,-459.657299
557.112395,3701.029710,-9400.615463,-612.876398
557.112718,2886.803174,-9104.533087,-612.876398
557.113040,1998.556043,-9548.656652,-2528.115143
557.113362,370.102971,-10807.006753,-1762.019645
557.113684,-1554.432478,-10362.883188,-766.095498
557.114007,-3849.070898,-8364.327145,-1762.019645
557.114329,-4737.318029,-7105.977043,-2451.505594
557.114651,-4441.235652,-7550.100608,-1378.971896
557.114974,-4145.153275,-8512.368333,-1915.238745
557.115296,-2886.803174,-9030.512492,-2451.505594
557.115618,-2368.659014,-9030.512492,-1991.848295
557.115940,-962.267725,-9104.533087,-459.657299
557.116263,222.061783,-9474.636058,-842.705048
557.116585,814.226536,-9474.636058,-2374.896044
557.116907,148.041188,-9400.615463,-1455.581446
557.117229,518.144159,-8364.327145,-1225.752797
557.117552,2072.576638,-9622.677246,-3064.381992
557.117874,1850.514855,-11177.109724,-2528.115143
557.118196,-148.041188,-10288.862594,-919.314598
557.118519,-2294.638420,-10288.862594,-1455.581446
557.118841,-2960.823768,-9844.739029,-3217.601092
557.119163,-3256.906145,-9844.739029,-3217.601092
557.119485,-3627.009116,-8438.347739,-2068.457845
557.119808,-2516.700203,-8216.285956,-2451.505594
557.120130,-518.144159,-9030.512492,-2528.115143
557.120452,2516.700203,-9696.697840,-1685.410096
557.120774,5033.400406,-10362.883188,-153.219100
557.121097,5329.482782,-10362.883188,306.438199
557.121419,4737.318029,-9030.512492,1455.581446
557.121741,5181.441594,-8660.409521,229.828649
557.122064,4959.379811,-9474.636058,-2681.334243
557.122386,2664.741391,-9918.759623,-2145.067394
557.122708,-1110.308913,-9326.594869,-229.828649
557.123030,-3627.009116,-7402.059420,-995.924147
557.123353,-4219.173869,-7846.182985,-3217.601092
557.123675,-4811.338623,-9844.739029,-2834.553343
557.123997,-3923.091493,-11917.315666,-1685.410096
557.124319,-3478.967927,-10732.986159,-2221.676944
557.124642,-3478.967927,-10510.924376,-1915.238745
557.124964,-2368.659014,-9030.512492,153.219100
557.125286,222.061783,-7920.203579,-1302.362347
557.125608,666.185348,-8142.265362,-3370.820191
557.125931,0.000000,-8438.347739,-1532.190996
557.126253,222.061783,-8142.265362,0.000000
557.126575,1998.556043,-9252.574275,-1915.238745
557.126898,3108.864956,-11621.233289,-2068.457845
557.127220,2146.597232,-11621.233289,76.609550
557.127542,-666.185348,-8660.409521,1149.143247
557.127864,-2146.597232,-7402.059420,689.485948
557.128187,-1850.514855,-7920.203579,-1072.533697
557.128509,-1554.432478,-7105.977043,-2374.896044
557.128831,-2146.597232,-7328.038826,-2451.505594
557.129153,-1554.432478,-8364.327145,-383.047749
557.129476,-222.061783,-9696.697840,689.485948
557.129798,1554.432478,-10362.883188,-766.095498
557.130120,2664.741391,-10510.924376,-1685.410096
557.130443,2294.638420,-10658.965565,-919.314598
557.130765,2072.576638,-9992.780217,-536.266849
557.131087,1554.432478,-9400.615463,-2221.676944
557.131409,-222.061783,-9252.574275,-2987.772442
557.131732,-2590.720797,-8808.450710,-2604.724693
557.132054,-4441.235652,-8956.491898,-3907.087040
557.132376,-5477.523971,-9474.636058,-4673.182538
557.132698,-5181.441594,-10584.944971,-3140.991542
557.133021,-3478.967927,-10955.047942,-2987.772442
557.133343,-1406.391290,-11399.171507,-2528.115143
557.133665,-740.205942,-11103.089130,-842.705048
557.133987,0.000000,-10214.842000,766.095498
557.134310,962.267725,-8290.306550,-1302.362347
557.134632,2220.617826,-7105.977043,-3600.648841
557.134954,2664.741391,-7550.100608,-2374.896044
557.135277,2442.679609,-8068.244768,-459.657299
557.135599,2368.659014,-8660.409521,-1455.581446
557.135921,1554.432478,-11103.089130,-1302.362347
557.136243,148.041188,-11991.336260,-383.047749
557.136566,-2516.700203,-10658.965565,-995.924147
557.136888,-4219.173869,-8956.491898,-2451.505594
557.137210,-4367.215058,-8290.306550,-2911.162892
557.137532,-3627.009116,-7994.224174,-2757.943793
557.137855,-2294.638420,-8660.409521,-2374.896044
557.138177,-1702.473667,-8956.491898,-1149.143247
557.138499,-222.061783,-9030.512492,-536.266849
557.138822,2368.659014,-9992.780217,-2604.724693
557.139144,3404.947333,-11325.150913,-1762.019645
557.139466,2812.782580,-11029.068536,0.000000
557.139788,1850.514855,-8734.430116,0.000000
557.140111,1554.432478,-7402.059420,-1915.238745
557.140433,1036.288319,-7402.059420,-2298.286494
557.140755,-1850.514855,-7402.059420,-2221.676944
557.141077,-4071.132681,-7550.100608,-2681.334243
557.141400,-4293.194464,-7402.059420,-2987.772442
557.141722,-3182.885551,-9400.615463,-2451.505594
557.142044,-1406.391290,-11399.171507,-1455.581446
557.142367,-370.102971,-11843.295072,-306.438199
557.142689,222.061783,-11103.089130,-306.438199
557.143011,2146.597232,-10288.862594,-383.047749
557.143333,3627.009116,-8586.388927,-1991.848295
557.143656,3478.967927,-7772.162391,-2451.505594
557.143978,3108.864956,-6587.832884,-1072.533697
557.144300,2812.782580,-6587.832884,-766.095498
557.144622,2812.782580,-8808.450710,-1378.971896
557.144945,2220.617826,-11177.109724,-612.876398
557.145267,-592.164754,-10436.903782,-306.438199
557.145589,-3330.926739,-9770.718434,-2681.334243
557.145911,-5033.400406,-9918.759623,-2221.676944
557.146234,-5995.668130,-9622.677246,-2145.067394
557.146556,-4811.338623,-9474.636058,-2987.772442
557.146878,-3182.885551,-9992.780217,-4519.963438
557.147201,-1036.288319,-10881.027347,-2604.724693
557.147523,74.020594,-10955.047942,0.000000
557.147845,2072.576638,-11843.295072,-306.438199
557.148167,2368.659014,-11325.150913,-612.876398
557.148490,2442.679609,-8882.471304,-919.314598
557.148812,2442.679609,-7254.018232,-1302.362347
557.149134,1628.453072,-7550.100608,-919.314598
557.149456,-1258.350101,-7254.018232,1302.362347
557.149779,-3923.091493,-7254.018232,689.485948
557.150101,-4441.235652,-7772.162391,-2451.505594
557.150423,-3849.070898,-8956.491898,-2987.772442
557.150746,-3478.967927,-10066.800811,-1455.581446
557.151068,-3108.864956,-9844.739029,-536.266849
557.151390,-2812.782580,-10436.903782,-919.314598
557.151712,-1998.556043,-10288.862594,-306.438199
557.152035,-370.102971,-10436.903782,-1915.238745
557.152357,-740.205942,-9474.636058,-2604.724693
557.152679,-1776.494261,-8956.491898,-1455.581446
557.153001,-2812.782580,-7179.997637,-1225.752797
557.153324,-1850.514855,-8734.430116,-1915.238745
557.153646,-962.267725,-9844.739029,-2068.457845
557.153968,-1332.370696,-11103.089130,-536.266849
557.154290,-2072.576638,-9178.553681,842.705048
557.154613,-2442.679609,-8216.285956,-2451.505594
557.154935,-4589.276840,-8586.388927,-2221.676944
557.155257,-5255.462188,-9104.533087,-1225.752797
557.155580,-5699.585753,-8586.388927,-1991.848295
557.155902,-4811.338623,-8142.265362,-2987.772442
557.156224,-1628.453072,-8734.430116,-3524.039291
557.156546,370.102971,-9622.677246,-2451.505594
557.156869,2664.741391,-10955.047942,-689.485948
557.157191,2368.659014,-11251.130318,0.000000
557.157513,1850.514855,-10732.986159,-306.438199
557.157835,296.082377,-8882.471304,-1991.848295
557.158158,-888.247130,-9104.533087,-4596.572988
557.158480,-2590.720797,-9622.677246,-4136.915689
557.158802,-4293.194464,-9918.759623,-3294.210641
557.159125,-5995.668130,-8956.491898,-2451.505594
557.159447,-7179.997637,-8882.471304,-2145.067394
557.159769,-6587.832884,-9992.780217,-1532.190996
557.160091,-5625.565159,-10955.047942,-2528.115143
557.160414,-4811.338623,-10066.800811,-2757.943793
557.160736,-2516.700203,-9474.636058,-2145.067394
557.161058,-666.185348,-9030.512492,-1915.238745
557.161380,592.164754,-7624.121203,-766.095498
557.161703,1480.411884,-7179.997637,-306.438199
557.162025,1628.453072,-7698.141797,-1991.848295
557.162347,296.082377,-8586.388927,-2298.286494
557.162670,-1036.288319,-9918.759623,-1072.533697
557.162992,-1110.308913,-10881.027347,-1378.971896
557.163315,-1850.514855,-11177.109724,-1991.848295
557.163637,-3256.906145,-9918.759623,-1685.410096
557.163960,-5255.462188,-7105.977043,-1149.143247
557.164282,-5625.565159,-7254.018232,-2604.724693
557.164605,-6513.812290,-8142.265362,-3753.867940
557.164927,-7772.162391,-8956.491898,-2451.505594
557.165250,-7920.203579,-9548.656652,-1455.581446
557.165572,-4737.318029,-10436.903782,-2145.067394
557.165895,-740.205942,-11177.109724,-2145.067394
557.166217,1702.473667,-10214.842000,-689.485948
557.166540,3256.906145,-7550.100608,689.485948
557.166862,4737.318029,-6883.915261,383.047749
557.167185,4145.153275,-7476.080014,-1302.362347
557.167507,370.102971,-7846.182985,-1225.752797
557.167830,-3849.070898,-7920.203579,-995.924147
557.168152,-4737.318029,-8660.409521,-2757.943793
557.168475,-3775.050304,-9400.615463,-5439.278036
557.168797,-4145.153275,-9844.739029,-4903.011187
557.169120,-5847.626942,-9918.759623,-1608.800546
557.169442,-6143.709319,-11695.253884,-919.314598
557.169765,-6365.771101,-12805.562797,-1225.752797
557.170087,-7476.080014,-13545.768739,-1455.581446
557.170410,-7476.080014,-11177.109724,-1838.629195
557.170732,-5181.441594,-8364.327145,-3830.477490
557.171055,0.000000,-7772.162391,-4366.744339
557.171377,4145.153275,-7994.224174,-1149.143247
557.171700,5847.626942,-7105.977043,2834.553343
557.172022,6957.935855,-6957.935855,3294.210641
557.172345,6809.894666,-8142.265362,-153.219100
557.172667,4367.215058,-10510.924376,-3064.381992
557.172989,-1258.350101,-11029.068536,-1915.238745
557.173312,-5995.668130,-9104.533087,-153.219100
557.173634,-6661.853478,-7328.038826,-2221.676944
557.173957,-4811.338623,-8512.368333,-5132.839837
557.174279,-6143.709319,-9918.759623,-3294.210641
557.174602,-9178.553681,-9770.718434,-459.657299
557.174924,-9770.718434,-11769.274478,-842.705048
557.175247,-7846.182985,-15174.221811,-3677.258390
557.175569,-6069.688724,-15322.262999,-3217.601092
557.175892,-7105.977043,-10807.006753,-842.705048
557.176214,-6291.750507,-5921.647536,536.266849
557.176537,-1554.432478,-4441.235652,306.438199
557.176859,4071.132681,-5551.544565,-1608.800546
557.177182,6439.791695,-5921.647536,-2528.115143
557.177504,5107.421000,-6217.729913,1762.019645
557.177827,4145.153275,-6439.791695,3524.039291
557.178149,3552.988522,-8290.306550,536.266849
557.178472,1258.350101,-10732.986159,-2681.334243
557.178794,-3701.029710,-10807.006753,-3830.477490
557.179117,-8142.265362,-9252.574275,-2451.505594
557.179439,-9696.697840,-8660.409521,-4213.525239
557.179762,-8882.471304,-10881.027347,-5669.106685
557.180084,-7105.977043,-13175.665768,-4826.401637
557.180407,-5847.626942,-12435.459826,-2451.505594
557.180729,-4885.359217,-11843.295072,0.000000
557.181052,-2072.576638,-11991.336260,459.657299
557.181374,296.082377,-10658.965565,-1149.143247
557.181697,74.020594,-8882.471304,-2604.724693
557.182019,-1554.432478,-6883.915261,459.657299
557.182342,-1480.411884,-6291.750507,2757.943793
557.182664,-148.041188,-5403.503377,0.000000
557.182987,1332.370696,-5255.462188,-2221.676944
557.183309,2442.679609,-6217.729913,-2145.067394
557.183631,2738.761985,-8068.244768,-1149.143247
557.183954,2368.659014,-10732.986159,306.438199
557.184276,1628.453072,-10955.047942,-612.876398
557.184599,0.000000,-11103.089130,-4366.744339
557.184921,-2368.659014,-11325.150913,-6358.592633
557.185244,-5477.523971,-12139.377449,-4979.620737
557.185566,-8216.285956,-12805.562797,-2987.772442
557.185889,-8660.409521,-12435.459826,-2757.943793
557.186211,-6513.812290,-12287.418637,-3830.477490
557.186534,-4145.153275,-10658.965565,-2834.553343
557.186856,-2812.782580,-8142.265362,-995.924147
557.187179,-1332.370696,-7179.997637,612.876398
557.187501,148.041188,-5773.606348,1532.190996
557.187824,1184.329507,-3923.091493,306.438199
557.188146,0.000000,-2664.741391,-1302.362347
557.188469,-2146.597232,-5181.441594,-1532.190996
557.188791,-5033.400406,-9474.636058,-1378.971896
557.189114,-7476.080014,-12139.377449,-1532.190996
557.189436,-7402.059420,-12583.501014,-2298.286494
557.189759,-4959.379811,-12287.418637,-4596.572988
557.190081,-1110.308913,-11621.233289,-5286.058936
557.190404,592.164754,-9992.780217,-3830.477490
557.190726,814.226536,-8882.471304,-1532.190996
557.191049,1184.329507,-8290.306550,-1302.362347
557.191371,2072.576638,-9474.636058,-2145.067394
557.191694,1036.288319,-9844.739029,-3370.820191
557.192016,-1258.350101,-9474.636058,-3677.258390
557.192339,-3552.988522,-10214.842000,-2145.067394
557.192661,-4293.194464,-10807.006753,1225.752797
557.192984,-3997.112087,-9548.656652,1608.800546
557.193306,-3552.988522,-7476.080014,-1302.362347
557.193629,-3775.050304,-5847.626942,-2834.553343
557.193951,-3997.112087,-5477.523971,-1915.238745
557.194274,-4737.318029,-5921.647536,-1455.581446
557.194596,-4885.359217,-8808.450710,-2757.943793
557.194918,-3997.112087,-11843.295072,-3294.210641
557.195241,-3478.967927,-12731.542202,-3370.820191
557.195563,-2886.803174,-12583.501014,-3217.601092
557.195886,-1776.494261,-12879.583391,-2145.067394
557.196208,148.041188,-12583.501014,-2528.115143
557.196531,666.185348,-11917.315666,-3217.601092
557.196853,0.000000,-11325.150913,-995.924147
557.197176,-2590.720797,-9770.718434,1302.362347
557.197498,-4811.338623,-8734.430116,0.000000
557.197821,-5329.482782,-7105.977043,-995.924147
557.198143,-5551.544565,-5255.462188,-1991.848295
557.198466,-4663.297435,-4293.194464,-2145.067394
557.198788,-3701.029710,-4145.153275,-2298.286494
557.199111,-2220.617826,-5551.544565,-1915.238745
557.199433,-518.144159,-8216.285956,-1915.238745
557.199756,222.061783,-10362.883188,-1762.019645
557.200078,0.000000,-11695.253884,-2528.115143
557.200401,-1110.308913,-12509.480420,-3370.820191
557.200723,-1924.535449,-13175.665768,-2757.943793
557.201046,-2146.597232,-12657.521608,-2757.943793
557.201368,-2442.679609,-11473.192101,-2451.505594
557.201691,-2590.720797,-11103.089130,-1072.533697
557.202013,-2516.700203,-9622.677246,383.047749
557.202336,-2664.741391,-8216.285956,919.314598
557.202658,-2368.659014,-7698.141797,842.705048
557.202981,-1480.411884,-7179.997637,1685.410096
557.203303,-370.102971,-5995.668130,1838.629195
557.203626,888.247130,-4737.318029,842.705048
557.203948,1554.432478,-5255.462188,306.438199
557.204271,1554.432478,-6217.729913,995.924147
557.204593,1406.391290,-7254.018232,1455.581446
557.204916,1776.494261,-9622.677246,-612.876398
557.205238,1480.411884,-12509.480420,-4596.572988
557.205560,-148.041188,-14137.933492,-4290.134789
557.205883,-2886.803174,-13397.727550,-2528.115143
557.206205,-6069.688724,-13101.645173,-2221.676944
557.206528,-7772.162391,-13841.851115,-2145.067394
557.206850,-10658.965565,-11769.274478,-2604.724693
557.207173,-12435.459826,-8660.409521,-3217.601092
557.207495,-12953.603985,-6809.894666,-3677.258390
557.207818,-9696.697840,-7550.100608,-2221.676944
557.208140,-5921.647536,-6291.750507,-919.314598
557.208463,-1850.514855,-4367.215058,-229.828649
557.208785,888.247130,-2886.803174,689.485948
557.209108,3182.885551,-3923.091493,-459.657299
557.209430,4515.256246,-7328.038826,-2298.286494
557.209753,3923.091493,-10510.924376,-3677.258390
557.210075,2738.761985,-12953.603985,-3447.429741
557.210398,148.041188,-13841.851115,-2604.724693
557.210720,-518.144159,-14656.077652,-2298.286494
557.211043,-2072.576638,-13841.851115,-2298.286494
557.211365,-3701.029710,-11399.171507,-2451.505594
557.211688,-6513.812290,-9252.574275,-2528.115143
557.212010,-7179.997637,-8882.471304,-2451.505594
557.212333,-7476.080014,-8882.471304,-2757.943793
557.212655,-7105.977043,-9252.574275,-2681.334243
557.212978,-6143.709319,-9104.533087,0.000000
557.213300,-4959.379811,-8290.306550,2068.457845
557.213623,-3330.926739,-7179.997637,919.314598
557.213945,-962.267725,-6439.791695,-229.828649
557.214268,1110.308913,-5995.668130,-1532.190996
557.214590,3182.885551,-5403.503377,-1762.019645
557.214913,5255.462188,-6143.709319,-2757.943793
557.215235,5403.503377,-8068.244768,-3217.601092
557.215558,4367.215058,-10362.883188,-3217.601092
557.215880,2368.659014,-12287.418637,-3140.991542
557.216203,-1628.453072,-13619.789333,-3447.429741
557.216525,-5551.544565,-15618.345376,-3983.696590
557.216847,-8512.368333,-15396.283594,-3677.258390
557.217170,-9474.636058,-12361.439231,-3830.477490
557.217492,-8956.491898,-9844.739029,-3830.477490
557.217815,-7402.059420,-7994.224174,-2528.115143
557.218137,-5255.462188,-7105.977043,-1532.190996
557.218460,-3478.967927,-5847.626942,-1149.143247
557.218782,-2294.638420,-4589.276840,995.924147
557.219105,-2294.638420,-4515.256246,0.000000
557.219427,-2294.638420,-6883.915261,-1685.410096
557.219750,-2072.576638,-9474.636058,-2757.943793
557.220072,-2294.638420,-10436.903782,-3600.648841
557.220395,-1998.556043,-11547.212695,-3140.991542
557.220717,-1184.329507,-13027.624579,-153.219100
557.221040,-296.082377,-11843.295072,842.705048
557.221362,888.247130,-9474.636058,-689.485948
557.221685,2220.617826,-9474.636058,-2451.505594
557.222007,2590.720797,-11029.068536,-1915.238745
557.222330,1184.329507,-10436.903782,0.000000
557.222652,-592.164754,-7994.224174,689.485948
557.222975,-2442.679609,-6069.688724,383.047749
557.223297,-3182.885551,-6291.750507,-306.438199
557.223620,-3997.112087,-5773.606348,-1455.581446
557.223942,-5773.606348,-5329.482782,-2528.115143
557.224265,-6883.915261,-6513.812290,-2834.553343
557.224587,-6217.729913,-8808.450710,-2221.676944
557.224910,-5477.523971,-9918.759623,-2757.943793
557.225232,-5107.421000,-9918.759623,-3294.210641
557.225555,-4811.338623,-11325.150913,-3983.696590
557.225877,-5107.421000,-13175.665768,-4903.011187
557.226200,-4515.256246,-14359.995275,-3600.648841
557.226522,-4737.318029,-13545.768739,-1608.800546
557.226845,-4293.194464,-11473.192101,-1532.190996
557.227167,-2368.659014,-10732.986159,-1762.019645
557.227489,-222.061783,-9770.718434,-919.314598
557.227812,814.226536,-8142.265362,-306.438199
557.228134,1702.473667,-6291.750507,842.705048
557.228457,2886.803174,-5773.606348,2221.676944
557.228779,3701.029710,-5699.585753,1991.848295
557.229102,3182.885551,-5921.647536,995.924147
557.229424,1036.288319,-6587.832884,0.000000
557.229747,0.000000,-8586.388927,-689.485948
557.230069,-222.061783,-9770.718434,-1378.971896
557.230392,0.000000,-10955.047942,-1991.848295
557.230714,-296.082377,-11769.274478,-2451.505594
557.231037,-1258.350101,-12139.377449,-1378.971896
557.231359,-1850.514855,-12435.459826,-1149.143247
557.231682,-2960.823768,-11695.253884,-1302.362347
557.232004,-3997.112087,-10955.047942,-2221.676944
557.232327,-4885.359217,-9548.656652,-2911.162892
557.232649,-5995.668130,-8512.368333,-2068.457845
557.232972,-5921.647536,-8216.285956,-1608.800546
557.233294,-5699.585753,-7698.141797,-766.095498
557.233617,-5255.462188,-7105.977043,-1302.362347
557.233939,-5107.421000,-6365.771101,-1991.848295
557.234262,-4959.379811,-5995.668130,-1991.848295
557.234584,-4737.318029,-7698.141797,-2987.772442
557.234907,-5329.482782,-9104.533087,-2834.553343
557.235229,-5699.585753,-9474.636058,-2068.457845
557.235552,-5329.482782,-9696.697840,-2911.162892
557.235874,-3849.070898,-11103.089130,-4060.306139
557.236197,-1480.411884,-12361.439231,-3447.429741
557.236519,-740.205942,-11991.336260,-2145.067394
557.236842,444.123565,-11695.253884,-689.485948
557.237164,1628.453072,-11843.295072,306.438199
557.237487,1998.556043,-10807.006753,-229.828649
557.237809,962.267725,-9326.594869,306.438199
557.238132,-518.144159,-8438.347739,612.876398
557.238454,-2590.720797,-7476.080014,536.266849
557.238776,-4219.173869,-6217.729913,-383.047749
557.239099,-4737.318029,-5773.606348,-919.314598
557.239421,-4293.194464,-7031.956449,-1149.143247
557.239744,-3330.926739,-8808.450710,-842.705048
557.240066,-2738.761985,-9252.574275,-1608.800546
557.240389,-1480.411884,-10066.800811,-2911.162892
557.240711,-518.144159,-12213.398043,-3907.087040
557.241034,-370.102971,-13693.809927,-2451.505594
557.241356,-1850.514855,-12583.501014,-2221.676944
557.241679,-2960.823768,-11177.109724,-3753.867940
557.242001,-2220.617826,-12509.480420,-4519.963438
557.242324,-1036.288319,-12879.583391,-3294.210641
557.242646,-1258.350101,-11695.253884,-919.314598
557.242969,-1702.473667,-10436.903782,1532.190996
557.243291,-518.144159,-9252.574275,1991.848295
557.243614,592.164754,-7920.203579,919.314598
557.243936,1702.473667,-5847.626942,995.924147
557.244259,2072.576638,-5255.462188,1149.143247
557.244581,2812.782580,-6291.750507,1762.019645
557.244904,3404.947333,-6661.853478,2451.505594
557.245226,2886.803174,-7402.059420,2451.505594
557.245549,3182.885551,-10140.821405,1608.800546
557.245871,2960.823768,-11991.336260,1302.362347
557.246194,2664.741391,-12213.398043,919.314598
557.246516,2738.761985,-11251.130318,612.876398
557.246839,2072.576638,-10584.944971,1532.190996
557.247161,1628.453072,-10362.883188,1915.238745
557.247484,222.061783,-9252.574275,2451.505594
557.247806,-814.226536,-8068.244768,1685.410096
557.248129,-1628.453072,-7624.121203,689.485948
557.248451,-2368.659014,-7994.224174,0.000000
557.248774,-2664.741391,-8364.327145,2298.286494
557.249096,-3182.885551,-8660.409521,3677.258390
557.249418,-2960.823768,-8734.430116,4290.134789
557.249741,-2812.782580,-7920.203579,2757.943793
557.250063,-2516.700203,-7402.059420,1762.019645
557.250386,-2442.679609,-8512.368333,1685.410096
557.250708,-2368.659014,-8956.491898,2374.896044
557.251031,-1924.535449,-9474.636058,2528.115143
557.251353,-2072.576638,-10732.986159,2451.505594
557.251676,-2072.576638,-11843.295072,2451.505594
557.251998,-2812.782580,-11843.295072,2757.943793
557.252321,-2664.741391,-11843.295072,1838.629195
557.252643,-2368.659014,-11621.233289,1685.410096
557.252966,-1554.432478,-11029.068536,2298.286494
557.253288,-1036.288319,-9992.780217,2451.505594
557.253611,-1110.308913,-8882.471304,3294.210641
557.253933,-444.123565,-9104.533087,2987.772442
557.254256,0.000000,-9400.615463,2374.896044
557.254578,-518.144159,-9030.512492,1302.362347
557.254901,-1628.453072,-9252.574275,919.314598
557.255223,-2072.576638,-9622.677246,1072.533697
557.255546,-2368.659014,-10658.965565,689.485948
557.255868,-2886.803174,-10436.903782,-153.219100
557.256191,-3552.988522,-9696.697840,-612.876398
557.256513,-3034.844362,-10288.862594,-1149.143247
557.256836,-2442.679609,-10140.821405,-766.095498
557.257158,-2812.782580,-9548.656652,-383.047749
557.257481,-3108.864956,-8956.491898,0.000000
557.257803,-1776.494261,-8882.471304,-1072.533697
557.258126,518.144159,-8956.491898,-1685.410096
557.258448,2886.803174,-9474.636058,-995.924147
557.258771,4959.379811,-8660.409521,766.095498
557.259093,5921.647536,-7179.997637,689.485948
557.259416,6735.874072,-6587.832884,689.485948
557.259738,6735.874072,-6365.771101,-306.438199
557.260061,5699.585753,-7105.977043,-2068.457845
557.260383,3552.988522,-8068.244768,-3140.991542
557.260705,888.247130,-7698.141797,-2528.115143
557.261028,-2220.617826,-8438.347739,-2834.553343
557.261350,-4293.194464,-11029.068536,-3753.867940
557.261673,-5625.565159,-12435.459826,-3524.039291
557.261995,-5329.482782,-11991.336260,-4979.620737
557.262318,-3330.926739,-11473.192101,-5132.839837
557.262640,-296.082377,-13101.645173,-3983.696590
557.262963,2072.576638,-13027.624579,-1915.238745
557.263285,2960.823768,-11917.315666,612.876398
557.263608,3701.029710,-10140.821405,919.314598
557.263930,4219.173869,-9104.533087,1149.143247
557.264253,5255.462188,-8068.244768,1302.362347
557.264575,4959.379811,-5551.544565,-995.924147
557.264898,3256.906145,-5551.544565,-1149.143247
557.265220,1554.432478,-6957.935855,1072.533697
557.265543,-1036.288319,-6513.812290,1149.143247
557.265865,-4441.235652,-7920.203579,-1685.410096
557.266187,-6439.791695,-11251.130318,-3140.991542
557.266510,-8364.327145,-12435.459826,-3677.258390
557.266832,-8882.471304,-12435.459826,-4903.011187
557.267155,-7105.977043,-15100.201217,-5209.449386
557.267477,-4293.194464,-16580.613101,-1762.019645
557.267799,-2664.741391,-15248.242405,536.266849
557.268122,-1628.453072,-11251.130318,383.047749
557.268444,-1406.391290,-8142.265362,-995.924147
557.268766,-1184.329507,-7402.059420,-1685.410096
557.269089,-1628.453072,-7328.038826,-153.219100
557.269411,-2812.782580,-6439.791695,1455.581446
557.269734,-4811.338623,-6957.935855,2987.772442
557.270056,-4663.297435,-8364.327145,3830.477490
557.270378,-3330.926739,-9474.636058,3907.087040
557.270701,-2886.803174,-9844.739029,4673.182538
557.271023,-3701.029710,-9548.656652,5745.716235
557.271345,-2886.803174,-9400.615463,5745.716235
557.271668,-1258.350101,-6735.874072,4060.306139
557.271990,592.164754,-4367.215058,2068.457845
557.272313,2368.659014,-4441.235652,459.657299
557.272635,4071.132681,-5995.668130,689.485948
557.272957,5255.462188,-8290.306550,2681.334243
557.273280,5477.523971,-9844.739029,5209.449386
557.273602,5699.585753,-11547.212695,4596.572988
557.273924,5329.482782,-12509.480420,3217.601092
557.274247,4515.256246,-12065.356855,3217.601092
557.274569,4071.132681,-9474.636058,3370.820191
557.274892,1850.514855,-8586.388927,1915.238745
557.275214,-518.144159,-7846.182985,4060.306139
557.275536,-3701.029710,-7105.977043,7354.516781
557.275859,-6883.915261,-6661.853478,4903.011187
557.276181,-7328.038826,-10362.883188,1302.362347
557.276504,-4589.276840,-14063.912898,-612.876398
557.276826,-1924.535449,-13397.727550,-306.438199
557.277148,592.164754,-12361.439231,459.657299
557.277471,4145.153275,-11251.130318,3677.258390
557.277793,7920.203579,-10288.862594,3524.039291
557.278115,8290.306550,-9548.656652,612.876398
557.278438,5329.482782,-9030.512492,1915.238745
557.278760,3478.967927,-7550.100608,3294.210641
557.279083,3478.967927,-7846.182985,-2757.943793
557.279405,3775.050304,-12435.459826,-5745.716235
557.279727,3478.967927,-14508.036463,-689.485948
557.280050,-1332.370696,-10066.800811,2451.505594
557.280372,-6217.729913,-9622.677246,2528.115143
557.280694,-8734.430116,-12953.603985,2834.553343
557.281017,-10510.924376,-13175.665768,-1762.019645
557.281339,-14952.160028,-10807.006753,-6511.811733
557.281662,-17320.819043,-9770.718434,-2528.115143
557.281984,-15026.180623,-7624.121203,3294.210641
557.282306,-7994.224174,-4071.132681,-1455.581446
557.282629,222.061783,-3552.988522,-3907.087040
557.282951,6513.812290,-5699.585753,-1302.362347
557.283273,9474.636058,-7402.059420,-459.657299
557.283596,9770.718434,-8956.491898,1378.971896
557.283918,10214.842000,-8438.347739,3370.820191
557.284241,9400.615463,-6735.874072,-2911.162892
557.284563,8290.306550,-7550.100608,-8580.269578
557.284885,5995.668130,-11029.068536,-4826.401637
557.285208,0.000000,-11399.171507,1378.971896
557.285530,-7254.018232,-13471.748144,2374.896044
557.285853,-12213.398043,-15396.283594,3524.039291
557.286175,-13249.686362,-13249.686362,1149.143247
557.286497,-12361.439231,-10214.842000,-7124.688131
557.286820,-8512.368333,-8956.491898,-7277.907231
557.287142,-3775.050304,-7179.997637,306.438199
557.287464,666.185348,-2590.720797,3830.477490
557.287787,3701.029710,-1554.432478,1838.629195
557.288109,6143.709319,-4811.338623,76.609550
557.288432,6143.709319,-8512.368333,-1915.238745
557.288754,4885.359217,-10584.944971,-4596.572988
557.289076,2590.720797,-12583.501014,-4443.353888
557.289399,1184.329507,-15100.201217,-2374.896044
557.289721,2220.617826,-15618.345376,-1378.971896
557.290043,2368.659014,-12879.583391,-919.314598
557.290366,-740.205942,-12287.418637,-1225.752797
557.290688,-2294.638420,-15544.324782,-1685.410096
557.291011,-3108.864956,-14656.077652,-2221.676944
557.291333,-2886.803174,-11843.295072,-383.047749
557.291655,-2220.617826,-7254.018232,1915.238745
557.291978,-666.185348,-4367.215058,1915.238745
557.292300,1628.453072,-4811.338623,1915.238745
557.292622,3775.050304,-4663.297435,2374.896044
557.292945,2738.761985,-3701.029710,1915.238745
557.293267,0.000000,-7031.956449,2145.067394
557.293590,-1850.514855,-10807.006753,3983.696590
557.293912,-2294.638420,-12879.583391,3370.820191
557.294234,-1776.494261,-12435.459826,-229.828649
557.294557,1406.391290,-12509.480420,-383.047749
557.294879,2368.659014,-10658.965565,612.876398
557.295201,1332.370696,-9030.512492,2911.162892
557.295524,0.000000,-9474.636058,3447.429741
557.295846,-2220.617826,-10362.883188,3064.381992
557.296169,-3330.926739,-11399.171507,612.876398
557.296491,-3108.864956,-10807.006753,536.266849
557.296813,-4367.215058,-9844.739029,2681.334243
557.297136,-5033.400406,-8512.368333,6588.421283
557.297458,-4293.194464,-7402.059420,6971.469032
557.297781,-1998.556043,-6883.915261,5592.497135
557.298103,296.082377,-5181.441594,3294.210641
557.298425,1702.473667,-3775.050304,1149.143247
557.298748,2368.659014,-2516.700203,919.314598
557.299070,3256.906145,-5033.400406,766.095498
557.299392,4293.194464,-9104.533087,1225.752797
557.299715,3256.906145,-12879.583391,1685.410096
557.300037,-296.082377,-14063.912898,1762.019645
557.300360,-3849.070898,-14211.954086,383.047749
557.300682,-5403.503377,-15914.427753,-842.705048
557.301004,-5181.441594,-16580.613101,-1685.410096
557.301327,-3552.988522,-15100.201217,383.047749
557.301649,-2886.803174,-10955.047942,2911.162892
557.301971,-962.267725,-7698.141797,3830.477490
557.302294,592.164754,-6069.688724,2068.457845
557.302616,1110.308913,-7105.977043,1302.362347
557.302939,-518.144159,-8290.306550,2068.457845
557.303261,-2072.576638,-7624.121203,2451.505594
557.303583,-1554.432478,-6661.853478,919.314598
557.303906,1628.453072,-6735.874072,-1302.362347
557.304228,3997.112087,-7846.182985,-1225.752797
557.304550,4589.276840,-9104.533087,766.095498
557.304873,3627.009116,-9770.718434,536.266849
557.305195,3034.844362,-10881.027347,-2451.505594
557.305518,1480.411884,-13619.789333,-4979.620737
557.305840,-1850.514855,-15618.345376,-3600.648841
557.306162,-6143.709319,-14878.139434,-1455.581446
557.306485,-8216.285956,-12139.377449,-1915.238745
557.306807,-5847.626942,-11177.109724,-3907.087040
557.307130,-2368.659014,-10955.047942,-3907.087040
557.307452,-1702.473667,-10362.883188,383.047749
557.307774,-1776.494261,-8734.430116,5439.278036
557.308097,0.000000,-6365.771101,6052.154434
557.308419,3478.967927,-4367.215058,1685.410096
557.308741,4515.256246,-3330.926739,-612.876398
557.309064,2294.638420,-2960.823768,2145.067394
557.309386,1036.288319,-2960.823768,3524.039291
557.309709,2220.617826,-4885.359217,1072.533697
557.310031,4441.235652,-7254.018232,-1608.800546
557.310353,5551.544565,-8438.347739,-2221.676944
557.310676,5107.421000,-9770.718434,-2757.943793
557.310998,4293.194464,-11399.171507,-2681.334243
557.311320,1850.514855,-13619.789333,-1915.238745
557.311643,-1850.514855,-14063.912898,-612.876398
557.311965,-5699.585753,-13249.686362,-1685.410096
557.312288,-7624.121203,-12509.480420,-4749.792088
557.312610,-7772.162391,-12139.377449,-5669.106685
557.312932,-6217.729913,-12065.356855,-2451.505594
557.313255,-5181.441594,-10362.883188,1302.362347
557.313577,-2664.741391,-9104.533087,1991.848295
557.313899,-148.041188,-8216.285956,1685.410096
557.314222,740.205942,-6883.915261,1762.019645
557.314544,666.185348,-5995.668130,995.924147
557.314867,814.226536,-6735.874072,-1225.752797
557.315189,1628.453072,-8438.347739,-1149.143247
557.315511,1998.556043,-10362.883188,766.095498
557.315834,1406.391290,-11695.253884,2068.457845
557.316156,888.247130,-12509.480420,153.219100
557.316478,0.000000,-13767.830521,-2068.457845
557.316801,-1924.535449,-13619.789333,-2451.505594
557.317123,-4441.235652,-12435.459826,-1915.238745
557.317446,-5477.523971,-11917.315666,-2987.772442
557.317768,-5625.565159,-12213.398043,-2681.334243
557.318090,-5699.585753,-12953.603985,612.876398
557.318413,-6217.729913,-11251.130318,4366.744339
557.318735,-5625.565159,-9474.636058,3753.867940
557.319058,-4071.132681,-8734.430116,3447.429741
557.319380,-2886.803174,-6587.832884,5515.887586
557.319702,-1702.473667,-5699.585753,6435.202183
557.320025,592.164754,-5551.544565,6281.983084
557.320347,3108.864956,-4219.173869,6205.373534
557.320669,4959.379811,-1406.391290,5056.230287
557.320992,6883.915261,-1554.432478,2298.286494
557.321314,8808.450710,-3701.029710,153.219100
557.321637,7772.162391,-5699.585753,153.219100
557.321959,5255.462188,-8216.285956,1762.019645
557.322281,2664.741391,-12731.542202,995.924147
557.322604,0.000000,-17246.798449,-1455.581446
557.322926,-3404.947333,-18653.189738,-842.705048
557.323248,-5551.544565,-15396.283594,1685.410096
557.323571,-4737.318029,-11103.089130,1149.143247
557.323893,-2220.617826,-5699.585753,-1302.362347
557.324216,-814.226536,-3552.988522,-842.705048
557.324538,-1110.308913,-5403.503377,1302.362347
557.324860,-1036.288319,-9400.615463,3907.087040
557.325183,-666.185348,-10362.883188,3677.258390
557.325505,-592.164754,-7772.162391,842.705048
557.325827,148.041188,-6143.709319,-2681.334243
557.326150,1628.453072,-5995.668130,-2374.896044
557.326472,1924.535449,-5477.523971,76.609550
557.326795,814.226536,-6735.874072,-1991.848295
557.327117,0.000000,-11769.274478,-5439.278036
557.327439,-1110.308913,-15692.365970,-6052.154434
557.327762,-3997.112087,-16358.551318,-4903.011187
557.328084,-4959.379811,-16802.674883,-6588.421283
557.328407,-3997.112087,-18949.272115,-7507.735880
557.328729,-2368.659014,-17542.880825,-5362.668486
557.329051,-1850.514855,-12805.562797,-2221.676944
557.329374,-1406.391290,-11769.274478,-306.438199
557.329696,666.185348,-11547.212695,2068.457845
557.330018,3478.967927,-6809.894666,1838.629195
557.330341,5847.626942,-2368.659014,-2221.676944
557.330663,7994.224174,-3034.844362,-1991.848295
557.330986,8068.244768,-3775.050304,2451.505594
557.331308,5477.523971,-3034.844362,4213.525239
557.331630,2220.617826,-4441.235652,1149.143247
557.331953,74.020594,-8364.327145,-2451.505594
557.332275,-2664.741391,-10214.842000,-5822.325785
557.332597,-5995.668130,-10362.883188,-7201.297681
557.332920,-8290.306550,-11917.315666,-6281.983084
557.333242,-7698.141797,-13619.789333,-4749.792088
557.333565,-5107.421000,-11177.109724,-3294.210641
557.333887,-3923.091493,-10881.027347,-3753.867940
557.334209,-4737.318029,-11769.274478,-2834.553343
557.334532,-5551.544565,-9918.759623,-842.705048
557.334854,-4515.256246,-6735.874072,-2528.115143
557.335176,-1258.350101,-6661.853478,-5209.449386
557.335499,1480.411884,-7328.038826,-2757.943793
557.335821,2664.741391,-4811.338623,1149.143247
557.336144,3478.967927,-2886.803174,1915.238745
557.336466,3627.009116,-3701.029710,842.705048
557.336788,3108.864956,-4885.359217,-153.219100
557.337111,222.061783,-6217.729913,-1838.629195
557.337433,-2886.803174,-9548.656652,-3677.258390
557.337755,-5033.400406,-13693.809927,-4060.306139
557.338078,-4737.318029,-15248.242405,-2987.772442
557.338400,-1850.514855,-15174.221811,-3370.820191
557.338723,1924.535449,-15396.283594,-4290.134789
557.339045,3627.009116,-13175.665768,-3294.210641
557.339367,5255.462188,-10732.986159,-2604.724693
557.339690,5921.647536,-11029.068536,-2987.772442
557.340012,5403.503377,-11843.295072,-1915.238745
557.340335,3330.926739,-9770.718434,-1302.362347
557.340657,518.144159,-8512.368333,-1149.143247
557.340979,-444.123565,-9696.697840,-995.924147
557.341302,-1184.329507,-8882.471304,-229.828649
557.341624,-2368.659014,-7846.182985,-919.314598
557.341946,-3182.885551,-9918.759623,-1378.971896
557.342269,-3701.029710,-13397.727550,-1072.533697
557.342591,-4959.379811,-12435.459826,536.266849
557.342914,-5403.503377,-12139.377449,-306.438199
557.343236,-4293.194464,-11325.150913,-842.705048
557.343558,-1258.350101,-7328.038826,-1762.019645
557.343881,1258.350101,-4441.235652,-3677.258390
557.344203,2368.659014,-6069.688724,-2528.115143
557.344525,1554.432478,-8956.491898,1608.800546
557.344848,0.000000,-8956.491898,4136.915689
557.345170,0.000000,-9474.636058,3064.381992
557.345493,1332.370696,-10140.821405,1072.533697
557.345815,1554.432478,-7920.203579,536.266849
557.346137,740.205942,-5403.503377,1685.410096
557.346460,-740.205942,-4293.194464,3907.087040
557.346782,-1332.370696,-4145.153275,4519.963438
557.347104,-888.247130,-3997.112087,2374.896044
557.347427,-1258.350101,-5107.421000,0.000000
557.347749,-2368.659014,-8364.327145,-459.657299
557.348072,-1702.473667,-9474.636058,1225.752797
557.348394,740.205942,-9622.677246,-612.876398
557.348716,1850.514855,-10140.821405,-2987.772442
557.349039,0.000000,-8438.347739,-1225.752797
557.349361,-1554.432478,-7328.038826,-1225.752797
557.349684,-1184.329507,-9696.697840,-3983.696590
557.350006,-222.061783,-12805.562797,-6818.249932
557.350328,-1036.288319,-12879.583391,-6281.983084
557.350651,-2368.659014,-12805.562797,-3983.696590
557.350973,-2738.761985,-13767.830521,-2528.115143
557.351295,-2516.700203,-13841.851115,-3217.601092
557.351618,-2664.741391,-12435.459826,-3830.477490
557.351940,-1776.494261,-11843.295072,-3447.429741
557.352263,-296.082377,-9622.677246,-2298.286494
557.352585,1924.535449,-6069.688724,-1378.971896
557.352907,4219.173869,-5033.400406,-2068.457845
557.353230,5995.668130,-7031.956449,-2604.724693
557.353552,5255.462188,-9104.533087,-2451.505594
557.353874,2590.720797,-11103.089130,-2757.943793
557.354197,0.000000,-14137.933492,-3524.039291
557.354519,-1850.514855,-14656.077652,-4903.011187
557.354842,-3108.864956,-12731.542202,-4826.401637
557.355164,-3552.988522,-9622.677246,-5669.106685
557.355486,-3552.988522,-8808.450710,-6741.640382
557.355809,-3478.967927,-9474.636058,-4749.792088
557.356131,-3182.885551,-10214.842000,-1991.848295
557.356453,-4071.132681,-12583.501014,-1225.752797
557.356776,-4663.297435,-12879.583391,-1302.362347
557.357098,-3849.070898,-7994.224174,-1072.533697
557.357421,0.000000,-3849.070898,-2911.162892
557.357743,4071.132681,-2812.782580,-4136.915689
557.358065,5181.441594,-1406.391290,-153.219100
557.358388,3108.864956,-1258.350101,2681.334243
557.358710,2072.576638,-5551.544565,2298.286494
557.359032,1184.329507,-10066.800811,-842.705048
557.359355,0.000000,-10881.027347,-2374.896044
557.359677,-1332.370696,-10362.883188,-2757.943793
557.360000,-1184.329507,-9918.759623,-2757.943793
557.360322,-296.082377,-8882.471304,-1072.533697
557.360644,1184.329507,-8586.388927,1225.752797
557.360967,2294.638420,-10066.800811,76.609550
557.361289,1628.453072,-10658.965565,-1532.190996
557.361612,1406.391290,-8882.471304,-2221.676944
557.361934,3034.844362,-8660.409521,-3677.258390
557.362256,4589.276840,-9474.636058,-4366.744339
557.362579,3478.967927,-9696.697840,-995.924147
557.362901,1480.411884,-9252.574275,1685.410096
557.363223,-740.205942,-9844.739029,0.000000
557.363546,-2368.659014,-11769.274478,-2451.505594
557.363868,-4515.256246,-11917.315666,-3753.867940
557.364191,-6587.832884,-11251.130318,-4903.011187
557.364513,-6513.812290,-11029.068536,-4673.182538
557.364835,-5921.647536,-11029.068536,-2068.457845
557.365158,-4367.215058,-11251.130318,-459.657299
557.365480,-2590.720797,-12287.418637,-383.047749
557.365802,-2368.659014,-12435.459826,-383.047749
557.366125,-2072.576638,-10288.862594,-995.924147
557.366447,370.102971,-8808.450710,-3140.991542
557.366770,3330.926739,-9622.677246,-4290.134789
557.367092,5107.421000,-9326.594869,-1149.143247
557.367414,4811.338623,-7846.182985,2374.896044
557.367737,4071.132681,-7994.224174,2451.505594
557.368059,2294.638420,-9770.718434,536.266849
557.368382,-370.102971,-10807.006753,153.219100
557.368704,-3330.926739,-9770.718434,-383.047749
557.369026,-5255.462188,-8586.388927,-2298.286494
557.369349,-5107.421000,-7550.100608,-1225.752797
557.369671,-2812.782580,-7254.018232,1149.143247
557.369994,148.041188,-8438.347739,842.705048
557.370316,740.205942,-8290.306550,1149.143247
557.370638,814.226536,-6291.750507,2757.943793
557.370961,1110.308913,-5699.585753,1072.533697
557.371283,1702.473667,-6883.915261,-1532.190996
557.371606,1110.308913,-6217.729913,-766.095498
557.371928,518.144159,-5477.523971,0.000000
557.372250,962.267725,-7550.100608,-2068.457845
557.372573,74.020594,-9030.512492,-1685.410096
557.372895,-2368.659014,-9104.533087,76.609550
557.373218,-4811.338623,-9770.718434,-459.657299
557.373540,-5847.626942,-10140.821405,-2374.896044
557.373862,-5181.441594,-10140.821405,-3600.648841
557.374185,-3182.885551,-8882.471304,-4903.011187
557.374507,-1998.556043,-8512.368333,-4673.182538
557.374830,-1628.453072,-8586.388927,-2221.676944
557.375152,-444.123565,-9178.553681,-1072.533697
557.375474,1258.350101,-10584.944971,-3830.477490
557.375797,1184.329507,-12435.459826,-5898.935335
557.376119,888.247130,-12361.439231,-3753.867940
557.376442,2590.720797,-10807.006753,-3370.820191
557.376764,5921.647536,-11029.068536,-5515.887586
557.377086,8068.244768,-11325.150913,-4903.011187
557.377409,6217.729913,-10288.862594,-2221.676944
557.377731,1628.453072,-9548.656652,-2145.067394
557.378054,-2368.659014,-12879.583391,-3753.867940
557.378376,-4515.256246,-15470.304188,-5056.230287
557.378698,-3923.091493,-14878.139434,-5669.106685
557.379021,-1924.535449,-13471.748144,-5056.230287
557.379343,740.205942,-11325.150913,-2221.676944
557.379665,4293.194464,-6217.729913,1149.143247
557.379988,7254.018232,-4219.173869,0.000000
557.380310,6661.853478,-4959.379811,-919.314598
557.380633,2442.679609,-6143.709319,-1532.190996
557.380955,-2442.679609,-8216.285956,-2145.067394
557.381277,-4663.297435,-10510.924376,-2834.553343
557.381600,-4737.318029,-11473.192101,-3524.039291
557.381922,-4885.359217,-9696.697840,-2987.772442
557.382245,-5773.606348,-7920.203579,-1149.143247
557.382567,-6513.812290,-9400.615463,-995.924147
557.382889,-7550.100608,-8586.388927,-306.438199
557.383212,-6661.853478,-11251.130318,-1991.848295
557.383534,-6291.750507,-12509.480420,-2451.505594
557.383857,-4737.318029,-9548.656652,-1532.190996
557.384179,-2664.741391,-3404.947333,0.000000
557.384501,1480.411884,-1554.432478,-689.485948
557.384824,4441.235652,-3701.029710,0.000000
557.385146,4071.132681,-3923.091493,3140.991542
557.385469,2812.782580,-5477.523971,3830.477490
557.385791,3108.864956,-9622.677246,1225.752797
557.386113,4515.256246,-11473.192101,-1378.971896
557.386436,4515.256246,-10732.986159,-383.047749
557.386758,3627.009116,-9252.574275,1302.362347
557.387081,3330.926739,-8586.388927,1991.848295
557.387403,2590.720797,-9326.594869,1915.238745
557.387725,2072.576638,-10584.944971,612.876398
557.388048,296.082377,-10732.986159,-2298.286494
557.388370,-444.123565,-10214.842000,-3830.477490
557.388693,1184.329507,-10066.800811,-2528.115143
557.389015,3997.112087,-9918.759623,-1072.533697
557.389337,3478.967927,-10140.821405,-1149.143247
557.389660,1110.308913,-9918.759623,995.924147
557.389982,-1628.453072,-10955.047942,459.657299
557.390305,-3627.009116,-13471.748144,-3753.867940
557.390627,-5847.626942,-13397.727550,-6052.154434
557.390949,-7846.182985,-11103.089130,-5132.839837
557.391272,-7994.224174,-9918.759623,-4519.963438
557.391594,-6291.750507,-10362.883188,-3294.210641
557.391917,-4737.318029,-10658.965565,-1838.629195
557.392239,-4367.215058,-11695.253884,-1225.752797
557.392561,-5107.421000,-12731.542202,-2145.067394
557.392884,-4737.318029,-12139.377449,-2528.115143
557.393206,-3034.844362,-9844.739029,-2145.067394
557.393529,-296.082377,-8586.388927,-2068.457845
557.393851,2294.638420,-6587.832884,-383.047749
557.394173,4737.318029,-2590.720797,1685.410096
557.394496,6883.915261,-1628.453072,766.095498
557.394818,8290.306550,-6291.750507,-1991.848295
557.395140,6439.791695,-10140.821405,-1991.848295
557.395463,1998.556043,-10807.006753,1225.752797
557.395785,-1776.494261,-11325.150913,1532.190996
557.396108,-2294.638420,-12065.356855,0.000000
557.396430,-2960.823768,-9696.697840,-1762.019645
557.396752,-1776.494261,-6365.771101,-766.095498
557.397075,-1258.350101,-3701.029710,-1762.019645
557.397397,888.247130,-3923.091493,-1455.581446
557.397720,2516.700203,-4885.359217,-842.705048
557.398042,3404.947333,-7772.162391,-1608.800546
557.398364,1628.453072,-8438.347739,-2451.505594
557.398687,-592.164754,-8438.347739,-2145.067394
557.399009,-962.267725,-10436.903782,-3140.991542
557.399332,-222.061783,-12065.356855,-4366.744339
557.399654,-962.267725,-11547.212695,-4826.401637
557.399976,-2812.782580,-10288.862594,-2451.505594
557.400299,-4589.276840,-10658.965565,-2298.286494
557.400621,-4885.359217,-10881.027347,-3907.087040
557.400944,-5107.421000,-9696.697840,-4366.744339
557.401266,-3627.009116,-10140.821405,-5209.449386
557.401588,-2220.617826,-11843.295072,-5745.716235
557.401911,-1480.411884,-10955.047942,-3447.429741
557.402233,-518.144159,-10436.903782,-612.876398
557.402556,888.247130,-12065.356855,-1915.238745
557.402878,1850.514855,-12509.480420,-3524.039291
557.403200,1036.288319,-11473.192101,-3600.648841
557.403523,2072.576638,-10140.821405,-2528.115143
557.403845,4071.132681,-9104.533087,-4060.306139
557.404168,4441.235652,-8660.409521,-3524.039291
557.404490,2368.659014,-8216.285956,-1915.238745
557.404812,-296.082377,-9622.677246,-1302.362347
557.405135,-3701.029710,-12065.356855,-2068.457845
557.405457,-5847.626942,-13693.809927,-2528.115143
557.405780,-5773.606348,-14582.057057,-3600.648841
557.406102,-3923.091493,-13767.830521,-3294.210641
557.406424,-444.123565,-8660.409521,842.705048
557.406747,4219.173869,-3404.947333,2911.162892
557.407069,6587.832884,-1406.391290,766.095498
557.407392,6143.709319,-2664.741391,1685.410096
557.407714,2368.659014,-4219.173869,2987.772442
557.408036,-962.267725,-7402.059420,995.924147
557.408359,-1406.391290,-11473.192101,-1072.533697
557.408681,-1258.350101,-11177.109724,-1225.752797
557.409003,-666.185348,-8216.285956,0.000000
557.409326,-148.041188,-5995.668130,1302.362347
557.409648,-444.123565,-6217.729913,1608.800546
557.409971,-1776.494261,-7698.141797,1225.752797
557.410293,-3701.029710,-9918.759623,-612.876398
557.410615,-5181.441594,-12139.377449,-1455.581446
557.410938,-4885.359217,-9992.780217,-1149.143247
557.411260,-2072.576638,-6587.832884,-995.924147
557.411583,1554.432478,-6661.853478,-1532.190996
557.411905,2886.803174,-7402.059420,306.438199
557.412227,962.267725,-6661.853478,1991.848295
557.412550,-296.082377,-9326.594869,-383.047749
557.412872,-1036.288319,-13175.665768,-3217.601092
557.413195,-1406.391290,-12879.583391,-3217.601092
557.413517,-1628.453072,-9622.677246,-3370.820191
557.413839,-444.123565,-9696.697840,-3830.477490
557.414162,888.247130,-10807.006753,-1608.800546
557.414484,444.123565,-10881.027347,1072.533697
557.414807,-1036.288319,-12805.562797,0.000000
557.415129,-2146.597232,-15100.201217,-1838.629195
557.415451,-2516.700203,-13619.789333,-1149.143247
557.415774,444.123565,-10066.800811,-2145.067394
557.416096,4589.276840,-7624.121203,-3600.648841
557.416419,6661.853478,-7105.977043,-1838.629195
557.416741,5477.523971,-4515.256246,2068.457845
557.417063,3627.009116,-4515.256246,2145.067394
557.417386,2072.576638,-9474.636058,-1532.190996
557.417708,-740.205942,-13989.892304,-3524.039291
557.418031,-4589.276840,-14137.933492,-2911.162892
557.418353,-7624.121203,-12435.459826,-2834.553343
557.418675,-7105.977043,-11473.192101,-2451.505594
557.418998,-4663.297435,-9474.636058,-1149.143247
557.419320,-1628.453072,-8808.450710,-2221.676944
557.419643,-518.144159,-9104.533087,-2298.286494
557.419965,-1628.453072,-8512.368333,-612.876398
557.420287,-1406.391290,-7698.141797,-1838.629195
557.420610,-592.164754,-9030.512492,-3830.477490
557.420932,296.082377,-8660.409521,-2528.115143
557.421255,740.205942,-6143.709319,0.000000
557.421577,1554.432478,-5107.421000,-689.485948
557.421899,3108.864956,-7994.224174,-1838.629195
557.422222,1924.535449,-8142.265362,-536.266849
557.422544,-592.164754,-7105.977043,-1532.190996
557.422866,-2368.659014,-7772.162391,-2451.505594
557.423189,-2294.638420,-9770.718434,-3217.601092
557.423511,-1776.494261,-10732.986159,-2834.553343
557.423834,-2220.617826,-10584.944971,-2451.505594
557.424156,-2294.638420,-9770.718434,-1991.848295
557.424478,-1702.473667,-8438.347739,-1762.019645
557.424801,592.164754,-7105.977043,-2451.505594
557.425123,2516.700203,-8586.388927,-3753.867940
557.425446,2146.597232,-9030.512492,-2757.943793
557.425768,444.123565,-9474.636058,-766.095498
557.426090,740.205942,-11399.171507,-612.876398
557.426413,2220.617826,-12657.521608,-2987.772442
557.426735,888.247130,-10436.903782,-4366.744339
557.427058,-814.226536,-8734.430116,-3447.429741
557.427380,-1480.411884,-9696.697840,-2451.505594
557.427702,-2072.576638,-10510.924376,-2681.334243
557.428025,-2590.720797,-10807.006753,-1608.800546
557.428347,-2072.576638,-11547.212695,-1762.019645
557.428670,-1480.411884,-10881.027347,-1991.848295
557.428992,-444.123565,-8586.388927,-2298.286494
557.429314,296.082377,-7846.182985,-1915.238745
557.429637,222.061783,-8882.471304,-2221.676944
557.429959,-1184.329507,-9992.780217,-995.924147
557.430282,-2960.823768,-7920.203579,0.000000
557.430604,-2812.782580,-9178.553681,-2604.724693
557.430926,-1702.473667,-11325.150913,-3983.696590
557.431249,-740.205942,-9696.697840,-2987.772442
557.431571,-1110.308913,-9030.512492,-2834.553343
557.431894,-1924.535449,-11177.109724,-2145.067394
557.432216,-2146.597232,-12065.356855,0.000000
557.432538,-1924.535449,-11029.068536,1072.533697
557.432861,-592.164754,-10584.944971,229.828649
557.433183,962.267725,-10214.842000,-536.266849
557.433506,3034.844362,-7031.956449,0.000000
557.433828,5773.606348,-4515.256246,0.000000
557.434150,8882.471304,-5921.647536,0.000000
557.434473,8142.265362,-7402.059420,2374.896044
557.434795,4959.379811,-7402.059420,4213.525239
557.435118,2442.679609,-9326.594869,2834.553343
557.435440,1406.391290,-10140.821405,153.219100
557.435762,1776.494261,-8142.265362,-995.924147
557.436085,1406.391290,-6883.915261,-1302.362347
557.436407,-592.164754,-6069.688724,-995.924147
557.436730,-2590.720797,-7698.141797,1762.019645
557.437052,-3997.112087,-10584.944971,2298.286494
557.437374,-5255.462188,-13323.706956,-612.876398
557.437697,-6217.729913,-15470.304188,-3447.429741
557.438019,-6365.771101,-13101.645173,-2987.772442
557.438341,-3997.112087,-8512.368333,-3217.601092
557.438664,-2072.576638,-6291.750507,-2911.162892
557.438986,-1480.411884,-5181.441594,76.609550
557.439309,-1628.453072,-5033.400406,1838.629195
557.439631,-2664.741391,-7994.224174,-1378.971896
557.439953,-4441.235652,-12657.521608,-4060.306139
557.440276,-6143.709319,-15100.201217,-2834.553343
557.440598,-5847.626942,-14285.974681,-1915.238745
557.440921,-3701.029710,-11547.212695,-2145.067394
557.441243,-148.041188,-8290.306550,-1762.019645
557.441565,2886.803174,-6439.791695,-1532.190996
557.441888,4145.153275,-7920.203579,-2145.067394
557.442210,3478.967927,-10362.883188,-1838.629195
557.442533,3478.967927,-12213.398043,-1762.019645
557.442855,4515.256246,-12953.603985,-3064.381992
557.443177,5255.462188,-12361.439231,-2987.772442
557.443500,5255.462188,-10214.842000,-842.705048
557.443822,4959.379811,-6883.915261,153.219100
557.444145,4959.379811,-6365.771101,-1302.362347
557.444467,3034.844362,-8142.265362,-1455.581446
557.444789,-148.041188,-7994.224174,-766.095498
557.445112,-3627.009116,-7179.997637,-2451.505594
557.445434,-5255.462188,-9178.553681,-4366.744339
557.445757,-5033.400406,-10066.800811,-3907.087040
557.446079,-3997.112087,-9030.512492,-3600.648841
557.446401,-3330.926739,-9326.594869,-2757.943793
557.446724,-3404.947333,-9918.759623,-612.876398
557.447046,-3627.009116,-7698.141797,0.000000
557.447369,-3701.029710,-6439.791695,-3600.648841
557.447691,-2960.823768,-8142.265362,-5592.497135
557.448013,-2812.782580,-7698.141797,-3907.087040
557.448336,-3256.906145,-6513.812290,-2145.067394
557.448658,-1628.453072,-8290.306550,-1225.752797
557.448981,296.082377,-9918.759623,-1378.971896
557.449303,518.144159,-9548.656652,-2298.286494
557.449625,-962.267725,-9252.574275,-1915.238745
557.449948,-1554.432478,-10510.924376,-2987.772442
557.450270,-1924.535449,-10436.903782,-2757.943793
557.450593,-814.226536,-9622.677246,-1532.190996
557.450915,1184.329507,-9918.759623,-153.219100
557.451237,3701.029710,-9474.636058,0.000000
557.451560,5773.606348,-6883.915261,0.000000
557.451882,7920.203579,-7105.977043,-1072.533697
557.452204,7476.080014,-8364.327145,-1762.019645
557.452527,4293.194464,-9548.656652,-919.314598
557.452849,1184.329507,-10658.965565,-229.828649
557.453172,-444.123565,-12065.356855,-2528.115143
557.453494,-1258.350101,-13249.686362,-4060.306139
557.453816,-2738.761985,-11325.150913,-3830.477490
557.454139,-4515.256246,-10214.842000,-2834.553343
557.454461,-4145.153275,-12213.398043,-2451.505594
557.454784,-4441.235652,-12731.542202,-1455.581446
557.455106,-4145.153275,-12805.562797,-1302.362347
557.455428,-4441.235652,-11251.130318,-1762.019645
557.455751,-2886.803174,-8438.347739,-1915.238745
557.456073,-222.061783,-4737.318029,-1608.800546
557.456396,2220.617826,-5329.482782,-2221.676944
557.456718,2442.679609,-9918.759623,-536.266849
557.457040,-296.082377,-11103.089130,2681.334243
557.457363,-2146.597232,-10807.006753,2987.772442
557.457685,-814.226536,-11843.295072,-689.485948
557.458008,1332.370696,-10584.944971,-2604.724693
557.458330,592.164754,-5995.668130,-612.876398
557.458652,-148.041188,-3923.091493,1762.019645
557.458975,-222.061783,-5403.503377,2221.676944
557.459297,-1258.350101,-9030.512492,1149.143247
557.459620,-2886.803174,-11547.212695,76.609550
557.459942,-3627.009116,-12213.398043,-459.657299
557.460264,-2812.782580,-10288.862594,-842.705048
557.460587,1184.329507,-7105.977043,-383.047749
557.460909,5329.482782,-5107.421000,0.000000
557.461232,6439.791695,-4515.256246,766.095498
557.461554,3478.967927,-4663.297435,2451.505594
557.461876,0.000000,-5995.668130,1762.019645
557.462199,-1924.535449,-9696.697840,-1302.362347
557.462521,-2516.700203,-12139.377449,-4673.182538
557.462844,-2664.741391,-11399.171507,-3524.039291
557.463166,-1924.535449,-10955.047942,-1455.581446
557.463488,-518.144159,-11399.171507,229.828649
557.463811,-370.102971,-10584.944971,1072.533697
557.464133,0.000000,-10362.883188,0.000000
557.464456,-444.123565,-11547.212695,-2911.162892
557.464778,-1036.288319,-10214.842000,-3830.477490
557.465100,296.082377,-7476.080014,-3447.429741
557.465423,2812.782580,-6883.915261,-3600.648841
557.465745,5033.400406,-8068.244768,-2987.772442
557.466067,2146.597232,-9252.574275,766.095498
557.466390,-370.102971,-11325.150913,2604.724693
557.466712,-1036.288319,-14137.933492,-2451.505594
557.467035,-2516.700203,-14285.974681,-7354.516781
557.467357,-4293.194464,-11325.150913,-6741.640382
557.467679,-5329.482782,-9104.533087,-5515.887586
557.468002,-4145.153275,-8216.285956,-4903.011187
557.468324,-1776.494261,-9030.512492,-3983.696590
557.468647,-1110.308913,-9844.739029,-2987.772442
557.468969,-2442.679609,-11547.212695,-2834.553343
557.469292,-3404.947333,-12065.356855,-3447.429741
557.469614,-1554.432478,-11547.212695,-2911.162892
557.469937,1258.350101,-10732.986159,-3753.867940
557.470259,2368.659014,-8734.430116,-1762.019645
557.470582,1776.494261,-3997.112087,1762.019645
557.470904,1702.473667,-1332.370696,1838.629195
557.471227,2368.659014,-2738.761985,-2374.896044
557.471549,1258.350101,-5403.503377,-4443.353888
557.471872,-2146.597232,-7402.059420,-3217.601092
557.472194,-4885.359217,-9622.677246,-1225.752797
557.472517,-4885.359217,-11843.295072,-919.314598
557.472840,-2072.576638,-13175.665768,-2374.896044
557.473162,0.000000,-11695.253884,-2681.334243
557.473485,1110.308913,-9030.512492,-2221.676944
557.473807,1924.535449,-6661.853478,-1532.190996
557.474130,3701.029710,-5107.421000,-1762.019645
557.474452,4885.359217,-6809.894666,-2987.772442
557.474775,3923.091493,-9844.739029,-2451.505594
557.475097,740.205942,-10510.924376,-459.657299
557.475420,-1184.329507,-10066.800811,-536.266849
557.475742,-814.226536,-10807.006753,-3447.429741
557.476065,-888.247130,-10807.006753,-3753.867940
557.476387,-2812.782580,-8438.347739,-1608.800546
557.476710,-4589.276840,-8586.388927,-1838.629195
557.477032,-5181.441594,-9548.656652,-1991.848295
557.477355,-3775.050304,-11843.295072,-2451.505594
557.477677,-2590.720797,-13471.748144,-2145.067394
557.478000,-1702.473667,-13619.789333,-2374.896044
557.478322,-1184.329507,-10807.006753,-1455.581446
557.478645,1554.432478,-9326.594869,-1455.581446
557.478967,4959.379811,-9474.636058,-2911.162892
557.479290,6069.688724,-8808.450710,-2604.724693
557.479612,3404.947333,-7624.121203,-612.876398
557.479935,1258.350101,-9474.636058,-229.828649
557.480257,1258.350101,-12879.583391,-1455.581446
557.480580,814.226536,-12287.418637,-1762.019645
557.480902,-888.247130,-10288.862594,0.000000
557.481225,-3182.885551,-10658.965565,383.047749
557.481547,-4515.256246,-10436.903782,1378.971896
557.481870,-4663.297435,-8808.450710,919.314598
557.482193,-3775.050304,-8660.409521,0.000000
557.482515,-2664.741391,-8290.306550,-536.266849
557.482838,-518.144159,-5995.668130,153.219100
557.483160,1702.473667,-3775.050304,459.657299
557.483483,2886.803174,-4737.318029,536.266849
557.483805,2590.720797,-7994.224174,1991.848295
557.484128,1776.494261,-8586.388927,2911.162892
557.484450,1480.411884,-9474.636058,995.924147
557.484773,444.123565,-10436.903782,-1149.143247
557.485095,-740.205942,-10214.842000,-766.095498
557.485418,-1924.535449,-7698.141797,689.485948
557.485740,-2146.597232,-6957.935855,-383.047749
557.486063,-1628.453072,-8660.409521,-1378.971896
557.486385,-1554.432478,-8882.471304,-842.705048
557.486708,-1184.329507,-9992.780217,-766.095498
557.487030,-2146.597232,-11325.150913,0.000000
557.487353,-1332.370696,-8956.491898,766.095498
557.487675,1258.350101,-6439.791695,-383.047749
557.487998,3404.947333,-5477.523971,-2298.286494
557.488320,2738.761985,-5255.462188,-1838.629195
557.488643,1184.329507,-7254.018232,-459.657299
557.488965,444.123565,-11103.089130,-2298.286494
557.489288,-370.102971,-13545.768739,-4060.306139
557.489610,-1702.473667,-12139.377449,-4213.525239
557.489933,-2960.823768,-11103.089130,-4366.744339
557.490255,-4293.194464,-11251.130318,-5132.839837
557.490578,-4811.338623,-11473.192101,-3677.258390
557.490900,-4145.153275,-11473.192101,-3600.648841
557.491223,-2442.679609,-12213.398043,-5592.497135
557.491546,-1036.288319,-12583.501014,-6511.811733
557.491868,444.123565,-11991.336260,-3830.477490
557.492191,2442.679609,-9992.780217,-1762.019645
557.492513,5255.462188,-8734.430116,-2604.724693
557.492836,6069.688724,-7994.224174,-2451.505594
557.493158,4589.276840,-6439.791695,-1225.752797
557.493481,2516.700203,-6439.791695,-1915.238745
557.493803,888.247130,-8660.409521,-3753.867940
557.494126,-2072.576638,-10066.800811,-4366.744339
557.494448,-4589.276840,-9770.718434,-2834.553343
557.494771,-5625.565159,-8364.327145,-2451.505594
557.495093,-4219.173869,-9770.718434,-4519.963438
557.495416,-3404.947333,-11547.212695,-3370.820191
557.495738,-2960.823768,-12361.439231,-2681.334243
557.496061,-2294.638420,-11547.212695,-1991.848295
557.496383,0.000000,-10436.903782,-1608.800546
557.496706,1998.556043,-6883.915261,-2757.943793
557.497028,2886.803174,-4737.318029,-3140.991542
557.497351,2294.638420,-3701.029710,-1302.362347
557.497673,2590.720797,-3404.947333,-1532.190996
557.497996,3849.070898,-7772.162391,-3140.991542
557.498318,3034.844362,-11399.171507,-1608.800546
557.498641,-1332.370696,-11177.109724,1378.971896
557.498963,-5477.523971,-9770.718434,1991.848295
557.499286,-6513.812290,-8808.450710,0.000000
557.499608,-4293.194464,-8512.368333,-3677.258390
557.499931,-2886.803174,-6957.935855,-4136.915689
557.500253,-2590.720797,-6735.874072,-2374.896044
557.500576,-1702.473667,-9104.533087,0.000000
557.500899,-370.102971,-10362.883188,919.314598
557.501221,888.247130,-11843.295072,-995.924147
557.501544,1110.308913,-13027.624579,-2757.943793
557.501866,888.247130,-12731.542202,-2374.896044
557.502189,2146.597232,-10066.800811,-2068.457845
557.502511,3256.906145,-7994.224174,-3524.039291
557.502834,3997.112087,-8438.347739,-1762.019645
557.503156,2664.741391,-7846.182985,612.876398
557.503479,-296.082377,-9178.553681,306.438199
557.503801,-4145.153275,-12953.603985,-1225.752797
557.504124,-7105.977043,-15988.448347,-612.876398
557.504446,-7105.977043,-15766.386565,76.609550
557.504769,-3997.112087,-13027.624579,-383.047749
557.505091,74.020594,-9918.759623,0.000000
557.505414,3923.091493,-4885.359217,1455.581446
557.505736,5995.668130,-2294.638420,1762.019645
557.506059,4885.359217,-5107.421000,1378.971896
557.506381,2072.576638,-9178.553681,1608.800546
557.506704,-1850.514855,-10584.944971,153.219100
557.507026,-2442.679609,-11325.150913,-1762.019645
557.507349,-222.061783,-11547.212695,-2298.286494
557.507671,1036.288319,-9696.697840,-2451.505594
557.507994,-592.164754,-8438.347739,-229.828649
557.508316,-2072.576638,-9326.594869,2145.067394
557.508639,-4589.276840,-8438.347739,1838.629195
557.508961,-5329.482782,-9918.759623,-306.438199
557.509284,-5773.606348,-10732.986159,-2987.772442
557.509606,-5255.462188,-9326.594869,-3217.601092
557.509929,-1628.453072,-4663.297435,-306.438199
557.510252,3182.885551,-2664.741391,1685.410096
557.510574,5699.585753,-5255.462188,2298.286494
557.510897,4071.132681,-6143.709319,4060.306139
557.511219,592.164754,-6143.709319,3907.087040
557.511542,592.164754,-8956.491898,-919.314598
557.511864,2146.597232,-11103.089130,-6511.811733
557.512187,2590.720797,-10362.883188,-5132.839837
557.512509,2294.638420,-9104.533087,-766.095498
557.512832,2368.659014,-7994.224174,995.924147
557.513154,1480.411884,-9696.697840,-383.047749
557.513477,-666.185348,-13101.645173,-2221.676944
557.513799,-3627.009116,-14730.098246,-4366.744339
557.514122,-5477.523971,-12879.583391,-4903.011187
557.514444,-1998.556043,-10214.842000,-4443.353888
557.514767,3256.906145,-8142.265362,-4519.963438
557.515089,5625.565159,-7105.977043,-3524.039291
557.515412,3404.947333,-6069.688724,0.000000
557.515734,296.082377,-6217.729913,229.828649
557.516057,-2220.617826,-9696.697840,-5209.449386
557.516379,-4293.194464,-14878.139434,-8427.050478
557.516702,-6217.729913,-14656.077652,-5898.935335
557.517024,-7105.977043,-10658.965565,-4903.011187
557.517347,-6143.709319,-9992.780217,-4749.792088
557.517669,-4367.215058,-11029.068536,-2221.676944
557.517992,-3701.029710,-10362.883188,-2221.676944
557.518314,-4737.318029,-10066.800811,-5898.935335
557.518637,-4737.318029,-11399.171507,-6435.202183
557.518959,-2368.659014,-10807.006753,-4749.792088
557.519282,2590.720797,-8438.347739,-4749.792088
557.519605,6217.729913,-7772.162391,-3753.867940
557.519927,6439.791695,-8068.244768,-612.876398
557.520250,5477.523971,-8438.347739,1762.019645
557.520572,4441.235652,-9104.533087,0.000000
557.520895,2294.638420,-9844.739029,-2757.943793
557.521217,1036.288319,-9844.739029,-3524.039291
557.521540,0.000000,-7624.121203,-3294.210641
557.521862,-740.205942,-6439.791695,-2757.943793
557.522185,-148.041188,-8068.244768,-229.828649
557.522507,0.000000,-8364.327145,1915.238745
557.522830,296.082377,-10362.883188,-995.924147
557.523152,-888.247130,-11695.253884,-3370.820191
557.523475,-2664.741391,-9992.780217,-1378.971896
557.523797,-2516.700203,-8808.450710,-1225.752797
557.524120,-666.185348,-7254.018232,-2221.676944
557.524442,518.144159,-5625.565159,-1302.362347
557.524765,-444.123565,-4885.359217,-1378.971896
557.525087,-1628.453072,-7328.038826,-1455.581446
557.525410,-2664.741391,-9770.718434,-1149.143247
557.525732,-3552.988522,-10732.986159,-1762.019645
557.526055,-3849.070898,-11843.295072,-3600.648841
557.526377,-3108.864956,-12065.356855,-2681.334243
557.526700,-2220.617826,-11251.130318,459.657299
557.527022,-1184.329507,-9992.780217,2221.676944
557.527345,-370.102971,-9622.677246,1455.581446
557.527667,148.041188,-9030.512492,919.314598
557.527990,1258.350101,-6587.832884,536.266849
557.528312,2960.823768,-6069.688724,-689.485948
557.528635,4293.194464,-8660.409521,-766.095498
557.528958,4441.235652,-8956.491898,2298.286494
557.529280,4441.235652,-8660.409521,2834.553343
557.529603,4663.297435,-10658.965565,1225.752797
557.529925,2368.659014,-12361.439231,306.438199
557.530248,-370.102971,-12361.439231,229.828649
557.530570,-3552.988522,-11029.068536,-766.095498
557.530893,-4737.318029,-10881.027347,-1991.848295
557.531215,-4885.359217,-11547.212695,-1225.752797
557.531538,-3849.070898,-11547.212695,0.000000
557.531860,-2960.823768,-11029.068536,0.000000
557.532183,-2146.597232,-10066.800811,612.876398
557.532505,-148.041188,-7698.141797,919.314598
557.532828,888.247130,-6291.750507,-766.095498
557.533150,74.020594,-7105.977043,0.000000
557.533473,-1110.308913,-6735.874072,2528.115143
557.533795,-1628.453072,-6661.853478,1455.581446
557.534118,-592.164754,-8512.368333,-1302.362347
557.534440,962.267725,-10214.842000,-766.095498
557.534763,1036.288319,-8290.306550,689.485948
557.535085,-1184.329507,-6587.832884,612.876398
557.535408,-2960.823768,-9178.553681,536.266849
557.535730,-3701.029710,-11917.315666,306.438199
557.536053,-3478.967927,-11547.212695,-1378.971896
557.536375,-2960.823768,-9992.780217,-3370.820191
557.536698,-1258.350101,-8216.285956,-2451.505594
557.537020,1998.556043,-6439.791695,-1608.800546
557.537343,4663.297435,-6069.688724,-1915.238745
557.537665,4663.297435,-7476.080014,-766.095498
557.537988,2368.659014,-8660.409521,306.438199
557.538311,148.041188,-9770.718434,-1225.752797
557.538633,0.000000,-11695.253884,-3753.867940
557.538956,-888.247130,-11473.192101,-5439.278036
557.539278,-1184.329507,-9844.739029,-4979.620737
557.539601,-740.205942,-8882.471304,-3830.477490
557.539923,-814.226536,-8808.450710,-2987.772442
557.540246,-1332.370696,-9474.636058,-2681.334243
557.540568,-1924.535449,-11547.212695,-3753.867940
557.540891,-1628.453072,-12805.562797,-5209.449386
557.541213,-814.226536,-11325.150913,-5669.106685
557.541536,962.267725,-8882.471304,-5056.230287
557.541858,3034.844362,-8364.327145,-4903.011187
557.542181,4589.276840,-8956.491898,-3447.429741
557.542503,2442.679609,-8586.388927,-1532.190996
557.542826,888.247130,-9030.512492,-3140.991542
557.543148,0.000000,-11399.171507,-6281.983084
557.543471,-222.061783,-12139.377449,-6588.421283
557.543793,-740.205942,-10955.047942,-5439.278036
557.544116,-2368.659014,-10140.821405,-4366.744339
557.544438,-3034.844362,-10807.006753,-2834.553343
557.544761,-3849.070898,-10362.883188,-1915.238745
557.545083,-3849.070898,-10732.986159,-2911.162892
557.545406,-3478.967927,-11399.171507,-5439.278036
557.545728,-2072.576638,-10436.903782,-4749.792088
557.546051,222.061783,-8660.409521,-3524.039291
557.546373,2294.638420,-8364.327145,-1532.190996
557.546696,3182.885551,-8956.491898,1532.190996
557.547018,2590.720797,-6883.915261,2451.505594
557.547341,1776.494261,-5107.421000,-229.828649
557.547664,1406.391290,-6439.791695,-3064.381992
557.547986,666.185348,-7624.121203,-2604.724693
557.548309,-370.102971,-7476.080014,-995.924147
557.548631,-2072.576638,-8734.430116,1302.362347
557.548954,-3627.009116,-10362.883188,4060.306139
557.549276,-3478.967927,-10658.965565,3524.039291
557.549599,-3404.947333,-9326.594869,766.095498
557.549921,-3108.864956,-8512.368333,-1302.362347
557.550244,-1702.473667,-6883.915261,-459.657299
557.550566,814.226536,-4441.235652,459.657299
557.550889,2368.659014,-5107.421000,842.705048
557.551211,1258.350101,-8290.306550,2374.896044
557.551534,-814.226536,-9252.574275,3524.039291
557.551856,-2146.597232,-10658.965565,1532.190996
557.552179,-2072.576638,-12139.377449,-1838.629195
557.552501,-2368.659014,-11103.089130,-1455.581446
557.552824,-1776.494261,-8290.306550,536.266849
557.553146,-592.164754,-6883.915261,536.266849
557.553469,-962.267725,-8512.368333,842.705048
557.553791,-2590.720797,-11251.130318,1762.019645
557.554114,-3108.864956,-13027.624579,306.438199
557.554436,-2368.659014,-14285.974681,-2451.505594
557.554759,-740.205942,-13101.645173,-2145.067394
557.555081,2590.720797,-9992.780217,-383.047749
557.555404,5477.523971,-7476.080014,383.047749
557.555726,6217.729913,-7476.080014,1838.629195
557.556049,4441.235652,-8290.306550,2528.115143
557.556372,1184.329507,-9918.759623,612.876398
557.556694,-814.226536,-12361.439231,-1991.848295
557.557017,-1406.391290,-13027.624579,-2451.505594
557.557339,-1628.453072,-11029.068536,-2221.676944
557.557662,-962.267725,-9104.533087,-766.095498
557.557984,-962.267725,-7846.182985,689.485948
557.558307,-888.247130,-7846.182985,995.924147
557.558629,-1184.329507,-9252.574275,-1838.629195
557.558952,-2294.638420,-11547.212695,-3677.258390
557.559274,-3182.885551,-10510.924376,-1915.238745
557.559597,-1776.494261,-7846.182985,-1838.629195
557.559919,888.247130,-6661.853478,-3140.991542
557.560242,2590.720797,-6883.915261,-2221.676944
557.560564,2146.597232,-6439.791695,229.828649
557.560887,370.102971,-6809.894666,-689.485948
557.561209,-962.267725,-10066.800811,-2757.943793
557.561532,-2368.659014,-11991.336260,-3983.696590
557.561854,-3849.070898,-10510.924376,-3600.648841
557.562177,-4515.256246,-8512.368333,-3294.210641
557.562499,-3330.926739,-7179.997637,-2374.896044
557.562822,-444.123565,-6217.729913,-2145.067394
557.563144,888.247130,-6883.915261,-3524.039291
557.563467,666.185348,-8512.368333,-3600.648841
557.563789,296.082377,-9030.512492,-2604.724693
557.564112,1850.514855,-9252.574275,-3600.648841
557.564434,3478.967927,-10214.842000,-5439.278036
557.564757,3627.009116,-11103.089130,-4519.963438
557.565079,1924.535449,-8956.491898,-1915.238745
557.565402,1628.453072,-8290.306550,-3064.381992
557.565724,1480.411884,-10214.842000,-5286.058936
557.566047,0.000000,-10955.047942,-5286.058936
557.566369,-2220.617826,-9548.656652,-5056.230287
557.566692,-3627.009116,-9622.677246,-5209.449386
557.567014,-3701.029710,-11843.295072,-3983.696590
557.567337,-2738.761985,-11843.295072,-2987.772442
557.567659,-2072.576638,-10955.047942,-3524.039291
557.567982,-888.247130,-9474.636058,-3217.601092
557.568304,1110.308913,-7846.182985,-2911.162892
557.568627,3256.906145,-6957.935855,-5056.230287
557.568949,2886.803174,-8290.306550,-5286.058936
557.569272,740.205942,-10584.944971,-766.095498
557.569594,-1258.350101,-10658.965565,-383.047749
557.569917,-1850.514855,-11843.295072,-3753.867940
557.570239,-1924.535449,-13323.706956,-4673.182538
557.570562,-2664.741391,-9696.697840,-2834.553343
557.570884,-2072.576638,-5773.606348,-3217.601092
557.571207,-2368.659014,-5699.585753,-3983.696590
557.571529,-2294.638420,-9326.594869,-1302.362347
557.571852,-2516.700203,-10140.821405,842.705048
557.572174,-2220.617826,-10510.924376,-1532.190996
557.572497,-1184.329507,-11917.315666,-2528.115143
557.572819,1184.329507,-10658.965565,-612.876398
557.573142,3775.050304,-6809.894666,306.438199
557.573464,5551.544565,-4737.318029,459.657299
557.573787,5625.565159,-5995.668130,1685.410096
557.574109,3701.029710,-6217.729913,2911.162892
557.574432,1110.308913,-6735.874072,919.314598
557.574754,-1184.329507,-9178.553681,-1302.362347
557.575077,-3256.906145,-10658.965565,-1762.019645
557.575399,-4293.194464,-9400.615463,-766.095498
557.575722,-4441.235652,-8142.265362,-842.705048
557.576044,-3627.009116,-8142.265362,-766.095498
557.576367,-2886.803174,-8512.368333,-1378.971896
557.576689,-3701.029710,-9770.718434,-2911.162892
557.577012,-4737.318029,-12065.356855,-2068.457845
557.577334,-4071.132681,-11325.150913,-459.657299
557.577657,-814.226536,-7550.100608,-2145.067394
557.577979,2590.720797,-6587.832884,-5898.935335
557.578302,4737.318029,-9622.677246,-3524.039291
557.578624,4071.132681,-8734.430116,2145.067394
557.578947,1480.411884,-7402.059420,1991.848295
557.579269,592.164754,-10288.862594,-2451.505594
557.579592,518.144159,-13175.665768,-4443.353888
557.579914,-962.267725,-10658.965565,-3830.477490
557.580237,-2146.597232,-8068.244768,-2757.943793
557.580559,-1554.432478,-9844.739029,-1685.410096
557.580882,74.020594,-10436.903782,-766.095498
557.581204,444.123565,-9474.636058,-2221.676944
557.581527,0.000000,-9622.677246,-3064.381992
557.581849,1110.308913,-10955.047942,-3140.991542
557.582172,3775.050304,-9844.739029,-4826.401637
557.582494,5699.585753,-7994.224174,-5056.230287
557.582817,6809.894666,-9400.615463,-4596.572988
557.583139,5477.523971,-10140.821405,-2604.724693
557.583462,1776.494261,-8808.450710,-1072.533697
557.583784,-2220.617826,-7994.224174,-2221.676944
557.584107,-4145.153275,-8808.450710,-7431.126331
