#time,accel_x,accel_y,accel_z
213.397461,-592.164754,-9548.656652,-1608.800546
213.397783,-370.102971,-9474.636058,-1991.848295
213.398105,0.000000,-9400.615463,-1991.848295
213.398427,0.000000,-9326.594869,-1608.800546
213.398749,-370.102971,-9178.553681,-1608.800546
213.399071,-592.164754,-9400.615463,-1685.410096
213.399394,-444.123565,-9474.636058,-1455.581446
213.399716,-814.226536,-9104.533087,-1149.143247
213.400038,-666.185348,-9696.697840,-1532.190996
213.400360,-370.102971,-9474.636058,-1378.971896
213.400682,-444.123565,-9178.553681,-1685.410096
213.401005,-296.082377,-9104.533087,-1532.190996
213.401327,0.000000,-9696.697840,-1838.629195
213.401649,-148.041188,-9104.533087,-1378.971896
213.401971,-518.144159,-9400.615463,-1608.800546
213.402293,-444.123565,-9474.636058,-1302.362347
213.402615,-666.185348,-9548.656652,-1302.362347
213.402938,-518.144159,-9474.636058,-1149.143247
213.403260,-666.185348,-9104.533087,-1378.971896
213.403582,-296.082377,-9400.615463,-1225.752797
213.403904,-370.102971,-9178.553681,-1608.800546
213.404226,-296.082377,-9178.553681,-1532.190996
213.404548,-296.082377,-9474.636058,-1532.190996
213.404871,-296.082377,-9326.594869,-1225.752797
213.405193,-444.123565,-9474.636058,-1532.190996
213.405515,-370.102971,-9474.636058,-1225.752797
213.405837,-370.102971,-9252.574275,-1072.533697
213.406159,-370.102971,-9326.594869,-1378.971896
213.406482,-444.123565,-9400.615463,-1149.143247
213.406804,-296.082377,-8364.327145,-689.485948
213.407126,-148.041188,-9252.574275,-1455.581446
213.407448,-296.082377,-9252.574275,-1685.410096
213.407770,-370.102971,-9400.615463,-1608.800546
213.408092,-592.164754,-9474.636058,-1302.362347
213.408415,-814.226536,-9104.533087,-1302.362347
213.408737,-444.123565,-9104.533087,-1378.971896
213.409059,-444.123565,-9104.533087,-1455.581446
213.409381,-518.144159,-9104.533087,-1608.800546
213.409703,-444.123565,-9400.615463,-1455.581446
213.410025,-370.102971,-9474.636058,-1532.190996
213.410348,74.020594,-9474.636058,-2145.067394
213.410670,-444.123565,-9400.615463,-1532.190996
213.410992,-518.144159,-9400.615463,-1608.800546
213.411314,-370.102971,-9326.594869,-1532.190996
213.411636,-296.082377,-9252.574275,-1225.752797
213.411959,-296.082377,-9326.594869,-1838.629195
213.412281,-296.082377,-9178.553681,-1762.019645
213.412603,-296.082377,-9474.636058,-1685.410096
213.412925,-592.164754,-9474.636058,-1608.800546
213.413247,-592.164754,-9326.594869,-1685.410096
213.413569,-518.144159,-8808.450710,-1455.581446
213.413892,0.000000,-9474.636058,-1762.019645
213.414214,-444.123565,-9326.594869,-1608.800546
213.414536,-148.041188,-9326.594869,-1532.190996
213.414858,-296.082377,-9474.636058,-1685.410096
213.415180,-518.144159,-9252.574275,-2068.457845
213.415502,-518.144159,-9474.636058,-1685.410096
213.415825,-370.102971,-9622.677246,-1838.629195
213.416147,-222.061783,-9474.636058,-1608.800546
213.416469,-370.102971,-9326.594869,-1991.848295
213.416791,-444.123565,-9104.533087,-1608.800546
213.417113,-296.082377,-9400.615463,-1378.971896
213.417436,-444.123565,-9400.615463,-1991.848295
213.417758,-296.082377,-9400.615463,-1838.629195
213.418080,592.164754,-9474.636058,-2068.457845
213.418402,1850.514855,-10066.800811,-2221.676944
213.418724,2294.638420,-9844.739029,-1072.533697
213.419046,2516.700203,-9326.594869,-612.876398
213.419369,1184.329507,-8512.368333,-766.095498
213.419691,148.041188,-8956.491898,-2145.067394
213.420013,-1332.370696,-9030.512492,-2604.724693
213.420335,-3256.906145,-9252.574275,-1915.238745
213.420657,-4219.173869,-9474.636058,-2145.067394
213.420979,-3923.091493,-9918.759623,-3064.381992
213.421302,-1628.453072,-10140.821405,-3294.210641
213.421624,1628.453072,-11325.150913,-2604.724693
213.421946,3552.988522,-11399.171507,-766.095498
213.422268,4145.153275,-10140.821405,153.219100
213.422590,2886.803174,-8512.368333,383.047749
213.422913,2812.782580,-8586.388927,-995.924147
213.423235,2812.782580,-9548.656652,-2451.505594
213.423557,2072.576638,-9474.636058,-1762.019645
213.423879,0.000000,-7846.182985,153.219100
213.424201,-592.164754,-6513.812290,153.219100
213.424523,1036.288319,-8290.306550,-1685.410096
213.424846,1850.514855,-9696.697840,-2221.676944
213.425168,-148.041188,-9770.718434,-459.657299
213.425490,-2294.638420,-8660.409521,306.438199
213.425812,-1702.473667,-8438.347739,-2451.505594
213.426134,-814.226536,-9548.656652,-4903.011187
213.426456,0.000000,-10066.800811,-2987.772442
213.426779,518.144159,-10955.047942,-1302.362347
213.427101,1406.391290,-10807.006753,-1762.019645
213.427423,3034.844362,-9326.594869,-1532.190996
213.427745,4515.256246,-10584.944971,-612.876398
213.428067,4219.173869,-11695.253884,-229.828649
213.428390,2960.823768,-10362.883188,-919.314598
213.428712,1258.350101,-8068.244768,-1072.533697
213.429034,1480.411884,-7105.977043,-995.924147
213.429356,1998.556043,-7846.182985,-1225.752797
213.429678,1184.329507,-7179.997637,-842.705048
213.430000,148.041188,-6587.832884,-306.438199
213.430323,222.061783,-8216.285956,-306.438199
213.430645,1480.411884,-10658.965565,-842.705048
213.430967,1702.473667,-10436.903782,-1991.848295
213.431289,592.164754,-9474.636058,-2145.067394
213.431611,814.226536,-10214.842000,-1455.581446
213.431933,1776.494261,-10288.862594,-1685.410096
213.432256,2220.617826,-9474.636058,-2604.724693
213.432578,1628.453072,-9252.574275,-2834.553343
213.432900,1184.329507,-9992.780217,-1838.629195
213.433222,1332.370696,-9992.780217,-1455.581446
213.433544,1184.329507,-9770.718434,-2145.067394
213.433867,296.082377,-9770.718434,-2221.676944
213.434189,0.000000,-9548.656652,-1225.752797
213.434511,-148.041188,-7402.059420,-766.095498
213.434833,-370.102971,-7105.977043,-2145.067394
213.435155,-962.267725,-7328.038826,-1762.019645
213.435477,-740.205942,-8586.388927,-1685.410096
213.435800,-740.205942,-9252.574275,-919.314598
213.436122,-592.164754,-10214.842000,-1302.362347
213.436444,0.000000,-11029.068536,-1225.752797
213.436766,0.000000,-11843.295072,-1378.971896
213.437088,-296.082377,-10732.986159,-842.705048
213.437410,-740.205942,-10214.842000,-1378.971896
213.437733,-1184.329507,-9474.636058,-2221.676944
213.438055,-1184.329507,-9030.512492,-1762.019645
213.438377,-1480.411884,-9252.574275,-1685.410096
213.438699,-1258.350101,-9622.677246,-1455.581446
213.439021,-1110.308913,-9992.780217,-1225.752797
213.439344,-666.185348,-9918.759623,-1302.362347
213.439666,-1110.308913,-9474.636058,-689.485948
213.439988,-1406.391290,-8216.285956,-1302.362347
213.440310,-1702.473667,-7328.038826,-1838.629195
213.440632,-1776.494261,-7254.018232,-1991.848295
213.440954,-1924.535449,-7772.162391,-1838.629195
213.441277,-2220.617826,-8438.347739,-1685.410096
213.441599,-1850.514855,-8882.471304,-2451.505594
213.441921,-1480.411884,-9844.739029,-2221.676944
213.442243,-962.267725,-10436.903782,-1915.238745
213.442565,-444.123565,-9918.759623,-2374.896044
213.442887,-296.082377,-9104.533087,-2221.676944
213.443210,0.000000,-8586.388927,-2298.286494
213.443532,74.020594,-8734.430116,-1915.238745
213.443854,74.020594,-9030.512492,-2068.457845
213.444176,-370.102971,-9770.718434,-2145.067394
213.444498,-518.144159,-9844.739029,-1302.362347
213.444821,-592.164754,-10510.924376,-1225.752797
213.445143,0.000000,-10066.800811,-1072.533697
213.445465,-518.144159,-9548.656652,-1149.143247
213.445787,-666.185348,-8660.409521,-995.924147
213.446109,-222.061783,-8364.327145,-1072.533697
213.446431,-518.144159,-8142.265362,-1302.362347
213.446754,-370.102971,-8808.450710,-2221.676944
213.447076,-592.164754,-9918.759623,-1685.410096
213.447398,-592.164754,-10510.924376,-1532.190996
213.447720,-222.061783,-10881.027347,-1455.581446
213.448042,0.000000,-10214.842000,-1762.019645
213.448364,222.061783,-10066.800811,-1991.848295
213.448687,814.226536,-9992.780217,-1991.848295
213.449009,1184.329507,-9548.656652,-2221.676944
213.449331,1332.370696,-9326.594869,-2221.676944
213.449653,1554.432478,-9178.553681,-1608.800546
213.449975,1850.514855,-8882.471304,-1762.019645
213.450298,1998.556043,-8068.244768,-919.314598
213.450620,1702.473667,-8512.368333,-1302.362347
213.450942,1332.370696,-8660.409521,-689.485948
213.451264,1110.308913,-8290.306550,-766.095498
213.451586,814.226536,-7920.203579,-1455.581446
213.451908,962.267725,-8290.306550,-1685.410096
213.452231,888.247130,-8660.409521,-1378.971896
213.452553,740.205942,-9030.512492,-995.924147
213.452875,740.205942,-9178.553681,-1149.143247
213.453197,740.205942,-9252.574275,-995.924147
213.453519,1184.329507,-9696.697840,-1378.971896
213.453841,0.000000,-9844.739029,-995.924147
213.454164,-888.247130,-9474.636058,-1072.533697
213.454486,-1628.453072,-9474.636058,-1608.800546
213.454808,-2146.597232,-9326.594869,-1838.629195
213.455130,-1850.514855,-9548.656652,-1608.800546
213.455452,-2516.700203,-9104.533087,-1685.410096
213.455775,-3108.864956,-9548.656652,-919.314598
213.456097,-2886.803174,-10066.800811,-995.924147
213.456419,-2442.679609,-10288.862594,-995.924147
213.456741,-2368.659014,-9696.697840,-1378.971896
213.457063,-1998.556043,-8734.430116,-1455.581446
213.457385,-1554.432478,-9178.553681,-1685.410096
213.457708,-740.205942,-8586.388927,-1378.971896
213.458030,-296.082377,-8956.491898,-1915.238745
213.458352,0.000000,-9252.574275,-2145.067394
213.458674,296.082377,-9622.677246,-1685.410096
213.458996,0.000000,-10066.800811,-2145.067394
213.459318,-370.102971,-10214.842000,-2145.067394
213.459641,-888.247130,-10140.821405,-2374.896044
213.459963,-1258.350101,-9474.636058,-2298.286494
213.460285,-1332.370696,-9474.636058,-2604.724693
213.460607,-1702.473667,-8956.491898,-1991.848295
213.460929,-1554.432478,-9178.553681,-2451.505594
213.461252,-1406.391290,-9326.594869,-2451.505594
213.461574,-962.267725,-9326.594869,-1762.019645
213.461896,-666.185348,-9622.677246,-1608.800546
213.462218,-888.247130,-9326.594869,-1149.143247
213.462540,-222.061783,-9844.739029,-1532.190996
213.462862,-962.267725,-9474.636058,-1225.752797
213.463185,-1184.329507,-9326.594869,-1378.971896
213.463507,-1554.432478,-9104.533087,-1838.629195
213.463829,-1480.411884,-8956.491898,-1991.848295
213.464151,-1184.329507,-9252.574275,-1838.629195
213.464473,-962.267725,-9178.553681,-1455.581446
213.464795,-592.164754,-9474.636058,-1225.752797
213.465118,-370.102971,-9252.574275,-1302.362347
213.465440,-370.102971,-9622.677246,-1378.971896
213.465762,-148.041188,-9622.677246,-1455.581446
213.466084,0.000000,-9474.636058,-1532.190996
213.466406,74.020594,-9474.636058,-1762.019645
213.466729,296.082377,-9178.553681,-1838.629195
213.467051,1406.391290,-9178.553681,-1762.019645
213.467373,2368.659014,-8734.430116,-1378.971896
213.467695,2368.659014,-9178.553681,-1532.190996
213.468017,2664.741391,-9178.553681,-1225.752797
213.468339,2146.597232,-8808.450710,-1302.362347
213.468662,1702.473667,-8734.430116,-1762.019645
213.468984,1110.308913,-8586.388927,-1915.238745
213.469307,1258.350101,-9252.574275,-2068.457845
213.469629,592.164754,-9030.512492,-1991.848295
213.469951,814.226536,-8956.491898,-2068.457845
213.470274,1110.308913,-9474.636058,-1915.238745
213.470596,1258.350101,-9474.636058,-1455.581446
213.470919,666.185348,-9474.636058,-995.924147
213.471241,296.082377,-9474.636058,-919.314598
213.471563,222.061783,-9918.759623,-1149.143247
213.471886,-518.144159,-9252.574275,-995.924147
213.472208,-1258.350101,-9030.512492,-1149.143247
213.472531,-1480.411884,-9326.594869,-1608.800546
213.472853,-2072.576638,-8956.491898,-1532.190996
213.473175,-2146.597232,-9474.636058,-1532.190996
213.473498,-2664.741391,-9474.636058,-1072.533697
213.473820,-2812.782580,-9918.759623,-1072.533697
213.474142,-2738.761985,-9474.636058,-1302.362347
213.474465,-2738.761985,-9326.594869,-1072.533697
213.474787,-2146.597232,-9696.697840,-1838.629195
213.475110,-1850.514855,-9252.574275,-1608.800546
213.475432,-1628.453072,-8808.450710,-1762.019645
213.475754,-888.247130,-8882.471304,-1762.019645
213.476077,0.000000,-9474.636058,-1915.238745
213.476399,222.061783,-9400.615463,-1762.019645
213.476722,0.000000,-9992.780217,-1532.190996
213.477044,-296.082377,-9770.718434,-1302.362347
213.477366,-814.226536,-9548.656652,-1149.143247
213.477689,-888.247130,-9030.512492,-1455.581446
213.478011,-1480.411884,-7846.182985,-842.705048
213.478334,-1702.473667,-8068.244768,-1532.190996
213.478656,-1702.473667,-8216.285956,-1532.190996
213.478978,-1628.453072,-8512.368333,-1685.410096
213.479301,-1480.411884,-8956.491898,-1532.190996
213.479623,-1184.329507,-9252.574275,-1532.190996
213.479946,-740.205942,-9992.780217,-1302.362347
213.480268,-740.205942,-9770.718434,-1608.800546
213.480590,-518.144159,-9992.780217,-1838.629195
213.480913,-592.164754,-9696.697840,-1762.019645
213.481235,-296.082377,-10510.924376,-1991.848295
213.481558,-592.164754,-9770.718434,-1685.410096
213.481880,-962.267725,-9548.656652,-1762.019645
213.482202,-888.247130,-9474.636058,-2221.676944
213.482525,-592.164754,-9104.533087,-1915.238745
213.482847,-666.185348,-9326.594869,-1685.410096
213.483169,-444.123565,-9474.636058,-1225.752797
213.483492,-518.144159,-10066.800811,-1608.800546
213.483814,-444.123565,-9696.697840,-1762.019645
213.484137,-444.123565,-9770.718434,-1838.629195
213.484459,-148.041188,-9844.739029,-1685.410096
213.484781,518.144159,-9326.594869,-1838.629195
213.485104,1184.329507,-9326.594869,-1838.629195
213.485426,2590.720797,-9326.594869,-2145.067394
213.485749,3256.906145,-9770.718434,-1838.629195
213.486071,3849.070898,-9622.677246,-1302.362347
213.486393,3775.050304,-9622.677246,-1149.143247
213.486716,3330.926739,-9474.636058,-1762.019645
213.487038,2664.741391,-9474.636058,-1991.848295
213.487361,2072.576638,-9474.636058,-1915.238745
213.487683,1480.411884,-9030.512492,-1685.410096
213.488005,962.267725,-8734.430116,-1915.238745
213.488328,814.226536,-8364.327145,-1991.848295
213.488650,888.247130,-8586.388927,-1608.800546
213.488973,740.205942,-8438.347739,-1225.752797
213.489295,518.144159,-8512.368333,-1225.752797
213.489617,0.000000,-9252.574275,-1378.971896
213.489940,-592.164754,-9252.574275,-1302.362347
213.490262,-1110.308913,-9844.739029,-766.095498
213.490584,-1924.535449,-9770.718434,-1302.362347
213.490907,-2368.659014,-9770.718434,-1532.190996
213.491229,-2368.659014,-9326.594869,-1532.190996
213.491552,-2294.638420,-9770.718434,-1608.800546
213.491874,-2368.659014,-8956.491898,-1225.752797
213.492196,-2812.782580,-9178.553681,-1302.362347
213.492519,-2886.803174,-9474.636058,-1225.752797
213.492841,-3256.906145,-9696.697840,-1378.971896
213.493164,-3108.864956,-9844.739029,-1532.190996
213.493486,-2812.782580,-9622.677246,-1378.971896
213.493808,-2368.659014,-9030.512492,-1302.362347
213.494131,-1110.308913,-8882.471304,-1532.190996
213.494453,-370.102971,-8808.450710,-1072.533697
213.494776,0.000000,-9178.553681,-1378.971896
213.495098,222.061783,-9326.594869,-1149.143247
213.495420,0.000000,-9548.656652,-1455.581446
213.495743,-814.226536,-9400.615463,-1532.190996
213.496065,-1554.432478,-9104.533087,-2068.457845
213.496388,-1924.535449,-9474.636058,-1915.238745
213.496710,-2368.659014,-8956.491898,-1915.238745
213.497032,-2516.700203,-8660.409521,-1762.019645
213.497355,-2146.597232,-8956.491898,-1838.629195
213.497677,-1776.494261,-9326.594869,-1915.238745
213.497999,-1850.514855,-9770.718434,-1608.800546
213.498322,-1628.453072,-10140.821405,-1685.410096
213.498644,-1628.453072,-10066.800811,-1915.238745
213.498967,-1628.453072,-9918.759623,-2068.457845
213.499289,-1554.432478,-10066.800811,-1915.238745
213.499611,-1628.453072,-9326.594869,-1762.019645
213.499934,-1406.391290,-9474.636058,-1838.629195
213.500256,-962.267725,-9252.574275,-1762.019645
213.500579,-222.061783,-9696.697840,-1991.848295
213.500901,0.000000,-9474.636058,-1762.019645
213.501223,222.061783,-9844.739029,-1378.971896
213.501546,296.082377,-9622.677246,-1225.752797
213.501868,666.185348,-9770.718434,-1378.971896
213.502191,1036.288319,-9770.718434,-1685.410096
213.502513,1184.329507,-9178.553681,-1225.752797
213.502835,1480.411884,-9178.553681,-1378.971896
213.503158,1702.473667,-9252.574275,-1072.533697
213.503480,1924.535449,-9252.574275,-842.705048
213.503803,2294.638420,-8956.491898,-919.314598
213.504125,2220.617826,-8808.450710,-1685.410096
213.504447,2442.679609,-9252.574275,-2068.457845
213.504770,2294.638420,-8808.450710,-1991.848295
213.505092,1776.494261,-9178.553681,-2068.457845
213.505415,1554.432478,-9326.594869,-1915.238745
213.505737,1036.288319,-9622.677246,-1302.362347
213.506059,814.226536,-9474.636058,-1991.848295
213.506382,666.185348,-9474.636058,-2068.457845
213.506704,888.247130,-9548.656652,-1991.848295
213.507026,1110.308913,-9252.574275,-1532.190996
213.507349,1480.411884,-9030.512492,-1378.971896
213.507671,740.205942,-8142.265362,-919.314598
213.507994,296.082377,-8734.430116,-995.924147
213.508316,-444.123565,-8882.471304,-1149.143247
213.508638,-1332.370696,-9030.512492,-995.924147
213.508961,-1850.514855,-9252.574275,-1532.190996
213.509283,-1554.432478,-9474.636058,-1608.800546
213.509606,-1776.494261,-9400.615463,-1532.190996
213.509928,-2072.576638,-9326.594869,-1072.533697
213.510250,-2294.638420,-9474.636058,-995.924147
213.510573,-2442.679609,-9252.574275,-1302.362347
213.510895,-2442.679609,-9918.759623,-1302.362347
213.511218,-2590.720797,-10658.965565,-1915.238745
213.511540,-2738.761985,-10362.883188,-1915.238745
213.511862,-2738.761985,-9992.780217,-2145.067394
213.512185,-1924.535449,-9770.718434,-2221.676944
213.512507,-1036.288319,-9770.718434,-2068.457845
213.512830,-518.144159,-8808.450710,-1762.019645
213.513152,-740.205942,-8586.388927,-1378.971896
213.513474,-1184.329507,-8882.471304,-1378.971896
213.513797,-1850.514855,-9030.512492,-1072.533697
213.514119,-2294.638420,-9030.512492,-1762.019645
213.514441,-2590.720797,-8586.388927,-1149.143247
213.514764,-2960.823768,-8882.471304,-1991.848295
213.515086,-2368.659014,-8882.471304,-1838.629195
213.515409,-2072.576638,-8734.430116,-1532.190996
213.515731,-1554.432478,-9030.512492,-1762.019645
213.516053,-1332.370696,-8956.491898,-2145.067394
213.516376,-1258.350101,-9548.656652,-1532.190996
213.516698,-888.247130,-9770.718434,-1762.019645
213.517021,-962.267725,-10066.800811,-1762.019645
213.517343,-666.185348,-9918.759623,-1838.629195
213.517665,-444.123565,-9474.636058,-2145.067394
213.517988,-814.226536,-9252.574275,-1532.190996
213.518310,-370.102971,-9252.574275,-1762.019645
213.518633,-296.082377,-9104.533087,-1608.800546
213.518955,0.000000,-8808.450710,-1685.410096
213.519277,0.000000,-9178.553681,-1838.629195
213.519600,148.041188,-8956.491898,-1149.143247
213.519922,222.061783,-9474.636058,-1915.238745
213.520245,296.082377,-9474.636058,-1762.019645
213.520567,518.144159,-9252.574275,-1608.800546
213.520889,666.185348,-9326.594869,-1685.410096
213.521212,1554.432478,-9548.656652,-1838.629195
213.521534,1702.473667,-9474.636058,-1838.629195
213.521856,2442.679609,-9992.780217,-1838.629195
213.522179,3108.864956,-10140.821405,-1302.362347
213.522501,3775.050304,-9992.780217,-1762.019645
213.522824,3923.091493,-9400.615463,-1838.629195
213.523146,3256.906145,-9030.512492,-1302.362347
213.523468,2812.782580,-9104.533087,-1685.410096
213.523791,2146.597232,-9326.594869,-1762.019645
213.524113,1554.432478,-9030.512492,-1762.019645
213.524436,1036.288319,-9252.574275,-1762.019645
213.524758,592.164754,-8586.388927,-1455.581446
213.525080,666.185348,-9104.533087,-1608.800546
213.525403,1036.288319,-8882.471304,-1225.752797
213.525725,666.185348,-8956.491898,-1149.143247
213.526048,814.226536,-9326.594869,-1455.581446
213.526370,222.061783,-9326.594869,-1608.800546
213.526692,-740.205942,-9474.636058,-1608.800546
213.527015,-1924.535449,-10066.800811,-1378.971896
213.527337,-2442.679609,-10214.842000,-1532.190996
213.527660,-2368.659014,-9918.759623,-1915.238745
213.527982,-2220.617826,-9474.636058,-1838.629195
213.528304,-2146.597232,-9178.553681,-1225.752797
213.528627,-2442.679609,-8956.491898,-995.924147
213.528949,-2812.782580,-9326.594869,-1302.362347
213.529272,-2886.803174,-9474.636058,-1608.800546
213.529594,-3108.864956,-9918.759623,-1685.410096
213.529916,-3034.844362,-9548.656652,-1225.752797
213.530239,-2220.617826,-10066.800811,-1762.019645
213.530561,-2072.576638,-9622.677246,-1072.533697
213.530883,-1110.308913,-8660.409521,-842.705048
213.531206,-370.102971,-8512.368333,-1225.752797
213.531528,0.000000,-7994.224174,-1532.190996
213.531851,-148.041188,-8512.368333,-1302.362347
213.532173,-1110.308913,-8660.409521,-919.314598
213.532495,-2072.576638,-8882.471304,-995.924147
213.532818,-2664.741391,-9104.533087,-1685.410096
213.533140,-3108.864956,-9030.512492,-1838.629195
213.533463,-2812.782580,-9252.574275,-1991.848295
213.533785,-2812.782580,-9104.533087,-2145.067394
213.534107,-2294.638420,-9030.512492,-1991.848295
213.534430,-1776.494261,-9104.533087,-1685.410096
213.534752,-1184.329507,-9474.636058,-1762.019645
213.535075,-888.247130,-9844.739029,-1225.752797
213.535397,-962.267725,-9992.780217,-1838.629195
213.535719,-1258.350101,-10066.800811,-1762.019645
213.536042,-1184.329507,-9622.677246,-1685.410096
213.536364,-962.267725,-9548.656652,-1532.190996
213.536687,-962.267725,-9104.533087,-1302.362347
213.537009,0.000000,-8734.430116,-1762.019645
213.537331,-222.061783,-9030.512492,-2145.067394
213.537654,148.041188,-8882.471304,-1762.019645
213.537976,518.144159,-9104.533087,-1685.410096
213.538298,444.123565,-9622.677246,-1608.800546
213.538621,74.020594,-9844.739029,-995.924147
213.538943,444.123565,-9474.636058,-1455.581446
213.539266,592.164754,-9326.594869,-1991.848295
213.539588,1258.350101,-9622.677246,-2451.505594
213.539910,2072.576638,-9770.718434,-2451.505594
213.540233,2368.659014,-9474.636058,-1991.848295
213.540555,3034.844362,-9844.739029,-2068.457845
213.540878,3330.926739,-9844.739029,-1455.581446
213.541200,2960.823768,-9400.615463,-1762.019645
213.541522,2590.720797,-8808.450710,-2221.676944
213.541845,1776.494261,-8660.409521,-2451.505594
213.542167,1184.329507,-8364.327145,-2068.457845
213.542490,888.247130,-8956.491898,-2145.067394
213.542812,666.185348,-9030.512492,-1915.238745
213.543134,666.185348,-9252.574275,-1915.238745
213.543457,1110.308913,-9326.594869,-1838.629195
213.543779,1110.308913,-9178.553681,-1072.533697
213.544102,1036.288319,-9474.636058,-1225.752797
213.544424,296.082377,-9178.553681,-1149.143247
213.544746,-148.041188,-9178.553681,-1455.581446
213.545069,-888.247130,-9252.574275,-1455.581446
213.545391,-1850.514855,-9696.697840,-1608.800546
213.545713,-1924.535449,-9770.718434,-1455.581446
213.546036,-2590.720797,-9918.759623,-995.924147
213.546358,-2960.823768,-9622.677246,-689.485948
213.546681,-2886.803174,-9770.718434,-842.705048
213.547003,-2664.741391,-9474.636058,-1225.752797
213.547325,-2738.761985,-9030.512492,-1532.190996
213.547648,-2294.638420,-9474.636058,-1378.971896
213.547970,-2220.617826,-9178.553681,-1302.362347
213.548293,-2220.617826,-9326.594869,-1608.800546
213.548615,-1776.494261,-9400.615463,-1302.362347
213.548937,-888.247130,-9696.697840,-919.314598
213.549260,74.020594,-10066.800811,-1072.533697
213.549582,0.000000,-9696.697840,-1378.971896
213.549905,-222.061783,-9622.677246,-1225.752797
213.550227,-444.123565,-8882.471304,-766.095498
213.550549,-1110.308913,-8882.471304,-689.485948
213.550872,-1702.473667,-8512.368333,-1149.143247
213.551194,-2220.617826,-8808.450710,-1685.410096
213.551517,-2590.720797,-8512.368333,-1608.800546
213.551839,-2442.679609,-8586.388927,-1455.581446
213.552161,-2146.597232,-9104.533087,-1455.581446
213.552484,-1628.453072,-8734.430116,-1149.143247
213.552806,-1110.308913,-9252.574275,-1608.800546
213.553129,-962.267725,-9252.574275,-1685.410096
213.553451,-888.247130,-9474.636058,-1838.629195
213.553773,-962.267725,-9622.677246,-1915.238745
213.554096,-1480.411884,-9844.739029,-1455.581446
213.554418,-666.185348,-9844.739029,-1915.238745
213.554740,-592.164754,-9696.697840,-2068.457845
213.555063,0.000000,-9696.697840,-2298.286494
213.555385,74.020594,-9400.615463,-1838.629195
213.555708,148.041188,-9474.636058,-1455.581446
213.556030,592.164754,-9622.677246,-995.924147
213.556352,148.041188,-9622.677246,-1838.629195
213.556675,0.000000,-9770.718434,-1532.190996
213.556997,-148.041188,-8882.471304,-1225.752797
213.557320,0.000000,-8586.388927,-2145.067394
213.557642,814.226536,-9104.533087,-2221.676944
213.557964,2442.679609,-9548.656652,-2451.505594
213.558287,3256.906145,-9548.656652,-2068.457845
213.558609,3997.112087,-9770.718434,-1302.362347
213.558932,4811.338623,-10140.821405,-1149.143247
213.559254,4811.338623,-9474.636058,-1532.190996
213.559576,4441.235652,-9474.636058,-2145.067394
213.559899,3256.906145,-8956.491898,-1762.019645
213.560221,2146.597232,-8956.491898,-1762.019645
213.560544,1406.391290,-8956.491898,-1838.629195
213.560866,1184.329507,-8586.388927,-1762.019645
213.561188,888.247130,-8364.327145,-2145.067394
213.561511,888.247130,-8660.409521,-1991.848295
213.561833,518.144159,-8882.471304,-1378.971896
213.562155,74.020594,-8956.491898,-1378.971896
213.562478,-592.164754,-9326.594869,-1455.581446
213.562800,-1776.494261,-9474.636058,-1378.971896
213.563123,-1998.556043,-9696.697840,-1838.629195
213.563445,-2590.720797,-9696.697840,-2145.067394
213.563767,-2738.761985,-9844.739029,-1991.848295
213.564090,-2516.700203,-10362.883188,-1991.848295
213.564412,-2294.638420,-10214.842000,-1608.800546
213.564735,-2368.659014,-10140.821405,-2145.067394
213.565057,-2516.700203,-9844.739029,-1378.971896
213.565379,-2886.803174,-10436.903782,-1608.800546
213.565702,-2812.782580,-10362.883188,-1915.238745
213.566024,-2960.823768,-9770.718434,-1762.019645
213.566346,-2886.803174,-9474.636058,-1302.362347
213.566669,-1480.411884,-9178.553681,-766.095498
213.566991,-666.185348,-9104.533087,-1072.533697
213.567313,0.000000,-8808.450710,-612.876398
213.567635,296.082377,-9030.512492,-995.924147
213.567958,222.061783,-9400.615463,-995.924147
213.568280,-592.164754,-8586.388927,-919.314598
213.568602,-1628.453072,-8956.491898,-919.314598
213.568925,-2368.659014,-8956.491898,-1532.190996
213.569247,-2812.782580,-9252.574275,-1915.238745
213.569569,-2960.823768,-9030.512492,-1915.238745
213.569892,-2960.823768,-8734.430116,-1915.238745
213.570214,-2368.659014,-9252.574275,-1455.581446
213.570536,-2368.659014,-9474.636058,-1455.581446
213.570858,-2442.679609,-9696.697840,-1532.190996
213.571181,-2442.679609,-9696.697840,-1455.581446
213.571503,-2590.720797,-9844.739029,-1915.238745
213.571825,-2146.597232,-9326.594869,-1991.848295
213.572148,-1924.535449,-9400.615463,-1608.800546
213.572470,-1480.411884,-8956.491898,-1532.190996
213.572792,-888.247130,-9178.553681,-1302.362347
213.573115,-296.082377,-9474.636058,-1302.362347
213.573437,222.061783,-9474.636058,-1532.190996
213.573759,518.144159,-9622.677246,-1302.362347
213.574081,888.247130,-9252.574275,-1225.752797
213.574404,962.267725,-9252.574275,-1225.752797
213.574726,1036.288319,-8956.491898,-1532.190996
213.575048,1702.473667,-9474.636058,-1608.800546
213.575371,2072.576638,-9178.553681,-1455.581446
213.575693,2220.617826,-9400.615463,-1608.800546
213.576015,2664.741391,-9844.739029,-1532.190996
213.576338,3182.885551,-9770.718434,-1302.362347
213.576660,3627.009116,-9548.656652,-1838.629195
213.576982,3997.112087,-8956.491898,-1915.238745
213.577304,3330.926739,-9030.512492,-2068.457845
213.577627,2368.659014,-8438.347739,-2221.676944
213.577949,1702.473667,-8808.450710,-2068.457845
213.578271,888.247130,-9326.594869,-2451.505594
213.578594,222.061783,-9400.615463,-1915.238745
213.578916,0.000000,-9548.656652,-2221.676944
213.579238,370.102971,-9400.615463,-2374.896044
213.579561,814.226536,-9252.574275,-2221.676944
213.579883,888.247130,-9104.533087,-2068.457845
213.580205,814.226536,-9104.533087,-1915.238745
213.580527,296.082377,-9252.574275,-1149.143247
213.580850,-222.061783,-9474.636058,-1532.190996
213.581172,-888.247130,-9696.697840,-1455.581446
213.581494,-1480.411884,-9548.656652,-1225.752797
213.581817,-1776.494261,-9474.636058,-1455.581446
213.582139,-1776.494261,-9400.615463,-1532.190996
213.582461,-1332.370696,-9548.656652,-842.705048
213.582784,-1628.453072,-9474.636058,-689.485948
213.583106,-1998.556043,-9252.574275,-766.095498
213.583428,-2590.720797,-9474.636058,-1149.143247
213.583750,-2738.761985,-9622.677246,-1685.410096
213.584073,-2368.659014,-9548.656652,-1685.410096
213.584395,-2368.659014,-9474.636058,-1838.629195
213.584717,-2072.576638,-9474.636058,-1685.410096
213.585040,-1332.370696,-9326.594869,-1762.019645
213.585362,-740.205942,-9178.553681,-1302.362347
213.585684,-888.247130,-9400.615463,-1762.019645
213.586007,-1258.350101,-9400.615463,-1455.581446
213.586329,-2072.576638,-9770.718434,-1225.752797
213.586651,-2664.741391,-9696.697840,-995.924147
213.586973,-3256.906145,-9104.533087,-1149.143247
213.587296,-3256.906145,-8438.347739,-1608.800546
213.587618,-2886.803174,-8364.327145,-1608.800546
213.587940,-2590.720797,-8290.306550,-1608.800546
213.588263,-2294.638420,-8290.306550,-1149.143247
213.588585,-1850.514855,-9030.512492,-1532.190996
213.588907,-1110.308913,-9622.677246,-1455.581446
213.589230,-1110.308913,-9770.718434,-1378.971896
213.589552,-888.247130,-10362.883188,-1532.190996
213.589874,-666.185348,-10362.883188,-1685.410096
213.590196,-296.082377,-10140.821405,-1838.629195
213.590519,0.000000,-9474.636058,-1455.581446
213.590841,74.020594,-9030.512492,-1302.362347
213.591163,370.102971,-9104.533087,-1532.190996
213.591486,370.102971,-9252.574275,-1762.019645
213.591808,296.082377,-9252.574275,-1455.581446
213.592130,148.041188,-9474.636058,-1225.752797
213.592453,0.000000,-9178.553681,-766.095498
213.592775,148.041188,-9474.636058,-1608.800546
213.593097,518.144159,-9474.636058,-1685.410096
213.593419,888.247130,-9326.594869,-1149.143247
213.593742,1628.453072,-9400.615463,-1378.971896
213.594064,2294.638420,-9030.512492,-1762.019645
213.594386,2812.782580,-9474.636058,-1378.971896
213.594709,2960.823768,-9474.636058,-1302.362347
213.595031,3552.988522,-9474.636058,-1608.800546
213.595353,3552.988522,-9326.594869,-1532.190996
213.595676,3404.947333,-8956.491898,-1685.410096
213.595998,3108.864956,-8512.368333,-1762.019645
213.596320,2738.761985,-8882.471304,-1378.971896
213.596642,1702.473667,-8882.471304,-1302.362347
213.596965,1184.329507,-8586.388927,-1685.410096
213.597287,814.226536,-8734.430116,-1762.019645
213.597609,814.226536,-8660.409521,-1608.800546
213.597932,592.164754,-8438.347739,-1685.410096
213.598254,370.102971,-8512.368333,-1685.410096
213.598576,370.102971,-8956.491898,-1685.410096
213.598899,148.041188,-9252.574275,-1838.629195
213.599221,-148.041188,-9992.780217,-1302.362347
213.599543,-1110.308913,-9992.780217,-1685.410096
213.599865,-2072.576638,-10362.883188,-1915.238745
213.600188,-2146.597232,-9918.759623,-1838.629195
213.600510,-1776.494261,-9918.759623,-2374.896044
213.600832,-1554.432478,-9622.677246,-2221.676944
213.601155,-1480.411884,-9252.574275,-1225.752797
213.601477,-2294.638420,-9030.512492,-1149.143247
213.601799,-2516.700203,-9696.697840,-1149.143247
213.602122,-3182.885551,-9918.759623,-1608.800546
213.602444,-3182.885551,-10140.821405,-1685.410096
213.602766,-2960.823768,-9918.759623,-1455.581446
213.603088,-2294.638420,-9030.512492,-1072.533697
213.603411,-1702.473667,-8438.347739,-1608.800546
213.603733,-888.247130,-8586.388927,-1149.143247
213.604055,-666.185348,-8364.327145,-1072.533697
213.604378,-1110.308913,-8734.430116,-1455.581446
213.604700,-1850.514855,-8956.491898,-1608.800546
213.605022,-2812.782580,-9696.697840,-1915.238745
213.605345,-3627.009116,-9770.718434,-1991.848295
213.605667,-3775.050304,-9992.780217,-2068.457845
213.605989,-3552.988522,-9548.656652,-2068.457845
213.606311,-3108.864956,-9104.533087,-1838.629195
213.606634,-2590.720797,-9178.553681,-1991.848295
213.606956,-2220.617826,-9178.553681,-1915.238745
213.607278,-2072.576638,-9474.636058,-1762.019645
213.607601,-2146.597232,-10140.821405,-1455.581446
213.607923,-1924.535449,-10066.800811,-1302.362347
213.608245,-1554.432478,-9178.553681,-1225.752797
213.608568,-1258.350101,-9474.636058,-1838.629195
213.608890,-814.226536,-9178.553681,-1532.190996
213.609212,-148.041188,-9030.512492,-995.924147
213.609534,370.102971,-9104.533087,-1225.752797
213.609857,1036.288319,-8660.409521,-1225.752797
213.610179,1110.308913,-9104.533087,-1762.019645
213.610501,1406.391290,-9400.615463,-1302.362347
213.610824,1776.494261,-9622.677246,-1378.971896
213.611146,1702.473667,-9474.636058,-1378.971896
213.611468,1924.535449,-9252.574275,-1302.362347
213.611791,1924.535449,-9178.553681,-919.314598
213.612113,1924.535449,-9252.574275,-1149.143247
213.612435,2072.576638,-9622.677246,-1455.581446
213.612757,2072.576638,-9252.574275,-1378.971896
213.613080,2072.576638,-9252.574275,-919.314598
213.613402,1924.535449,-8364.327145,-995.924147
213.613724,1554.432478,-8734.430116,-1455.581446
213.614047,1036.288319,-8364.327145,-1915.238745
213.614369,592.164754,-8586.388927,-2451.505594
213.614691,296.082377,-9178.553681,-2451.505594
213.615014,0.000000,-9030.512492,-1685.410096
213.615336,296.082377,-9918.759623,-2068.457845
213.615658,518.144159,-10140.821405,-1991.848295
213.615980,1036.288319,-10140.821405,-1991.848295
213.616303,1184.329507,-9918.759623,-1838.629195
213.616625,1110.308913,-9770.718434,-1838.629195
213.616947,1480.411884,-9326.594869,-1608.800546
213.617270,740.205942,-8734.430116,-1149.143247
213.617592,222.061783,-8882.471304,-689.485948
213.617914,-296.082377,-8734.430116,-1225.752797
213.618237,-296.082377,-9326.594869,-1608.800546
213.618559,-740.205942,-9400.615463,-1225.752797
213.618881,-1332.370696,-9548.656652,-919.314598
213.619203,-1850.514855,-9548.656652,-612.876398
213.619526,-2368.659014,-8882.471304,-689.485948
213.619848,-2590.720797,-8956.491898,-1608.800546
213.620170,-2960.823768,-8808.450710,-1838.629195
213.620493,-3330.926739,-8808.450710,-2068.457845
213.620815,-3330.926739,-9622.677246,-2145.067394
213.621137,-3108.864956,-9844.739029,-1915.238745
213.621460,-2368.659014,-9918.759623,-2374.896044
213.621782,-2072.576638,-9844.739029,-2145.067394
213.622104,-1850.514855,-9474.636058,-2451.505594
213.622426,-2220.617826,-9474.636058,-2068.457845
213.622749,-2368.659014,-9474.636058,-1838.629195
213.623071,-2590.720797,-9252.574275,-1838.629195
213.623393,-2738.761985,-8734.430116,-1838.629195
213.623716,-2442.679609,-9178.553681,-1302.362347
213.624038,-2294.638420,-8290.306550,-1455.581446
213.624360,-1702.473667,-8882.471304,-1455.581446
213.624683,-1258.350101,-8734.430116,-1378.971896
213.625005,-888.247130,-9030.512492,-1455.581446
213.625327,-370.102971,-9178.553681,-1302.362347
213.625649,-222.061783,-9252.574275,-1608.800546
213.625972,-148.041188,-9548.656652,-2221.676944
213.626294,0.000000,-9844.739029,-1915.238745
213.626616,0.000000,-10066.800811,-1685.410096
213.626939,-296.082377,-9918.759623,-1685.410096
213.627261,-148.041188,-10436.903782,-1838.629195
213.627583,-222.061783,-9696.697840,-2068.457845
213.627906,-222.061783,-9770.718434,-2145.067394
213.628228,-296.082377,-9548.656652,-2221.676944
213.628550,0.000000,-9326.594869,-2374.896044
213.628872,148.041188,-9474.636058,-2528.115143
213.629195,1110.308913,-9770.718434,-1991.848295
213.629517,740.205942,-9474.636058,-1455.581446
213.629839,740.205942,-9104.533087,-1302.362347
213.630162,1332.370696,-9252.574275,-1685.410096
213.630484,2146.597232,-9474.636058,-1915.238745
213.630806,2886.803174,-9474.636058,-1685.410096
213.631129,3034.844362,-9474.636058,-766.095498
213.631451,3849.070898,-9474.636058,-383.047749
213.631773,4589.276840,-9326.594869,-689.485948
213.632095,4293.194464,-8438.347739,-1072.533697
213.632418,3627.009116,-8364.327145,-1455.581446
213.632740,2664.741391,-8512.368333,-1225.752797
213.633062,1776.494261,-9104.533087,-1072.533697
213.633385,1036.288319,-9178.553681,-1225.752797
213.633707,592.164754,-9178.553681,-1455.581446
213.634029,296.082377,-8956.491898,-1838.629195
213.634352,74.020594,-8808.450710,-1225.752797
213.634674,-296.082377,-8808.450710,-1532.190996
213.634996,-666.185348,-8956.491898,-1685.410096
213.635318,-1110.308913,-9178.553681,-1455.581446
213.635641,-1702.473667,-9622.677246,-1838.629195
213.635963,-2664.741391,-9400.615463,-1685.410096
213.636285,-2590.720797,-9992.780217,-2145.067394
213.636608,-2664.741391,-9844.739029,-2068.457845
213.636930,-2072.576638,-10214.842000,-2221.676944
213.637252,-1998.556043,-9474.636058,-1455.581446
213.637575,-1924.535449,-9030.512492,-919.314598
213.637897,-2294.638420,-9326.594869,-766.095498
213.638219,-2368.659014,-9548.656652,-1149.143247
213.638541,-2886.803174,-9548.656652,-1532.190996
213.638864,-3256.906145,-9400.615463,-1532.190996
213.639186,-2960.823768,-9252.574275,-1072.533697
213.639508,-2442.679609,-9030.512492,-1225.752797
213.639831,-1702.473667,-8734.430116,-1608.800546
213.640153,-1406.391290,-8734.430116,-1532.190996
213.640475,-1406.391290,-8882.471304,-1762.019645
213.640798,-1628.453072,-9474.636058,-2068.457845
213.641120,-2146.597232,-9326.594869,-1838.629195
213.641442,-2516.700203,-9770.718434,-2221.676944
213.641764,-3256.906145,-9770.718434,-2681.334243
213.642087,-2886.803174,-9992.780217,-2528.115143
213.642409,-2812.782580,-9696.697840,-2451.505594
213.642731,-2516.700203,-9326.594869,-2145.067394
213.643054,-1998.556043,-9474.636058,-1685.410096
213.643376,-888.247130,-9474.636058,-1915.238745
213.643698,-666.185348,-9474.636058,-1608.800546
213.644021,-370.102971,-9474.636058,-1608.800546
213.644343,-296.082377,-9104.533087,-1225.752797
213.644665,0.000000,-8882.471304,-1149.143247
213.644987,74.020594,-8808.450710,-1532.190996
213.645310,74.020594,-9252.574275,-1072.533697
213.645632,222.061783,-9104.533087,-919.314598
213.645954,592.164754,-9400.615463,-1378.971896
213.646277,814.226536,-9178.553681,-1072.533697
213.646599,1480.411884,-9252.574275,-1762.019645
213.646921,1554.432478,-9252.574275,-1455.581446
213.647244,1480.411884,-9622.677246,-1915.238745
213.647566,1480.411884,-9918.759623,-1685.410096
213.647888,1628.453072,-9992.780217,-1532.190996
213.648210,1480.411884,-9474.636058,-1072.533697
213.648533,1554.432478,-9770.718434,-1838.629195
213.648855,1702.473667,-9918.759623,-1455.581446
213.649177,1998.556043,-9326.594869,-1378.971896
213.649500,2220.617826,-9178.553681,-1378.971896
213.649822,1998.556043,-8586.388927,-995.924147
213.650144,2220.617826,-8438.347739,-1225.752797
213.650467,1554.432478,-8586.388927,-1302.362347
213.650789,1406.391290,-8956.491898,-1455.581446
213.651111,1110.308913,-9474.636058,-1532.190996
213.651433,1036.288319,-9252.574275,-1532.190996
213.651756,518.144159,-9252.574275,-689.485948
213.652078,592.164754,-9474.636058,-1608.800546
213.652400,592.164754,-9548.656652,-1532.190996
213.652723,222.061783,-9400.615463,-1072.533697
213.653045,0.000000,-8956.491898,-459.657299
213.653367,74.020594,-8586.388927,-1762.019645
213.653690,-296.082377,-9474.636058,-2298.286494
213.654012,-666.185348,-10140.821405,-1532.190996
213.654334,-1406.391290,-10066.800811,-1225.752797
213.654656,-1924.535449,-9918.759623,-1378.971896
213.654979,-2442.679609,-9696.697840,-1072.533697
213.655301,-2812.782580,-9326.594869,-842.705048
213.655623,-3330.926739,-8734.430116,-1378.971896
213.655946,-3478.967927,-8660.409521,-1608.800546
213.656268,-3478.967927,-9326.594869,-1608.800546
213.656590,-3108.864956,-9400.615463,-1608.800546
213.656913,-2442.679609,-9252.574275,-1225.752797
213.657235,-2516.700203,-9178.553681,-1455.581446
213.657557,-1776.494261,-9474.636058,-1838.629195
213.657879,-1184.329507,-9696.697840,-1838.629195
213.658202,-1110.308913,-9326.594869,-1302.362347
213.658524,-1110.308913,-9104.533087,-1378.971896
213.658846,-1480.411884,-9178.553681,-1685.410096
213.659169,-1850.514855,-9400.615463,-1915.238745
213.659491,-2220.617826,-9252.574275,-1685.410096
213.659813,-2294.638420,-8882.471304,-1915.238745
213.660136,-2368.659014,-8734.430116,-1838.629195
213.660458,-1628.453072,-8956.491898,-1608.800546
213.660780,-1554.432478,-8956.491898,-1532.190996
213.661102,-1258.350101,-8808.450710,-1685.410096
213.661425,-888.247130,-9252.574275,-2068.457845
213.661747,-740.205942,-9548.656652,-1915.238745
213.662069,-518.144159,-9474.636058,-1685.410096
213.662392,-444.123565,-9844.739029,-1608.800546
213.662714,0.000000,-9770.718434,-1762.019645
213.663036,222.061783,-9770.718434,-1685.410096
213.663359,148.041188,-9474.636058,-1532.190996
213.663681,222.061783,-9104.533087,-2298.286494
213.664003,370.102971,-9252.574275,-2221.676944
213.664325,296.082377,-9326.594869,-2221.676944
213.664648,148.041188,-9400.615463,-1991.848295
213.664970,296.082377,-9400.615463,-1838.629195
213.665292,740.205942,-9474.636058,-2298.286494
213.665615,1332.370696,-9992.780217,-2604.724693
213.665937,1258.350101,-10140.821405,-1532.190996
213.666259,1480.411884,-9622.677246,-1072.533697
213.666582,2146.597232,-9474.636058,-1532.190996
213.666904,2812.782580,-9474.636058,-2068.457845
213.667226,3552.988522,-9770.718434,-1762.019645
213.667548,3849.070898,-9474.636058,-1072.533697
213.667871,4293.194464,-9326.594869,-919.314598
213.668193,4145.153275,-9400.615463,-612.876398
213.668513,3849.070898,-9252.574275,-612.876398
213.668835,3182.885551,-9252.574275,-766.095498
213.669157,1924.535449,-8734.430116,-1302.362347
213.669480,740.205942,-8660.409521,-1149.143247
213.669802,296.082377,-8734.430116,-1532.190996
213.670125,0.000000,-8512.368333,-1455.581446
213.670447,-444.123565,-9400.615463,-1532.190996
213.670769,-666.185348,-8808.450710,-1608.800546
213.671092,-1110.308913,-9474.636058,-1378.971896
213.671414,-1036.288319,-10140.821405,-1608.800546
213.671737,-1332.370696,-10214.842000,-1762.019645
213.672059,-1850.514855,-10436.903782,-1762.019645
213.672381,-2146.597232,-10214.842000,-1838.629195
213.672704,-2294.638420,-9844.739029,-1378.971896
213.673026,-1776.494261,-9474.636058,-1915.238745
213.673349,-1554.432478,-9474.636058,-2221.676944
213.673671,-1702.473667,-9474.636058,-1225.752797
213.673993,-1628.453072,-9252.574275,-76.609550
213.674316,-2146.597232,-9030.512492,-459.657299
213.674638,-3330.926739,-9178.553681,-1149.143247
213.674961,-3627.009116,-9400.615463,-1302.362347
213.675283,-3849.070898,-8808.450710,-1302.362347
213.675605,-3256.906145,-7994.224174,-1532.190996
213.675928,-2516.700203,-7994.224174,-1915.238745
213.676250,-1776.494261,-8068.244768,-1302.362347
213.676572,-1628.453072,-8956.491898,-1532.190996
213.676895,-1628.453072,-9770.718434,-1608.800546
213.677217,-2146.597232,-10362.883188,-2221.676944
213.677540,-2664.741391,-10288.862594,-1991.848295
213.677862,-3256.906145,-9992.780217,-2451.505594
213.678184,-2960.823768,-9844.739029,-2604.724693
213.678507,-2590.720797,-9400.615463,-2451.505594
213.678829,-2072.576638,-9178.553681,-2221.676944
213.679152,-1628.453072,-8734.430116,-1608.800546
213.679474,-666.185348,-9474.636058,-1455.581446
213.679796,-592.164754,-9326.594869,-1302.362347
213.680119,-296.082377,-9474.636058,-1225.752797
213.680441,0.000000,-9474.636058,-1149.143247
213.680764,74.020594,-8734.430116,-1378.971896
213.681086,444.123565,-8660.409521,-2145.067394
213.681408,222.061783,-8290.306550,-1149.143247
213.681731,148.041188,-9030.512492,-995.924147
213.682053,74.020594,-9178.553681,-1225.752797
213.682376,222.061783,-9844.739029,-1762.019645
213.682698,518.144159,-10066.800811,-1762.019645
213.683020,1184.329507,-9918.759623,-2145.067394
213.683343,1184.329507,-9770.718434,-2145.067394
213.683665,1554.432478,-9770.718434,-2221.676944
213.683988,1924.535449,-9474.636058,-2145.067394
213.684310,1776.494261,-9474.636058,-1455.581446
213.684632,1702.473667,-9178.553681,-1455.581446
213.684955,1924.535449,-9770.718434,-1915.238745
213.685277,2072.576638,-9770.718434,-1608.800546
213.685600,2146.597232,-9252.574275,-1225.752797
213.685922,2590.720797,-8956.491898,-919.314598
213.686244,2812.782580,-8512.368333,-919.314598
213.686567,2368.659014,-7476.080014,-919.314598
213.686889,1924.535449,-8290.306550,-1225.752797
213.687212,1480.411884,-8734.430116,-1762.019645
213.687534,740.205942,-9326.594869,-1608.800546
213.687856,296.082377,-9844.739029,-2451.505594
213.688179,0.000000,-9696.697840,-1225.752797
213.688501,148.041188,-10066.800811,-1685.410096
213.688824,296.082377,-9622.677246,-1455.581446
213.689146,74.020594,-9400.615463,-1762.019645
213.689468,0.000000,-9252.574275,-1838.629195
213.689791,74.020594,-9474.636058,-1762.019645
213.690113,-518.144159,-9696.697840,-2145.067394
213.690436,-888.247130,-10066.800811,-1685.410096
213.690758,-1110.308913,-10510.924376,-1532.190996
213.691080,-962.267725,-9918.759623,-1302.362347
213.691403,-1924.535449,-9104.533087,-1302.362347
213.691725,-2220.617826,-8660.409521,-995.924147
213.692048,-2960.823768,-8586.388927,-995.924147
213.692370,-3404.947333,-8882.471304,-1608.800546
213.692692,-3701.029710,-9252.574275,-1991.848295
213.693015,-3923.091493,-9548.656652,-1455.581446
213.693337,-3108.864956,-9030.512492,-689.485948
213.693660,-2516.700203,-9252.574275,-1762.019645
213.693982,-1850.514855,-9104.533087,-1838.629195
213.694304,-1554.432478,-9326.594869,-1685.410096
213.694627,-1850.514855,-9252.574275,-1378.971896
213.694949,-2072.576638,-9326.594869,-995.924147
213.695271,-2072.576638,-9622.677246,-2298.286494
213.695594,-2442.679609,-9918.759623,-1838.629195
213.695916,-2664.741391,-9696.697840,-1838.629195
213.696239,-2368.659014,-9400.615463,-1608.800546
213.696561,-2146.597232,-8660.409521,-1455.581446
213.696883,-1850.514855,-8438.347739,-1378.971896
213.697206,-1258.350101,-8586.388927,-1378.971896
213.697528,-1110.308913,-8660.409521,-1608.800546
213.697851,-1184.329507,-9104.533087,-1608.800546
213.698173,-1036.288319,-9326.594869,-1225.752797
213.698495,-518.144159,-9326.594869,-1225.752797
213.698818,-222.061783,-9696.697840,-1991.848295
213.699140,-148.041188,-9474.636058,-1455.581446
213.699463,74.020594,-9252.574275,-1149.143247
213.699785,222.061783,-9104.533087,-1455.581446
213.700107,296.082377,-8586.388927,-1915.238745
213.700430,74.020594,-9400.615463,-2221.676944
213.700752,0.000000,-9326.594869,-2145.067394
213.701075,0.000000,-9548.656652,-1991.848295
213.701397,222.061783,-9696.697840,-2451.505594
213.701719,1036.288319,-10214.842000,-2681.334243
213.702042,1998.556043,-10140.821405,-1991.848295
213.702364,2072.576638,-9770.718434,-1608.800546
213.702687,2368.659014,-9770.718434,-1455.581446
213.703009,2664.741391,-9474.636058,-1225.752797
213.703331,2960.823768,-9548.656652,-1455.581446
213.703654,3182.885551,-8808.450710,-919.314598
213.703976,3256.906145,-9178.553681,-1225.752797
213.704299,3478.967927,-8956.491898,-1225.752797
213.704621,3404.947333,-8882.471304,-919.314598
213.704943,2886.803174,-8882.471304,-1149.143247
213.705266,2368.659014,-7994.224174,-689.485948
213.705588,1924.535449,-9104.533087,-1378.971896
213.705911,1036.288319,-9104.533087,-1532.190996
213.706233,444.123565,-9400.615463,-2068.457845
213.706555,74.020594,-9252.574275,-1991.848295
213.706878,74.020594,-9400.615463,-2145.067394
213.707200,518.144159,-9696.697840,-1762.019645
213.707523,-148.041188,-9696.697840,-1455.581446
213.707845,-370.102971,-10066.800811,-1685.410096
213.708167,-888.247130,-9770.718434,-1838.629195
213.708490,-1332.370696,-10066.800811,-2068.457845
213.708812,-1406.391290,-9770.718434,-2068.457845
213.709135,-1110.308913,-9992.780217,-1915.238745
213.709457,-1258.350101,-9770.718434,-1838.629195
213.709779,-1332.370696,-9400.615463,-842.705048
213.710102,-1850.514855,-9030.512492,-153.219100
213.710424,-2294.638420,-8364.327145,0.000000
213.710747,-2886.803174,-9030.512492,-1225.752797
213.711069,-3701.029710,-9178.553681,-1762.019645
213.711391,-4293.194464,-9326.594869,-1762.019645
213.711714,-3849.070898,-9474.636058,-1685.410096
213.712036,-3034.844362,-9252.574275,-1532.190996
213.712359,-2368.659014,-8734.430116,-1072.533697
213.712681,-2072.576638,-8956.491898,-1608.800546
213.713003,-1776.494261,-9844.739029,-1685.410096
213.713326,-2220.617826,-10362.883188,-1991.848295
213.713648,-2738.761985,-10510.924376,-1915.238745
213.713970,-3108.864956,-9918.759623,-1915.238745
213.714293,-3330.926739,-9474.636058,-1915.238745
213.714615,-2960.823768,-9474.636058,-1991.848295
213.714938,-2664.741391,-8882.471304,-1532.190996
213.715260,-2220.617826,-8660.409521,-1302.362347
213.715582,-1480.411884,-8660.409521,-919.314598
213.715905,-666.185348,-9030.512492,-1685.410096
213.716227,-592.164754,-8956.491898,-1072.533697
213.716550,-666.185348,-9326.594869,-842.705048
213.716872,-592.164754,-9400.615463,-1225.752797
213.717194,-370.102971,-8586.388927,-1149.143247
213.717517,-296.082377,-8808.450710,-612.876398
213.717839,-814.226536,-8586.388927,-1072.533697
213.718162,-666.185348,-9252.574275,-1225.752797
213.718484,-666.185348,-9696.697840,-1608.800546
213.718806,-296.082377,-9844.739029,-2068.457845
213.719129,148.041188,-9622.677246,-1915.238745
213.719451,370.102971,-9474.636058,-2451.505594
213.719774,592.164754,-9400.615463,-2145.067394
213.720096,1184.329507,-9474.636058,-2145.067394
213.720418,1628.453072,-9992.780217,-2221.676944
213.720741,1480.411884,-9918.759623,-1915.238745
213.721063,2294.638420,-10066.800811,-1608.800546
213.721386,2072.576638,-9548.656652,-1225.752797
213.721708,2738.761985,-9474.636058,-612.876398
213.722030,2886.803174,-9104.533087,-766.095498
213.722353,3478.967927,-8660.409521,-919.314598
213.722675,3182.885551,-8438.347739,-612.876398
213.722998,2960.823768,-7994.224174,-689.485948
213.723320,2220.617826,-8142.265362,-1072.533697
213.723642,1480.411884,-8586.388927,-1532.190996
213.723965,962.267725,-9252.574275,-1455.581446
213.724287,518.144159,-9696.697840,-1455.581446
213.724610,296.082377,-9548.656652,-1915.238745
213.724932,222.061783,-10066.800811,-2374.896044
213.725254,370.102971,-10140.821405,-2221.676944
213.725577,518.144159,-9992.780217,-1991.848295
213.725899,0.000000,-9696.697840,-1991.848295
213.726222,-148.041188,-9770.718434,-1762.019645
213.726544,-888.247130,-9474.636058,-1838.629195
213.726866,-1332.370696,-9696.697840,-1991.848295
213.727189,-1480.411884,-10214.842000,-2145.067394
213.727511,-1258.350101,-10066.800811,-2298.286494
213.727834,-1332.370696,-9844.739029,-1608.800546
213.728156,-1554.432478,-9326.594869,-306.438199
213.728478,-2146.597232,-8512.368333,-383.047749
213.728801,-2294.638420,-8512.368333,-919.314598
213.729123,-2442.679609,-8808.450710,-1302.362347
213.729446,-3034.844362,-9104.533087,-1455.581446
213.729768,-3404.947333,-8660.409521,-1378.971896
213.730090,-2812.782580,-9400.615463,-1608.800546
213.730413,-2368.659014,-9548.656652,-1608.800546
213.730735,-1702.473667,-9622.677246,-1838.629195
213.731058,-1998.556043,-9770.718434,-1991.848295
213.731380,-2294.638420,-9622.677246,-1685.410096
213.731702,-2738.761985,-10214.842000,-1915.238745
213.732025,-3627.009116,-10066.800811,-2451.505594
213.732347,-3701.029710,-9770.718434,-2451.505594
213.732669,-3627.009116,-9400.615463,-2451.505594
213.732992,-2738.761985,-8882.471304,-2298.286494
213.733314,-2146.597232,-9178.553681,-1838.629195
213.733637,-1850.514855,-9030.512492,-1608.800546
213.733959,-1258.350101,-9474.636058,-1225.752797
213.734281,-962.267725,-9326.594869,-1455.581446
213.734604,-370.102971,-9474.636058,-1455.581446
213.734926,-444.123565,-9178.553681,-842.705048
213.735249,222.061783,-8734.430116,-1225.752797
213.735571,444.123565,-8882.471304,-1072.533697
213.735893,518.144159,-8660.409521,-689.485948
213.736216,148.041188,-8956.491898,-689.485948
213.736538,296.082377,-9326.594869,-1378.971896
213.736861,222.061783,-10066.800811,-2298.286494
213.737183,0.000000,-9844.739029,-1991.848295
213.737505,-296.082377,-9844.739029,-1608.800546
213.737828,222.061783,-9696.697840,-1838.629195
213.738150,666.185348,-9622.677246,-2145.067394
213.738473,1406.391290,-9696.697840,-1685.410096
213.738795,1702.473667,-9548.656652,-1378.971896
213.739117,1776.494261,-9400.615463,-1455.581446
213.739440,2220.617826,-9400.615463,-1225.752797
213.739762,2368.659014,-9474.636058,-1225.752797
213.740085,2812.782580,-8808.450710,-1149.143247
213.740407,3404.947333,-8956.491898,-995.924147
213.740729,3404.947333,-8586.388927,-995.924147
213.741052,3404.947333,-8364.327145,-995.924147
213.741374,3478.967927,-8290.306550,-1072.533697
213.741697,2960.823768,-8068.244768,-1302.362347
213.742019,2368.659014,-8512.368333,-842.705048
213.742341,1702.473667,-9474.636058,-1378.971896
213.742664,1110.308913,-9474.636058,-1762.019645
213.742986,518.144159,-9696.697840,-1915.238745
213.743309,0.000000,-9474.636058,-1991.848295
213.743631,0.000000,-9104.533087,-1608.800546
213.743953,0.000000,-9400.615463,-1991.848295
213.744276,-222.061783,-9548.656652,-1915.238745
213.744598,-592.164754,-9400.615463,-1915.238745
213.744921,-814.226536,-10140.821405,-2145.067394
213.745243,-740.205942,-10807.006753,-2068.457845
213.745565,-1036.288319,-10436.903782,-2068.457845
213.745888,-1850.514855,-10510.924376,-1685.410096
213.746210,-1924.535449,-9548.656652,-1378.971896
213.746533,-2294.638420,-8660.409521,-1302.362347
213.746855,-2516.700203,-8216.285956,-1072.533697
213.747177,-2886.803174,-8142.265362,-1685.410096
213.747500,-3478.967927,-9252.574275,-2145.067394
213.747822,-3775.050304,-9770.718434,-1991.848295
213.748145,-3478.967927,-10140.821405,-2068.457845
213.748467,-2812.782580,-9622.677246,-2068.457845
213.748789,-2146.597232,-8956.491898,-2298.286494
213.749112,-1702.473667,-8956.491898,-1991.848295
213.749434,-1850.514855,-9400.615463,-2068.457845
213.749757,-1998.556043,-9770.718434,-2221.676944
213.750079,-2516.700203,-9770.718434,-2451.505594
213.750401,-2886.803174,-9992.780217,-2221.676944
213.750724,-3330.926739,-9474.636058,-1608.800546
213.751046,-3034.844362,-9548.656652,-2221.676944
213.751368,-2442.679609,-9104.533087,-1762.019645
213.751691,-1924.535449,-9104.533087,-1378.971896
213.752013,-1184.329507,-8734.430116,-1302.362347
213.752336,-666.185348,-9030.512492,-1378.971896
213.752658,-962.267725,-9178.553681,-1302.362347
213.752980,-1110.308913,-9474.636058,-995.924147
213.753303,-962.267725,-9696.697840,-1378.971896
213.753625,-666.185348,-9326.594869,-1149.143247
213.753948,-888.247130,-9104.533087,-766.095498
213.754270,-444.123565,-8882.471304,-612.876398
213.754592,-740.205942,-9030.512492,-1072.533697
213.754915,-592.164754,-9400.615463,-1532.190996
213.755237,-518.144159,-9622.677246,-2221.676944
213.755560,0.000000,-9548.656652,-1991.848295
213.755882,0.000000,-9474.636058,-1608.800546
213.756204,444.123565,-9918.759623,-1762.019645
213.756527,1184.329507,-10066.800811,-1685.410096
213.756849,1554.432478,-10066.800811,-1532.190996
213.757172,2146.597232,-9696.697840,-1225.752797
213.757494,2220.617826,-9400.615463,-766.095498
213.757816,2590.720797,-9252.574275,-1378.971896
213.758139,3034.844362,-8956.491898,-842.705048
213.758461,3478.967927,-9030.512492,-689.485948
213.758784,3701.029710,-8512.368333,-689.485948
213.759106,3552.988522,-8364.327145,-536.266849
213.759428,2886.803174,-8068.244768,-689.485948
213.759751,2220.617826,-8068.244768,-612.876398
213.760073,1480.411884,-8734.430116,-1149.143247
213.760396,888.247130,-9178.553681,-1685.410096
213.760718,148.041188,-9474.636058,-1378.971896
213.761040,-370.102971,-9252.574275,-1762.019645
213.761363,-148.041188,-9992.780217,-1991.848295
213.761685,0.000000,-10288.862594,-1838.629195
213.762008,-222.061783,-10140.821405,-1685.410096
213.762330,-222.061783,-10140.821405,-2068.457845
213.762652,0.000000,-10362.883188,-2298.286494
213.762975,-740.205942,-9696.697840,-1991.848295
213.763297,-1554.432478,-9474.636058,-1455.581446
213.763620,-1702.473667,-9326.594869,-1532.190996
213.763942,-1554.432478,-9178.553681,-2145.067394
213.764264,-1480.411884,-9030.512492,-1149.143247
213.764587,-1554.432478,-9326.594869,-1225.752797
213.764909,-2146.597232,-9030.512492,-459.657299
213.765232,-2294.638420,-9178.553681,-842.705048
213.765554,-2146.597232,-9326.594869,-1149.143247
213.765876,-2072.576638,-9474.636058,-1378.971896
213.766199,-1850.514855,-8956.491898,-1762.019645
213.766521,-1628.453072,-8956.491898,-1991.848295
213.766844,-1480.411884,-9252.574275,-2298.286494
213.767166,-1110.308913,-9252.574275,-1838.629195
213.767488,-1480.411884,-9474.636058,-1838.629195
213.767811,-2220.617826,-9474.636058,-1378.971896
213.768133,-1998.556043,-10510.924376,-2221.676944
213.768456,-2960.823768,-10140.821405,-2145.067394
213.768778,-3627.009116,-9548.656652,-1915.238745
213.769100,-3923.091493,-8734.430116,-2374.896044
213.769423,-3701.029710,-8364.327145,-2298.286494
213.769745,-3034.844362,-8364.327145,-1991.848295
213.770068,-2442.679609,-8660.409521,-2145.067394
213.770390,-1850.514855,-9548.656652,-1991.848295
213.770713,-1258.350101,-9770.718434,-1915.238745
213.771035,-740.205942,-9992.780217,-1378.971896
213.771358,0.000000,-10436.903782,-1455.581446
213.771680,444.123565,-9918.759623,-1378.971896
213.772003,740.205942,-9696.697840,-1608.800546
213.772325,888.247130,-9252.574275,-1378.971896
213.772647,1036.288319,-9252.574275,-1302.362347
213.772970,1110.308913,-9474.636058,-1378.971896
213.773292,1110.308913,-9474.636058,-1225.752797
213.773615,740.205942,-9474.636058,-995.924147
213.773937,370.102971,-9548.656652,-1149.143247
213.774260,592.164754,-9474.636058,-1838.629195
213.774582,814.226536,-9400.615463,-1915.238745
213.774905,814.226536,-9178.553681,-1455.581446
213.775227,814.226536,-9252.574275,-995.924147
213.775550,1184.329507,-9474.636058,-1302.362347
213.775872,1332.370696,-9474.636058,-1838.629195
213.776194,1702.473667,-9326.594869,-995.924147
213.776517,1850.514855,-8882.471304,-1072.533697
213.776839,2146.597232,-8882.471304,-1149.143247
213.777162,2442.679609,-9178.553681,-1915.238745
213.777484,2886.803174,-8956.491898,-1685.410096
213.777807,2738.761985,-8882.471304,-1685.410096
213.778129,1924.535449,-9104.533087,-1225.752797
213.778452,1480.411884,-8956.491898,-536.266849
213.778774,1628.453072,-9400.615463,-1072.533697
213.779096,1554.432478,-8882.471304,-1302.362347
213.779419,1258.350101,-8734.430116,-919.314598
213.779741,814.226536,-8364.327145,-919.314598
213.780064,666.185348,-8734.430116,-766.095498
213.780386,962.267725,-8882.471304,-1149.143247
213.780709,296.082377,-9178.553681,-1378.971896
213.781031,-222.061783,-9770.718434,-1225.752797
213.781354,-888.247130,-9696.697840,-995.924147
213.781676,-1554.432478,-10362.883188,-1532.190996
213.781999,-1628.453072,-10510.924376,-1991.848295
213.782321,-1998.556043,-10140.821405,-1991.848295
213.782643,-2220.617826,-9252.574275,-1685.410096
213.782966,-2368.659014,-9178.553681,-1608.800546
213.783288,-2886.803174,-9030.512492,-1225.752797
213.783611,-3034.844362,-9548.656652,-1608.800546
213.783933,-3701.029710,-10140.821405,-1915.238745
213.784256,-3997.112087,-10362.883188,-1991.848295
213.784578,-3849.070898,-10436.903782,-2068.457845
213.784901,-2812.782580,-9474.636058,-2221.676944
213.785223,-1628.453072,-8882.471304,-2298.286494
213.785546,-1036.288319,-8438.347739,-2221.676944
213.785868,-666.185348,-8438.347739,-1915.238745
213.786190,-888.247130,-8660.409521,-1762.019645
213.786513,-1406.391290,-8734.430116,-1685.410096
213.786835,-2368.659014,-9696.697840,-2298.286494
213.787158,-2368.659014,-9770.718434,-2221.676944
213.787480,-2886.803174,-9622.677246,-2528.115143
213.787803,-2516.700203,-9400.615463,-2221.676944
213.788125,-2072.576638,-8956.491898,-2145.067394
213.788448,-1480.411884,-8882.471304,-1991.848295
213.788770,-814.226536,-8734.430116,-1455.581446
213.789093,-1036.288319,-9030.512492,-2068.457845
213.789415,-740.205942,-9918.759623,-1838.629195
213.789737,-1036.288319,-10066.800811,-1762.019645
213.790060,-1184.329507,-9992.780217,-1915.238745
213.790382,-1480.411884,-9696.697840,-1302.362347
213.790705,-1258.350101,-9178.553681,-1455.581446
213.791027,-814.226536,-9104.533087,-1608.800546
213.791350,-518.144159,-9252.574275,-1991.848295
213.791672,-148.041188,-9178.553681,-1608.800546
213.791995,222.061783,-9104.533087,-1608.800546
213.792317,740.205942,-9474.636058,-1685.410096
213.792639,1332.370696,-10066.800811,-1378.971896
213.792962,1776.494261,-10066.800811,-1608.800546
213.793284,1924.535449,-9770.718434,-1072.533697
213.793607,1850.514855,-9770.718434,-1378.971896
213.793929,1776.494261,-8956.491898,-689.485948
213.794252,2368.659014,-9548.656652,-1378.971896
213.794574,2368.659014,-9030.512492,-919.314598
213.794897,2886.803174,-8882.471304,-995.924147
213.795219,3330.926739,-8512.368333,-919.314598
213.795542,2960.823768,-8142.265362,-919.314598
213.795864,2294.638420,-8216.285956,-766.095498
213.796186,1480.411884,-8512.368333,-1072.533697
213.796509,740.205942,-9252.574275,-1378.971896
213.796831,0.000000,-9400.615463,-1762.019645
213.797154,-296.082377,-9844.739029,-1915.238745
213.797476,0.000000,-9770.718434,-2068.457845
213.797799,0.000000,-9548.656652,-1608.800546
213.798121,518.144159,-9844.739029,-1149.143247
213.798444,444.123565,-9548.656652,-1149.143247
213.798766,148.041188,-9622.677246,-1149.143247
213.799089,-148.041188,-9400.615463,-766.095498
213.799411,-666.185348,-9696.697840,-1762.019645
213.799733,-1258.350101,-9548.656652,-1608.800546
213.800056,-1036.288319,-9770.718434,-1378.971896
213.800378,-1184.329507,-9622.677246,-1455.581446
213.800701,-1184.329507,-9326.594869,-612.876398
213.801023,-1184.329507,-9474.636058,-383.047749
213.801346,-2146.597232,-8586.388927,-689.485948
213.801668,-2516.700203,-9030.512492,-1378.971896
213.801991,-3108.864956,-9474.636058,-1685.410096
213.802313,-3330.926739,-9770.718434,-1378.971896
213.802636,-2812.782580,-9548.656652,-1838.629195
213.802958,-2294.638420,-9326.594869,-1838.629195
213.803280,-1332.370696,-9474.636058,-1685.410096
213.803603,-740.205942,-9178.553681,-1685.410096
213.803925,-888.247130,-9252.574275,-1685.410096
213.804248,-1776.494261,-9030.512492,-1225.752797
213.804570,-2146.597232,-9400.615463,-1991.848295
213.804893,-3034.844362,-9474.636058,-1915.238745
213.805215,-3478.967927,-9030.512492,-2221.676944
213.805538,-3552.988522,-8956.491898,-2374.896044
213.805860,-2886.803174,-8808.450710,-2068.457845
213.806182,-2294.638420,-8512.368333,-2068.457845
213.806505,-1776.494261,-8660.409521,-1608.800546
213.806827,-962.267725,-9252.574275,-1685.410096
213.807150,-518.144159,-9622.677246,-1685.410096
213.807472,-370.102971,-9770.718434,-2068.457845
213.807795,0.000000,-9770.718434,-2221.676944
213.808117,0.000000,-9696.697840,-1838.629195
213.808440,222.061783,-9992.780217,-1608.800546
213.808762,296.082377,-9400.615463,-1302.362347
213.809085,74.020594,-9474.636058,-1455.581446
213.809407,370.102971,-9474.636058,-1838.629195
213.809729,370.102971,-9918.759623,-2068.457845
213.810052,0.000000,-9622.677246,-1762.019645
213.810374,0.000000,-9104.533087,-1915.238745
213.810697,148.041188,-9474.636058,-2374.896044
213.811019,518.144159,-9696.697840,-2451.505594
213.811342,518.144159,-9992.780217,-1762.019645
213.811664,962.267725,-9992.780217,-1225.752797
213.811987,1406.391290,-9474.636058,-1685.410096
213.812309,2368.659014,-9622.677246,-1915.238745
213.812632,3256.906145,-9844.739029,-1762.019645
213.812954,3552.988522,-9326.594869,-1378.971896
213.813276,4145.153275,-9030.512492,-1302.362347
213.813599,3923.091493,-9030.512492,-1072.533697
213.813921,3701.029710,-8660.409521,-689.485948
213.814244,3108.864956,-8586.388927,-1302.362347
213.814566,1554.432478,-8290.306550,-919.314598
213.814889,1110.308913,-8734.430116,-995.924147
213.815211,518.144159,-8660.409521,-1302.362347
213.815534,74.020594,-8512.368333,-1685.410096
213.815856,0.000000,-8586.388927,-1302.362347
213.816179,-444.123565,-8586.388927,-1378.971896
213.816501,-444.123565,-9400.615463,-1608.800546
213.816823,-888.247130,-9400.615463,-1608.800546
213.817146,-1258.350101,-10066.800811,-2068.457845
213.817468,-1480.411884,-10807.006753,-1915.238745
213.817791,-1924.535449,-10584.944971,-1302.362347
213.818113,-2072.576638,-10288.862594,-1532.190996
213.818436,-1480.411884,-9548.656652,-1838.629195
213.818758,-962.267725,-9992.780217,-2145.067394
213.819081,-592.164754,-9844.739029,-1302.362347
213.819403,-1036.288319,-9178.553681,0.000000
213.819725,-1850.514855,-8956.491898,0.000000
213.820048,-2516.700203,-8808.450710,-995.924147
213.820370,-2886.803174,-9622.677246,-1149.143247
213.820693,-3256.906145,-9104.533087,-1225.752797
213.821015,-3330.926739,-8956.491898,-1532.190996
213.821338,-2886.803174,-8512.368333,-1455.581446
213.821660,-1924.535449,-7846.182985,-995.924147
213.821983,-1406.391290,-7846.182985,-1072.533697
213.822305,-1554.432478,-8586.388927,-1532.190996
213.822628,-2294.638420,-9622.677246,-1915.238745
213.822950,-2812.782580,-9844.739029,-2298.286494
213.823272,-3701.029710,-10436.903782,-2451.505594
213.823595,-3849.070898,-9696.697840,-2528.115143
213.823917,-3478.967927,-9770.718434,-2987.772442
213.824240,-2886.803174,-9400.615463,-2604.724693
213.824562,-2072.576638,-9030.512492,-2145.067394
213.824885,-1258.350101,-9326.594869,-1685.410096
213.825207,-666.185348,-9474.636058,-1149.143247
213.825530,-444.123565,-9474.636058,-1225.752797
213.825852,-370.102971,-9548.656652,-1149.143247
213.826175,0.000000,-9474.636058,-1455.581446
213.826497,0.000000,-8882.471304,-1225.752797
213.826819,0.000000,-8882.471304,-1532.190996
213.827142,222.061783,-8956.491898,-689.485948
213.827464,148.041188,-9104.533087,-919.314598
213.827787,148.041188,-9622.677246,-1378.971896
213.828109,296.082377,-9992.780217,-1608.800546
213.828432,370.102971,-9992.780217,-1991.848295
213.828754,740.205942,-9844.739029,-1915.238745
213.829077,1184.329507,-9770.718434,-2221.676944
213.829399,1332.370696,-9696.697840,-1838.629195
213.829722,1776.494261,-9548.656652,-1991.848295
213.830044,1850.514855,-9918.759623,-2298.286494
213.830366,1924.535449,-9474.636058,-1608.800546
213.830689,2220.617826,-9770.718434,-1532.190996
213.831011,2442.679609,-9326.594869,-1455.581446
213.831334,2590.720797,-9030.512492,-1302.362347
213.831656,2664.741391,-8512.368333,-1378.971896
213.831979,2516.700203,-8142.265362,-1455.581446
213.832301,1480.411884,-7624.121203,-689.485948
213.832624,1184.329507,-8290.306550,-1302.362347
213.832946,814.226536,-8808.450710,-1838.629195
213.833268,592.164754,-9104.533087,-1915.238745
213.833591,444.123565,-9622.677246,-1532.190996
213.833913,666.185348,-9992.780217,-1072.533697
213.834236,148.041188,-9696.697840,-1685.410096
213.834558,74.020594,-9992.780217,-1608.800546
213.834881,0.000000,-9770.718434,-1915.238745
213.835203,0.000000,-9992.780217,-2221.676944
213.835526,-518.144159,-9844.739029,-2145.067394
213.835848,-740.205942,-10066.800811,-1915.238745
213.836171,-1036.288319,-10436.903782,-1762.019645
213.836493,-962.267725,-10140.821405,-1378.971896
213.836815,-1258.350101,-9770.718434,-1378.971896
213.837138,-1480.411884,-9474.636058,-1072.533697
213.837460,-1924.535449,-8882.471304,-995.924147
213.837783,-2664.741391,-8512.368333,-1532.190996
213.838105,-2812.782580,-9178.553681,-1455.581446
213.838428,-2886.803174,-9326.594869,-1072.533697
213.838750,-2738.761985,-9178.553681,-766.095498
213.839073,-2072.576638,-8660.409521,-766.095498
213.839395,-1776.494261,-8882.471304,-1915.238745
213.839718,-1480.411884,-9104.533087,-1608.800546
213.840040,-1628.453072,-9252.574275,-1149.143247
213.840362,-1924.535449,-9104.533087,-1532.190996
213.840685,-2442.679609,-9474.636058,-1838.629195
213.841007,-3256.906145,-9548.656652,-1838.629195
213.841330,-3478.967927,-9548.656652,-2221.676944
213.841652,-3478.967927,-8956.491898,-2145.067394
213.841975,-3034.844362,-9178.553681,-2068.457845
213.842297,-2368.659014,-9030.512492,-1685.410096
213.842620,-1924.535449,-9030.512492,-1225.752797
213.842942,-1480.411884,-8956.491898,-1378.971896
213.843264,-962.267725,-9400.615463,-1915.238745
213.843587,-518.144159,-9844.739029,-1915.238745
213.843909,0.000000,-9844.739029,-1532.190996
213.844232,74.020594,-10140.821405,-1302.362347
213.844554,666.185348,-9770.718434,-1149.143247
213.844877,592.164754,-9474.636058,-842.705048
213.845199,296.082377,-9104.533087,-995.924147
213.845522,740.205942,-9104.533087,-1608.800546
213.845844,592.164754,-9252.574275,-1608.800546
213.846167,222.061783,-8956.491898,-1838.629195
213.846489,0.000000,-9474.636058,-1685.410096
213.846811,0.000000,-9400.615463,-1762.019645
213.847134,444.123565,-9770.718434,-2451.505594
213.847456,814.226536,-10510.924376,-2374.896044
213.847779,1554.432478,-10436.903782,-1915.238745
213.848101,1702.473667,-10140.821405,-1378.971896
213.848424,1998.556043,-9474.636058,-1302.362347
213.848746,2516.700203,-9326.594869,-1762.019645
213.849069,3182.885551,-8586.388927,-1608.800546
213.849391,3108.864956,-8290.306550,-1149.143247
213.849714,3404.947333,-8438.347739,-1225.752797
213.850036,3034.844362,-8660.409521,-1149.143247
213.850358,2738.761985,-8882.471304,-995.924147
213.850681,2294.638420,-9104.533087,-1072.533697
213.851003,1406.391290,-8956.491898,-1149.143247
213.851326,1110.308913,-8956.491898,-1149.143247
213.851648,814.226536,-8808.450710,-1838.629195
213.851971,740.205942,-8734.430116,-1915.238745
213.852293,148.041188,-8956.491898,-1762.019645
213.852616,0.000000,-9400.615463,-1762.019645
213.852938,-148.041188,-9770.718434,-2451.505594
213.853261,-296.082377,-10436.903782,-2145.067394
213.853583,-592.164754,-10658.965565,-1915.238745
213.853905,-814.226536,-10584.944971,-1838.629195
213.854228,-1184.329507,-10140.821405,-1455.581446
213.854550,-1036.288319,-9622.677246,-1225.752797
213.854873,-666.185348,-9622.677246,-1915.238745
213.855195,-1036.288319,-9252.574275,-1915.238745
213.855518,-1628.453072,-9104.533087,-1378.971896
213.855840,-2368.659014,-8808.450710,-306.438199
213.856163,-2886.803174,-9326.594869,-383.047749
213.856485,-3256.906145,-9252.574275,-1149.143247
213.856807,-3701.029710,-9178.553681,-1608.800546
213.857130,-3627.009116,-8660.409521,-1685.410096
213.857452,-3108.864956,-8660.409521,-2145.067394
213.857775,-2738.761985,-8364.327145,-1915.238745
213.858097,-2886.803174,-7994.224174,-1915.238745
213.858420,-1924.535449,-9104.533087,-1608.800546
213.858742,-2146.597232,-9622.677246,-1838.629195
213.859065,-2590.720797,-10436.903782,-2221.676944
213.859387,-3108.864956,-10510.924376,-2374.896044
213.859710,-3034.844362,-10140.821405,-2451.505594
213.860032,-2886.803174,-9770.718434,-2221.676944
213.860354,-2590.720797,-8956.491898,-1838.629195
213.860677,-2072.576638,-8660.409521,-2068.457845
213.860999,-1258.350101,-8586.388927,-1455.581446
213.861322,-814.226536,-9178.553681,-1225.752797
213.861644,-740.205942,-9104.533087,-842.705048
213.861967,-222.061783,-9696.697840,-919.314598
213.862289,-222.061783,-9844.739029,-1072.533697
213.862612,0.000000,-9252.574275,-1149.143247
213.862934,74.020594,-9178.553681,-1225.752797
213.863257,74.020594,-8438.347739,-995.924147
213.863579,-222.061783,-8808.450710,-1302.362347
213.863901,-222.061783,-8956.491898,-1532.190996
213.864224,-222.061783,-9696.697840,-1915.238745
213.864546,-222.061783,-9918.759623,-1685.410096
213.864869,-222.061783,-9844.739029,-1915.238745
213.865191,740.205942,-9696.697840,-2374.896044
213.865514,888.247130,-9696.697840,-2221.676944
213.865836,1258.350101,-9770.718434,-2374.896044
213.866159,1184.329507,-9400.615463,-1838.629195
213.866481,1628.453072,-9252.574275,-1838.629195
213.866804,2146.597232,-9474.636058,-1762.019645
213.867126,3108.864956,-9252.574275,-1762.019645
213.867448,3182.885551,-8808.450710,-1302.362347
213.867771,3330.926739,-8438.347739,-995.924147
213.868093,3478.967927,-8586.388927,-842.705048
213.868416,2960.823768,-7994.224174,-766.095498
213.868738,2516.700203,-8660.409521,-1608.800546
213.869060,1406.391290,-8438.347739,-1838.629195
213.869383,962.267725,-8956.491898,-1838.629195
213.869705,814.226536,-9474.636058,-1762.019645
213.870027,740.205942,-9622.677246,-1532.190996
213.870350,740.205942,-9992.780217,-1608.800546
213.870672,444.123565,-9696.697840,-1225.752797
213.870994,592.164754,-10214.842000,-1608.800546
213.871317,518.144159,-10436.903782,-1991.848295
213.871639,0.000000,-10658.965565,-2221.676944
213.871962,-740.205942,-9918.759623,-1532.190996
213.872284,-888.247130,-9844.739029,-2145.067394
213.872606,-1184.329507,-9770.718434,-2145.067394
213.872929,-962.267725,-9696.697840,-2451.505594
213.873251,-1258.350101,-9548.656652,-1991.848295
213.873573,-1850.514855,-9474.636058,-1149.143247
213.873896,-1850.514855,-9474.636058,-383.047749
213.874218,-2368.659014,-9326.594869,-919.314598
213.874540,-2812.782580,-9252.574275,-1302.362347
213.874863,-3330.926739,-9326.594869,-1149.143247
213.875185,-3627.009116,-8808.450710,-1149.143247
213.875507,-3256.906145,-8438.347739,-1762.019645
213.875830,-2146.597232,-8364.327145,-2145.067394
213.876152,-2146.597232,-8660.409521,-1378.971896
213.876474,-2146.597232,-8956.491898,-995.924147
213.876797,-2664.741391,-9030.512492,-1302.362347
213.877119,-3034.844362,-9622.677246,-1991.848295
213.877441,-3256.906145,-9992.780217,-1915.238745
213.877764,-3552.988522,-10066.800811,-2068.457845
213.878086,-3923.091493,-9474.636058,-2068.457845
213.878408,-3108.864956,-9474.636058,-1915.238745
213.878731,-2220.617826,-9252.574275,-1915.238745
213.879053,-1036.288319,-8734.430116,-1915.238745
213.879376,-518.144159,-9252.574275,-1532.190996
213.879698,-592.164754,-9474.636058,-1225.752797
213.880020,-592.164754,-9844.739029,-1225.752797
213.880343,0.000000,-9992.780217,-1149.143247
213.880665,0.000000,-9548.656652,-1685.410096
213.880987,0.000000,-8512.368333,-536.266849
213.881310,370.102971,-8808.450710,-766.095498
213.881632,444.123565,-8734.430116,-842.705048
213.881954,592.164754,-8660.409521,-1149.143247
213.882277,518.144159,-8956.491898,-1455.581446
213.882599,518.144159,-9030.512492,-2145.067394
213.882921,0.000000,-9474.636058,-1838.629195
213.883244,370.102971,-9844.739029,-2451.505594
213.883566,666.185348,-10362.883188,-2528.115143
213.883888,1036.288319,-10214.842000,-2451.505594
213.884211,1628.453072,-10362.883188,-1915.238745
213.884533,1702.473667,-9326.594869,-1225.752797
213.884855,2294.638420,-9252.574275,-1532.190996
213.885178,2812.782580,-9252.574275,-1762.019645
213.885500,3330.926739,-8808.450710,-1608.800546
213.885822,3552.988522,-8956.491898,-1225.752797
213.886145,3775.050304,-8660.409521,-1149.143247
213.886467,4145.153275,-8956.491898,-995.924147
213.886790,3627.009116,-9030.512492,-766.095498
213.887112,2960.823768,-8734.430116,-689.485948
213.887434,2294.638420,-8956.491898,-1225.752797
213.887757,1850.514855,-8290.306550,-1302.362347
213.888079,1480.411884,-9030.512492,-1915.238745
213.888401,814.226536,-8956.491898,-1762.019645
213.888724,666.185348,-9400.615463,-1378.971896
213.889046,296.082377,-9326.594869,-1532.190996
213.889368,592.164754,-9622.677246,-1915.238745
213.889691,148.041188,-9992.780217,-1608.800546
213.890013,-592.164754,-10362.883188,-1685.410096
213.890335,-1406.391290,-10658.965565,-1532.190996
213.890658,-2146.597232,-9770.718434,-1532.190996
213.890980,-1998.556043,-9696.697840,-2145.067394
213.891302,-1924.535449,-9474.636058,-2145.067394
213.891625,-1628.453072,-9474.636058,-2451.505594
213.891947,-2368.659014,-9104.533087,-1455.581446
213.892269,-2590.720797,-8956.491898,-612.876398
213.892592,-2960.823768,-9474.636058,-459.657299
213.892914,-3478.967927,-9474.636058,-919.314598
213.893236,-4219.173869,-9696.697840,-1685.410096
213.893559,-3997.112087,-9474.636058,-1685.410096
213.893881,-3478.967927,-8734.430116,-1838.629195
213.894204,-2664.741391,-8364.327145,-1991.848295
213.894526,-2220.617826,-8068.244768,-1149.143247
213.894848,-1776.494261,-8438.347739,-1532.190996
213.895171,-1850.514855,-9474.636058,-1915.238745
213.895493,-2368.659014,-10214.842000,-1991.848295
213.895815,-3108.864956,-10214.842000,-2145.067394
213.896138,-3701.029710,-10140.821405,-2221.676944
213.896460,-3627.009116,-10140.821405,-2068.457845
213.896782,-2812.782580,-9104.533087,-1915.238745
213.897105,-2516.700203,-8660.409521,-2145.067394
213.897427,-1776.494261,-8808.450710,-1838.629195
213.897749,-1110.308913,-9178.553681,-1455.581446
213.898072,-1184.329507,-9326.594869,-1225.752797
213.898394,-740.205942,-10066.800811,-1685.410096
213.898716,-740.205942,-10066.800811,-1302.362347
213.899039,-666.185348,-9474.636058,-1225.752797
213.899361,-666.185348,-9030.512492,-1455.581446
213.899683,-592.164754,-8290.306550,-1225.752797
213.900006,-518.144159,-7920.203579,-995.924147
213.900328,-148.041188,-8660.409521,-1149.143247
213.900650,0.000000,-9030.512492,-1378.971896
213.900973,148.041188,-9252.574275,-1532.190996
213.901295,444.123565,-9622.677246,-1762.019645
213.901618,666.185348,-9474.636058,-1302.362347
213.901940,1184.329507,-9474.636058,-1915.238745
213.902262,1258.350101,-9844.739029,-1915.238745
213.902585,1702.473667,-9622.677246,-1762.019645
213.902907,1998.556043,-9400.615463,-1685.410096
213.903229,2368.659014,-9474.636058,-1378.971896
213.903552,2812.782580,-9030.512492,-842.705048
213.903874,3182.885551,-8956.491898,-919.314598
213.904196,3404.947333,-8586.388927,-1149.143247
213.904519,3256.906145,-8586.388927,-919.314598
213.904841,2812.782580,-8438.347739,-919.314598
213.905163,2590.720797,-8586.388927,-1072.533697
213.905486,1628.453072,-8734.430116,-1685.410096
213.905808,1332.370696,-9326.594869,-1225.752797
213.906130,1110.308913,-9474.636058,-1378.971896
213.906453,888.247130,-9474.636058,-1378.971896
213.906775,1036.288319,-9918.759623,-1302.362347
213.907097,814.226536,-9474.636058,-1378.971896
213.907420,592.164754,-9770.718434,-1838.629195
213.907742,370.102971,-9622.677246,-1915.238745
213.908064,0.000000,-9622.677246,-1608.800546
213.908387,-592.164754,-9622.677246,-1532.190996
213.908709,-1184.329507,-9770.718434,-1532.190996
213.909032,-1184.329507,-10362.883188,-2298.286494
213.909354,-1554.432478,-9992.780217,-1991.848295
213.909676,-2072.576638,-9770.718434,-1991.848295
213.909999,-2516.700203,-9400.615463,-1302.362347
213.910321,-2664.741391,-8808.450710,-689.485948
213.910643,-2664.741391,-8956.491898,-1838.629195
213.910966,-2960.823768,-8956.491898,-1762.019645
213.911288,-3330.926739,-9474.636058,-1532.190996
213.911610,-3256.906145,-9178.553681,-1455.581446
213.911933,-2664.741391,-9326.594869,-1532.190996
213.912255,-2220.617826,-8882.471304,-1608.800546
213.912577,-1850.514855,-9030.512492,-1762.019645
213.912900,-1924.535449,-9104.533087,-1991.848295
213.913222,-1850.514855,-9178.553681,-1608.800546
213.913544,-2368.659014,-9548.656652,-1915.238745
213.913867,-2886.803174,-9548.656652,-2145.067394
213.914189,-3182.885551,-9992.780217,-2298.286494
213.914511,-3256.906145,-9548.656652,-1915.238745
213.914834,-3034.844362,-9400.615463,-1915.238745
213.915156,-2220.617826,-9178.553681,-1991.848295
213.915478,-1702.473667,-8660.409521,-1225.752797
213.915801,-1406.391290,-8734.430116,-1225.752797
213.916123,-740.205942,-9252.574275,-1378.971896
213.916446,-666.185348,-9696.697840,-1532.190996
213.916768,-296.082377,-9844.739029,-1302.362347
213.917090,0.000000,-9844.739029,-1378.971896
213.917413,148.041188,-9474.636058,-1455.581446
213.917735,222.061783,-9252.574275,-1378.971896
213.918057,444.123565,-9326.594869,-1225.752797
213.918380,666.185348,-8882.471304,-1455.581446
213.918702,740.205942,-9030.512492,-1685.410096
213.919024,296.082377,-8808.450710,-1532.190996
213.919347,888.247130,-9400.615463,-2068.457845
213.919669,518.144159,-9548.656652,-2068.457845
213.919991,518.144159,-10214.842000,-1915.238745
213.920314,962.267725,-10288.862594,-1915.238745
213.920636,1480.411884,-9992.780217,-1378.971896
213.920958,1850.514855,-9844.739029,-1915.238745
213.921281,2220.617826,-8808.450710,-1149.143247
213.921603,2590.720797,-8882.471304,-1532.190996
213.921925,2886.803174,-8882.471304,-1302.362347
213.922248,2960.823768,-9104.533087,-1072.533697
213.922570,2886.803174,-8882.471304,-919.314598
213.922892,3256.906145,-9474.636058,-995.924147
213.923215,2664.741391,-9326.594869,-1072.533697
213.923537,2368.659014,-9104.533087,-1149.143247
213.923860,1850.514855,-8808.450710,-1225.752797
213.924182,1406.391290,-8290.306550,-766.095498
213.924504,888.247130,-8734.430116,-1915.238745
213.924827,814.226536,-8882.471304,-1532.190996
213.925149,370.102971,-9252.574275,-1532.190996
213.925471,-370.102971,-9400.615463,-1378.971896
213.925794,-296.082377,-9844.739029,-1608.800546
213.926116,0.000000,-10214.842000,-1685.410096
213.926438,-518.144159,-10140.821405,-1532.190996
213.926761,-1184.329507,-10140.821405,-1455.581446
213.927083,-1702.473667,-10214.842000,-1685.410096
213.927405,-1776.494261,-9770.718434,-1991.848295
213.927728,-1480.411884,-9622.677246,-2374.896044
213.928050,-1850.514855,-9326.594869,-2221.676944
213.928372,-2294.638420,-9326.594869,-1378.971896
213.928695,-2368.659014,-9178.553681,-842.705048
213.929017,-2738.761985,-9326.594869,-995.924147
213.929339,-3182.885551,-9178.553681,-1149.143247
213.929662,-3182.885551,-9104.533087,-1072.533697
213.929984,-3256.906145,-9178.553681,-1991.848295
213.930306,-2960.823768,-8660.409521,-1838.629195
213.930629,-2368.659014,-8660.409521,-2145.067394
213.930951,-1702.473667,-8734.430116,-1991.848295
213.931274,-1406.391290,-9326.594869,-1532.190996
213.931596,-2220.617826,-9474.636058,-1762.019645
213.931918,-2368.659014,-9992.780217,-1915.238745
213.932241,-3034.844362,-10140.821405,-2221.676944
213.932563,-3108.864956,-9770.718434,-2528.115143
213.932885,-2368.659014,-9770.718434,-2374.896044
213.933208,-2220.617826,-8882.471304,-2604.724693
213.933530,-1480.411884,-9104.533087,-2221.676944
213.933852,-1184.329507,-9400.615463,-1762.019645
213.934175,-888.247130,-9770.718434,-1302.362347
213.934497,-814.226536,-10140.821405,-1455.581446
213.934819,-444.123565,-10510.924376,-1302.362347
213.935142,-518.144159,-9770.718434,-1302.362347
213.935464,-148.041188,-9178.553681,-1378.971896
213.935786,-296.082377,-8660.409521,-1225.752797
213.936109,-296.082377,-8364.327145,-995.924147
213.936431,0.000000,-8290.306550,-1532.190996
213.936753,-296.082377,-9030.512492,-1378.971896
213.937076,-296.082377,-9622.677246,-1838.629195
213.937398,-592.164754,-9696.697840,-1915.238745
213.937720,0.000000,-9770.718434,-1608.800546
213.938043,370.102971,-10066.800811,-1915.238745
213.938365,888.247130,-9474.636058,-2451.505594
213.938688,1406.391290,-9474.636058,-1915.238745
213.939010,1850.514855,-9252.574275,-1608.800546
213.939332,2294.638420,-9400.615463,-1378.971896
213.939655,2368.659014,-9548.656652,-1532.190996
213.939977,3034.844362,-9474.636058,-1225.752797
213.940299,3034.844362,-9326.594869,-995.924147
213.940622,3256.906145,-8956.491898,-842.705048
213.940944,2960.823768,-8734.430116,-689.485948
213.941266,2368.659014,-8290.306550,-766.095498
213.941589,2220.617826,-8216.285956,-1149.143247
213.941911,1332.370696,-8364.327145,-2068.457845
213.942233,592.164754,-8734.430116,-1225.752797
213.942556,148.041188,-8956.491898,-1225.752797
213.942878,222.061783,-9400.615463,-1455.581446
213.943200,222.061783,-9770.718434,-1762.019645
213.943523,444.123565,-9622.677246,-1302.362347
213.943845,74.020594,-10140.821405,-1455.581446
213.944167,-74.020594,-10362.883188,-1532.190996
213.944490,-592.164754,-9918.759623,-1302.362347
213.944812,-888.247130,-9770.718434,-1838.629195
213.945134,-1110.308913,-9474.636058,-1991.848295
213.945457,-1258.350101,-9548.656652,-2221.676944
213.945779,-1036.288319,-9474.636058,-2374.896044
213.946102,-1184.329507,-9400.615463,-1838.629195
213.946424,-1480.411884,-9548.656652,-766.095498
213.946746,-1850.514855,-9622.677246,-383.047749
213.947069,-2294.638420,-9104.533087,-919.314598
213.947391,-3108.864956,-8808.450710,-1378.971896
213.947713,-3552.988522,-8882.471304,-1608.800546
213.948036,-3108.864956,-8216.285956,-2068.457845
213.948358,-2664.741391,-8216.285956,-2451.505594
213.948680,-2146.597232,-8586.388927,-1532.190996
213.949003,-1480.411884,-9030.512492,-1532.190996
213.949325,-1776.494261,-9770.718434,-1685.410096
213.949647,-1702.473667,-9992.780217,-1762.019645
213.949970,-2442.679609,-10584.944971,-2451.505594
213.950292,-2960.823768,-9844.739029,-2604.724693
213.950614,-3256.906145,-9992.780217,-2145.067394
213.950937,-3182.885551,-9474.636058,-2374.896044
213.951259,-2368.659014,-9178.553681,-2374.896044
213.951581,-1776.494261,-8660.409521,-2068.457845
213.951904,-962.267725,-8290.306550,-1608.800546
213.952226,-740.205942,-8808.450710,-1149.143247
213.952548,-518.144159,-9622.677246,-995.924147
213.952871,0.000000,-9918.759623,-1225.752797
213.953193,148.041188,-9622.677246,-1225.752797
213.953516,296.082377,-9178.553681,-1378.971896
213.953838,592.164754,-8956.491898,-1455.581446
213.954160,592.164754,-8660.409521,-1378.971896
213.954483,444.123565,-8882.471304,-1302.362347
213.954805,518.144159,-9252.574275,-1302.362347
213.955127,370.102971,-9696.697840,-1608.800546
213.955450,0.000000,-9918.759623,-1838.629195
213.955772,-148.041188,-9548.656652,-1762.019645
213.956094,-222.061783,-9696.697840,-2451.505594
213.956417,74.020594,-10214.842000,-2757.943793
213.956739,666.185348,-10362.883188,-2451.505594
213.957061,740.205942,-9696.697840,-1685.410096
213.957384,1184.329507,-9252.574275,-1072.533697
213.957706,1850.514855,-9474.636058,-1378.971896
213.958028,2664.741391,-9474.636058,-1532.190996
213.958351,3182.885551,-8956.491898,-1225.752797
213.958673,3108.864956,-8660.409521,-689.485948
213.958995,3108.864956,-7994.224174,-536.266849
213.959318,3478.967927,-8364.327145,-1149.143247
213.959640,2960.823768,-8512.368333,-995.924147
213.959962,2368.659014,-8808.450710,-1072.533697
213.960285,1554.432478,-9252.574275,-766.095498
213.960607,962.267725,-9326.594869,-766.095498
213.960930,1110.308913,-9104.533087,-1302.362347
213.961252,518.144159,-9104.533087,-1378.971896
213.961574,148.041188,-9178.553681,-1608.800546
213.961897,-296.082377,-9400.615463,-1685.410096
213.962219,-814.226536,-9474.636058,-1685.410096
213.962541,-1184.329507,-9992.780217,-1915.238745
213.962864,-1258.350101,-10288.862594,-1991.848295
213.963186,-1850.514855,-9918.759623,-1532.190996
213.963508,-1998.556043,-10362.883188,-2145.067394
213.963831,-1776.494261,-9770.718434,-1991.848295
213.964153,-1110.308913,-9400.615463,-2451.505594
213.964475,-1036.288319,-8734.430116,-1378.971896
213.964798,-1850.514855,-8956.491898,-919.314598
213.965120,-2442.679609,-8882.471304,-612.876398
213.965442,-3034.844362,-9252.574275,-995.924147
213.965765,-3627.009116,-9474.636058,-2145.067394
213.966087,-3256.906145,-9622.677246,-1608.800546
213.966409,-3330.926739,-9178.553681,-1608.800546
213.966732,-2886.803174,-8438.347739,-1762.019645
213.967054,-2146.597232,-8586.388927,-1838.629195
213.967376,-1480.411884,-8660.409521,-1762.019645
213.967699,-1332.370696,-8956.491898,-1762.019645
213.968021,-1924.535449,-9622.677246,-2298.286494
213.968343,-2368.659014,-10066.800811,-2451.505594
213.968666,-2886.803174,-10584.944971,-2681.334243
213.968988,-2886.803174,-10732.986159,-2528.115143
213.969310,-2516.700203,-10140.821405,-2145.067394
213.969632,-1776.494261,-9474.636058,-1838.629195
213.969955,-962.267725,-8808.450710,-2145.067394
213.970277,-444.123565,-8956.491898,-1838.629195
213.970599,0.000000,-9252.574275,-1532.190996
213.970921,-222.061783,-9400.615463,-1072.533697
213.971244,222.061783,-9326.594869,-1302.362347
213.971566,296.082377,-9474.636058,-1378.971896
213.971888,0.000000,-9104.533087,-1455.581446
213.972210,-444.123565,-8734.430116,-1302.362347
213.972533,-592.164754,-8734.430116,-995.924147
213.972855,-518.144159,-8660.409521,-1149.143247
213.973177,-296.082377,-9178.553681,-1302.362347
213.973499,-148.041188,-9548.656652,-2221.676944
213.973822,-222.061783,-9844.739029,-2068.457845
213.974144,0.000000,-9992.780217,-2068.457845
213.974466,444.123565,-10362.883188,-2374.896044
213.974788,1110.308913,-9696.697840,-2298.286494
213.975111,1184.329507,-9696.697840,-1762.019645
213.975433,1480.411884,-9474.636058,-1608.800546
213.975755,1702.473667,-9548.656652,-1608.800546
213.976077,2220.617826,-9770.718434,-1685.410096
213.976400,2590.720797,-9178.553681,-1302.362347
213.976722,3256.906145,-8882.471304,-1149.143247
213.977044,3404.947333,-8438.347739,-459.657299
213.977366,3182.885551,-8068.244768,-306.438199
213.977689,2664.741391,-7698.141797,-459.657299
213.978011,2220.617826,-7846.182985,-919.314598
213.978333,1628.453072,-8290.306550,-842.705048
213.978655,1036.288319,-8808.450710,-1378.971896
213.978978,518.144159,-9770.718434,-1225.752797
213.979300,74.020594,-9844.739029,-1532.190996
213.979622,518.144159,-10140.821405,-1608.800546
213.979944,518.144159,-9992.780217,-1225.752797
213.980267,148.041188,-9770.718434,-1608.800546
213.980589,-444.123565,-9770.718434,-1991.848295
213.980911,-1036.288319,-9622.677246,-2221.676944
213.981233,-1628.453072,-10140.821405,-2068.457845
213.981556,-1702.473667,-9844.739029,-1302.362347
213.981878,-1850.514855,-9992.780217,-2145.067394
213.982200,-2072.576638,-9622.677246,-2221.676944
213.982522,-2294.638420,-9326.594869,-995.924147
213.982845,-2516.700203,-9104.533087,-689.485948
213.983167,-3034.844362,-8734.430116,-842.705048
213.983489,-3330.926739,-8438.347739,-1685.410096
213.983811,-3330.926739,-9178.553681,-1532.190996
213.984134,-3478.967927,-9104.533087,-1302.362347
213.984456,-2812.782580,-8956.491898,-1532.190996
213.984778,-1924.535449,-9030.512492,-1838.629195
213.985100,-888.247130,-9326.594869,-2068.457845
213.985423,-888.247130,-9178.553681,-1685.410096
213.985745,-1110.308913,-9844.739029,-1685.410096
213.986067,-1628.453072,-9844.739029,-2145.067394
213.986389,-1998.556043,-10214.842000,-2145.067394
213.986712,-2294.638420,-10436.903782,-2068.457845
213.987034,-2664.741391,-9030.512492,-1838.629195
213.987356,-2812.782580,-8882.471304,-1915.238745
213.987678,-2220.617826,-8512.368333,-1915.238745
213.988001,-1924.535449,-8660.409521,-1915.238745
213.988323,-1480.411884,-8586.388927,-1685.410096
213.988645,-1258.350101,-9400.615463,-1762.019645
213.988967,-888.247130,-9474.636058,-1915.238745
213.989290,-296.082377,-9918.759623,-1532.190996
213.989612,0.000000,-9844.739029,-1302.362347
213.989934,74.020594,-9400.615463,-1302.362347
213.990256,592.164754,-9474.636058,-1455.581446
213.990579,592.164754,-8956.491898,-1608.800546
213.990901,296.082377,-9030.512492,-1608.800546
213.991223,444.123565,-9252.574275,-1762.019645
213.991545,222.061783,-9326.594869,-1991.848295
213.991868,0.000000,-9622.677246,-1762.019645
213.992190,-148.041188,-9770.718434,-1915.238745
213.992512,0.000000,-9844.739029,-2068.457845
213.992834,296.082377,-10362.883188,-2298.286494
213.993157,592.164754,-9992.780217,-1685.410096
213.993479,666.185348,-9178.553681,-842.705048
213.993801,1480.411884,-8808.450710,-1225.752797
213.994123,2368.659014,-9030.512492,-1915.238745
213.994446,3034.844362,-9326.594869,-1608.800546
213.994768,3404.947333,-9178.553681,-1532.190996
213.995090,3849.070898,-9474.636058,-995.924147
213.995412,4145.153275,-9326.594869,-459.657299
213.995735,4367.215058,-9326.594869,-919.314598
213.996057,3775.050304,-9104.533087,-1149.143247
213.996379,2664.741391,-8956.491898,-919.314598
213.996701,1628.453072,-8882.471304,-919.314598
213.997024,740.205942,-8586.388927,-1378.971896
213.997346,148.041188,-8512.368333,-1532.190996
213.997668,-148.041188,-8216.285956,-1532.190996
213.997990,-296.082377,-8808.450710,-1685.410096
213.998313,-592.164754,-9474.636058,-1915.238745
213.998635,-888.247130,-9770.718434,-1762.019645
213.998957,-1110.308913,-10436.903782,-1455.581446
213.999279,-1480.411884,-10881.027347,-1991.848295
213.999602,-2146.597232,-10658.965565,-1685.410096
213.999924,-2664.741391,-10436.903782,-1991.848295
214.000246,-2590.720797,-9548.656652,-1685.410096
214.000569,-2516.700203,-9030.512492,-1149.143247
214.000891,-2146.597232,-8512.368333,-1302.362347
214.001213,-2146.597232,-8956.491898,-1302.362347
214.001535,-2368.659014,-9400.615463,-919.314598
214.001858,-2516.700203,-9770.718434,-919.314598
214.002180,-2812.782580,-10140.821405,-1072.533697
214.002502,-2738.761985,-9326.594869,-1225.752797
214.002824,-2146.597232,-9030.512492,-1149.143247
214.003147,-1332.370696,-8216.285956,-1455.581446
214.003469,-1184.329507,-7772.162391,-1455.581446
214.003791,-1110.308913,-8438.347739,-1302.362347
214.004113,-1110.308913,-9030.512492,-1378.971896
214.004436,-1850.514855,-9400.615463,-1378.971896
214.004758,-2294.638420,-9770.718434,-2068.457845
214.005080,-3034.844362,-10362.883188,-1991.848295
214.005402,-3256.906145,-10066.800811,-2451.505594
214.005725,-3108.864956,-9474.636058,-2451.505594
214.006047,-2664.741391,-8882.471304,-2757.943793
214.006369,-2220.617826,-8882.471304,-2451.505594
214.006691,-1998.556043,-8956.491898,-2145.067394
214.007014,-1554.432478,-9474.636058,-1608.800546
214.007336,-1332.370696,-10066.800811,-1302.362347
214.007658,-740.205942,-9696.697840,-1302.362347
214.007980,-222.061783,-9474.636058,-1225.752797
214.008303,-222.061783,-9400.615463,-1302.362347
214.008625,-74.020594,-8956.491898,-919.314598
214.008947,0.000000,-8956.491898,-1455.581446
214.009269,666.185348,-9252.574275,-1455.581446
214.009592,814.226536,-10288.862594,-2221.676944
214.009914,518.144159,-9918.759623,-1532.190996
214.010236,296.082377,-10140.821405,-1455.581446
214.010558,666.185348,-9992.780217,-1378.971896
214.010881,1036.288319,-9844.739029,-2145.067394
214.011203,1258.350101,-9400.615463,-1685.410096
214.011525,1480.411884,-8734.430116,-1838.629195
214.011847,1776.494261,-8882.471304,-2068.457845
214.012170,2368.659014,-9252.574275,-1991.848295
214.012492,2516.700203,-9548.656652,-2068.457845
214.012814,2886.803174,-9474.636058,-1225.752797
214.013136,2738.761985,-8734.430116,-1225.752797
214.013459,2960.823768,-9252.574275,-1378.971896
214.013781,2516.700203,-8586.388927,-1072.533697
214.014103,1924.535449,-8512.368333,-1302.362347
214.014425,1184.329507,-8068.244768,-1608.800546
214.014748,592.164754,-8216.285956,-1762.019645
214.015070,222.061783,-8586.388927,-1685.410096
214.015392,222.061783,-8956.491898,-1608.800546
214.015714,296.082377,-9400.615463,-1302.362347
214.016037,592.164754,-9548.656652,-1378.971896
214.016359,814.226536,-10140.821405,-1302.362347
214.016681,74.020594,-9696.697840,-1302.362347
214.017003,-148.041188,-9992.780217,-1608.800546
214.017326,-962.267725,-10066.800811,-1685.410096
214.017648,-1480.411884,-9992.780217,-1302.362347
214.017970,-1850.514855,-10140.821405,-1455.581446
214.018292,-1628.453072,-9844.739029,-2145.067394
214.018615,-2072.576638,-9474.636058,-1455.581446
214.018937,-2220.617826,-9474.636058,-1149.143247
214.019259,-2590.720797,-9474.636058,-995.924147
214.019581,-2812.782580,-9474.636058,-1378.971896
214.019904,-2960.823768,-9770.718434,-1225.752797
214.020226,-2960.823768,-9844.739029,-1532.190996
214.020548,-2516.700203,-9622.677246,-1455.581446
214.020870,-2220.617826,-9104.533087,-1532.190996
214.021193,-1406.391290,-8586.388927,-1455.581446
214.021515,-370.102971,-9104.533087,-1225.752797
214.021837,-222.061783,-8364.327145,-766.095498
214.022159,-444.123565,-9030.512492,-1225.752797
214.022482,-814.226536,-9474.636058,-1455.581446
214.022804,-1702.473667,-9548.656652,-1532.190996
214.023126,-2368.659014,-9400.615463,-1685.410096
214.023448,-2886.803174,-8882.471304,-1532.190996
214.023771,-3256.906145,-8956.491898,-1991.848295
214.024093,-3034.844362,-8512.368333,-1762.019645
214.024415,-2590.720797,-8512.368333,-1915.238745
214.024737,-2368.659014,-8438.347739,-1838.629195
214.025060,-1628.453072,-8956.491898,-1762.019645
214.025382,-1406.391290,-9474.636058,-1378.971896
214.025704,-888.247130,-9918.759623,-1915.238745
214.026026,-444.123565,-10362.883188,-1991.848295
214.026349,-296.082377,-9992.780217,-1838.629195
214.026671,296.082377,-10214.842000,-1532.190996
214.026993,296.082377,-9252.574275,-1608.800546
214.027315,814.226536,-9474.636058,-1991.848295
214.027638,962.267725,-9474.636058,-2145.067394
214.027960,1184.329507,-9400.615463,-1685.410096
214.028282,962.267725,-9696.697840,-1991.848295
214.028604,1184.329507,-9770.718434,-1532.190996
214.028927,444.123565,-9844.739029,-1532.190996
214.029249,296.082377,-9548.656652,-1532.190996
214.029571,444.123565,-9326.594869,-1685.410096
214.029893,740.205942,-9178.553681,-1915.238745
214.030216,1554.432478,-9178.553681,-1838.629195
214.030538,2738.761985,-9104.533087,-1915.238745
214.030860,3627.009116,-9474.636058,-1532.190996
214.031182,3849.070898,-9474.636058,-1225.752797
214.031505,3923.091493,-9474.636058,-995.924147
214.031827,3478.967927,-9770.718434,-1149.143247
214.032149,2886.803174,-9104.533087,-1532.190996
214.032471,1776.494261,-9104.533087,-1915.238745
214.032794,666.185348,-8882.471304,-1991.848295
214.033116,0.000000,-8364.327145,-1915.238745
214.033438,0.000000,-8438.347739,-1838.629195
214.033760,0.000000,-8660.409521,-1915.238745
214.034083,-296.082377,-8882.471304,-1455.581446
214.034405,-592.164754,-9178.553681,-1532.190996
214.034727,-1036.288319,-9548.656652,-1302.362347
214.035049,-1036.288319,-9918.759623,-1762.019645
214.035372,-1036.288319,-10140.821405,-1608.800546
214.035694,-1406.391290,-9918.759623,-1762.019645
214.036016,-1702.473667,-9622.677246,-1378.971896
214.036338,-1480.411884,-9918.759623,-1149.143247
214.036661,-1406.391290,-9622.677246,-1149.143247
214.036983,-1036.288319,-9770.718434,-1225.752797
214.037305,-1110.308913,-9992.780217,-612.876398
214.037627,-1110.308913,-9400.615463,-612.876398
214.037950,-1702.473667,-9252.574275,-612.876398
214.038272,-1924.535449,-9474.636058,-612.876398
214.038594,-2294.638420,-8956.491898,-842.705048
214.038916,-2368.659014,-8216.285956,-1149.143247
214.039239,-2220.617826,-8660.409521,-995.924147
214.039561,-2368.659014,-8586.388927,-1608.800546
214.039883,-1998.556043,-8882.471304,-1608.800546
214.040205,-2442.679609,-9178.553681,-1762.019645
214.040528,-2146.597232,-9548.656652,-1915.238745
214.040850,-2516.700203,-9474.636058,-1991.848295
214.041172,-3404.947333,-9326.594869,-2451.505594
214.041494,-3330.926739,-9696.697840,-2834.553343
214.041817,-3478.967927,-9696.697840,-2528.115143
214.042139,-3034.844362,-9622.677246,-2451.505594
214.042461,-2442.679609,-9252.574275,-1915.238745
214.042783,-1628.453072,-9474.636058,-2145.067394
214.043106,-1036.288319,-9622.677246,-1685.410096
214.043428,-296.082377,-9918.759623,-1225.752797
214.043750,0.000000,-9770.718434,-995.924147
214.044072,222.061783,-9400.615463,-1455.581446
214.044395,370.102971,-8956.491898,-995.924147
214.044717,592.164754,-9252.574275,-1302.362347
214.045039,592.164754,-9178.553681,-995.924147
214.045361,592.164754,-9178.553681,-1149.143247
214.045684,666.185348,-9030.512492,-1225.752797
214.046006,666.185348,-9474.636058,-1608.800546
214.046328,592.164754,-9622.677246,-1608.800546
214.046650,296.082377,-9474.636058,-1685.410096
214.046973,592.164754,-9474.636058,-1991.848295
214.047295,814.226536,-9992.780217,-2145.067394
214.047617,740.205942,-9400.615463,-1455.581446
214.047939,444.123565,-9104.533087,-1455.581446
214.048262,518.144159,-9252.574275,-2145.067394
214.048584,888.247130,-9178.553681,-2451.505594
214.048906,1480.411884,-9474.636058,-2374.896044
214.049228,2146.597232,-8882.471304,-2451.505594
214.049551,2368.659014,-9030.512492,-1685.410096
214.049873,2072.576638,-8734.430116,-1532.190996
214.050195,2072.576638,-8660.409521,-1072.533697
214.050517,1480.411884,-8660.409521,-1685.410096
214.050840,1036.288319,-8512.368333,-1915.238745
214.051162,814.226536,-8512.368333,-1762.019645
214.051484,518.144159,-8956.491898,-1762.019645
214.051806,740.205942,-9252.574275,-1685.410096
214.052129,1036.288319,-9474.636058,-1685.410096
214.052451,1110.308913,-9474.636058,-1302.362347
214.052773,1110.308913,-9770.718434,-842.705048
214.053095,740.205942,-10288.862594,-1455.581446
214.053418,74.020594,-10214.842000,-1455.581446
214.053740,-740.205942,-9622.677246,-1225.752797
214.054062,-1110.308913,-9400.615463,-1225.752797
214.054384,-1332.370696,-9770.718434,-1685.410096
214.054707,-1258.350101,-9326.594869,-1685.410096
214.055029,-1776.494261,-9622.677246,-1685.410096
214.055351,-2516.700203,-9548.656652,-995.924147
214.055673,-2886.803174,-9770.718434,-766.095498
214.055996,-3404.947333,-9548.656652,-1302.362347
214.056318,-3627.009116,-9548.656652,-1915.238745
214.056640,-3330.926739,-9474.636058,-1685.410096
214.056962,-3256.906145,-9030.512492,-1378.971896
214.057285,-2738.761985,-8512.368333,-1838.629195
214.057607,-1998.556043,-8290.306550,-1915.238745
214.057929,-1480.411884,-8956.491898,-1991.848295
214.058251,-1184.329507,-9252.574275,-995.924147
214.058574,-1480.411884,-9474.636058,-1608.800546
214.058896,-1776.494261,-9918.759623,-1532.190996
214.059218,-1924.535449,-9696.697840,-1302.362347
214.059540,-2220.617826,-9400.615463,-1378.971896
214.059863,-2294.638420,-8512.368333,-1225.752797
214.060185,-1924.535449,-8882.471304,-1685.410096
214.060507,-1480.411884,-8364.327145,-1608.800546
214.060829,-1184.329507,-8586.388927,-1225.752797
214.061152,-962.267725,-9030.512492,-1455.581446
214.061474,-518.144159,-9326.594869,-1532.190996
214.061796,-666.185348,-10140.821405,-1532.190996
214.062118,-370.102971,-10436.903782,-1455.581446
214.062441,296.082377,-10214.842000,-1455.581446
214.062763,518.144159,-9474.636058,-1762.019645
214.063085,888.247130,-9030.512492,-2451.505594
214.063407,814.226536,-9104.533087,-1455.581446
214.063730,1110.308913,-9326.594869,-1532.190996
214.064052,888.247130,-9548.656652,-1991.848295
214.064374,666.185348,-9696.697840,-1991.848295
214.064696,74.020594,-9696.697840,-1762.019645
214.065019,222.061783,-8956.491898,-1378.971896
214.065341,444.123565,-10066.800811,-2221.676944
214.065663,592.164754,-9770.718434,-1915.238745
214.065985,592.164754,-9030.512492,-1455.581446
214.066308,888.247130,-8512.368333,-1532.190996
214.066630,1258.350101,-8512.368333,-1762.019645
214.066952,1924.535449,-9326.594869,-1762.019645
214.067274,2886.803174,-9548.656652,-2068.457845
214.067597,2886.803174,-9622.677246,-1532.190996
214.067919,2960.823768,-9770.718434,-1378.971896
214.068241,2886.803174,-9474.636058,-1378.971896
214.068564,2368.659014,-8808.450710,-1762.019645
214.068886,2220.617826,-9252.574275,-1991.848295
214.069208,1406.391290,-9326.594869,-1762.019645
214.069531,814.226536,-9030.512492,-1991.848295
214.069853,518.144159,-9252.574275,-1991.848295
214.070175,518.144159,-8808.450710,-1608.800546
214.070498,296.082377,-9252.574275,-1685.410096
214.070820,0.000000,-9252.574275,-1532.190996
214.071142,-148.041188,-9252.574275,-1455.581446
214.071465,-370.102971,-9770.718434,-1455.581446
214.071787,-444.123565,-10214.842000,-1685.410096
214.072109,-888.247130,-10436.903782,-1685.410096
214.072432,-1702.473667,-9992.780217,-1225.752797
214.072754,-2146.597232,-9474.636058,-1302.362347
214.073076,-2072.576638,-9400.615463,-1532.190996
214.073399,-1850.514855,-9326.594869,-2068.457845
214.073721,-2146.597232,-9178.553681,-1455.581446
214.074043,-2368.659014,-9104.533087,-1149.143247
214.074366,-2664.741391,-9622.677246,-1225.752797
214.074688,-2960.823768,-9770.718434,-1225.752797
214.075010,-2960.823768,-9770.718434,-1455.581446
214.075333,-2960.823768,-8734.430116,-1225.752797
214.075655,-2960.823768,-8512.368333,-1455.581446
214.075977,-2368.659014,-8364.327145,-1685.410096
214.076300,-1998.556043,-8216.285956,-1991.848295
214.076622,-1628.453072,-8808.450710,-1608.800546
214.076944,-1924.535449,-9252.574275,-842.705048
214.077267,-1924.535449,-9548.656652,-2374.896044
214.077589,-2368.659014,-9622.677246,-2068.457845
214.077911,-2442.679609,-9622.677246,-1915.238745
214.078234,-2442.679609,-9918.759623,-2145.067394
214.078556,-2220.617826,-9252.574275,-2068.457845
214.078878,-1554.432478,-9474.636058,-1608.800546
214.079201,-592.164754,-9030.512492,-1685.410096
214.079523,-222.061783,-9548.656652,-1608.800546
214.079845,74.020594,-9770.718434,-1149.143247
214.080168,148.041188,-10066.800811,-842.705048
214.080490,666.185348,-9844.739029,-995.924147
214.080812,148.041188,-9400.615463,-995.924147
214.081135,148.041188,-9400.615463,-1378.971896
214.081457,-296.082377,-8734.430116,-1302.362347
214.081779,-518.144159,-8882.471304,-1378.971896
214.082102,-592.164754,-9104.533087,-1608.800546
214.082424,-518.144159,-9400.615463,-2221.676944
214.082746,-740.205942,-9400.615463,-1762.019645
214.083069,-222.061783,-9548.656652,-1838.629195
214.083391,148.041188,-9844.739029,-2221.676944
214.083713,592.164754,-10140.821405,-2068.457845
214.084036,444.123565,-9844.739029,-1762.019645
214.084358,888.247130,-9548.656652,-1762.019645
214.084680,1184.329507,-9474.636058,-2145.067394
214.085003,1628.453072,-9326.594869,-1915.238745
214.085325,2072.576638,-9252.574275,-1838.629195
214.085647,2664.741391,-8882.471304,-1225.752797
214.085970,2960.823768,-8734.430116,-1072.533697
214.086292,2516.700203,-8956.491898,-1072.533697
214.086614,2368.659014,-8586.388927,-1225.752797
214.086937,1702.473667,-8882.471304,-1608.800546
214.087259,1184.329507,-8808.450710,-1762.019645
214.087581,666.185348,-9030.512492,-1915.238745
214.087904,592.164754,-9104.533087,-1532.190996
214.088226,814.226536,-9104.533087,-1762.019645
214.088548,888.247130,-9622.677246,-1915.238745
214.088871,888.247130,-9918.759623,-1378.971896
214.089193,740.205942,-10288.862594,-1225.752797
214.089515,148.041188,-9918.759623,-1915.238745
214.089838,0.000000,-9918.759623,-1762.019645
214.090160,-888.247130,-9696.697840,-1532.190996
214.090482,-1628.453072,-9400.615463,-1149.143247
214.090805,-2220.617826,-9474.636058,-1608.800546
214.091127,-2220.617826,-8956.491898,-2298.286494
214.091449,-2590.720797,-9252.574275,-1455.581446
214.091772,-2886.803174,-9252.574275,-1455.581446
214.092094,-2812.782580,-9844.739029,-1225.752797
214.092416,-3034.844362,-9474.636058,-1072.533697
214.092739,-2738.761985,-9326.594869,-1608.800546
214.093061,-2664.741391,-9622.677246,-1762.019645
214.093383,-2664.741391,-8660.409521,-1685.410096
214.093706,-2368.659014,-8808.450710,-2145.067394
214.094028,-1850.514855,-9030.512492,-1991.848295
214.094350,-1184.329507,-9400.615463,-1225.752797
214.094673,-962.267725,-9400.615463,-1455.581446
214.094995,-1258.350101,-9400.615463,-1532.190996
214.095317,-1628.453072,-9770.718434,-1608.800546
214.095640,-2146.597232,-9622.677246,-1532.190996
214.095962,-2812.782580,-9474.636058,-1608.800546
214.096284,-2664.741391,-9326.594869,-1838.629195
214.096607,-2368.659014,-9030.512492,-2298.286494
214.096929,-1850.514855,-8734.430116,-1838.629195
214.097251,-1184.329507,-8882.471304,-1455.581446
214.097574,-666.185348,-9252.574275,-1608.800546
214.097896,-444.123565,-9770.718434,-995.924147
214.098218,74.020594,-9992.780217,-1149.143247
214.098541,444.123565,-10140.821405,-1378.971896
214.098863,518.144159,-9844.739029,-1608.800546
214.099185,592.164754,-9548.656652,-1685.410096
214.099508,740.205942,-9252.574275,-1455.581446
214.099830,1036.288319,-9326.594869,-1072.533697
214.100152,1184.329507,-9326.594869,-1378.971896
214.100475,592.164754,-9326.594869,-1455.581446
214.100797,370.102971,-9326.594869,-1532.190996
214.101119,0.000000,-9400.615463,-1608.800546
214.101442,-148.041188,-9474.636058,-2068.457845
214.101764,0.000000,-9474.636058,-1991.848295
214.102086,0.000000,-9770.718434,-2145.067394
214.102409,296.082377,-9474.636058,-1302.362347
214.102731,592.164754,-8808.450710,-1072.533697
214.103053,1184.329507,-8216.285956,-1149.143247
214.103376,1776.494261,-8660.409521,-1608.800546
214.103698,2812.782580,-9252.574275,-1991.848295
214.104020,3108.864956,-9252.574275,-1915.238745
214.104343,2886.803174,-9548.656652,-1838.629195
214.104665,2886.803174,-9770.718434,-1302.362347
214.104987,2738.761985,-9474.636058,-1455.581446
214.105310,2590.720797,-9326.594869,-1532.190996
214.105632,1850.514855,-9178.553681,-1685.410096
214.105954,1480.411884,-9030.512492,-1532.190996
214.106277,1258.350101,-9178.553681,-1302.362347
214.106599,1110.308913,-8882.471304,-1072.533697
214.106921,888.247130,-8586.388927,-1455.581446
214.107244,370.102971,-8956.491898,-1378.971896
214.107566,0.000000,-9326.594869,-1455.581446
214.107888,-592.164754,-9844.739029,-1455.581446
214.108211,-1258.350101,-9918.759623,-1378.971896
214.108533,-1924.535449,-10140.821405,-1225.752797
214.108855,-2664.741391,-10066.800811,-1455.581446
214.109178,-2738.761985,-9992.780217,-1685.410096
214.109500,-2664.741391,-10362.883188,-2451.505594
214.109822,-2516.700203,-10214.842000,-2221.676944
214.110145,-2960.823768,-9696.697840,-1225.752797
214.110467,-3034.844362,-9474.636058,-766.095498
214.110790,-3182.885551,-9622.677246,-1225.752797
214.111112,-3256.906145,-9474.636058,-1915.238745
214.111434,-3182.885551,-9178.553681,-1915.238745
214.111757,-2960.823768,-9252.574275,-1915.238745
214.112079,-2294.638420,-8512.368333,-1072.533697
214.112401,-1628.453072,-8734.430116,-1225.752797
214.112724,-1184.329507,-8586.388927,-995.924147
214.113046,-1110.308913,-8882.471304,-919.314598
214.113368,-1110.308913,-9474.636058,-1225.752797
214.113691,-1258.350101,-9030.512492,-1532.190996
214.114013,-1850.514855,-9474.636058,-1915.238745
214.114335,-2072.576638,-9400.615463,-1685.410096
214.114658,-2294.638420,-9400.615463,-1915.238745
214.114980,-1924.535449,-9326.594869,-2068.457845
214.115302,-1480.411884,-9474.636058,-2068.457845
214.115625,-1036.288319,-9178.553681,-1838.629195
214.115947,-666.185348,-9696.697840,-1455.581446
214.116269,-814.226536,-10066.800811,-1072.533697
214.116592,-814.226536,-9844.739029,-1149.143247
214.116914,-370.102971,-10140.821405,-1608.800546
214.117236,-518.144159,-9104.533087,-1532.190996
214.117559,-518.144159,-8956.491898,-1378.971896
214.117881,-814.226536,-8216.285956,-1378.971896
214.118203,-666.185348,-8808.450710,-1685.410096
214.118526,-592.164754,-9400.615463,-1608.800546
214.118848,-148.041188,-9474.636058,-1532.190996
214.119170,-814.226536,-9400.615463,-1455.581446
214.119493,0.000000,-9400.615463,-1991.848295
214.119815,666.185348,-9770.718434,-1991.848295
214.120137,962.267725,-9474.636058,-1532.190996
214.120460,1332.370696,-9030.512492,-1532.190996
214.120782,1332.370696,-8586.388927,-1685.410096
214.121104,2368.659014,-9326.594869,-2221.676944
214.121427,2960.823768,-9548.656652,-2068.457845
214.121749,3034.844362,-9400.615463,-1838.629195
214.122071,3330.926739,-9474.636058,-1455.581446
214.122394,3627.009116,-9474.636058,-842.705048
214.122716,3478.967927,-9474.636058,-1225.752797
214.123038,2442.679609,-8660.409521,-1302.362347
214.123361,1628.453072,-8438.347739,-1838.629195
214.123683,1110.308913,-8586.388927,-1838.629195
214.124005,1332.370696,-8512.368333,-2145.067394
214.124328,740.205942,-8364.327145,-2145.067394
214.124650,666.185348,-9400.615463,-1685.410096
214.124972,518.144159,-9770.718434,-1838.629195
214.125295,370.102971,-10140.821405,-1378.971896
214.125617,74.020594,-10362.883188,-1762.019645
214.125939,-444.123565,-9696.697840,-1302.362347
214.126262,-814.226536,-10140.821405,-1838.629195
214.126584,-1702.473667,-9992.780217,-1532.190996
214.126906,-1850.514855,-9696.697840,-1072.533697
214.127229,-2442.679609,-9474.636058,-1838.629195
214.127551,-2368.659014,-9178.553681,-2298.286494
214.127873,-2516.700203,-9400.615463,-1455.581446
214.128196,-2738.761985,-9548.656652,-919.314598
214.128518,-3256.906145,-9252.574275,-842.705048
214.128840,-3256.906145,-9474.636058,-1149.143247
214.129163,-2664.741391,-9696.697840,-1225.752797
214.129485,-2516.700203,-8956.491898,-1225.752797
214.129807,-2368.659014,-8956.491898,-1608.800546
214.130130,-1998.556043,-8956.491898,-1608.800546
214.130452,-1628.453072,-9400.615463,-1608.800546
214.130774,-962.267725,-9178.553681,-766.095498
214.131097,-666.185348,-9474.636058,-1149.143247
214.131419,-1332.370696,-9326.594869,-1762.019645
214.131741,-1850.514855,-9770.718434,-1762.019645
214.132064,-2220.617826,-9770.718434,-1762.019645
214.132386,-2590.720797,-9252.574275,-1608.800546
214.132708,-2442.679609,-8586.388927,-1838.629195
214.133031,-2590.720797,-8142.265362,-1915.238745
214.133353,-1998.556043,-8364.327145,-1991.848295
214.133675,-1554.432478,-8660.409521,-1455.581446
214.133998,-1406.391290,-9326.594869,-1302.362347
214.134320,-1184.329507,-9548.656652,-919.314598
214.134642,-444.123565,-9844.739029,-1685.410096
214.134965,-518.144159,-9992.780217,-1991.848295
214.135287,0.000000,-10066.800811,-2068.457845
214.135609,296.082377,-9770.718434,-1685.410096
214.135932,592.164754,-9178.553681,-1302.362347
214.136254,888.247130,-9104.533087,-1762.019645
214.136576,1110.308913,-9252.574275,-1532.190996
214.136899,1184.329507,-9548.656652,-1838.629195
214.137221,444.123565,-9474.636058,-1532.190996
214.137543,74.020594,-9474.636058,-1532.190996
214.137866,148.041188,-9918.759623,-1302.362347
214.138188,444.123565,-9326.594869,-1838.629195
214.138510,222.061783,-8956.491898,-1838.629195
214.138833,888.247130,-8660.409521,-1455.581446
214.139155,1628.453072,-8808.450710,-1608.800546
214.139477,2442.679609,-8290.306550,-2145.067394
214.139800,2886.803174,-9252.574275,-1991.848295
214.140122,3552.988522,-9474.636058,-1378.971896
214.140444,3404.947333,-9696.697840,-1225.752797
214.140767,3330.926739,-9548.656652,-1532.190996
214.141089,3034.844362,-9252.574275,-1762.019645
214.141411,2960.823768,-8882.471304,-1378.971896
214.141734,1998.556043,-9030.512492,-1915.238745
214.142056,1258.350101,-8586.388927,-1608.800546
214.142378,1036.288319,-8512.368333,-1302.362347
214.142701,740.205942,-8808.450710,-1225.752797
214.143023,666.185348,-8290.306550,-1225.752797
214.143345,-222.061783,-8586.388927,-766.095498
214.143668,-962.267725,-8882.471304,-1225.752797
214.143990,-1332.370696,-9326.594869,-1149.143247
214.144312,-1258.350101,-9696.697840,-1838.629195
214.144635,-1406.391290,-9918.759623,-1838.629195
214.144957,-1776.494261,-10288.862594,-1455.581446
214.145279,-1702.473667,-10288.862594,-1302.362347
214.145602,-1924.535449,-10214.842000,-1225.752797
214.145924,-1924.535449,-10140.821405,-1608.800546
214.146246,-1998.556043,-9696.697840,-1608.800546
214.146569,-2368.659014,-9548.656652,-1838.629195
214.146891,-2368.659014,-9474.636058,-1302.362347
214.147213,-2294.638420,-9844.739029,-1149.143247
214.147536,-2294.638420,-10066.800811,-995.924147
214.147858,-2368.659014,-9844.739029,-612.876398
214.148180,-2294.638420,-9104.533087,-153.219100
214.148503,-1776.494261,-8586.388927,-919.314598
214.148825,-1628.453072,-8438.347739,-1532.190996
214.149147,-1628.453072,-8216.285956,-1532.190996
214.149470,-1850.514855,-8586.388927,-1762.019645
214.149792,-2220.617826,-8882.471304,-1762.019645
214.150114,-2516.700203,-9104.533087,-2298.286494
214.150437,-3108.864956,-9918.759623,-2451.505594
214.150759,-3404.947333,-10214.842000,-2911.162892
214.151081,-3330.926739,-10510.924376,-2911.162892
214.151404,-2960.823768,-9918.759623,-2451.505594
214.151726,-1924.535449,-9696.697840,-2221.676944
214.152048,-1332.370696,-9400.615463,-1991.848295
214.152371,-888.247130,-9622.677246,-1915.238745
214.152693,-666.185348,-9326.594869,-1378.971896
214.153015,-370.102971,-9548.656652,-1608.800546
214.153338,0.000000,-9548.656652,-1149.143247
214.153660,148.041188,-9104.533087,-842.705048
214.153982,148.041188,-9178.553681,-689.485948
214.154305,222.061783,-8734.430116,-689.485948
214.154627,296.082377,-8882.471304,-995.924147
214.154949,222.061783,-8660.409521,-1302.362347
214.155272,148.041188,-8290.306550,-1302.362347
214.155594,0.000000,-8512.368333,-1685.410096
214.155916,0.000000,-8882.471304,-2298.286494
214.156239,370.102971,-9770.718434,-2451.505594
214.156561,740.205942,-10288.862594,-2068.457845
214.156883,962.267725,-9844.739029,-2068.457845
214.157206,1184.329507,-9992.780217,-2834.553343
214.157528,1850.514855,-10288.862594,-2374.896044
214.157850,2072.576638,-10288.862594,-2221.676944
214.158173,2368.659014,-9400.615463,-2221.676944
214.158495,2886.803174,-9030.512492,-1762.019645
214.158817,3034.844362,-8512.368333,-1302.362347
214.159140,2664.741391,-8438.347739,-995.924147
214.159462,2146.597232,-8290.306550,-1149.143247
214.159784,1406.391290,-8216.285956,-1225.752797
214.160107,888.247130,-8660.409521,-1608.800546
214.160429,1036.288319,-8808.450710,-1072.533697
214.160751,1036.288319,-8512.368333,-1608.800546
214.161074,814.226536,-8808.450710,-1532.190996
214.161396,740.205942,-9252.574275,-1608.800546
214.161718,888.247130,-9696.697840,-1072.533697
214.162041,518.144159,-9992.780217,-1378.971896
214.162363,148.041188,-10140.821405,-1915.238745
214.162685,-666.185348,-10066.800811,-1608.800546
214.163008,-1258.350101,-10288.862594,-1302.362347
214.163330,-1702.473667,-9770.718434,-1302.362347
214.163652,-1924.535449,-9844.739029,-1915.238745
214.163975,-1998.556043,-9474.636058,-1915.238745
214.164297,-2146.597232,-9030.512492,-1532.190996
214.164619,-2886.803174,-9252.574275,-842.705048
214.164942,-3552.988522,-9548.656652,-919.314598
214.165264,-3775.050304,-9770.718434,-1302.362347
214.165586,-3330.926739,-9622.677246,-1378.971896
214.165909,-3478.967927,-9622.677246,-1455.581446
214.166231,-2886.803174,-9030.512492,-1532.190996
214.166553,-2072.576638,-8734.430116,-1455.581446
214.166876,-1332.370696,-8808.450710,-1608.800546
214.167198,-444.123565,-8734.430116,-1302.362347
214.167521,148.041188,-9104.533087,-919.314598
214.167843,-592.164754,-9474.636058,-1685.410096
214.168165,-962.267725,-10436.903782,-1532.190996
214.168488,-1998.556043,-9992.780217,-1225.752797
214.168810,-2368.659014,-9622.677246,-1532.190996
214.169132,-2368.659014,-9030.512492,-1838.629195
214.169455,-1998.556043,-8808.450710,-1685.410096
214.169777,-1924.535449,-8290.306550,-1762.019645
214.170099,-1554.432478,-8290.306550,-1378.971896
214.170422,-1258.350101,-9252.574275,-1532.190996
214.170744,-888.247130,-9548.656652,-995.924147
214.171066,-814.226536,-9844.739029,-2068.457845
214.171389,-888.247130,-10214.842000,-1915.238745
214.171711,-148.041188,-9992.780217,-1762.019645
214.172033,74.020594,-9770.718434,-1762.019645
214.172356,370.102971,-9474.636058,-1991.848295
214.172678,814.226536,-9622.677246,-1302.362347
214.173000,888.247130,-9178.553681,-1225.752797
214.173323,962.267725,-9474.636058,-1455.581446
214.173645,592.164754,-9622.677246,-1685.410096
214.173967,296.082377,-9400.615463,-1532.190996
214.174290,222.061783,-9104.533087,-2145.067394
214.174612,444.123565,-9104.533087,-2068.457845
214.174934,444.123565,-9252.574275,-1685.410096
214.175257,592.164754,-8882.471304,-1378.971896
214.175579,962.267725,-9104.533087,-1915.238745
214.175901,1776.494261,-9326.594869,-2145.067394
214.176224,2960.823768,-9770.718434,-1762.019645
214.176546,3256.906145,-9622.677246,-1455.581446
214.176868,3478.967927,-9400.615463,-1378.971896
214.177191,3627.009116,-9178.553681,-1149.143247
214.177513,3478.967927,-8956.491898,-1378.971896
214.177835,2812.782580,-9030.512492,-1378.971896
214.178158,1406.391290,-8882.471304,-1455.581446
214.178480,444.123565,-8808.450710,-1532.190996
214.178802,74.020594,-8808.450710,-1762.019645
214.179125,0.000000,-8660.409521,-1838.629195
214.179447,0.000000,-8438.347739,-995.924147
214.179769,-518.144159,-8290.306550,-919.314598
214.180092,-666.185348,-8512.368333,-1225.752797
214.180414,-1110.308913,-9104.533087,-1532.190996
214.180736,-1332.370696,-9622.677246,-1991.848295
214.181059,-1776.494261,-10584.944971,-2068.457845
214.181381,-1776.494261,-10510.924376,-1608.800546
214.181703,-2590.720797,-10288.862594,-1685.410096
214.182026,-2072.576638,-9992.780217,-1762.019645
214.182348,-1850.514855,-10066.800811,-1685.410096
214.182670,-1850.514855,-9696.697840,-1532.190996
214.182993,-2220.617826,-9400.615463,-995.924147
214.183315,-2516.700203,-9252.574275,-1149.143247
214.183637,-2812.782580,-9622.677246,-1225.752797
214.183960,-3034.844362,-9622.677246,-995.924147
214.184282,-2664.741391,-9252.574275,-995.924147
214.184604,-2442.679609,-8734.430116,-842.705048
214.184927,-1406.391290,-8438.347739,-766.095498
214.185249,-1184.329507,-8142.265362,-1532.190996
214.185571,-1110.308913,-8290.306550,-1302.362347
214.185894,-1628.453072,-8660.409521,-1685.410096
