#time,accel_x,accel_y,accel_z
356.142431,-296.082377,-9104.533087,-1149.143247
356.142753,-296.082377,-9178.553681,-842.705048
356.143075,0.000000,-9326.594869,-766.095498
356.143397,-296.082377,-9252.574275,-1072.533697
356.143719,-296.082377,-9104.533087,-1225.752797
356.144041,-370.102971,-9030.512492,-1302.362347
356.144362,-370.102971,-9252.574275,-1455.581446
356.144684,-296.082377,-9178.553681,-842.705048
356.145006,-296.082377,-9326.594869,-1225.752797
356.145328,-296.082377,-9474.636058,-1378.971896
356.145650,-370.102971,-9474.636058,-1608.800546
356.145971,-592.164754,-9474.636058,-1455.581446
356.146293,-740.205942,-9400.615463,-1608.800546
356.146615,-296.082377,-9696.697840,-1608.800546
356.146937,-518.144159,-9326.594869,-1302.362347
356.147259,-444.123565,-9178.553681,-1685.410096
356.147581,-296.082377,-9252.574275,-1762.019645
356.147902,-518.144159,-9104.533087,-1302.362347
356.148224,-518.144159,-9326.594869,-1838.629195
356.148546,-592.164754,-9770.718434,-1685.410096
356.148868,-444.123565,-9696.697840,-1608.800546
356.149190,-666.185348,-9548.656652,-1455.581446
356.149512,-444.123565,-9474.636058,-1915.238745
356.149833,-740.205942,-9030.512492,-1072.533697
356.150155,-148.041188,-9474.636058,-1532.190996
356.150477,-518.144159,-9400.615463,-1915.238745
356.150799,-592.164754,-9252.574275,-2068.457845
356.151121,-444.123565,-9474.636058,-1762.019645
356.151442,-370.102971,-9622.677246,-1991.848295
356.151764,-370.102971,-9696.697840,-1762.019645
356.152086,-370.102971,-9548.656652,-1685.410096
356.152408,-518.144159,-9622.677246,-1838.629195
356.152730,-370.102971,-9474.636058,-1608.800546
356.153052,-148.041188,-9252.574275,-1915.238745
356.153373,-222.061783,-9326.594869,-2068.457845
356.153695,-370.102971,-9252.574275,-1608.800546
356.154017,-296.082377,-9474.636058,-1762.019645
356.154339,-296.082377,-9548.656652,-1608.800546
356.154661,-148.041188,-9474.636058,-1532.190996
356.154983,0.000000,-9770.718434,-1762.019645
356.155304,0.000000,-9474.636058,-1838.629195
356.155626,-222.061783,-9400.615463,-1532.190996
356.155948,0.000000,-9252.574275,-1608.800546
356.156270,-148.041188,-9252.574275,-1455.581446
356.156592,74.020594,-9030.512492,-1302.362347
356.156913,148.041188,-9326.594869,-1378.971896
356.157235,-222.061783,-9474.636058,-1302.362347
356.157557,-296.082377,-9474.636058,-1302.362347
356.157879,-222.061783,-9474.636058,-1072.533697
356.158201,-222.061783,-9326.594869,-995.924147
356.158523,0.000000,-9104.533087,-766.095498
356.158844,0.000000,-9030.512492,-1608.800546
356.159166,-222.061783,-9104.533087,-1378.971896
356.159488,-222.061783,-9178.553681,-1225.752797
356.159810,-296.082377,-9400.615463,-1225.752797
356.160132,-370.102971,-9326.594869,-1072.533697
356.160454,-296.082377,-9622.677246,-1225.752797
356.160775,-296.082377,-9474.636058,-1378.971896
356.161097,222.061783,-9400.615463,-1378.971896
356.161419,888.247130,-9622.677246,-1302.362347
356.161741,1258.350101,-9696.697840,-995.924147
356.162063,740.205942,-9252.574275,-306.438199
356.162384,0.000000,-8586.388927,-689.485948
356.162706,0.000000,-8882.471304,-1378.971896
356.163028,-444.123565,-9178.553681,-1838.629195
356.163350,-1406.391290,-9252.574275,-1378.971896
356.163672,-1184.329507,-9030.512492,-1532.190996
356.163994,-592.164754,-9104.533087,-1149.143247
356.164315,74.020594,-9992.780217,-1225.752797
356.164637,-148.041188,-10140.821405,-919.314598
356.164959,-296.082377,-9252.574275,-842.705048
356.165281,666.185348,-8956.491898,-1991.848295
356.165603,1628.453072,-9844.739029,-2374.896044
356.165925,1480.411884,-10288.862594,-1838.629195
356.166246,740.205942,-9326.594869,-612.876398
356.166568,1480.411884,-8956.491898,-612.876398
356.166890,2738.761985,-9844.739029,-1378.971896
356.167212,3552.988522,-9622.677246,-1225.752797
356.167534,2442.679609,-8660.409521,0.000000
356.167855,2516.700203,-7994.224174,-459.657299
356.168177,3404.947333,-8216.285956,-1149.143247
356.168499,3849.070898,-9400.615463,-1302.362347
356.168821,3034.844362,-8882.471304,-306.438199
356.169143,3182.885551,-8216.285956,-1532.190996
356.169465,3775.050304,-8734.430116,-2451.505594
356.169786,4589.276840,-10436.903782,-2221.676944
356.170108,4219.173869,-10510.924376,-1608.800546
356.170430,3775.050304,-9696.697840,-1762.019645
356.170752,4737.318029,-9992.780217,-2145.067394
356.171074,5033.400406,-10658.965565,-2221.676944
356.171396,4293.194464,-10066.800811,-2451.505594
356.171717,3330.926739,-9400.615463,-2451.505594
356.172039,3256.906145,-9400.615463,-1302.362347
356.172361,3478.967927,-9400.615463,-1225.752797
356.172683,4219.173869,-8512.368333,-2451.505594
356.173005,4515.256246,-8660.409521,-2374.896044
356.173326,5181.441594,-9030.512492,-1838.629195
356.173648,5847.626942,-9104.533087,-1455.581446
356.173970,6735.874072,-9326.594869,-1685.410096
356.174292,6069.688724,-8734.430116,-1608.800546
356.174614,5181.441594,-9548.656652,-1685.410096
356.174936,3404.947333,-10436.903782,-2451.505594
356.175257,1850.514855,-11029.068536,-2374.896044
356.175579,814.226536,-12065.356855,-1915.238745
356.175901,296.082377,-12213.398043,-1225.752797
356.176223,-296.082377,-12361.439231,-229.828649
356.176545,0.000000,-12287.418637,459.657299
356.176867,296.082377,-11547.212695,1225.752797
356.177188,814.226536,-9992.780217,1455.581446
356.177510,296.082377,-8216.285956,1685.410096
356.177832,-740.205942,-5921.647536,1149.143247
356.178154,-1110.308913,-5107.421000,-306.438199
356.178476,-814.226536,-4737.318029,-1991.848295
356.178797,666.185348,-4885.359217,-2681.334243
356.179119,2294.638420,-5181.441594,-2911.162892
356.179441,4367.215058,-6217.729913,-3217.601092
356.179763,5625.565159,-7846.182985,-3983.696590
356.180085,6069.688724,-10807.006753,-3983.696590
356.180407,5847.626942,-13027.624579,-3600.648841
356.180728,4885.359217,-13915.871710,-3830.477490
356.181050,4293.194464,-14508.036463,-3217.601092
356.181372,4959.379811,-13989.892304,-1455.581446
356.181694,3034.844362,-12805.562797,689.485948
356.182016,1110.308913,-11399.171507,2528.115143
356.182338,370.102971,-9326.594869,3294.210641
356.182659,1036.288319,-7105.977043,3217.601092
356.182981,888.247130,-4737.318029,2451.505594
356.183303,-148.041188,-3330.926739,3370.820191
356.183625,-296.082377,-3552.988522,2834.553343
356.183947,370.102971,-5255.462188,306.438199
356.184268,1702.473667,-7402.059420,-1225.752797
356.184590,1776.494261,-8290.306550,-1915.238745
356.184912,1406.391290,-10066.800811,-2987.772442
356.185234,814.226536,-12361.439231,-4136.915689
356.185556,1110.308913,-14582.057057,-4366.744339
356.185878,1258.350101,-16284.530724,-4979.620737
356.186199,1036.288319,-15988.448347,-5056.230287
356.186521,444.123565,-13619.789333,-4673.182538
356.186843,1702.473667,-10881.027347,-3447.429741
356.187165,3108.864956,-9030.512492,-2911.162892
356.187487,4885.359217,-8808.450710,-995.924147
356.187809,5329.482782,-8364.327145,1608.800546
356.188130,5625.565159,-7105.977043,2528.115143
356.188452,7254.018232,-6217.729913,2681.334243
356.188774,9104.533087,-5403.503377,1915.238745
356.189096,8660.409521,-5403.503377,2145.067394
356.189418,6069.688724,-4811.338623,3753.867940
356.189739,4589.276840,-4145.153275,3217.601092
356.190061,4959.379811,-6143.709319,-1991.848295
356.190383,4441.235652,-9400.615463,-4749.792088
356.190705,1776.494261,-10807.006753,-3217.601092
356.191027,-592.164754,-12509.480420,-2451.505594
356.191349,-1554.432478,-15692.365970,-3294.210641
356.191670,-1406.391290,-16062.468941,-4213.525239
356.191992,-3034.844362,-12509.480420,-5592.497135
356.192314,-2738.761985,-9622.677246,-5592.497135
356.192636,-814.226536,-9474.636058,-5056.230287
356.192958,740.205942,-10066.800811,-4903.011187
356.193280,3182.885551,-9918.759623,-2911.162892
356.193601,5255.462188,-9548.656652,-536.266849
356.193923,7328.038826,-9844.739029,0.000000
356.194245,8142.265362,-9474.636058,612.876398
356.194567,7698.141797,-7624.121203,995.924147
356.194889,6587.832884,-5921.647536,153.219100
356.195210,4737.318029,-7105.977043,-229.828649
356.195532,2442.679609,-8808.450710,306.438199
356.195854,-962.267725,-8808.450710,919.314598
356.196176,-3034.844362,-8808.450710,306.438199
356.196498,-2368.659014,-10584.944971,-842.705048
356.196820,0.000000,-11917.315666,-2604.724693
356.197141,518.144159,-10584.944971,-2451.505594
356.197463,740.205942,-9474.636058,-1149.143247
356.197785,2072.576638,-9474.636058,76.609550
356.198107,3552.988522,-9474.636058,-2068.457845
356.198429,3923.091493,-9178.553681,-4673.182538
356.198751,3182.885551,-9178.553681,-4443.353888
356.199072,2738.761985,-9326.594869,-2298.286494
356.199394,2368.659014,-9252.574275,-1608.800546
356.199716,1554.432478,-9400.615463,-1532.190996
356.200038,0.000000,-8808.450710,-1072.533697
356.200360,-1184.329507,-8068.244768,-766.095498
356.200681,-1998.556043,-7772.162391,-1915.238745
356.201003,-2294.638420,-7920.203579,-2451.505594
356.201325,-1850.514855,-8808.450710,-2451.505594
356.201647,-1110.308913,-9992.780217,-383.047749
356.201969,-888.247130,-9992.780217,1838.629195
356.202291,-592.164754,-10288.862594,1608.800546
356.202612,370.102971,-10955.047942,-383.047749
356.202934,962.267725,-11547.212695,-1532.190996
356.203256,666.185348,-11843.295072,-919.314598
356.203578,962.267725,-11177.109724,383.047749
356.203900,2368.659014,-9474.636058,383.047749
356.204222,4737.318029,-9622.677246,-1762.019645
356.204543,6143.709319,-11029.068536,-2834.553343
356.204865,5773.606348,-10288.862594,-1532.190996
356.205187,3997.112087,-9104.533087,306.438199
356.205509,2886.803174,-7550.100608,1302.362347
356.205831,2886.803174,-6365.771101,-153.219100
356.206152,2442.679609,-5033.400406,-2834.553343
356.206474,1184.329507,-5181.441594,-3370.820191
356.206796,-1480.411884,-7105.977043,-919.314598
356.207118,-4145.153275,-7846.182985,689.485948
356.207440,-5995.668130,-7698.141797,-536.266849
356.207762,-6587.832884,-7994.224174,-3294.210641
356.208083,-6513.812290,-9918.759623,-5898.935335
356.208405,-5921.647536,-13027.624579,-5898.935335
356.208727,-4737.318029,-13471.748144,-3370.820191
356.209049,-2886.803174,-11473.192101,-1532.190996
356.209371,814.226536,-10807.006753,-1532.190996
356.209693,3478.967927,-10140.821405,-2145.067394
356.210014,3775.050304,-9696.697840,-2604.724693
356.210336,2886.803174,-9326.594869,-2451.505594
356.210658,2664.741391,-9992.780217,-1149.143247
356.210980,2442.679609,-11695.253884,153.219100
356.211301,1924.535449,-11917.315666,229.828649
356.211623,2072.576638,-9992.780217,766.095498
356.211945,2664.741391,-7920.203579,536.266849
356.212266,3701.029710,-7254.018232,-306.438199
356.212588,3330.926739,-6143.709319,0.000000
356.212910,2886.803174,-4959.379811,-1072.533697
356.213231,1850.514855,-5773.606348,-919.314598
356.213553,518.144159,-9252.574275,-842.705048
356.213875,-2220.617826,-10362.883188,-2068.457845
356.214196,-5403.503377,-9548.656652,-2911.162892
356.214518,-8068.244768,-9992.780217,-3294.210641
356.214840,-9030.512492,-10807.006753,-4213.525239
356.215161,-9326.594869,-11399.171507,-5669.106685
356.215483,-8882.471304,-10658.965565,-6358.592633
356.215804,-6883.915261,-10658.965565,-5362.668486
356.216126,-3775.050304,-10807.006753,-4596.572988
356.216448,-740.205942,-10362.883188,-3064.381992
356.216769,222.061783,-10140.821405,-1378.971896
356.217091,296.082377,-9622.677246,-459.657299
356.217413,370.102971,-9252.574275,229.828649
356.217734,1258.350101,-9918.759623,-153.219100
356.218056,1406.391290,-9770.718434,153.219100
356.218378,2220.617826,-9030.512492,1149.143247
356.218699,2664.741391,-7698.141797,1532.190996
356.219021,3552.988522,-7031.956449,1915.238745
356.219343,4071.132681,-7031.956449,2681.334243
356.219664,4959.379811,-7328.038826,1378.971896
356.219986,4959.379811,-6957.935855,153.219100
356.220308,3849.070898,-7698.141797,-306.438199
356.220629,1258.350101,-9548.656652,-1072.533697
356.220951,-296.082377,-9696.697840,-459.657299
356.221273,-2368.659014,-9178.553681,-1608.800546
356.221594,-4145.153275,-9326.594869,-3217.601092
356.221916,-4589.276840,-10807.006753,-4366.744339
356.222238,-4811.338623,-11843.295072,-4673.182538
356.222559,-5107.421000,-9474.636058,-2911.162892
356.222881,-4589.276840,-8808.450710,-1532.190996
356.223203,-2146.597232,-10066.800811,-3064.381992
356.223524,-888.247130,-10066.800811,-3753.867940
356.223846,-1406.391290,-9622.677246,-2834.553343
356.224168,-1406.391290,-9548.656652,-995.924147
356.224489,0.000000,-9918.759623,76.609550
356.224811,1480.411884,-9474.636058,0.000000
356.225133,1184.329507,-9474.636058,689.485948
356.225454,1628.453072,-9030.512492,2374.896044
356.225776,3404.947333,-8216.285956,1915.238745
356.226097,5329.482782,-8586.388927,-1149.143247
356.226419,7550.100608,-10362.883188,-1378.971896
356.226741,7624.121203,-9770.718434,1072.533697
356.227062,7179.997637,-7698.141797,2221.676944
356.227384,6957.935855,-7772.162391,383.047749
356.227706,6439.791695,-10066.800811,-1378.971896
356.228027,4737.318029,-9548.656652,-2068.457845
356.228349,296.082377,-8364.327145,-2834.553343
356.228671,-3182.885551,-8586.388927,-2681.334243
356.228992,-4071.132681,-10510.924376,-2145.067394
356.229314,-5403.503377,-9696.697840,-2911.162892
356.229636,-6365.771101,-8882.471304,-3983.696590
356.229957,-7105.977043,-8364.327145,-4673.182538
356.230279,-6957.935855,-9696.697840,-4366.744339
356.230601,-6735.874072,-10881.027347,-4826.401637
356.230922,-5329.482782,-11103.089130,-3830.477490
356.231244,-3775.050304,-10066.800811,-3217.601092
356.231566,-2072.576638,-11029.068536,-2221.676944
356.231887,-2368.659014,-11769.274478,-459.657299
356.232209,-3034.844362,-9622.677246,842.705048
356.232531,-1776.494261,-7698.141797,-459.657299
356.232852,1332.370696,-10362.883188,-3140.991542
356.233174,3256.906145,-11991.336260,-2834.553343
356.233496,2886.803174,-10214.842000,1072.533697
356.233817,2664.741391,-7031.956449,4060.306139
356.234139,4959.379811,-7105.977043,1838.629195
356.234461,7254.018232,-7920.203579,-2528.115143
356.234782,6291.750507,-7550.100608,-2451.505594
356.235104,1628.453072,-6883.915261,0.000000
356.235426,-1480.411884,-7994.224174,919.314598
356.235747,-3627.009116,-8364.327145,-1149.143247
356.236069,-5699.585753,-9178.553681,-3140.991542
356.236390,-7550.100608,-10510.924376,-3370.820191
356.236712,-8734.430116,-10362.883188,-3370.820191
356.237034,-8364.327145,-10140.821405,-3830.477490
356.237355,-6883.915261,-10140.821405,-3907.087040
356.237677,-5403.503377,-9252.574275,-2911.162892
356.237999,-4515.256246,-8956.491898,-2604.724693
356.238320,-3182.885551,-9844.739029,-2528.115143
356.238642,-2368.659014,-10066.800811,-2757.943793
356.238964,-2516.700203,-9992.780217,-2451.505594
356.239285,-1924.535449,-10510.924376,0.000000
356.239607,-814.226536,-10436.903782,1762.019645
356.239929,1406.391290,-8734.430116,459.657299
356.240250,4737.318029,-7328.038826,-1072.533697
356.240572,7031.956449,-8290.306550,76.609550
356.240894,7179.997637,-7920.203579,2068.457845
356.241215,6365.771101,-6291.750507,2451.505594
356.241537,6957.935855,-5847.626942,2221.676944
356.241859,7624.121203,-7550.100608,0.000000
356.242180,7179.997637,-9474.636058,-1838.629195
356.242502,4737.318029,-10436.903782,-1072.533697
356.242824,1924.535449,-9992.780217,995.924147
356.243145,444.123565,-10732.986159,766.095498
356.243467,-1184.329507,-10066.800811,-2145.067394
356.243789,-3330.926739,-8808.450710,-4749.792088
356.244110,-4811.338623,-8438.347739,-5669.106685
356.244432,-4589.276840,-10436.903782,-5362.668486
356.244754,-2886.803174,-12509.480420,-4673.182538
356.245075,-1924.535449,-12953.603985,-2987.772442
356.245397,-1184.329507,-12435.459826,-766.095498
356.245719,-1332.370696,-11251.130318,383.047749
356.246040,-1258.350101,-9992.780217,-1455.581446
356.246362,-1850.514855,-8438.347739,-3217.601092
356.246683,-2146.597232,-8290.306550,-1915.238745
356.247005,-2368.659014,-8586.388927,766.095498
356.247327,-1036.288319,-8512.368333,1762.019645
356.247648,1258.350101,-9030.512492,689.485948
356.247970,4367.215058,-9696.697840,-306.438199
356.248292,6735.874072,-9474.636058,76.609550
356.248613,7031.956449,-7920.203579,1149.143247
356.248935,5921.647536,-7328.038826,842.705048
356.249257,5255.462188,-7698.141797,536.266849
356.249578,3108.864956,-7328.038826,-919.314598
356.249900,-740.205942,-8068.244768,-3370.820191
356.250222,-4293.194464,-9770.718434,-3830.477490
356.250543,-6661.853478,-10658.965565,-1991.848295
356.250865,-7476.080014,-10066.800811,-2068.457845
356.251187,-6069.688724,-9770.718434,-2451.505594
356.251508,-4589.276840,-10807.006753,-3370.820191
356.251830,-4737.318029,-9770.718434,-3140.991542
356.252152,-5551.544565,-7402.059420,-2528.115143
356.252473,-5033.400406,-7105.977043,-2145.067394
356.252795,-3775.050304,-8882.471304,-4290.134789
356.253117,-3849.070898,-10510.924376,-3907.087040
356.253438,-5033.400406,-11547.212695,-919.314598
356.253760,-4811.338623,-10584.944971,1915.238745
356.254082,-1554.432478,-9030.512492,229.828649
356.254403,1924.535449,-8882.471304,-2757.943793
356.254725,2886.803174,-8882.471304,-2604.724693
356.255047,1998.556043,-7772.162391,383.047749
356.255368,1406.391290,-6957.935855,1685.410096
356.255690,2960.823768,-7846.182985,-153.219100
356.256012,4737.318029,-9696.697840,-2604.724693
356.256333,4515.256246,-10584.944971,-2604.724693
356.256655,2146.597232,-10584.944971,-766.095498
356.256976,0.000000,-10362.883188,-229.828649
356.257298,-888.247130,-9474.636058,-689.485948
356.257620,-1776.494261,-9474.636058,-1455.581446
356.257941,-3330.926739,-9770.718434,-3830.477490
356.258263,-4145.153275,-11251.130318,-3447.429741
356.258585,-4145.153275,-11103.089130,-2757.943793
356.258906,-3256.906145,-8956.491898,-2068.457845
356.259228,-1554.432478,-8438.347739,-1991.848295
356.259550,-592.164754,-9992.780217,-3064.381992
356.259871,-888.247130,-11029.068536,-2528.115143
356.260193,-1480.411884,-11029.068536,-1991.848295
356.260515,-1184.329507,-11251.130318,-1455.581446
356.260836,-444.123565,-10658.965565,306.438199
356.261158,-518.144159,-8882.471304,459.657299
356.261480,0.000000,-7994.224174,-153.219100
356.261801,2146.597232,-7994.224174,76.609550
356.262123,4293.194464,-7624.121203,766.095498
356.262445,5699.585753,-7402.059420,0.000000
356.262766,7698.141797,-8216.285956,0.000000
356.263088,8808.450710,-9474.636058,1149.143247
356.263410,7772.162391,-9400.615463,1455.581446
356.263731,4737.318029,-8290.306550,1608.800546
356.264053,1998.556043,-7476.080014,842.705048
356.264375,222.061783,-7550.100608,-1455.581446
356.264696,-370.102971,-8142.265362,-2757.943793
356.265018,-2664.741391,-9030.512492,-2681.334243
356.265340,-3108.864956,-9326.594869,-383.047749
356.265661,-2368.659014,-9030.512492,-612.876398
356.265983,-2220.617826,-9400.615463,-2374.896044
356.266305,-3108.864956,-9474.636058,-2221.676944
356.266626,-4811.338623,-9770.718434,-2681.334243
356.266948,-5033.400406,-11029.068536,-3447.429741
356.267269,-4293.194464,-11769.274478,-3370.820191
356.267591,-3627.009116,-11695.253884,-2298.286494
356.267913,-2738.761985,-10658.965565,-383.047749
356.268234,-1998.556043,-9844.739029,153.219100
356.268556,-1036.288319,-9326.594869,-1225.752797
356.268878,592.164754,-9696.697840,-2528.115143
356.269199,1332.370696,-10436.903782,-2145.067394
356.269521,814.226536,-10066.800811,-459.657299
356.269843,962.267725,-8068.244768,153.219100
356.270164,2516.700203,-5995.668130,459.657299
356.270486,4515.256246,-6809.894666,-2298.286494
356.270808,4737.318029,-8956.491898,-2834.553343
356.271129,2294.638420,-8512.368333,-1072.533697
356.271451,-1480.411884,-8364.327145,383.047749
356.271773,-4219.173869,-9326.594869,0.000000
356.272094,-5255.462188,-9474.636058,-2221.676944
356.272416,-6365.771101,-9252.574275,-5209.449386
356.272738,-7105.977043,-10140.821405,-5056.230287
356.273059,-6957.935855,-11991.336260,-2834.553343
356.273381,-6217.729913,-10881.027347,-1302.362347
356.273703,-4885.359217,-8660.409521,-1991.848295
356.274024,-2960.823768,-9104.533087,-2834.553343
356.274346,-2294.638420,-10807.006753,-3677.258390
356.274668,-3034.844362,-10807.006753,-3064.381992
356.274989,-3701.029710,-9548.656652,-1225.752797
356.275311,-3330.926739,-9770.718434,-383.047749
356.275633,-740.205942,-9474.636058,-383.047749
356.275954,1628.453072,-8438.347739,-1149.143247
356.276276,3404.947333,-7254.018232,-689.485948
356.276598,5329.482782,-7105.977043,612.876398
356.276919,6513.812290,-6883.915261,766.095498
356.277241,6439.791695,-7846.182985,459.657299
356.277562,5329.482782,-7772.162391,842.705048
356.277884,4145.153275,-8364.327145,0.000000
356.278206,3182.885551,-9030.512492,-1608.800546
356.278527,1554.432478,-10362.883188,-2145.067394
356.278849,-370.102971,-10140.821405,-1225.752797
356.279171,-1998.556043,-9696.697840,-766.095498
356.279492,-2590.720797,-9474.636058,-2451.505594
356.279814,-2812.782580,-9992.780217,-3677.258390
356.280136,-2368.659014,-10658.965565,-4060.306139
356.280457,-666.185348,-11029.068536,-4519.963438
356.280779,296.082377,-11695.253884,-3677.258390
356.281101,740.205942,-11843.295072,-1225.752797
356.281422,592.164754,-10807.006753,0.000000
356.281744,370.102971,-9622.677246,-612.876398
356.282066,74.020594,-9474.636058,-2221.676944
356.282387,-1110.308913,-10140.821405,-1838.629195
356.282709,-1110.308913,-9400.615463,-689.485948
356.283031,0.000000,-8068.244768,153.219100
356.283352,2664.741391,-8956.491898,612.876398
356.283674,4885.359217,-9326.594869,689.485948
356.283996,5181.441594,-7920.203579,612.876398
356.284317,4811.338623,-7328.038826,536.266849
356.284639,3923.091493,-7772.162391,306.438199
356.284961,2442.679609,-8068.244768,-536.266849
356.285282,148.041188,-7698.141797,-1838.629195
356.285604,-666.185348,-9030.512492,-2451.505594
356.285926,-1924.535449,-10066.800811,-1915.238745
356.286247,-2664.741391,-10288.862594,-1838.629195
356.286569,-3775.050304,-9252.574275,-2298.286494
356.286891,-4071.132681,-9104.533087,-2221.676944
356.287212,-4737.318029,-8364.327145,-2987.772442
356.287534,-5699.585753,-9474.636058,-3830.477490
356.287855,-5403.503377,-10288.862594,-4366.744339
356.288177,-4145.153275,-10066.800811,-3447.429741
356.288499,-2886.803174,-9918.759623,-2451.505594
356.288820,-2368.659014,-9844.739029,-919.314598
356.289142,-2442.679609,-9696.697840,459.657299
356.289464,-2146.597232,-8882.471304,0.000000
356.289785,-962.267725,-8512.368333,-1302.362347
356.290107,518.144159,-9326.594869,-2374.896044
356.290429,1110.308913,-9400.615463,-1915.238745
356.290750,962.267725,-9030.512492,459.657299
356.291072,666.185348,-7179.997637,1532.190996
356.291394,2294.638420,-6735.874072,229.828649
356.291715,3923.091493,-8956.491898,-2528.115143
356.292037,3701.029710,-9770.718434,-3217.601092
356.292359,1110.308913,-9104.533087,-1225.752797
356.292680,-1850.514855,-9252.574275,76.609550
356.293002,-3034.844362,-9770.718434,-1072.533697
356.293324,-4515.256246,-9622.677246,-3370.820191
356.293645,-6143.709319,-10214.842000,-5515.887586
356.293967,-6217.729913,-11695.253884,-4979.620737
356.294289,-6439.791695,-11399.171507,-3217.601092
356.294610,-5773.606348,-9918.759623,-2681.334243
356.294932,-3256.906145,-10214.842000,-2681.334243
356.295254,-370.102971,-11029.068536,-3294.210641
356.295575,222.061783,-10436.903782,-4136.915689
356.295897,74.020594,-10362.883188,-2145.067394
356.296219,370.102971,-10510.924376,383.047749
356.296540,592.164754,-9252.574275,689.485948
356.296862,592.164754,-8290.306550,0.000000
356.297184,2368.659014,-8660.409521,-383.047749
356.297505,4515.256246,-8364.327145,-1378.971896
356.297827,5403.503377,-8586.388927,-1072.533697
356.298148,5995.668130,-8216.285956,1455.581446
356.298470,6365.771101,-7328.038826,2528.115143
356.298792,5699.585753,-6513.812290,689.485948
356.299113,4885.359217,-7772.162391,-536.266849
356.299435,2368.659014,-8438.347739,-1302.362347
356.299757,-148.041188,-8956.491898,-2298.286494
356.300078,-1850.514855,-9400.615463,-2374.896044
356.300400,-2590.720797,-10732.986159,-1455.581446
356.300722,-2960.823768,-9992.780217,-1532.190996
356.301043,-3330.926739,-8586.388927,-2451.505594
356.301365,-2812.782580,-9030.512492,-3907.087040
356.301687,-2368.659014,-10807.006753,-3983.696590
356.302008,-1998.556043,-11399.171507,-3294.210641
356.302330,-1924.535449,-10732.986159,-2451.505594
356.302652,-1184.329507,-9992.780217,-995.924147
356.302973,-444.123565,-9622.677246,0.000000
356.303295,-740.205942,-9474.636058,-1532.190996
356.303617,-1332.370696,-9474.636058,-1302.362347
356.303938,-1258.350101,-9030.512492,-459.657299
356.304260,-518.144159,-9548.656652,-842.705048
356.304582,592.164754,-9548.656652,-459.657299
356.304903,1554.432478,-8660.409521,1072.533697
356.305225,2664.741391,-7624.121203,0.000000
356.305547,4219.173869,-7550.100608,-1915.238745
356.305868,5329.482782,-8808.450710,-2221.676944
356.306190,5329.482782,-9548.656652,-2145.067394
356.306512,3404.947333,-9992.780217,-1455.581446
356.306833,1480.411884,-10807.006753,0.000000
356.307155,-444.123565,-10807.006753,-766.095498
356.307477,-2220.617826,-10066.800811,-2451.505594
356.307798,-3775.050304,-9400.615463,-3064.381992
356.308120,-5403.503377,-8364.327145,-2451.505594
356.308441,-5329.482782,-7920.203579,-1915.238745
356.308763,-4737.318029,-8216.285956,-1225.752797
356.309085,-3775.050304,-8068.244768,-1072.533697
356.309406,-3775.050304,-8142.265362,-1991.848295
356.309728,-4219.173869,-8438.347739,-2681.334243
356.310050,-4737.318029,-10140.821405,-2298.286494
356.310371,-5477.523971,-11251.130318,-2298.286494
356.310693,-5255.462188,-10955.047942,-2221.676944
356.311015,-4145.153275,-10140.821405,-1532.190996
356.311336,-2294.638420,-9548.656652,-2068.457845
356.311658,444.123565,-9252.574275,-2221.676944
356.311980,2294.638420,-8808.450710,-2298.286494
356.312301,3627.009116,-8734.430116,-1302.362347
356.312623,4885.359217,-9252.574275,-995.924147
356.312945,5551.544565,-9770.718434,-1378.971896
356.313266,5255.462188,-9622.677246,-1455.581446
356.313588,4515.256246,-8808.450710,-229.828649
356.313910,2886.803174,-8734.430116,-153.219100
356.314231,1406.391290,-8808.450710,-766.095498
356.314553,0.000000,-9178.553681,-842.705048
356.314875,-2220.617826,-9178.553681,-612.876398
356.315196,-3108.864956,-8364.327145,-995.924147
356.315518,-3701.029710,-8364.327145,-2298.286494
356.315840,-3330.926739,-8882.471304,-2987.772442
356.316161,-2590.720797,-9474.636058,-3524.039291
356.316483,-2294.638420,-9992.780217,-2681.334243
356.316805,-2072.576638,-10955.047942,-1608.800546
356.317126,-1406.391290,-11621.233289,-2068.457845
356.317448,-1110.308913,-11325.150913,-2451.505594
356.317770,-888.247130,-11177.109724,-2374.896044
356.318091,-666.185348,-10807.006753,-995.924147
356.318413,-296.082377,-9474.636058,-1149.143247
356.318735,370.102971,-8808.450710,-1149.143247
356.319056,1850.514855,-9400.615463,-1149.143247
356.319378,2812.782580,-8660.409521,-229.828649
356.319700,3775.050304,-7179.997637,0.000000
356.320021,4959.379811,-7105.977043,0.000000
356.320343,5329.482782,-7550.100608,229.828649
356.320665,3997.112087,-7846.182985,383.047749
356.320986,1850.514855,-8216.285956,229.828649
356.321308,-222.061783,-9326.594869,-536.266849
356.321630,-1776.494261,-9326.594869,-1685.410096
356.321951,-2886.803174,-9474.636058,-2528.115143
356.322273,-3108.864956,-9770.718434,-2451.505594
356.322595,-3404.947333,-10214.842000,-2604.724693
356.322916,-2886.803174,-10732.986159,-2451.505594
356.323238,-2664.741391,-11177.109724,-2068.457845
356.323560,-2442.679609,-11029.068536,-1608.800546
356.323881,-2220.617826,-10288.862594,-2834.553343
356.324203,-1628.453072,-10362.883188,-3447.429741
356.324525,-1406.391290,-10510.924376,-2221.676944
356.324846,-2294.638420,-9622.677246,229.828649
356.325168,-3108.864956,-8142.265362,612.876398
356.325490,-2294.638420,-7328.038826,-766.095498
356.325811,-814.226536,-7772.162391,-1915.238745
356.326133,222.061783,-8216.285956,-1532.190996
356.326455,592.164754,-7994.224174,0.000000
356.326776,1406.391290,-7254.018232,536.266849
356.327098,2442.679609,-6957.935855,-229.828649
356.327420,3182.885551,-8512.368333,-1608.800546
356.327741,1998.556043,-9252.574275,-2374.896044
356.328063,592.164754,-9844.739029,-2757.943793
356.328385,-444.123565,-10881.027347,-2451.505594
356.328706,-1332.370696,-11029.068536,-1608.800546
356.329028,-1406.391290,-11177.109724,-1991.848295
356.329350,-2442.679609,-10214.842000,-2528.115143
356.329671,-3182.885551,-10288.862594,-3140.991542
356.329993,-3775.050304,-9770.718434,-3600.648841
356.330315,-3997.112087,-8956.491898,-3600.648841
356.330636,-3256.906145,-9178.553681,-2757.943793
356.330958,-2368.659014,-9474.636058,-2298.286494
356.331280,-1184.329507,-10066.800811,-1608.800546
356.331601,0.000000,-10436.903782,-1149.143247
356.331923,222.061783,-10140.821405,-383.047749
356.332245,-370.102971,-9252.574275,459.657299
356.332566,-222.061783,-7624.121203,229.828649
356.332888,518.144159,-7698.141797,-1685.410096
356.333210,1776.494261,-8290.306550,-2145.067394
356.333531,2590.720797,-8808.450710,-1762.019645
356.333853,3627.009116,-9400.615463,-612.876398
356.334175,5329.482782,-9030.512492,0.000000
356.334496,5477.523971,-9400.615463,-459.657299
356.334818,4663.297435,-9770.718434,-995.924147
356.335140,2886.803174,-9992.780217,-766.095498
356.335461,740.205942,-9178.553681,-1532.190996
356.335783,-1258.350101,-8290.306550,-3524.039291
356.336105,-2960.823768,-8216.285956,-2987.772442
356.336426,-4293.194464,-9104.533087,-2528.115143
356.336748,-4737.318029,-9104.533087,-2757.943793
356.337069,-3849.070898,-9696.697840,-3064.381992
356.337391,-2294.638420,-10807.006753,-2604.724693
356.337713,-1110.308913,-11843.295072,-1608.800546
356.338034,-888.247130,-11621.233289,-995.924147
356.338356,-962.267725,-10732.986159,-536.266849
356.338678,-666.185348,-10510.924376,-1225.752797
356.338999,-1110.308913,-10436.903782,-1302.362347
356.339321,-1776.494261,-9622.677246,-153.219100
356.339643,-2368.659014,-8956.491898,76.609550
356.339964,-962.267725,-9400.615463,-689.485948
356.340286,1110.308913,-10288.862594,-689.485948
356.340608,2294.638420,-9474.636058,153.219100
356.340929,2664.741391,-7476.080014,995.924147
356.341251,3330.926739,-6883.915261,766.095498
356.341573,3404.947333,-6957.935855,-1072.533697
356.341894,2516.700203,-7105.977043,-2068.457845
356.342216,370.102971,-7920.203579,-1915.238745
356.342538,-1998.556043,-9030.512492,-995.924147
356.342859,-2886.803174,-9326.594869,-919.314598
356.343181,-3997.112087,-9696.697840,-1378.971896
356.343503,-5181.441594,-9622.677246,-2221.676944
356.343824,-5995.668130,-9326.594869,-2681.334243
356.344146,-6143.709319,-8882.471304,-3524.039291
356.344468,-5329.482782,-9400.615463,-3677.258390
356.344789,-4441.235652,-9696.697840,-2604.724693
356.345111,-2664.741391,-9622.677246,-2145.067394
356.345433,-1480.411884,-10436.903782,-1991.848295
356.345754,-518.144159,-11621.233289,-842.705048
356.346076,-518.144159,-10436.903782,612.876398
356.346398,-222.061783,-8734.430116,0.000000
356.346719,222.061783,-7846.182985,-1149.143247
356.347041,592.164754,-7994.224174,-842.705048
356.347363,1850.514855,-7698.141797,-459.657299
356.347684,2960.823768,-8142.265362,-1378.971896
356.348006,4145.153275,-8512.368333,-459.657299
356.348328,6217.729913,-9030.512492,612.876398
356.348649,7105.977043,-8882.471304,-229.828649
356.348971,6957.935855,-8586.388927,-1685.410096
356.349293,4959.379811,-9474.636058,-1532.190996
356.349614,2368.659014,-9992.780217,-995.924147
356.349936,-518.144159,-8956.491898,-2987.772442
356.350258,-3182.885551,-9030.512492,-4060.306139
356.350579,-4885.359217,-10807.006753,-3677.258390
356.350901,-5773.606348,-11325.150913,-2911.162892
356.351223,-5403.503377,-10436.903782,-3677.258390
356.351544,-3701.029710,-10658.965565,-2757.943793
356.351866,-2442.679609,-11177.109724,-1762.019645
356.352188,-2220.617826,-9696.697840,-1225.752797
356.352509,-2368.659014,-8216.285956,-1685.410096
356.352831,-1776.494261,-8882.471304,-1762.019645
356.353153,-962.267725,-10066.800811,-1608.800546
356.353474,-1258.350101,-9548.656652,-1685.410096
356.353796,-1110.308913,-9474.636058,-612.876398
356.354118,296.082377,-10066.800811,229.828649
356.354439,2590.720797,-10288.862594,0.000000
356.354761,4219.173869,-9474.636058,-766.095498
356.355083,5033.400406,-9178.553681,-229.828649
356.355404,5773.606348,-8438.347739,76.609550
356.355726,6365.771101,-7994.224174,-995.924147
356.356048,6069.688724,-7994.224174,-1302.362347
356.356369,4293.194464,-8956.491898,-383.047749
356.356691,1628.453072,-9030.512492,-842.705048
356.357013,-1554.432478,-9252.574275,-995.924147
356.357334,-3182.885551,-10066.800811,-1378.971896
356.357656,-4589.276840,-10214.842000,-1378.971896
356.357978,-5403.503377,-9474.636058,-2145.067394
356.358299,-5403.503377,-8586.388927,-2374.896044
356.358621,-5033.400406,-8438.347739,-2068.457845
356.358943,-4811.338623,-8512.368333,-1455.581446
356.359264,-4219.173869,-9030.512492,-1991.848295
356.359586,-3849.070898,-9548.656652,-2221.676944
356.359908,-3627.009116,-10658.965565,-1532.190996
356.360229,-3330.926739,-11177.109724,-689.485948
356.360551,-3923.091493,-10584.944971,-536.266849
356.360873,-3627.009116,-9474.636058,0.000000
356.361194,-2886.803174,-8068.244768,-919.314598
356.361516,-1702.473667,-8068.244768,-2221.676944
356.361838,-518.144159,-8216.285956,-1915.238745
356.362159,962.267725,-8882.471304,-995.924147
356.362481,2590.720797,-9326.594869,-766.095498
356.362803,3997.112087,-9178.553681,-536.266849
356.363124,4811.338623,-8882.471304,-306.438199
356.363446,4589.276840,-8438.347739,-995.924147
356.363768,3256.906145,-8734.430116,-1072.533697
356.364089,1184.329507,-8808.450710,-1685.410096
356.364411,-592.164754,-9326.594869,-1991.848295
356.364733,-2072.576638,-10214.842000,-2145.067394
356.365054,-3034.844362,-10510.924376,-2298.286494
356.365376,-3108.864956,-10140.821405,-2451.505594
356.365698,-3404.947333,-10510.924376,-2068.457845
356.366019,-2368.659014,-10732.986159,-2068.457845
356.366341,-1776.494261,-9770.718434,-1685.410096
356.366663,-1036.288319,-9548.656652,-1685.410096
356.366984,-962.267725,-9104.533087,-1532.190996
356.367306,-1480.411884,-9548.656652,-1838.629195
356.367628,-2294.638420,-10066.800811,-1149.143247
356.367949,-2516.700203,-9548.656652,-306.438199
356.368271,-1332.370696,-9030.512492,-1225.752797
356.368593,222.061783,-8734.430116,-2451.505594
356.368914,1480.411884,-8956.491898,-1149.143247
356.369236,2294.638420,-8290.306550,0.000000
356.369558,4071.132681,-7920.203579,0.000000
356.369879,6143.709319,-8068.244768,-1225.752797
356.370201,6809.894666,-7920.203579,-1685.410096
356.370523,5033.400406,-8290.306550,-919.314598
356.370844,3404.947333,-8364.327145,-766.095498
356.371166,1554.432478,-9104.533087,-1455.581446
356.371487,148.041188,-9992.780217,-2221.676944
356.371809,-1258.350101,-10214.842000,-2528.115143
356.372131,-2738.761985,-10214.842000,-2757.943793
356.372452,-2738.761985,-9992.780217,-2451.505594
356.372774,-2664.741391,-10214.842000,-2298.286494
356.373096,-2368.659014,-9770.718434,-2145.067394
356.373417,-2220.617826,-8882.471304,-2221.676944
356.373739,-1924.535449,-9326.594869,-1991.848295
356.374061,-1776.494261,-9844.739029,-2221.676944
356.374382,-1702.473667,-10658.965565,-2528.115143
356.374704,-1998.556043,-11621.233289,-1302.362347
356.375026,-2664.741391,-11325.150913,76.609550
356.375347,-2294.638420,-9992.780217,383.047749
356.375669,-1036.288319,-8512.368333,-1532.190996
356.375991,1184.329507,-9252.574275,-2528.115143
356.376312,1258.350101,-8882.471304,-1149.143247
356.376634,1184.329507,-8142.265362,-383.047749
356.376956,1554.432478,-7105.977043,-153.219100
356.377277,2368.659014,-7994.224174,-1149.143247
356.377599,2886.803174,-9474.636058,-2451.505594
356.377921,1554.432478,-9770.718434,-1762.019645
356.378242,148.041188,-9918.759623,-995.924147
356.378564,-1332.370696,-10066.800811,-536.266849
356.378886,-2442.679609,-10066.800811,-766.095498
356.379207,-3775.050304,-9326.594869,-1608.800546
356.379529,-3849.070898,-8734.430116,-2298.286494
356.379851,-3552.988522,-9252.574275,-2911.162892
356.380172,-3627.009116,-9770.718434,-1838.629195
356.380494,-3923.091493,-9548.656652,-229.828649
356.380816,-3627.009116,-9474.636058,0.000000
356.381137,-2516.700203,-10362.883188,-919.314598
356.381459,-1480.411884,-11029.068536,-1685.410096
356.381781,-1628.453072,-10584.944971,-1302.362347
356.382102,-1998.556043,-9252.574275,0.000000
356.382424,-1332.370696,-8068.244768,919.314598
356.382746,222.061783,-7772.162391,-689.485948
356.383067,1258.350101,-8438.347739,-1378.971896
356.383389,2146.597232,-8512.368333,-766.095498
356.383711,2590.720797,-8808.450710,-229.828649
356.384032,3627.009116,-8586.388927,-306.438199
356.384354,4293.194464,-8068.244768,-536.266849
356.384676,4145.153275,-8512.368333,-766.095498
356.384997,2590.720797,-8882.471304,-995.924147
356.385319,1184.329507,-8882.471304,-1915.238745
356.385641,0.000000,-8808.450710,-2528.115143
356.385962,-1332.370696,-9178.553681,-2528.115143
356.386284,-2664.741391,-9548.656652,-2451.505594
356.386606,-3701.029710,-9770.718434,-2298.286494
356.386927,-3034.844362,-10214.842000,-2528.115143
356.387249,-2590.720797,-10362.883188,-2681.334243
356.387571,-2146.597232,-10288.862594,-2757.943793
356.387892,-1924.535449,-9548.656652,-2145.067394
356.388214,-1258.350101,-10140.821405,-1762.019645
356.388536,-1110.308913,-10436.903782,-1838.629195
356.388857,-592.164754,-11029.068536,-1378.971896
356.389179,0.000000,-11029.068536,-1762.019645
356.389501,666.185348,-10140.821405,-1225.752797
356.389822,1702.473667,-9474.636058,-1149.143247
356.390144,2442.679609,-9400.615463,-842.705048
356.390466,3182.885551,-8956.491898,-689.485948
356.390787,4071.132681,-8364.327145,-995.924147
356.391109,4885.359217,-7402.059420,-1225.752797
356.391431,5255.462188,-7624.121203,-1225.752797
356.391752,5107.421000,-8586.388927,-1378.971896
356.392074,3478.967927,-9400.615463,-1072.533697
356.392396,1702.473667,-9474.636058,-995.924147
356.392717,-370.102971,-9696.697840,-1378.971896
356.393039,-2220.617826,-9696.697840,-1991.848295
356.393361,-2960.823768,-9844.739029,-2757.943793
356.393682,-4589.276840,-9178.553681,-3600.648841
356.394004,-4737.318029,-9252.574275,-2987.772442
356.394326,-4737.318029,-9696.697840,-2298.286494
356.394647,-4515.256246,-9844.739029,-2145.067394
356.394969,-4367.215058,-9178.553681,-1762.019645
356.395291,-4515.256246,-9548.656652,-1991.848295
356.395612,-4589.276840,-9918.759623,-2298.286494
356.395934,-4219.173869,-10066.800811,-1532.190996
356.396256,-3775.050304,-10140.821405,-536.266849
356.396577,-2886.803174,-9474.636058,76.609550
356.396899,-1702.473667,-8808.450710,-459.657299
356.397221,0.000000,-8808.450710,-612.876398
356.397542,1850.514855,-8660.409521,-383.047749
356.397864,3552.988522,-8734.430116,0.000000
356.398186,4589.276840,-8660.409521,229.828649
356.398507,5699.585753,-8438.347739,383.047749
356.398829,5847.626942,-7920.203579,-612.876398
356.399151,5477.523971,-8882.471304,-1378.971896
356.399472,3997.112087,-9548.656652,-919.314598
356.399794,1924.535449,-9548.656652,-766.095498
356.400116,-740.205942,-9178.553681,-689.485948
356.400437,-1850.514855,-10066.800811,-1072.533697
356.400759,-3330.926739,-10140.821405,-1302.362347
356.401081,-4219.173869,-9178.553681,-2451.505594
356.401402,-4441.235652,-8956.491898,-3140.991542
356.401724,-4145.153275,-9326.594869,-2145.067394
356.402046,-3775.050304,-8808.450710,-1302.362347
356.402367,-3775.050304,-9104.533087,-1915.238745
356.402689,-2960.823768,-10436.903782,-2145.067394
356.403011,-1998.556043,-11769.274478,-1762.019645
356.403332,-2072.576638,-11769.274478,-1378.971896
356.403654,-2294.638420,-9918.759623,-766.095498
356.403976,-1110.308913,-9548.656652,-306.438199
356.404297,518.144159,-8734.430116,-1225.752797
356.404619,2220.617826,-8438.347739,-2451.505594
356.404940,2960.823768,-8512.368333,-1991.848295
356.405262,4145.153275,-8512.368333,-306.438199
356.405584,5773.606348,-8586.388927,-536.266849
356.405905,7031.956449,-9030.512492,-995.924147
356.406227,6883.915261,-9178.553681,-1532.190996
356.406549,5477.523971,-9770.718434,-612.876398
356.406870,2368.659014,-9844.739029,-229.828649
356.407192,0.000000,-8882.471304,-689.485948
356.407514,-1628.453072,-8956.491898,-2221.676944
356.407835,-2368.659014,-9400.615463,-3600.648841
356.408157,-3108.864956,-9400.615463,-2987.772442
356.408479,-3034.844362,-9474.636058,-1762.019645
356.408800,-2590.720797,-9400.615463,-1532.190996
356.409122,-1998.556043,-9178.553681,-1915.238745
356.409444,-1628.453072,-9474.636058,-2374.896044
356.409765,-2146.597232,-9918.759623,-2451.505594
356.410087,-2960.823768,-10214.842000,-1915.238745
356.410409,-3404.947333,-10510.924376,-1378.971896
356.410731,-4145.153275,-9918.759623,-1225.752797
356.411052,-3849.070898,-9030.512492,-919.314598
356.411374,-2960.823768,-8660.409521,-1608.800546
356.411696,-1332.370696,-9030.512492,-2221.676944
356.412018,518.144159,-8956.491898,-1608.800546
356.412339,1924.535449,-8512.368333,-995.924147
356.412661,3108.864956,-8216.285956,-1225.752797
356.412983,3849.070898,-8216.285956,-842.705048
356.413304,3627.009116,-8808.450710,-1685.410096
356.413626,2960.823768,-9400.615463,-2451.505594
356.413948,1924.535449,-9992.780217,-2451.505594
356.414270,0.000000,-9992.780217,-995.924147
356.414591,-1110.308913,-9696.697840,-1225.752797
356.414913,-1554.432478,-9696.697840,-2068.457845
356.415235,-1702.473667,-9844.739029,-2451.505594
356.415557,-2664.741391,-9474.636058,-1838.629195
356.415878,-3256.906145,-9622.677246,-2374.896044
356.416200,-3478.967927,-9104.533087,-2451.505594
356.416522,-2886.803174,-9548.656652,-1685.410096
356.416843,-3330.926739,-10066.800811,-1532.190996
356.417165,-3627.009116,-10066.800811,-1532.190996
356.417487,-3108.864956,-9770.718434,-1838.629195
356.417809,-3330.926739,-10510.924376,-1532.190996
356.418130,-2812.782580,-10658.965565,-306.438199
356.418452,-2294.638420,-9252.574275,-612.876398
356.418774,-444.123565,-8882.471304,-1685.410096
356.419096,1998.556043,-9474.636058,-1225.752797
356.419417,2886.803174,-9252.574275,0.000000
356.419739,3404.947333,-8216.285956,76.609550
356.420061,4219.173869,-7772.162391,-306.438199
356.420383,5033.400406,-8364.327145,-766.095498
356.420704,4811.338623,-8956.491898,-1762.019645
356.421026,3034.844362,-9474.636058,-1225.752797
356.421348,1924.535449,-9474.636058,-306.438199
356.421669,518.144159,-9400.615463,-229.828649
356.421991,-222.061783,-9474.636058,-1532.190996
356.422313,-1554.432478,-9030.512492,-1532.190996
356.422635,-2442.679609,-8808.450710,-1225.752797
356.422956,-2220.617826,-8512.368333,-1685.410096
356.423278,-1258.350101,-9252.574275,-2221.676944
356.423600,-444.123565,-9992.780217,-1378.971896
356.423922,-962.267725,-10288.862594,-689.485948
356.424243,-1332.370696,-10510.924376,-153.219100
356.424565,-592.164754,-10955.047942,-536.266849
356.424887,-518.144159,-11251.130318,-1762.019645
356.425209,-814.226536,-9844.739029,-1532.190996
356.425530,-962.267725,-8586.388927,-1225.752797
356.425852,-222.061783,-8734.430116,-459.657299
356.426174,814.226536,-8290.306550,-536.266849
356.426495,1924.535449,-7846.182985,-1532.190996
356.426817,3182.885551,-7772.162391,-1608.800546
356.427139,3627.009116,-8512.368333,-1149.143247
356.427461,2960.823768,-8882.471304,-1762.019645
356.427782,1998.556043,-9474.636058,-1608.800546
356.428104,1258.350101,-10362.883188,-1149.143247
356.428426,0.000000,-9992.780217,-1608.800546
356.428748,-1924.535449,-9252.574275,-2221.676944
356.429069,-3478.967927,-8882.471304,-2681.334243
356.429391,-3849.070898,-9474.636058,-2987.772442
356.429713,-3182.885551,-9400.615463,-3370.820191
356.430035,-3182.885551,-9326.594869,-2911.162892
356.430356,-2664.741391,-9474.636058,-1838.629195
356.430678,-2368.659014,-9696.697840,-1532.190996
356.431000,-2368.659014,-10140.821405,-2145.067394
356.431321,-2294.638420,-10584.944971,-2145.067394
356.431643,-2738.761985,-10066.800811,-2298.286494
356.431965,-2368.659014,-10362.883188,-2068.457845
356.432287,-2220.617826,-9696.697840,-919.314598
356.432608,-1480.411884,-9474.636058,-383.047749
356.432930,-592.164754,-9178.553681,-1072.533697
356.433252,888.247130,-9104.533087,-1532.190996
356.433574,1554.432478,-9474.636058,-1149.143247
356.433895,1702.473667,-8438.347739,-612.876398
356.434217,2146.597232,-7698.141797,-459.657299
356.434539,2664.741391,-8290.306550,-1302.362347
356.434860,3034.844362,-9030.512492,-2451.505594
356.435182,1776.494261,-9252.574275,-1455.581446
356.435504,-518.144159,-9030.512492,-1072.533697
356.435826,-1998.556043,-9030.512492,-766.095498
356.436147,-2516.700203,-9178.553681,-1532.190996
356.436469,-2664.741391,-9252.574275,-2451.505594
356.436791,-2590.720797,-9326.594869,-3753.867940
356.437113,-2368.659014,-9918.759623,-2757.943793
356.437434,-1702.473667,-9918.759623,-1378.971896
356.437756,-1036.288319,-9104.533087,-1072.533697
356.438078,-222.061783,-8808.450710,-1915.238745
356.438400,-148.041188,-10362.883188,-1991.848295
356.438721,-296.082377,-11177.109724,-1532.190996
356.439043,-1850.514855,-10732.986159,-919.314598
356.439365,-2146.597232,-9474.636058,-229.828649
356.439686,-1332.370696,-9474.636058,-689.485948
356.440008,-222.061783,-9992.780217,-1225.752797
356.440330,814.226536,-9252.574275,-1455.581446
356.440652,2590.720797,-9474.636058,-995.924147
356.440973,3849.070898,-9844.739029,0.000000
356.441295,4737.318029,-9474.636058,842.705048
356.441617,4737.318029,-8586.388927,76.609550
356.441939,3997.112087,-7846.182985,229.828649
356.442260,2738.761985,-9030.512492,-1072.533697
356.442582,1110.308913,-9918.759623,-1991.848295
356.442904,-148.041188,-9992.780217,-2298.286494
356.443226,-1036.288319,-10214.842000,-1378.971896
356.443547,-1332.370696,-9696.697840,-536.266849
356.443869,-1702.473667,-9844.739029,-459.657299
356.444191,-1850.514855,-8808.450710,-1685.410096
356.444512,-1850.514855,-7846.182985,-2374.896044
356.444834,-1924.535449,-8364.327145,-2451.505594
356.445156,-2294.638420,-8808.450710,-1532.190996
356.445478,-3108.864956,-8882.471304,-766.095498
356.445799,-2368.659014,-9770.718434,-1072.533697
356.446121,-2516.700203,-10436.903782,-1149.143247
356.446443,-3034.844362,-10510.924376,-766.095498
356.446765,-3701.029710,-9474.636058,-383.047749
356.447086,-2886.803174,-8808.450710,-1455.581446
356.447408,-1332.370696,-8734.430116,-2298.286494
356.447730,0.000000,-8586.388927,-1685.410096
356.448052,814.226536,-8142.265362,-459.657299
356.448373,2072.576638,-7624.121203,0.000000
356.448695,3627.009116,-7994.224174,-919.314598
356.449017,4663.297435,-9696.697840,-1685.410096
356.449338,3478.967927,-10066.800811,-1608.800546
356.449660,1628.453072,-9696.697840,-1072.533697
356.449982,74.020594,-9622.677246,-1378.971896
356.450304,-740.205942,-9548.656652,-1685.410096
356.450625,-2146.597232,-9178.553681,-2604.724693
356.450947,-3404.947333,-8882.471304,-3294.210641
356.451269,-4219.173869,-9178.553681,-2221.676944
356.451591,-3775.050304,-9844.739029,-2298.286494
356.451912,-3182.885551,-10214.842000,-2451.505594
356.452234,-2664.741391,-10214.842000,-1915.238745
356.452556,-3256.906145,-10140.821405,-1685.410096
356.452878,-3256.906145,-10066.800811,-1915.238745
356.453199,-3330.926739,-10732.986159,-1838.629195
356.453521,-3478.967927,-10140.821405,-2298.286494
356.453843,-2960.823768,-9104.533087,-1455.581446
356.454164,-2368.659014,-8734.430116,-1455.581446
356.454486,-370.102971,-9696.697840,-1455.581446
356.454808,1258.350101,-9252.574275,-1302.362347
356.455130,2368.659014,-9252.574275,-1072.533697
356.455451,3627.009116,-8586.388927,-612.876398
356.455773,4885.359217,-8216.285956,-995.924147
356.456095,4885.359217,-7698.141797,-1455.581446
356.456417,4663.297435,-8956.491898,-1608.800546
356.456738,3330.926739,-9474.636058,-919.314598
356.457060,1184.329507,-9400.615463,-1455.581446
356.457382,-74.020594,-9844.739029,-995.924147
356.457703,-1480.411884,-9622.677246,-766.095498
356.458025,-1850.514855,-9548.656652,-2068.457845
356.458347,-1998.556043,-9474.636058,-2681.334243
356.458669,-1258.350101,-9918.759623,-1608.800546
356.458990,-666.185348,-9178.553681,-842.705048
356.459312,-296.082377,-8734.430116,-1455.581446
356.459634,-814.226536,-9474.636058,-689.485948
356.459956,-1628.453072,-9770.718434,-689.485948
356.460277,-2146.597232,-10214.842000,-1838.629195
356.460599,-2368.659014,-11177.109724,-2221.676944
356.460921,-2220.617826,-10584.944971,-383.047749
356.461243,-888.247130,-9622.677246,0.000000
356.461564,-296.082377,-9178.553681,-1302.362347
356.461886,962.267725,-8734.430116,-766.095498
356.462208,1554.432478,-8512.368333,-229.828649
356.462529,1628.453072,-7328.038826,-1455.581446
356.462851,2590.720797,-7179.997637,-1685.410096
356.463173,3330.926739,-8216.285956,-2374.896044
356.463495,2886.803174,-9918.759623,-2068.457845
356.463816,1258.350101,-11029.068536,-229.828649
356.464138,-592.164754,-9696.697840,612.876398
356.464460,-1258.350101,-8734.430116,-766.095498
356.464782,-1480.411884,-9622.677246,-2757.943793
356.465103,-2738.761985,-9696.697840,-2528.115143
356.465425,-3627.009116,-8438.347739,-1838.629195
356.465747,-3256.906145,-8512.368333,-1608.800546
356.466069,-2294.638420,-9252.574275,-1608.800546
356.466390,-1628.453072,-9622.677246,-1991.848295
356.466712,-2516.700203,-9696.697840,-2374.896044
356.467034,-3478.967927,-10214.842000,-1608.800546
356.467355,-3552.988522,-11103.089130,-1608.800546
356.467677,-3404.947333,-12065.356855,-2298.286494
356.467999,-3775.050304,-10584.944971,-1685.410096
356.468321,-2442.679609,-9178.553681,-842.705048
356.468642,-814.226536,-8438.347739,-1302.362347
356.468964,888.247130,-8216.285956,-1685.410096
356.469286,1110.308913,-8068.244768,-1225.752797
356.469608,1406.391290,-7476.080014,-383.047749
356.469929,2368.659014,-7846.182985,-612.876398
356.470251,3404.947333,-8734.430116,-2221.676944
356.470573,3182.885551,-9622.677246,-2221.676944
356.470895,1850.514855,-9474.636058,-919.314598
356.471216,222.061783,-9178.553681,-536.266849
356.471538,-740.205942,-9030.512492,-766.095498
356.471860,-1850.514855,-9622.677246,-2451.505594
356.472181,-2516.700203,-8956.491898,-3294.210641
356.472503,-2738.761985,-8586.388927,-3140.991542
356.472825,-1924.535449,-9548.656652,-2451.505594
356.473147,-888.247130,-9770.718434,-1762.019645
356.473468,-592.164754,-9178.553681,-1378.971896
356.473790,-370.102971,-9104.533087,-1302.362347
356.474112,0.000000,-10288.862594,-2068.457845
356.474434,148.041188,-10732.986159,-2451.505594
356.474755,-370.102971,-10066.800811,-1762.019645
356.475077,-962.267725,-9622.677246,-459.657299
356.475399,-370.102971,-9770.718434,-229.828649
356.475720,666.185348,-9548.656652,-1302.362347
356.476042,1258.350101,-9252.574275,-2221.676944
356.476364,2220.617826,-8956.491898,-1302.362347
356.476686,2812.782580,-8290.306550,-995.924147
356.477007,3627.009116,-8142.265362,-1455.581446
356.477329,3997.112087,-8882.471304,-1608.800546
356.477651,3478.967927,-9400.615463,-1532.190996
356.477973,2368.659014,-10066.800811,-1608.800546
356.478294,962.267725,-10436.903782,-2221.676944
356.478616,-666.185348,-11029.068536,-1378.971896
356.478938,-1776.494261,-10658.965565,-1762.019645
356.479260,-2368.659014,-9918.759623,-2068.457845
356.479581,-2146.597232,-9474.636058,-2145.067394
356.479903,-1628.453072,-8882.471304,-2221.676944
356.480225,-1332.370696,-8290.306550,-1915.238745
356.480546,-1110.308913,-8808.450710,-1608.800546
356.480868,-740.205942,-9770.718434,-1302.362347
356.481190,-518.144159,-9992.780217,-1378.971896
356.481512,-444.123565,-10066.800811,-766.095498
356.481833,-962.267725,-10140.821405,0.000000
356.482155,-2072.576638,-9104.533087,76.609550
356.482477,-2738.761985,-7994.224174,-459.657299
356.482799,-2516.700203,-8438.347739,-1915.238745
356.483120,-1480.411884,-9178.553681,-2298.286494
356.483442,-962.267725,-9030.512492,-1225.752797
356.483764,-518.144159,-8882.471304,153.219100
356.484086,592.164754,-8512.368333,0.000000
356.484407,2146.597232,-8882.471304,-1532.190996
356.484729,2220.617826,-9400.615463,-2528.115143
356.485051,740.205942,-9474.636058,-1762.019645
356.485372,-518.144159,-9474.636058,-1302.362347
356.485694,-1924.535449,-9474.636058,-1455.581446
356.486016,-2812.782580,-9992.780217,-1302.362347
356.486338,-3849.070898,-9696.697840,-1149.143247
356.486659,-4293.194464,-8882.471304,-1762.019645
356.486981,-3552.988522,-7772.162391,-1991.848295
356.487303,-2738.761985,-8438.347739,-1685.410096
356.487625,-2146.597232,-8734.430116,-1378.971896
356.487946,-1554.432478,-9178.553681,-1149.143247
356.488268,-1258.350101,-10066.800811,-1378.971896
356.488590,-1184.329507,-11029.068536,-1149.143247
356.488912,-1776.494261,-10881.027347,-1149.143247
356.489233,-2738.761985,-10436.903782,-1302.362347
356.489555,-2516.700203,-9696.697840,-1685.410096
356.489877,-1258.350101,-9474.636058,-2298.286494
356.490198,222.061783,-9696.697840,-2834.553343
356.490520,1332.370696,-9030.512492,-1608.800546
356.490842,2146.597232,-8882.471304,-229.828649
356.491164,3034.844362,-8734.430116,-995.924147
356.491485,4367.215058,-9104.533087,-1838.629195
356.491807,4589.276840,-9030.512492,-1915.238745
356.492129,3775.050304,-8512.368333,-1685.410096
356.492451,2368.659014,-8142.265362,-1072.533697
356.492772,1258.350101,-8734.430116,-1302.362347
356.493094,74.020594,-9770.718434,-1762.019645
356.493416,-740.205942,-10214.842000,-1991.848295
356.493738,-1850.514855,-9918.759623,-1991.848295
356.494059,-1332.370696,-9474.636058,-2298.286494
356.494381,-740.205942,-9844.739029,-2374.896044
356.494703,0.000000,-9474.636058,-2221.676944
356.495024,370.102971,-9326.594869,-1838.629195
356.495346,666.185348,-9770.718434,-1378.971896
356.495668,222.061783,-10362.883188,-1455.581446
356.495990,-74.020594,-10436.903782,-766.095498
356.496311,-1406.391290,-10362.883188,-919.314598
356.496633,-1480.411884,-9770.718434,-842.705048
356.496955,-1036.288319,-9178.553681,-1532.190996
356.497277,-296.082377,-9104.533087,-1915.238745
356.497598,592.164754,-8216.285956,-536.266849
356.497920,592.164754,-7550.100608,-383.047749
356.498242,1554.432478,-7402.059420,-459.657299
356.498563,2442.679609,-8068.244768,-1532.190996
356.498885,3108.864956,-8512.368333,-2298.286494
356.499207,2590.720797,-9104.533087,-1991.848295
356.499529,1332.370696,-9992.780217,-2068.457845
356.499850,0.000000,-10807.006753,-1762.019645
356.500172,-1554.432478,-11103.089130,-1378.971896
356.500494,-3108.864956,-10288.862594,-1915.238745
356.500816,-4293.194464,-9400.615463,-2221.676944
356.501137,-3404.947333,-8956.491898,-2911.162892
356.501459,-3034.844362,-8586.388927,-2604.724693
356.501781,-2368.659014,-8586.388927,-1838.629195
356.502103,-2072.576638,-8956.491898,-995.924147
356.502424,-1850.514855,-9844.739029,-995.924147
356.502746,-1924.535449,-10140.821405,-842.705048
356.503068,-2738.761985,-10288.862594,-1225.752797
356.503389,-3330.926739,-10732.986159,-1225.752797
356.503711,-3552.988522,-10658.965565,-612.876398
356.504033,-2812.782580,-9992.780217,-612.876398
356.504355,-1184.329507,-9178.553681,-1149.143247
356.504676,518.144159,-8290.306550,-995.924147
356.504998,1258.350101,-8364.327145,-1072.533697
356.505320,1628.453072,-8142.265362,-1302.362347
356.505642,1998.556043,-8660.409521,-1608.800546
356.505963,1924.535449,-8956.491898,-1838.629195
356.506285,1480.411884,-8882.471304,-2451.505594
356.506607,666.185348,-9474.636058,-1915.238745
356.506929,-592.164754,-9696.697840,-2068.457845
356.507250,-1702.473667,-9252.574275,-1762.019645
356.507572,-2812.782580,-9030.512492,-1838.629195
356.507894,-2738.761985,-8142.265362,-1915.238745
356.508215,-2442.679609,-8216.285956,-2145.067394
356.508537,-2146.597232,-9326.594869,-2145.067394
356.508859,-1628.453072,-9474.636058,-1302.362347
356.509181,-666.185348,-8882.471304,-459.657299
356.509502,444.123565,-9178.553681,-1302.362347
356.509824,1554.432478,-10140.821405,-1532.190996
356.510146,1258.350101,-10066.800811,-1225.752797
356.510468,518.144159,-10288.862594,-612.876398
356.510790,74.020594,-10362.883188,-229.828649
356.511112,592.164754,-9844.739029,-536.266849
356.511434,740.205942,-8956.491898,-995.924147
356.511755,814.226536,-8660.409521,-612.876398
356.512077,1332.370696,-8808.450710,-229.828649
356.512399,1776.494261,-8068.244768,-995.924147
356.512721,2812.782580,-8216.285956,-1685.410096
356.513043,3701.029710,-8438.347739,-1608.800546
356.513365,3552.988522,-9326.594869,-1608.800546
356.513687,2738.761985,-9474.636058,-1915.238745
356.514009,1332.370696,-10066.800811,-1608.800546
356.514330,-148.041188,-10288.862594,-2298.286494
356.514652,-1110.308913,-10436.903782,-2604.724693
356.514974,-1480.411884,-10732.986159,-3140.991542
356.515296,-1924.535449,-9474.636058,-2451.505594
356.515618,-1776.494261,-9474.636058,-1991.848295
356.515940,-1332.370696,-9770.718434,-1532.190996
356.516262,-888.247130,-9844.739029,-1302.362347
356.516584,-444.123565,-10066.800811,-842.705048
356.516905,-888.247130,-9992.780217,-1608.800546
356.517227,-1332.370696,-9696.697840,-1378.971896
356.517549,-1776.494261,-10362.883188,-1225.752797
356.517871,-2072.576638,-10510.924376,-689.485948
356.518193,-2294.638420,-8808.450710,0.000000
356.518515,-1480.411884,-7920.203579,-1225.752797
356.518837,0.000000,-8808.450710,-2145.067394
356.519159,1036.288319,-9474.636058,-2068.457845
356.519481,1110.308913,-9030.512492,-1302.362347
356.519802,1406.391290,-8438.347739,-536.266849
356.520124,2072.576638,-8364.327145,-1378.971896
356.520446,1406.391290,-9178.553681,-2604.724693
356.520768,-370.102971,-9178.553681,-2604.724693
356.521090,-1628.453072,-9030.512492,-2221.676944
356.521412,-2442.679609,-9326.594869,-2451.505594
356.521734,-3330.926739,-9622.677246,-2145.067394
356.522056,-4293.194464,-9474.636058,-1532.190996
356.522377,-5477.523971,-8290.306550,-1532.190996
356.522699,-4737.318029,-8438.347739,-2374.896044
356.523021,-3404.947333,-9326.594869,-3140.991542
356.523343,-2812.782580,-10140.821405,-2604.724693
356.523665,-2146.597232,-10066.800811,-612.876398
356.523987,-1332.370696,-10214.842000,306.438199
356.524309,518.144159,-10510.924376,0.000000
356.524631,1110.308913,-10955.047942,-612.876398
356.524953,222.061783,-9918.759623,0.000000
356.525274,-148.041188,-8882.471304,0.000000
356.525596,592.164754,-8586.388927,-1532.190996
356.525918,1850.514855,-8956.491898,-1455.581446
356.526240,2146.597232,-8216.285956,0.000000
356.526562,1776.494261,-7550.100608,306.438199
356.526884,2220.617826,-6883.915261,-229.828649
356.527206,2812.782580,-7920.203579,-1608.800546
356.527528,2664.741391,-8808.450710,-2604.724693
356.527849,1406.391290,-8882.471304,-1762.019645
356.528171,0.000000,-8882.471304,-1225.752797
356.528493,-888.247130,-9474.636058,-2374.896044
356.528815,-2146.597232,-9918.759623,-2681.334243
356.529137,-2960.823768,-10288.862594,-3217.601092
356.529459,-3552.988522,-11103.089130,-3600.648841
356.529781,-2442.679609,-11769.274478,-3370.820191
356.530103,-1850.514855,-11843.295072,-1762.019645
356.530424,-1258.350101,-9992.780217,459.657299
356.530746,-814.226536,-8512.368333,-229.828649
356.531068,814.226536,-8290.306550,-1685.410096
356.531390,1702.473667,-8882.471304,-2834.553343
356.531712,1776.494261,-9844.739029,-2221.676944
356.532034,296.082377,-10732.986159,766.095498
356.532356,74.020594,-10881.027347,3064.381992
356.532678,1406.391290,-10955.047942,1072.533697
356.533000,2368.659014,-9474.636058,-1225.752797
356.533321,2368.659014,-7772.162391,-1149.143247
356.533643,1480.411884,-7031.956449,-153.219100
356.533965,1554.432478,-6809.894666,-689.485948
356.534287,3256.906145,-7031.956449,-2834.553343
356.534609,4219.173869,-8438.347739,-3370.820191
356.534931,3478.967927,-9696.697840,-2221.676944
356.535253,962.267725,-10881.027347,-919.314598
356.535575,-1776.494261,-11251.130318,-766.095498
356.535896,-4293.194464,-11029.068536,-1685.410096
356.536218,-5033.400406,-10658.965565,-3217.601092
356.536540,-5477.523971,-9326.594869,-3907.087040
356.536862,-5107.421000,-8216.285956,-3524.039291
356.537184,-3478.967927,-8142.265362,-2298.286494
356.537506,-1924.535449,-8734.430116,-1072.533697
356.537828,-1406.391290,-9326.594869,-612.876398
356.538150,-370.102971,-10807.006753,-919.314598
356.538472,0.000000,-11325.150913,-1149.143247
356.538793,-666.185348,-10955.047942,-766.095498
356.539115,-962.267725,-9992.780217,-689.485948
356.539437,-1332.370696,-8808.450710,-459.657299
356.539759,-962.267725,-8068.244768,-766.095498
356.540081,296.082377,-8660.409521,-1455.581446
356.540403,1554.432478,-9030.512492,-1302.362347
356.540725,2664.741391,-9474.636058,-1225.752797
356.541047,3701.029710,-9326.594869,-1149.143247
356.541368,4737.318029,-9696.697840,0.000000
356.541690,4589.276840,-9104.533087,-612.876398
356.542012,2590.720797,-8068.244768,-1838.629195
356.542334,296.082377,-7550.100608,-2681.334243
356.542656,-1850.514855,-8290.306550,-4060.306139
356.542978,-3775.050304,-9474.636058,-3600.648841
356.543300,-5255.462188,-10066.800811,-2987.772442
356.543622,-5625.565159,-10140.821405,-2298.286494
356.543943,-5181.441594,-9992.780217,-1915.238745
356.544265,-4441.235652,-9696.697840,-1225.752797
356.544587,-4145.153275,-9030.512492,-1991.848295
356.544909,-3182.885551,-8586.388927,-2298.286494
356.545231,-1924.535449,-9178.553681,-2604.724693
356.545553,-962.267725,-9918.759623,-2145.067394
356.545875,-666.185348,-10066.800811,-842.705048
356.546197,-518.144159,-10732.986159,229.828649
356.546519,-592.164754,-10732.986159,536.266849
356.546840,0.000000,-9992.780217,-153.219100
356.547162,1480.411884,-9770.718434,-1302.362347
356.547484,2960.823768,-8956.491898,-1378.971896
356.547806,4219.173869,-8142.265362,-229.828649
356.548128,5403.503377,-7624.121203,0.000000
356.548450,5921.647536,-7328.038826,76.609550
356.548772,5551.544565,-7698.141797,-1455.581446
356.549094,3997.112087,-9400.615463,-2451.505594
356.549415,1258.350101,-10436.903782,-1608.800546
356.549737,-1184.329507,-10214.842000,-995.924147
356.550059,-2590.720797,-9770.718434,-1991.848295
356.550381,-3404.947333,-10066.800811,-2221.676944
356.550703,-4663.297435,-9622.677246,-2145.067394
356.551025,-5181.441594,-9030.512492,-2451.505594
356.551347,-4959.379811,-8290.306550,-2451.505594
356.551669,-3330.926739,-9622.677246,-3600.648841
356.551990,-3034.844362,-10140.821405,-2145.067394
356.552312,-2738.761985,-10214.842000,-1149.143247
356.552634,-1702.473667,-10066.800811,-1149.143247
356.552956,-444.123565,-10214.842000,-1149.143247
356.553278,-592.164754,-10066.800811,-766.095498
356.553600,-1554.432478,-9400.615463,76.609550
356.553922,-1480.411884,-7846.182985,0.000000
356.554244,592.164754,-8512.368333,-1608.800546
356.554566,2220.617826,-9326.594869,-1455.581446
356.554887,2960.823768,-8882.471304,459.657299
356.555209,3404.947333,-7624.121203,919.314598
356.555531,3849.070898,-7105.977043,306.438199
356.555853,4441.235652,-8586.388927,-1378.971896
356.556175,3256.906145,-9400.615463,-2068.457845
356.556497,1998.556043,-9178.553681,-1072.533697
356.556819,592.164754,-9770.718434,-1455.581446
356.557141,-296.082377,-9992.780217,-1991.848295
356.557462,-2220.617826,-10510.924376,-2374.896044
356.557784,-4219.173869,-10214.842000,-2145.067394
356.558106,-5255.462188,-9474.636058,-2451.505594
356.558428,-4515.256246,-8808.450710,-2911.162892
356.558750,-3256.906145,-9252.574275,-2987.772442
356.559072,-2960.823768,-9400.615463,-1608.800546
356.559394,-2368.659014,-9474.636058,-459.657299
356.559716,-1702.473667,-9548.656652,-536.266849
356.560038,-740.205942,-10510.924376,-229.828649
356.560359,-888.247130,-10214.842000,-1302.362347
356.560681,-1332.370696,-10140.821405,-1378.971896
356.561003,-888.247130,-9622.677246,-766.095498
356.561325,74.020594,-9622.677246,0.000000
356.561647,1554.432478,-9400.615463,-383.047749
356.561969,2664.741391,-8438.347739,0.000000
356.562291,3627.009116,-8808.450710,-689.485948
356.562613,4145.153275,-8216.285956,-766.095498
356.562934,4219.173869,-7920.203579,-1532.190996
356.563256,4663.297435,-8882.471304,-2145.067394
356.563578,4441.235652,-10288.862594,-1302.362347
356.563900,2368.659014,-10288.862594,-1838.629195
356.564222,-444.123565,-9622.677246,-1838.629195
356.564544,-2368.659014,-9770.718434,-2374.896044
356.564866,-3701.029710,-10140.821405,-2911.162892
356.565188,-4219.173869,-10214.842000,-3370.820191
356.565509,-4219.173869,-9252.574275,-3370.820191
356.565831,-3849.070898,-9474.636058,-2604.724693
356.566153,-2738.761985,-9326.594869,-1991.848295
356.566475,-1850.514855,-9104.533087,-1762.019645
356.566797,-1184.329507,-9474.636058,-1915.238745
356.567119,-222.061783,-10140.821405,-1838.629195
356.567441,-444.123565,-10732.986159,-1608.800546
356.567763,-1110.308913,-10732.986159,-383.047749
356.568085,-1998.556043,-9992.780217,1302.362347
356.568406,-814.226536,-9252.574275,995.924147
356.568728,1110.308913,-8290.306550,-1685.410096
356.569050,2146.597232,-7624.121203,-2221.676944
356.569372,2220.617826,-7476.080014,-459.657299
356.569694,2590.720797,-7031.956449,153.219100
356.570016,3330.926739,-6957.935855,-689.485948
356.570338,3923.091493,-7994.224174,-1532.190996
356.570660,2812.782580,-9030.512492,-1838.629195
356.570981,296.082377,-10214.842000,-1378.971896
356.571303,-2368.659014,-10140.821405,-1532.190996
356.571625,-2960.823768,-10732.986159,-2451.505594
356.571947,-3330.926739,-10436.903782,-3447.429741
356.572269,-3997.112087,-8882.471304,-3447.429741
356.572591,-4737.318029,-8438.347739,-2528.115143
356.572913,-4737.318029,-9178.553681,-2911.162892
356.573235,-3701.029710,-10362.883188,-3294.210641
356.573557,-2886.803174,-11177.109724,-2451.505594
356.573878,-2146.597232,-10732.986159,-1072.533697
356.574200,-1924.535449,-9548.656652,-229.828649
356.574522,-962.267725,-10140.821405,-689.485948
356.574844,-666.185348,-9770.718434,-919.314598
356.575166,-814.226536,-8808.450710,-689.485948
356.575488,-222.061783,-8438.347739,-689.485948
356.575810,888.247130,-9104.533087,-229.828649
356.576132,2220.617826,-8882.471304,919.314598
356.576453,3256.906145,-8290.306550,306.438199
356.576775,4071.132681,-7772.162391,76.609550
356.577097,5329.482782,-7994.224174,-919.314598
356.577419,5255.462188,-8882.471304,-2145.067394
356.577741,3775.050304,-9696.697840,-1762.019645
356.578063,1184.329507,-9696.697840,-766.095498
356.578385,-666.185348,-9918.759623,-1685.410096
356.578707,-1628.453072,-10658.965565,-3064.381992
356.579028,-2738.761985,-10807.006753,-2451.505594
356.579350,-3923.091493,-9844.739029,-2451.505594
356.579672,-4441.235652,-9252.574275,-2221.676944
356.579994,-3775.050304,-9178.553681,-2145.067394
356.580316,-2960.823768,-9474.636058,-2451.505594
356.580638,-2368.659014,-8882.471304,-2374.896044
356.580960,-1480.411884,-8956.491898,-2528.115143
356.581282,-296.082377,-9622.677246,-1838.629195
356.581604,592.164754,-11177.109724,-1225.752797
356.581925,1184.329507,-11325.150913,0.000000
356.582247,888.247130,-10732.986159,459.657299
356.582569,1480.411884,-9992.780217,612.876398
356.582891,2442.679609,-9030.512492,-229.828649
356.583213,3256.906145,-8586.388927,-612.876398
356.583535,3404.947333,-7994.224174,0.000000
356.583857,4145.153275,-7698.141797,612.876398
356.584179,4737.318029,-8068.244768,-383.047749
356.584500,5477.523971,-8882.471304,-1608.800546
356.584822,5551.544565,-9474.636058,-1225.752797
356.585144,3775.050304,-9104.533087,-842.705048
356.585466,1110.308913,-9474.636058,-689.485948
356.585788,-1332.370696,-9696.697840,-612.876398
356.586110,-3478.967927,-9326.594869,-1915.238745
356.586432,-5699.585753,-7772.162391,-3830.477490
356.586754,-6291.750507,-8734.430116,-4213.525239
356.587076,-5773.606348,-9548.656652,-3677.258390
356.587397,-5255.462188,-9696.697840,-3217.601092
356.587719,-4293.194464,-10066.800811,-1608.800546
356.588041,-2960.823768,-10881.027347,-1378.971896
356.588363,-2368.659014,-11029.068536,-2221.676944
356.588685,-2368.659014,-10732.986159,-2681.334243
356.589007,-2960.823768,-10955.047942,-1838.629195
356.589329,-3182.885551,-10362.883188,-689.485948
356.589651,-2960.823768,-9474.636058,-383.047749
356.589972,-1850.514855,-8512.368333,-459.657299
356.590294,0.000000,-8364.327145,-536.266849
356.590616,1776.494261,-8068.244768,-1072.533697
356.590938,3108.864956,-8512.368333,-995.924147
356.591260,4441.235652,-8734.430116,-689.485948
356.591582,4959.379811,-8216.285956,0.000000
356.591904,4145.153275,-8586.388927,-1225.752797
356.592226,2812.782580,-9400.615463,-1532.190996
356.592547,740.205942,-9622.677246,-1991.848295
356.592869,-1258.350101,-9474.636058,-2451.505594
356.593191,-2664.741391,-9918.759623,-2451.505594
356.593513,-3701.029710,-9104.533087,-1991.848295
356.593835,-3552.988522,-8808.450710,-2298.286494
356.594157,-3034.844362,-8956.491898,-2757.943793
356.594479,-3108.864956,-9474.636058,-3217.601092
356.594801,-3849.070898,-9030.512492,-2145.067394
356.595123,-4737.318029,-8216.285956,-1608.800546
356.595444,-4959.379811,-10288.862594,-2451.505594
356.595766,-4441.235652,-11621.233289,-2834.553343
356.596088,-3923.091493,-11399.171507,-1532.190996
356.596410,-3256.906145,-10436.903782,-1072.533697
356.596732,-1480.411884,-9548.656652,-995.924147
356.597054,888.247130,-8808.450710,-766.095498
356.597376,2960.823768,-8142.265362,-1532.190996
356.597698,4367.215058,-8216.285956,-766.095498
356.598019,4737.318029,-8808.450710,0.000000
356.598341,5921.647536,-9030.512492,0.000000
356.598663,7402.059420,-9696.697840,-306.438199
356.598985,7402.059420,-9030.512492,-229.828649
356.599307,6143.709319,-9030.512492,-689.485948
356.599629,4663.297435,-9696.697840,-766.095498
356.599951,2516.700203,-9918.759623,-995.924147
356.600273,518.144159,-9992.780217,-1225.752797
356.600594,-370.102971,-9178.553681,-1915.238745
356.600916,-1480.411884,-8660.409521,-2604.724693
356.601238,-2516.700203,-9178.553681,-2834.553343
356.601560,-3775.050304,-10214.842000,-2221.676944
356.601882,-3478.967927,-9622.677246,-1455.581446
356.602204,-3182.885551,-9696.697840,-2221.676944
356.602526,-1998.556043,-10362.883188,-2604.724693
356.602848,-1036.288319,-10732.986159,-2528.115143
356.603170,-1406.391290,-11029.068536,-1685.410096
356.603491,-1554.432478,-11399.171507,0.000000
356.603813,-666.185348,-10066.800811,612.876398
356.604135,0.000000,-8438.347739,-995.924147
356.604457,148.041188,-8216.285956,-1608.800546
356.604779,222.061783,-8438.347739,0.000000
356.605101,592.164754,-7624.121203,153.219100
356.605423,1850.514855,-6883.915261,0.000000
356.605745,3330.926739,-7328.038826,-536.266849
356.606066,3627.009116,-8216.285956,-1072.533697
356.606388,2442.679609,-8660.409521,-1302.362347
356.606710,814.226536,-9474.636058,-919.314598
356.607032,-148.041188,-10510.924376,-919.314598
356.607354,-1554.432478,-10658.965565,-1838.629195
356.607676,-2812.782580,-9548.656652,-2068.457845
356.607998,-4071.132681,-9400.615463,-2145.067394
356.608320,-4219.173869,-9474.636058,-2221.676944
356.608642,-4589.276840,-9696.697840,-2221.676944
356.608963,-4441.235652,-9104.533087,-2757.943793
356.609285,-3849.070898,-9474.636058,-2298.286494
356.609607,-3108.864956,-9918.759623,-2068.457845
356.609918,-3034.844362,-10732.986159,-1838.629195
356.610240,-3330.926739,-10066.800811,-766.095498
356.610562,-3404.947333,-9104.533087,-383.047749
356.610884,-2738.761985,-8660.409521,-919.314598
356.611205,-1850.514855,-8734.430116,-1762.019645
356.611527,-1406.391290,-8808.450710,-1302.362347
356.611849,-518.144159,-8808.450710,-689.485948
356.612171,666.185348,-8882.471304,-459.657299
356.612493,2368.659014,-9326.594869,-1455.581446
356.612815,2960.823768,-8512.368333,-1838.629195
356.613137,3701.029710,-8438.347739,-2221.676944
356.613459,3478.967927,-9326.594869,-2604.724693
356.613781,2664.741391,-9770.718434,-1915.238745
356.614102,1406.391290,-9770.718434,-1225.752797
356.614424,-296.082377,-9474.636058,-766.095498
356.614746,-740.205942,-9474.636058,-2068.457845
356.615068,-962.267725,-9844.739029,-3217.601092
356.615390,-1258.350101,-9770.718434,-3140.991542
356.615712,-1702.473667,-8956.491898,-2374.896044
356.616034,-1702.473667,-8512.368333,-1838.629195
356.616356,-1628.453072,-9326.594869,-2528.115143
356.616678,-1184.329507,-9622.677246,-2834.553343
356.616999,-814.226536,-9992.780217,-2834.553343
356.617321,-888.247130,-10436.903782,-2221.676944
356.617643,-888.247130,-11177.109724,-1225.752797
356.617965,-888.247130,-10658.965565,-766.095498
356.618287,0.000000,-10362.883188,-1455.581446
356.618609,1480.411884,-9992.780217,-1378.971896
356.618931,2664.741391,-9770.718434,-1149.143247
356.619253,3034.844362,-9030.512492,0.000000
356.619575,4145.153275,-8364.327145,0.000000
356.619896,4293.194464,-7105.977043,689.485948
356.620218,5033.400406,-7328.038826,-919.314598
356.620540,4885.359217,-8808.450710,-2221.676944
356.620862,3923.091493,-9178.553681,-919.314598
356.621184,1554.432478,-8808.450710,0.000000
356.621506,296.082377,-9400.615463,-536.266849
356.621828,-1036.288319,-9548.656652,-689.485948
356.622150,-2072.576638,-8660.409521,-2221.676944
356.622472,-3108.864956,-8512.368333,-3447.429741
356.622793,-3034.844362,-8956.491898,-3677.258390
356.623115,-3627.009116,-9844.739029,-2681.334243
356.623437,-4145.153275,-10510.924376,-1685.410096
356.623759,-4515.256246,-10140.821405,-995.924147
356.624081,-4663.297435,-10584.944971,-2298.286494
356.624403,-3775.050304,-11843.295072,-3294.210641
356.624725,-3478.967927,-12139.377449,-2451.505594
356.625047,-3627.009116,-10732.986159,-1378.971896
356.625369,-3256.906145,-9770.718434,0.000000
356.625690,-1480.411884,-9326.594869,842.705048
356.626012,0.000000,-9252.574275,-153.219100
356.626334,370.102971,-7920.203579,0.000000
356.626656,444.123565,-8068.244768,842.705048
356.626978,1480.411884,-7105.977043,1072.533697
356.627300,3034.844362,-7328.038826,-766.095498
356.627622,4145.153275,-8512.368333,-1608.800546
356.627944,4145.153275,-9844.739029,-995.924147
356.628266,2442.679609,-10436.903782,-689.485948
356.628587,370.102971,-10881.027347,-383.047749
356.628909,-1702.473667,-10066.800811,0.000000
356.629231,-3849.070898,-8364.327145,-842.705048
356.629553,-5107.421000,-7772.162391,-2374.896044
356.629875,-5403.503377,-7920.203579,-2681.334243
356.630197,-5329.482782,-8290.306550,-2757.943793
356.630519,-4589.276840,-8512.368333,-2298.286494
356.630841,-3256.906145,-9474.636058,-1991.848295
356.631163,-2220.617826,-10140.821405,-1762.019645
356.631484,-1850.514855,-10658.965565,-1378.971896
356.631806,-2886.803174,-11399.171507,-2068.457845
356.632128,-3627.009116,-9918.759623,-995.924147
356.632450,-3034.844362,-7920.203579,-1378.971896
356.632772,-1480.411884,-7624.121203,-2911.162892
356.633094,814.226536,-8660.409521,-2451.505594
356.633416,2368.659014,-8956.491898,-306.438199
356.633738,3923.091493,-8956.491898,-229.828649
356.634060,6661.853478,-8956.491898,-383.047749
356.634381,8660.409521,-9474.636058,-689.485948
356.634703,8364.327145,-9474.636058,-1915.238745
356.635025,6365.771101,-9474.636058,-1149.143247
356.635347,4219.173869,-9696.697840,-842.705048
356.635669,2220.617826,-9400.615463,-1915.238745
356.635991,370.102971,-9474.636058,-3064.381992
356.636313,-1332.370696,-9474.636058,-3140.991542
356.636635,-1924.535449,-9918.759623,-3140.991542
356.636957,-1702.473667,-10362.883188,-2757.943793
356.637278,-1406.391290,-10510.924376,-2221.676944
356.637600,-1258.350101,-9400.615463,-1838.629195
356.637922,-1480.411884,-8734.430116,-2528.115143
356.638244,-1332.370696,-9252.574275,-3370.820191
356.638566,-1184.329507,-10288.862594,-4290.134789
356.638888,-1850.514855,-11547.212695,-3677.258390
356.639210,-1924.535449,-11843.295072,-1838.629195
356.639532,-1110.308913,-11177.109724,-229.828649
356.639854,-296.082377,-10732.986159,-995.924147
356.640175,1036.288319,-10362.883188,-1225.752797
356.640497,1110.308913,-8808.450710,-995.924147
356.640819,1406.391290,-7846.182985,-1149.143247
356.641141,2146.597232,-6809.894666,-842.705048
356.641463,3108.864956,-6365.771101,-383.047749
356.641785,3997.112087,-7105.977043,-995.924147
356.642107,3108.864956,-8438.347739,-383.047749
356.642429,1554.432478,-10140.821405,-383.047749
356.642751,-518.144159,-10510.924376,-919.314598
356.643072,-2368.659014,-10362.883188,-766.095498
356.643394,-3627.009116,-9474.636058,-1072.533697
356.643716,-3775.050304,-8882.471304,-2145.067394
356.644038,-3997.112087,-8660.409521,-2604.724693
356.644360,-4219.173869,-8808.450710,-1685.410096
356.644682,-4367.215058,-8882.471304,-1072.533697
356.645004,-4145.153275,-9400.615463,-1532.190996
356.645326,-4293.194464,-10362.883188,-1072.533697
356.645648,-4293.194464,-11325.150913,-995.924147
356.645969,-4737.318029,-11399.171507,-306.438199
356.646291,-4959.379811,-9844.739029,-153.219100
356.646613,-4441.235652,-8142.265362,0.000000
356.646935,-3330.926739,-7550.100608,153.219100
356.647257,-1924.535449,-7105.977043,-459.657299
356.647579,-740.205942,-7254.018232,-919.314598
356.647901,74.020594,-8364.327145,0.000000
356.648223,1554.432478,-8660.409521,536.266849
356.648545,3478.967927,-8586.388927,229.828649
356.648866,4589.276840,-8882.471304,-1072.533697
356.649188,4219.173869,-9992.780217,-1608.800546
356.649510,3034.844362,-10436.903782,-1455.581446
356.649832,1480.411884,-9844.739029,-1608.800546
356.650154,148.041188,-9622.677246,-1532.190996
356.650476,-666.185348,-9918.759623,-1608.800546
356.650798,-2146.597232,-9770.718434,-1991.848295
356.651120,-2368.659014,-9918.759623,-2221.676944
356.651442,-2220.617826,-9696.697840,-1685.410096
356.651763,-1702.473667,-9178.553681,-1532.190996
356.652085,-1258.350101,-8660.409521,-1378.971896
356.652407,-1184.329507,-8660.409521,-1225.752797
356.652729,-1702.473667,-8882.471304,-1532.190996
356.653051,-1998.556043,-9474.636058,-1685.410096
356.653373,-1998.556043,-10288.862594,-2221.676944
356.653695,-1406.391290,-10214.842000,-2068.457845
356.654017,0.000000,-9918.759623,-2145.067394
356.654339,1036.288319,-9474.636058,-2757.943793
356.654660,2886.803174,-9992.780217,-1378.971896
356.654982,3997.112087,-9696.697840,-612.876398
356.655304,4441.235652,-8734.430116,-2068.457845
356.655626,5107.421000,-7994.224174,-1991.848295
356.655948,4959.379811,-8734.430116,-2681.334243
356.656270,4367.215058,-9622.677246,-2604.724693
356.656592,3182.885551,-9400.615463,-2374.896044
356.656914,1998.556043,-9474.636058,-1532.190996
356.657236,1184.329507,-9622.677246,-1378.971896
356.657557,444.123565,-9548.656652,-2068.457845
356.657879,-1924.535449,-9030.512492,-2528.115143
356.658201,-2146.597232,-9104.533087,-1991.848295
356.658523,-2368.659014,-8512.368333,-1762.019645
356.658845,-2294.638420,-8290.306550,-2451.505594
356.659167,-1554.432478,-8956.491898,-2681.334243
356.659489,-1184.329507,-9622.677246,-2374.896044
356.659811,-1184.329507,-10955.047942,-2451.505594
356.660133,-1332.370696,-11843.295072,-1838.629195
356.660454,-1776.494261,-12139.377449,-995.924147
356.660776,-2294.638420,-11399.171507,-842.705048
356.661098,-2590.720797,-10288.862594,-1302.362347
356.661420,-2960.823768,-8956.491898,-1685.410096
356.661742,-2294.638420,-8142.265362,-1608.800546
356.662064,-1702.473667,-7031.956449,-1532.190996
356.662386,-1258.350101,-7031.956449,-995.924147
356.662708,222.061783,-6809.894666,-153.219100
356.663030,2072.576638,-7920.203579,-1072.533697
356.663351,1924.535449,-9918.759623,-1532.190996
356.663673,1406.391290,-11325.150913,-612.876398
356.663995,-148.041188,-11029.068536,-459.657299
356.664317,-1258.350101,-9474.636058,-153.219100
356.664639,-2368.659014,-8808.450710,-1149.143247
356.664961,-3552.988522,-8512.368333,-2145.067394
356.665283,-4071.132681,-7920.203579,-2145.067394
356.665605,-3701.029710,-8290.306550,-1838.629195
356.665927,-2590.720797,-9030.512492,-995.924147
356.666248,-1850.514855,-9622.677246,-536.266849
356.666570,-1258.350101,-9844.739029,-459.657299
356.666892,-888.247130,-10214.842000,-842.705048
356.667214,-962.267725,-9992.780217,-842.705048
356.667536,-2442.679609,-9326.594869,-842.705048
356.667858,-4071.132681,-9104.533087,229.828649
356.668180,-4145.153275,-8364.327145,-842.705048
356.668502,-2960.823768,-8660.409521,-1838.629195
356.668824,-1332.370696,-9474.636058,-1685.410096
356.669145,296.082377,-9474.636058,-383.047749
356.669467,1406.391290,-8956.491898,153.219100
356.669789,2886.803174,-8068.244768,-612.876398
356.670111,3478.967927,-8586.388927,-1378.971896
356.670433,3256.906145,-9844.739029,-2298.286494
356.670755,2220.617826,-10066.800811,-2221.676944
356.671077,962.267725,-9918.759623,-2221.676944
356.671399,666.185348,-10288.862594,-2145.067394
356.671721,666.185348,-10807.006753,-2145.067394
356.672042,444.123565,-10584.944971,-1532.190996
356.672364,-370.102971,-9622.677246,-1915.238745
356.672686,-370.102971,-9326.594869,-1685.410096
356.673008,-296.082377,-8956.491898,-1378.971896
356.673330,-296.082377,-7846.182985,-1915.238745
356.673652,-370.102971,-8142.265362,-2221.676944
356.673974,592.164754,-9400.615463,-2451.505594
356.674296,1554.432478,-10510.924376,-2374.896044
356.674618,1332.370696,-11473.192101,-1838.629195
356.674939,1036.288319,-11029.068536,0.000000
356.675261,888.247130,-10140.821405,612.876398
356.675583,1406.391290,-9474.636058,-919.314598
356.675905,1406.391290,-8882.471304,-1838.629195
356.676227,518.144159,-8290.306550,-995.924147
356.676549,370.102971,-7105.977043,-1149.143247
356.676871,1702.473667,-6735.874072,-2068.457845
356.677193,3478.967927,-7254.018232,-2374.896044
356.677515,4145.153275,-8438.347739,-2221.676944
356.677836,2738.761985,-9622.677246,-1608.800546
356.678158,740.205942,-10510.924376,-1225.752797
356.678480,-962.267725,-10732.986159,-1455.581446
356.678802,-2812.782580,-10214.842000,-1991.848295
356.679124,-4071.132681,-9474.636058,-3524.039291
356.679446,-4663.297435,-8586.388927,-3370.820191
356.679768,-4293.194464,-8364.327145,-3064.381992
356.680090,-3404.947333,-9474.636058,-2298.286494
356.680412,-2368.659014,-10362.883188,-1915.238745
356.680733,-1850.514855,-10066.800811,-1302.362347
356.681055,-1554.432478,-10214.842000,-1762.019645
356.681377,-1480.411884,-11251.130318,-1762.019645
356.681699,-2368.659014,-11325.150913,-229.828649
356.682021,-3478.967927,-10214.842000,-306.438199
356.682343,-3552.988522,-8660.409521,0.000000
356.682665,-3034.844362,-7846.182985,-689.485948
356.682987,-1776.494261,-7846.182985,-1455.581446
356.683309,-296.082377,-8290.306550,-1532.190996
356.683630,518.144159,-8068.244768,-766.095498
356.683952,2516.700203,-8882.471304,0.000000
356.684274,3997.112087,-9400.615463,-842.705048
356.684596,3923.091493,-9770.718434,-2374.896044
356.684918,2516.700203,-9844.739029,-2528.115143
356.685240,370.102971,-9918.759623,-1149.143247
356.685562,-1554.432478,-10214.842000,-2221.676944
356.685884,-3108.864956,-9770.718434,-1991.848295
356.686205,-4293.194464,-9548.656652,-1685.410096
356.686527,-4663.297435,-9104.533087,-1991.848295
356.686849,-3923.091493,-8364.327145,-2298.286494
356.687171,-2516.700203,-8808.450710,-1225.752797
356.687493,-1184.329507,-9252.574275,-1685.410096
356.687815,-518.144159,-8882.471304,0.000000
356.688137,74.020594,-8734.430116,76.609550
356.688459,370.102971,-9770.718434,-689.485948
356.688781,148.041188,-10584.944971,-842.705048
356.689102,-666.185348,-10658.965565,-689.485948
356.689424,-740.205942,-9326.594869,0.000000
356.689746,740.205942,-9104.533087,-306.438199
356.690068,1776.494261,-8956.491898,-689.485948
356.690390,2664.741391,-8438.347739,0.000000
356.690712,3478.967927,-8216.285956,0.000000
356.691034,4737.318029,-8512.368333,-1455.581446
356.691356,5033.400406,-8808.450710,-1915.238745
356.691678,4737.318029,-9844.739029,-2145.067394
356.691999,3478.967927,-9844.739029,-1608.800546
356.692321,2368.659014,-9326.594869,-536.266849
356.692643,740.205942,-9326.594869,-1991.848295
356.692965,-740.205942,-9622.677246,-2528.115143
356.693287,-1850.514855,-9474.636058,-2757.943793
356.693609,-2812.782580,-9252.574275,-2757.943793
356.693931,-2738.761985,-9400.615463,-2528.115143
356.694253,-2516.700203,-9844.739029,-1991.848295
356.694575,-2812.782580,-10214.842000,-1838.629195
356.694896,-2590.720797,-10140.821405,-1608.800546
356.695218,-2294.638420,-10288.862594,-1685.410096
356.695540,-1924.535449,-10436.903782,-2298.286494
356.695862,-1998.556043,-10732.986159,-1762.019645
356.696184,-2368.659014,-11177.109724,-995.924147
356.696506,-2664.741391,-10510.924376,-306.438199
356.696828,-2738.761985,-9548.656652,-536.266849
356.697150,-2368.659014,-9030.512492,-919.314598
356.697472,-1480.411884,-8068.244768,-1378.971896
356.697793,-962.267725,-7179.997637,-2068.457845
356.698115,-666.185348,-7328.038826,-1532.190996
356.698437,1258.350101,-7698.141797,-1532.190996
356.698759,3182.885551,-8734.430116,-2604.724693
356.699081,3923.091493,-10658.965565,-3600.648841
356.699403,2146.597232,-11695.253884,-1455.581446
356.699725,-962.267725,-11399.171507,76.609550
356.700047,-4219.173869,-9696.697840,-995.924147
356.700369,-6365.771101,-8734.430116,-2834.553343
356.700690,-7994.224174,-7698.141797,-4519.963438
356.701012,-9474.636058,-6587.832884,-4903.011187
356.701334,-9844.739029,-7624.121203,-2834.553343
356.701656,-8882.471304,-9548.656652,-1149.143247
356.701978,-7105.977043,-10510.924376,-842.705048
356.702300,-5921.647536,-9844.739029,-1072.533697
356.702622,-4219.173869,-8956.491898,-1685.410096
356.702944,-3256.906145,-9400.615463,-1915.238745
356.703266,-2516.700203,-9474.636058,-2451.505594
356.703587,-2812.782580,-9400.615463,-1455.581446
356.703909,-3034.844362,-9992.780217,-459.657299
356.704231,-2886.803174,-10436.903782,-612.876398
356.704553,-2516.700203,-10066.800811,-1225.752797
356.704875,-1924.535449,-9622.677246,-1991.848295
356.705197,-962.267725,-9178.553681,-1225.752797
356.705519,-296.082377,-9030.512492,-1072.533697
356.705841,-444.123565,-8512.368333,-459.657299
356.706163,-814.226536,-7402.059420,-459.657299
356.706484,-1184.329507,-7402.059420,-1455.581446
356.706806,-1480.411884,-7624.121203,-2604.724693
356.707128,-1776.494261,-8660.409521,-2834.553343
356.707450,-2664.741391,-9844.739029,-2298.286494
356.707772,-3849.070898,-10807.006753,-1838.629195
356.708094,-3701.029710,-11991.336260,-1072.533697
356.708416,-4071.132681,-11103.089130,-919.314598
356.708738,-4219.173869,-8956.491898,-2068.457845
356.709060,-4737.318029,-7698.141797,-3217.601092
356.709381,-4589.276840,-7994.224174,-3294.210641
356.709703,-3627.009116,-8808.450710,-2757.943793
356.710025,-3034.844362,-9918.759623,-2068.457845
356.710347,-2442.679609,-10510.924376,-306.438199
356.710669,-1702.473667,-9622.677246,536.266849
356.710991,-370.102971,-8808.450710,-459.657299
356.711313,1036.288319,-8660.409521,-1225.752797
356.711635,1184.329507,-8660.409521,-1991.848295
356.711957,1036.288319,-8216.285956,-1991.848295
356.712278,592.164754,-8438.347739,-995.924147
356.712600,-222.061783,-10066.800811,-153.219100
356.712922,-2368.659014,-11695.253884,-383.047749
356.713244,-5403.503377,-11399.171507,-383.047749
356.713566,-7402.059420,-10807.006753,-919.314598
356.713888,-8364.327145,-10066.800811,-2221.676944
356.714210,-8290.306550,-8586.388927,-2451.505594
356.714532,-7772.162391,-6069.688724,-2068.457845
356.714854,-7105.977043,-5551.544565,-3064.381992
356.715176,-5255.462188,-6439.791695,-2528.115143
356.715498,-3627.009116,-9104.533087,-2987.772442
356.715820,-2516.700203,-11325.150913,-1991.848295
356.716142,-2294.638420,-11917.315666,-1149.143247
356.716463,-1110.308913,-10732.986159,-2145.067394
356.716785,74.020594,-10881.027347,-2145.067394
356.717107,222.061783,-9548.656652,-2298.286494
356.717429,-1184.329507,-7105.977043,-2451.505594
356.717751,-2738.761985,-5625.565159,-3064.381992
356.718073,-3997.112087,-7105.977043,-3447.429741
356.718395,-5181.441594,-9622.677246,-3140.991542
356.718717,-7328.038826,-11547.212695,-2068.457845
356.719039,-7994.224174,-12805.562797,-229.828649
356.719361,-7476.080014,-12953.603985,229.828649
356.719683,-7031.956449,-11473.192101,0.000000
356.720005,-7105.977043,-9474.636058,153.219100
356.720327,-6809.894666,-6661.853478,-306.438199
356.720649,-4663.297435,-4885.359217,-2374.896044
356.720970,-1480.411884,-4737.318029,-3524.039291
356.721292,666.185348,-5773.606348,-2757.943793
356.721614,1480.411884,-7624.121203,-2374.896044
356.721936,1036.288319,-10140.821405,-1915.238745
356.722258,148.041188,-12805.562797,-1685.410096
356.722580,-1258.350101,-13693.809927,-1991.848295
356.722902,-3034.844362,-12805.562797,-2757.943793
356.723224,-4219.173869,-11695.253884,-3447.429741
356.723546,-4663.297435,-11325.150913,-2604.724693
356.723868,-4885.359217,-10881.027347,-1532.190996
356.724190,-5847.626942,-9770.718434,0.000000
356.724512,-6291.750507,-7698.141797,383.047749
356.724834,-5773.606348,-6735.874072,-842.705048
356.725156,-5107.421000,-6883.915261,-2604.724693
356.725477,-4145.153275,-7994.224174,-2757.943793
356.725799,-4071.132681,-8364.327145,-1532.190996
356.726121,-3701.029710,-8142.265362,0.000000
356.726443,-2812.782580,-7624.121203,-306.438199
356.726765,-2146.597232,-7476.080014,-2068.457845
356.727087,-1480.411884,-9326.594869,-3983.696590
356.727409,-1998.556043,-11695.253884,-3677.258390
356.727731,-2590.720797,-13767.830521,-2145.067394
356.728053,-2368.659014,-15396.283594,459.657299
356.728375,-1480.411884,-14211.954086,2528.115143
356.728697,-444.123565,-10881.027347,1915.238745
356.729019,1110.308913,-8882.471304,766.095498
356.729341,2220.617826,-9104.533087,0.000000
356.729663,1776.494261,-9252.574275,2068.457845
356.729984,222.061783,-7476.080014,4749.792088
356.730306,-1850.514855,-6069.688724,6358.592633
356.730628,-3849.070898,-4885.359217,5822.325785
356.730950,-6217.729913,-3404.947333,2221.676944
356.731272,-7846.182985,-2220.617826,-2451.505594
356.731594,-8068.244768,-2664.741391,-5362.668486
356.731916,-7846.182985,-4515.256246,-4673.182538
356.732238,-7031.956449,-7402.059420,-3447.429741
356.732560,-6143.709319,-12287.418637,-3830.477490
356.732882,-5551.544565,-16062.468941,-4213.525239
356.733204,-5403.503377,-17764.942608,-4366.744339
356.733526,-4663.297435,-18431.127956,-3907.087040
356.733848,-3182.885551,-15914.427753,-2757.943793
356.734170,-1702.473667,-12435.459826,-1455.581446
356.734491,-592.164754,-9474.636058,995.924147
356.734813,-592.164754,-6809.894666,3907.087040
356.735135,-814.226536,-4959.379811,4136.915689
356.735457,-962.267725,-3552.988522,2374.896044
356.735779,-370.102971,-4663.297435,1762.019645
356.736101,-1702.473667,-7328.038826,2451.505594
356.736423,-2368.659014,-8956.491898,3983.696590
356.736745,-1924.535449,-10362.883188,2298.286494
356.737067,1110.308913,-11251.130318,-612.876398
356.737389,2886.803174,-8660.409521,-2604.724693
356.737711,2220.617826,-8586.388927,-2987.772442
356.738033,296.082377,-12509.480420,-2374.896044
356.738355,-666.185348,-16876.695478,-2298.286494
356.738677,-888.247130,-16580.613101,-3370.820191
356.738998,148.041188,-16580.613101,-3753.867940
356.739320,1184.329507,-16284.530724,-1072.533697
356.739642,1110.308913,-12805.562797,1149.143247
356.739964,-962.267725,-8808.450710,2528.115143
356.740286,-1406.391290,-5255.462188,4903.011187
356.740608,-296.082377,-2886.803174,4136.915689
356.740930,518.144159,-814.226536,689.485948
356.741252,666.185348,0.000000,0.000000
356.741574,1406.391290,-2516.700203,2451.505594
356.741896,2072.576638,-6069.688724,4136.915689
356.742218,1332.370696,-8142.265362,3753.867940
356.742540,1480.411884,-10214.842000,459.657299
356.742862,2072.576638,-12731.542202,-4596.572988
356.743184,1702.473667,-12879.583391,-5362.668486
356.743505,-148.041188,-12731.542202,-2987.772442
356.743827,-1702.473667,-14952.160028,-459.657299
356.744149,-2516.700203,-16506.592507,919.314598
356.744471,-3182.885551,-15692.365970,689.485948
356.744793,-3997.112087,-13619.789333,-229.828649
356.745115,-3627.009116,-12509.480420,2528.115143
356.745437,-3552.988522,-10658.965565,4903.011187
356.745759,-4293.194464,-8068.244768,7354.516781
356.746081,-4145.153275,-5403.503377,8044.002729
356.746403,-2368.659014,-5403.503377,6358.592633
356.746725,-2368.659014,-6439.791695,4060.306139
356.747047,-2664.741391,-6809.894666,4673.182538
356.747369,0.000000,-6735.874072,4366.744339
356.747691,3330.926739,-6439.791695,2298.286494
356.748012,5477.523971,-4589.276840,2451.505594
356.748334,5255.462188,-3034.844362,1685.410096
356.748656,3997.112087,-7031.956449,-1915.238745
356.748978,1924.535449,-12509.480420,-4826.401637
356.749300,-1258.350101,-15396.283594,-4290.134789
356.749622,-6217.729913,-16654.633695,-2145.067394
356.749944,-10140.821405,-18431.127956,1838.629195
356.750266,-11695.253884,-17320.819043,3370.820191
356.750588,-11547.212695,-12731.542202,2451.505594
356.750910,-9474.636058,-9400.615463,1685.410096
356.751232,-6957.935855,-9252.574275,3677.258390
356.751554,-5847.626942,-9548.656652,6588.421283
356.751876,-4811.338623,-5847.626942,10572.117872
356.752198,-2072.576638,-962.267725,12947.013916
356.752519,2442.679609,1850.514855,9116.536426
356.752841,6957.935855,-1332.370696,2068.457845
356.753163,10140.821405,-3108.864956,229.828649
356.753485,8734.430116,-4219.173869,1608.800546
356.753807,6365.771101,-9030.512492,4519.963438
356.754129,4663.297435,-17987.004391,6281.983084
356.754451,1480.411884,-21243.910535,1455.581446
356.754773,-2590.720797,-18579.169144,-4060.306139
356.755095,-4219.173869,-17024.736666,-4290.134789
356.755417,-3404.947333,-15914.427753,-995.924147
356.755739,-3552.988522,-9400.615463,153.219100
356.756061,-3552.988522,-2886.803174,766.095498
356.756383,-2368.659014,-3923.091493,2681.334243
356.756705,-1480.411884,-7698.141797,3600.648841
356.757026,-3701.029710,-7846.182985,1915.238745
356.757348,-4663.297435,-7846.182985,2451.505594
356.757670,-1258.350101,-9474.636058,5286.058936
356.757992,2590.720797,-10881.027347,6358.592633
356.758314,3330.926739,-8882.471304,7201.297681
356.758636,5107.421000,-2738.761985,5362.668486
356.758958,10066.800811,-2812.782580,-2221.676944
356.759280,12509.480420,-6217.729913,-7737.564530
356.759602,7550.100608,-7994.224174,-4290.134789
356.759924,518.144159,-10362.883188,536.266849
356.760246,-4293.194464,-17394.839637,-153.219100
356.760568,-6291.750507,-22650.301825,-2987.772442
356.760890,-8216.285956,-20429.683999,-6741.640382
356.761212,-7254.018232,-15174.221811,-8120.612279
356.761533,-3627.009116,-12361.439231,-4136.915689
356.761855,-1110.308913,-9326.594869,76.609550
356.762177,-370.102971,-6587.832884,3370.820191
356.762499,2072.576638,-4219.173869,3983.696590
356.762821,2886.803174,-5625.565159,0.000000
356.763143,1628.453072,-9104.533087,0.000000
356.763465,1480.411884,-8068.244768,3600.648841
356.763787,2886.803174,-6365.771101,1532.190996
356.764109,5403.503377,-8364.327145,-612.876398
356.764431,7179.997637,-10066.800811,1838.629195
356.764753,3182.885551,-9770.718434,2221.676944
356.765075,-4219.173869,-9548.656652,919.314598
356.765397,-8512.368333,-9326.594869,1378.971896
356.765719,-9918.759623,-8438.347739,-4366.744339
356.766040,-10066.800811,-8882.471304,-11184.994271
356.766362,-10214.842000,-11399.171507,-8273.831378
356.766684,-9474.636058,-13767.830521,-1532.190996
356.767006,-7179.997637,-13619.789333,0.000000
356.767328,-3108.864956,-14359.995275,-536.266849
356.767650,-1036.288319,-14804.118840,1532.190996
356.767972,-1036.288319,-11547.212695,2757.943793
356.768294,444.123565,-5403.503377,2604.724693
356.768616,4441.235652,-370.102971,919.314598
356.768938,8734.430116,0.000000,1149.143247
356.769260,10436.903782,-1480.411884,4136.915689
356.769582,7254.018232,-4219.173869,7354.516781
356.769904,3182.885551,-7698.141797,7890.783629
356.770226,222.061783,-11325.150913,5209.449386
356.770547,-2738.761985,-13323.706956,919.314598
356.770869,-4811.338623,-13397.727550,-1762.019645
356.771191,-5329.482782,-10658.965565,-2298.286494
356.771513,-4293.194464,-8512.368333,-1378.971896
356.771835,-3330.926739,-8586.388927,306.438199
356.772157,-3256.906145,-8586.388927,1225.752797
356.772479,-3552.988522,-8882.471304,-995.924147
356.772801,-3627.009116,-11103.089130,-3294.210641
356.773123,-2960.823768,-13619.789333,-3064.381992
356.773445,-1480.411884,-12435.459826,-153.219100
356.773767,0.000000,-10288.862594,1991.848295
356.774089,1628.453072,-8882.471304,3064.381992
356.774411,1924.535449,-7550.100608,2451.505594
356.774733,1998.556043,-7402.059420,1225.752797
356.775054,2368.659014,-8216.285956,76.609550
356.775376,4219.173869,-9178.553681,-153.219100
356.775698,5921.647536,-9326.594869,76.609550
356.776020,6587.832884,-9992.780217,1762.019645
356.776342,5477.523971,-11103.089130,3140.991542
356.776664,3182.885551,-11177.109724,1072.533697
356.776986,518.144159,-10955.047942,-2298.286494
356.777308,-1480.411884,-11473.192101,-4213.525239
356.777630,-3552.988522,-12213.398043,-4596.572988
356.777952,-4959.379811,-12213.398043,-2681.334243
356.778274,-5181.441594,-11177.109724,-536.266849
356.778596,-3182.885551,-10066.800811,0.000000
356.778918,-666.185348,-9770.718434,-1302.362347
356.779240,370.102971,-9030.512492,-1991.848295
356.779561,-666.185348,-9622.677246,-1685.410096
356.779883,-1702.473667,-9992.780217,536.266849
356.780205,-2220.617826,-10214.842000,1838.629195
356.780527,-1702.473667,-8882.471304,1685.410096
356.780849,-370.102971,-6809.894666,536.266849
356.781171,0.000000,-4367.215058,-2068.457845
356.781493,370.102971,-4811.338623,-3217.601092
356.781815,0.000000,-7179.997637,-1685.410096
356.782137,-1406.391290,-9696.697840,-306.438199
356.782459,-2812.782580,-10881.027347,536.266849
356.782781,-2738.761985,-11103.089130,306.438199
356.783103,-1776.494261,-9844.739029,-2374.896044
356.783425,-444.123565,-7402.059420,-4979.620737
356.783747,518.144159,-6143.709319,-5056.230287
356.784068,1110.308913,-6957.935855,-3524.039291
356.784390,962.267725,-9326.594869,-1532.190996
356.784712,222.061783,-10584.944971,-1072.533697
356.785034,-1480.411884,-10510.924376,-1608.800546
356.785356,-2220.617826,-9474.636058,-3064.381992
356.785678,-1924.535449,-8956.491898,-4596.572988
356.786000,-814.226536,-8734.430116,-4136.915689
356.786322,-148.041188,-8660.409521,-1685.410096
356.786644,444.123565,-9474.636058,-306.438199
356.786966,0.000000,-10658.965565,-306.438199
356.787288,-814.226536,-11547.212695,-689.485948
356.787610,-1554.432478,-10807.006753,-2145.067394
356.787932,-1406.391290,-8586.388927,-3753.867940
356.788254,-740.205942,-7550.100608,-4366.744339
356.788575,296.082377,-7698.141797,-4366.744339
356.788897,444.123565,-8364.327145,-3600.648841
356.789219,-296.082377,-10658.965565,-3064.381992
356.789541,-592.164754,-12657.521608,-2451.505594
356.789863,-518.144159,-13397.727550,-3217.601092
356.790185,296.082377,-12583.501014,-3217.601092
356.790507,1628.453072,-9992.780217,-3677.258390
356.790829,2590.720797,-8364.327145,-3370.820191
356.791151,2886.803174,-8290.306550,-2834.553343
356.791473,1258.350101,-8586.388927,-1762.019645
356.791795,-740.205942,-9474.636058,-1532.190996
356.792117,-2590.720797,-9844.739029,-1991.848295
356.792439,-3478.967927,-10214.842000,-2374.896044
356.792761,-3182.885551,-10436.903782,-2451.505594
356.793082,-2738.761985,-9992.780217,-1225.752797
356.793404,-1702.473667,-10214.842000,153.219100
356.793726,-962.267725,-10214.842000,1149.143247
356.794048,-814.226536,-9622.677246,1149.143247
356.794370,-444.123565,-8290.306550,459.657299
356.794692,0.000000,-7105.977043,-842.705048
356.795014,1406.391290,-6735.874072,-1532.190996
356.795336,2368.659014,-6587.832884,-536.266849
356.795658,2960.823768,-7476.080014,0.000000
356.795980,3034.844362,-8808.450710,0.000000
356.796302,2368.659014,-11103.089130,536.266849
356.796624,1702.473667,-11695.253884,1608.800546
356.796946,592.164754,-10362.883188,919.314598
356.797268,592.164754,-7994.224174,536.266849
356.797589,1258.350101,-5773.606348,459.657299
356.797911,1480.411884,-4367.215058,-766.095498
356.798233,0.000000,-4737.318029,-842.705048
356.798555,-1258.350101,-7254.018232,-229.828649
356.798877,-2960.823768,-8956.491898,-306.438199
356.799199,-4219.173869,-10584.944971,-1838.629195
356.799521,-4515.256246,-11917.315666,-2145.067394
356.799843,-5255.462188,-12805.562797,-1302.362347
356.800165,-4885.359217,-12213.398043,-536.266849
356.800487,-3627.009116,-11399.171507,-459.657299
356.800809,-1850.514855,-10510.924376,-689.485948
356.801131,0.000000,-9696.697840,-1225.752797
356.801453,592.164754,-9326.594869,-995.924147
356.801775,814.226536,-9474.636058,-536.266849
356.802096,1776.494261,-9548.656652,0.000000
356.802418,1702.473667,-9474.636058,229.828649
356.802740,2072.576638,-9104.533087,-153.219100
356.803062,2294.638420,-9696.697840,-2145.067394
356.803384,1628.453072,-10955.047942,-2451.505594
356.803706,962.267725,-11029.068536,-1302.362347
356.804028,0.000000,-11325.150913,0.000000
356.804350,296.082377,-10140.821405,0.000000
356.804672,740.205942,-8882.471304,-1072.533697
356.804994,222.061783,-7920.203579,-2451.505594
356.805316,-814.226536,-8142.265362,-3753.867940
356.805638,-1850.514855,-8512.368333,-2834.553343
356.805960,-2146.597232,-9474.636058,-2604.724693
356.806282,-2442.679609,-9992.780217,-2987.772442
356.806603,-2960.823768,-10584.944971,-2451.505594
356.806925,-2738.761985,-11177.109724,-1072.533697
356.807247,-2664.741391,-11029.068536,-842.705048
356.807569,-1332.370696,-9326.594869,-919.314598
356.807891,-370.102971,-7698.141797,-995.924147
356.808213,666.185348,-7624.121203,-536.266849
356.808535,1332.370696,-7846.182985,306.438199
356.808857,962.267725,-7846.182985,-383.047749
356.809179,1332.370696,-8068.244768,76.609550
356.809501,1850.514855,-7920.203579,-153.219100
356.809823,2146.597232,-7698.141797,-1149.143247
356.810145,2368.659014,-6735.874072,-2145.067394
356.810467,2072.576638,-6291.750507,-2451.505594
356.810789,1184.329507,-8068.244768,-2298.286494
356.811110,222.061783,-10288.862594,-1838.629195
356.811432,-1258.350101,-10807.006753,-1225.752797
356.811754,-1924.535449,-9548.656652,-1378.971896
356.812076,-1480.411884,-8364.327145,-2834.553343
356.812398,-592.164754,-7550.100608,-4366.744339
356.812720,-592.164754,-7698.141797,-5439.278036
356.813042,-1776.494261,-7920.203579,-4443.353888
356.813364,-2664.741391,-9252.574275,-3140.991542
356.813686,-2960.823768,-10288.862594,-3294.210641
356.814007,-2886.803174,-10807.006753,-3753.867940
356.814329,-2516.700203,-11917.315666,-3753.867940
356.814651,-1924.535449,-11769.274478,-2374.896044
356.814973,-444.123565,-10510.924376,-1378.971896
356.815295,1554.432478,-9992.780217,-1225.752797
356.815617,3182.885551,-9992.780217,-1532.190996
356.815939,3108.864956,-9918.759623,-1225.752797
356.816260,3034.844362,-10140.821405,-1532.190996
356.816582,2738.761985,-10214.842000,-1302.362347
356.816904,2220.617826,-9474.636058,-1685.410096
356.817226,1480.411884,-8660.409521,-2681.334243
356.817548,296.082377,-8882.471304,-1915.238745
356.817870,-1776.494261,-10584.944971,-2221.676944
356.818192,-2960.823768,-11991.336260,-2068.457845
356.818513,-3627.009116,-11843.295072,-1455.581446
356.818835,-3108.864956,-10436.903782,-1455.581446
356.819157,-1850.514855,-8734.430116,-2221.676944
356.819479,-888.247130,-7476.080014,-3600.648841
356.819801,-1332.370696,-7994.224174,-3370.820191
356.820123,-2368.659014,-9030.512492,-2604.724693
356.820445,-3108.864956,-9844.739029,-2604.724693
356.820766,-3330.926739,-11029.068536,-1915.238745
356.821088,-3330.926739,-11103.089130,-1072.533697
356.821410,-3034.844362,-10066.800811,-306.438199
356.821732,-1480.411884,-9252.574275,153.219100
356.822054,666.185348,-8808.450710,766.095498
356.822376,2072.576638,-8586.388927,995.924147
356.822698,2664.741391,-7772.162391,1685.410096
356.823019,2738.761985,-7550.100608,2911.162892
356.823341,3552.988522,-6957.935855,2987.772442
356.823663,3923.091493,-6439.791695,1762.019645
356.823985,4145.153275,-6661.853478,1149.143247
356.824307,3701.029710,-7254.018232,612.876398
356.824629,3034.844362,-8734.430116,689.485948
356.824951,1850.514855,-10807.006753,459.657299
356.825272,1554.432478,-10955.047942,1378.971896
356.825594,1628.453072,-8882.471304,1149.143247
356.825916,1776.494261,-7105.977043,0.000000
356.826238,1702.473667,-6587.832884,-919.314598
356.826560,-370.102971,-6143.709319,-1762.019645
356.826882,-2368.659014,-7254.018232,-2451.505594
356.827204,-3701.029710,-9474.636058,-1608.800546
356.827525,-4589.276840,-10881.027347,-1915.238745
356.827847,-5033.400406,-10584.944971,-2757.943793
356.828169,-5329.482782,-9474.636058,-2987.772442
356.828491,-5107.421000,-10066.800811,-2451.505594
356.828813,-4441.235652,-10584.944971,-2374.896044
356.829135,-3256.906145,-10955.047942,-2221.676944
356.829457,-2368.659014,-11399.171507,-919.314598
356.829778,-1036.288319,-11547.212695,-459.657299
356.830100,0.000000,-11029.068536,-536.266849
356.830422,1332.370696,-9474.636058,-1532.190996
356.830744,3404.947333,-8734.430116,-2145.067394
356.831066,5181.441594,-8438.347739,-2604.724693
356.831388,5995.668130,-10955.047942,-3753.867940
356.831710,5107.421000,-12731.542202,-2834.553343
356.832031,3849.070898,-13619.789333,-1455.581446
356.832353,2368.659014,-13323.706956,-919.314598
356.832675,1702.473667,-12509.480420,-995.924147
356.832997,1776.494261,-9696.697840,-1685.410096
356.833319,1332.370696,-6513.812290,-2987.772442
356.833641,74.020594,-5699.585753,-4673.182538
356.833963,-1184.329507,-7698.141797,-3064.381992
356.834284,-2812.782580,-9252.574275,-2068.457845
356.834606,-5181.441594,-9474.636058,-2604.724693
356.834928,-5995.668130,-11029.068536,-2987.772442
356.835250,-5995.668130,-11843.295072,-3064.381992
356.835572,-6291.750507,-11177.109724,-3830.477490
356.835894,-5625.565159,-9326.594869,-2604.724693
356.836215,-4293.194464,-7920.203579,-1149.143247
356.836537,-2516.700203,-8438.347739,-536.266849
356.836859,-2368.659014,-9030.512492,-536.266849
356.837181,-2146.597232,-9548.656652,-459.657299
356.837503,-1406.391290,-9104.533087,0.000000
356.837825,222.061783,-7624.121203,536.266849
356.838147,1998.556043,-6439.791695,0.000000
356.838468,3404.947333,-5625.565159,-1685.410096
356.838790,3775.050304,-5403.503377,-1915.238745
356.839112,3701.029710,-6883.915261,-995.924147
356.839434,2812.782580,-8364.327145,0.000000
356.839756,2220.617826,-9030.512492,153.219100
356.840078,2146.597232,-9030.512492,-995.924147
356.840400,2146.597232,-8512.368333,-1302.362347
356.840721,2738.761985,-7772.162391,-1838.629195
356.841043,2368.659014,-7772.162391,-2757.943793
356.841365,1184.329507,-8586.388927,-2451.505594
356.841687,-296.082377,-9030.512492,-1455.581446
356.842009,-1110.308913,-10288.862594,-2068.457845
356.842331,-1406.391290,-11769.274478,-2987.772442
356.842653,-1702.473667,-12065.356855,-2834.553343
356.842974,-1776.494261,-11547.212695,-1915.238745
356.843296,-1628.453072,-11177.109724,-1149.143247
356.843618,-444.123565,-10658.965565,-612.876398
356.843940,-592.164754,-10807.006753,-842.705048
356.844262,-370.102971,-10436.903782,-766.095498
356.844584,-148.041188,-9918.759623,-1072.533697
356.844906,740.205942,-9622.677246,-1302.362347
356.845227,1332.370696,-9326.594869,-1608.800546
356.845549,1184.329507,-9326.594869,-1762.019645
356.845871,518.144159,-10807.006753,-2528.115143
356.846193,222.061783,-12361.439231,-3753.867940
356.846515,-222.061783,-13693.809927,-3524.039291
356.846837,-962.267725,-13471.748144,-1225.752797
356.847159,-1776.494261,-11547.212695,612.876398
356.847480,-1480.411884,-9104.533087,0.000000
356.847802,-962.267725,-7105.977043,-1762.019645
356.848124,-1258.350101,-6439.791695,-2911.162892
356.848446,-2516.700203,-6883.915261,-2145.067394
356.848768,-4071.132681,-8216.285956,-842.705048
356.849090,-4663.297435,-8734.430116,-153.219100
356.849412,-3478.967927,-9030.512492,-766.095498
356.849733,-2516.700203,-9178.553681,-1072.533697
356.850055,-1036.288319,-9104.533087,-919.314598
356.850377,-370.102971,-8882.471304,383.047749
356.850699,0.000000,-8512.368333,1149.143247
356.851021,592.164754,-9252.574275,1072.533697
356.851343,1406.391290,-8734.430116,1225.752797
356.851665,2442.679609,-7624.121203,-383.047749
356.851986,3849.070898,-7476.080014,-1685.410096
356.852308,4367.215058,-7846.182985,-1072.533697
356.852630,3997.112087,-8660.409521,76.609550
356.852952,2146.597232,-8586.388927,612.876398
356.853274,0.000000,-9030.512492,0.000000
356.853596,-1258.350101,-9992.780217,-1378.971896
356.853918,-2886.803174,-9844.739029,-2221.676944
356.854239,-3849.070898,-7846.182985,-1532.190996
356.854561,-3478.967927,-6217.729913,-1225.752797
356.854883,-1628.453072,-5773.606348,-1685.410096
356.855205,-1184.329507,-5921.647536,-2911.162892
356.855527,-2220.617826,-7846.182985,-3677.258390
356.855849,-3478.967927,-10362.883188,-3064.381992
356.856171,-4737.318029,-12953.603985,-3830.477490
356.856492,-5329.482782,-14434.015869,-3830.477490
356.856814,-5181.441594,-13323.706956,-3447.429741
356.857136,-3923.091493,-11325.150913,-3294.210641
356.857458,-1332.370696,-10658.965565,-3064.381992
356.857780,370.102971,-10955.047942,-2451.505594
356.858102,1110.308913,-10807.006753,-842.705048
356.858423,1998.556043,-10658.965565,536.266849
356.858745,2442.679609,-10807.006753,1762.019645
356.859067,3404.947333,-9400.615463,1455.581446
356.859389,4219.173869,-7254.018232,383.047749
356.859711,4811.338623,-6291.750507,-1225.752797
356.860033,5329.482782,-7031.956449,-1991.848295
356.860355,4663.297435,-8956.491898,-1762.019645
356.860676,3182.885551,-11029.068536,-612.876398
356.860998,2220.617826,-11695.253884,306.438199
356.861320,888.247130,-11103.089130,76.609550
356.861642,888.247130,-9696.697840,-1915.238745
356.861964,148.041188,-7031.956449,-3447.429741
356.862286,-962.267725,-5995.668130,-4826.401637
356.862608,-2590.720797,-7772.162391,-4519.963438
356.862929,-5033.400406,-9696.697840,-2068.457845
356.863251,-6735.874072,-10955.047942,-1455.581446
356.863573,-6957.935855,-11621.233289,-2221.676944
356.863895,-5625.565159,-10955.047942,-2834.553343
356.864217,-4589.276840,-9474.636058,-1915.238745
356.864539,-3627.009116,-7328.038826,-536.266849
356.864861,-2146.597232,-5773.606348,536.266849
356.865182,-444.123565,-6217.729913,842.705048
356.865504,740.205942,-7920.203579,536.266849
356.865826,296.082377,-9104.533087,459.657299
356.866148,666.185348,-7920.203579,612.876398
356.866470,2664.741391,-8956.491898,-229.828649
356.866792,5181.441594,-10955.047942,-1608.800546
356.867114,4737.318029,-10881.027347,-1072.533697
356.867435,3182.885551,-8882.471304,-306.438199
356.867757,1110.308913,-9030.512492,-1072.533697
356.868079,296.082377,-10955.047942,-2604.724693
356.868401,-1480.411884,-10362.883188,-3600.648841
356.868723,-2886.803174,-8512.368333,-4290.134789
356.869045,-3034.844362,-8438.347739,-3217.601092
356.869367,-2294.638420,-9030.512492,-2451.505594
356.869688,-2442.679609,-8438.347739,-3140.991542
356.870010,-3923.091493,-8956.491898,-4519.963438
356.870332,-5107.421000,-10584.944971,-3983.696590
356.870654,-5995.668130,-12213.398043,-3600.648841
356.870976,-6069.688724,-11843.295072,-3753.867940
356.871298,-4959.379811,-10732.986159,-3753.867940
356.871620,-2886.803174,-9178.553681,-2757.943793
356.871941,-296.082377,-9104.533087,-1762.019645
356.872263,888.247130,-9474.636058,-1838.629195
356.872585,1850.514855,-10732.986159,-1378.971896
356.872907,2590.720797,-11695.253884,0.000000
356.873229,2294.638420,-12065.356855,536.266849
356.873551,3182.885551,-11843.295072,306.438199
356.873873,3404.947333,-9474.636058,459.657299
356.874194,3478.967927,-6883.915261,-842.705048
356.874516,3478.967927,-5329.482782,-1608.800546
356.874838,2812.782580,-5699.585753,-1378.971896
356.875160,1258.350101,-7476.080014,-689.485948
356.875482,148.041188,-9104.533087,-306.438199
356.875804,-888.247130,-10362.883188,-153.219100
356.876126,-1036.288319,-10288.862594,-306.438199
356.876447,-518.144159,-8364.327145,-1608.800546
356.876769,-370.102971,-6809.894666,-2987.772442
356.877091,-1036.288319,-7031.956449,-3447.429741
356.877413,-2146.597232,-8068.244768,-2528.115143
356.877735,-3849.070898,-9030.512492,-2374.896044
356.878057,-4663.297435,-9326.594869,-2068.457845
356.878379,-4737.318029,-9696.697840,-1455.581446
356.878700,-3849.070898,-9844.739029,-1149.143247
356.879022,-3330.926739,-9400.615463,-229.828649
356.879344,-1628.453072,-8808.450710,-153.219100
356.879666,370.102971,-9400.615463,306.438199
356.879988,1776.494261,-10066.800811,1378.971896
356.880310,1924.535449,-9992.780217,2221.676944
356.880632,2368.659014,-8956.491898,1762.019645
356.880953,2738.761985,-7846.182985,1072.533697
356.881275,3997.112087,-6439.791695,229.828649
356.881597,4959.379811,-5921.647536,-2145.067394
356.881919,5477.523971,-8216.285956,-3983.696590
356.882241,4885.359217,-12065.356855,-2528.115143
356.882563,3108.864956,-13693.809927,153.219100
356.882884,666.185348,-14434.015869,1225.752797
356.883206,-1036.288319,-13767.830521,229.828649
356.883528,-2220.617826,-10214.842000,-2834.553343
356.883850,-2886.803174,-7698.141797,-6281.983084
356.884172,-3849.070898,-7624.121203,-5975.544884
356.884494,-4737.318029,-7920.203579,-2451.505594
356.884816,-5477.523971,-7328.038826,-1915.238745
356.885137,-5773.606348,-8586.388927,-2604.724693
356.885459,-5921.647536,-12139.377449,-3524.039291
356.885781,-6365.771101,-14211.954086,-2987.772442
356.886103,-6735.874072,-13545.768739,-1762.019645
356.886425,-5329.482782,-10955.047942,-842.705048
356.886747,-2368.659014,-9474.636058,-689.485948
356.887069,444.123565,-8142.265362,-536.266849
356.887390,1776.494261,-7624.121203,-842.705048
356.887712,2960.823768,-7328.038826,-919.314598
356.888034,4515.256246,-9030.512492,-689.485948
356.888356,4737.318029,-9918.759623,0.000000
356.888678,3552.988522,-8660.409521,1149.143247
356.889000,2220.617826,-7550.100608,229.828649
356.889322,1332.370696,-8068.244768,-842.705048
356.889643,518.144159,-9030.512492,-1378.971896
356.889965,-888.247130,-8808.450710,-1455.581446
356.890287,-2146.597232,-8142.265362,-383.047749
356.890609,-1850.514855,-7624.121203,-229.828649
356.890931,-1184.329507,-6217.729913,-689.485948
356.891253,-518.144159,-5107.421000,-2528.115143
356.891575,-370.102971,-5699.585753,-3600.648841
356.891896,-1554.432478,-7772.162391,-4213.525239
356.892218,-3330.926739,-10288.862594,-3830.477490
356.892540,-5477.523971,-10881.027347,-1991.848295
356.892862,-5921.647536,-12509.480420,-1225.752797
356.893184,-4589.276840,-12287.418637,-1378.971896
356.893506,-2368.659014,-10510.924376,-2528.115143
356.893828,296.082377,-9326.594869,-1685.410096
356.894149,2590.720797,-7920.203579,-919.314598
356.894471,3330.926739,-7920.203579,459.657299
356.894793,3256.906145,-8734.430116,1225.752797
356.895115,2738.761985,-9400.615463,612.876398
356.895437,1850.514855,-9030.512492,-842.705048
356.895759,1776.494261,-8956.491898,-2451.505594
356.896081,2072.576638,-8956.491898,-2221.676944
356.896402,2886.803174,-10140.821405,-2757.943793
356.896724,3923.091493,-11547.212695,-2298.286494
356.897046,4737.318029,-12139.377449,-1302.362347
356.897368,4367.215058,-11325.150913,-995.924147
356.897690,3034.844362,-10066.800811,-1532.190996
356.898012,814.226536,-9400.615463,-3294.210641
356.898334,-1110.308913,-9326.594869,-4673.182538
356.898655,-2516.700203,-9770.718434,-5132.839837
356.898977,-3923.091493,-10140.821405,-4136.915689
356.899299,-4441.235652,-11251.130318,-3524.039291
356.899621,-4293.194464,-10955.047942,-3064.381992
356.899943,-4145.153275,-11621.233289,-2604.724693
356.900265,-3627.009116,-11399.171507,-919.314598
356.900587,-3256.906145,-9992.780217,0.000000
356.900908,-2738.761985,-7920.203579,0.000000
356.901230,-666.185348,-7550.100608,-459.657299
356.901552,148.041188,-7254.018232,-229.828649
356.901874,444.123565,-6957.935855,0.000000
356.902196,1258.350101,-7698.141797,0.000000
356.902518,2664.741391,-9622.677246,-306.438199
356.902840,4219.173869,-11399.171507,-383.047749
356.903161,3701.029710,-11177.109724,-536.266849
356.903483,3108.864956,-10288.862594,306.438199
356.903805,2368.659014,-8586.388927,153.219100
356.904127,1702.473667,-7994.224174,-689.485948
356.904449,518.144159,-6143.709319,-995.924147
356.904771,-1332.370696,-5329.482782,-1991.848295
356.905092,-2960.823768,-5773.606348,-2451.505594
356.905414,-3997.112087,-7698.141797,-1991.848295
356.905736,-5033.400406,-8882.471304,-1455.581446
356.906058,-5847.626942,-8956.491898,-1685.410096
356.906380,-5847.626942,-9844.739029,-3677.258390
356.906702,-6217.729913,-11325.150913,-3907.087040
356.907024,-6809.894666,-11991.336260,-3370.820191
356.907345,-6809.894666,-11547.212695,-2068.457845
356.907667,-4885.359217,-10362.883188,-995.924147
356.907989,-1850.514855,-9252.574275,-1532.190996
356.908311,666.185348,-9400.615463,-1915.238745
356.908633,2072.576638,-9548.656652,-995.924147
356.908955,2960.823768,-10066.800811,0.000000
356.909277,3775.050304,-11399.171507,612.876398
356.909598,4737.318029,-11843.295072,612.876398
356.909920,4737.318029,-10214.842000,229.828649
356.910242,3923.091493,-8142.265362,-766.095498
356.910564,3478.967927,-7994.224174,-1302.362347
356.910886,3330.926739,-8068.244768,-1532.190996
356.911208,2812.782580,-8660.409521,-1838.629195
356.911530,1998.556043,-9474.636058,-766.095498
356.911851,962.267725,-9992.780217,-842.705048
356.912173,0.000000,-9030.512492,-1532.190996
356.912495,0.000000,-8956.491898,-3217.601092
356.912817,0.000000,-9474.636058,-4213.525239
356.913139,-888.247130,-9918.759623,-4826.401637
356.913460,-3034.844362,-10584.944971,-3753.867940
356.913782,-4959.379811,-11695.253884,-1991.848295
356.914104,-6217.729913,-11991.336260,-536.266849
356.914426,-5921.647536,-11473.192101,-1225.752797
356.914747,-4219.173869,-10658.965565,-1915.238745
356.915069,-1406.391290,-8660.409521,-1225.752797
356.915391,888.247130,-7402.059420,0.000000
356.915713,2442.679609,-6439.791695,1685.410096
356.916034,3330.926739,-6661.853478,2298.286494
356.916356,3478.967927,-7031.956449,1762.019645
356.916678,2590.720797,-7476.080014,1072.533697
356.917000,962.267725,-8216.285956,919.314598
356.917321,888.247130,-7846.182985,-383.047749
356.917643,1998.556043,-8068.244768,-3064.381992
356.917965,3701.029710,-9696.697840,-3064.381992
356.918287,4737.318029,-10140.821405,-612.876398
356.918608,3552.988522,-9252.574275,1455.581446
356.918930,1332.370696,-9474.636058,1072.533697
356.919252,222.061783,-9252.574275,-1532.190996
356.919574,-1628.453072,-7846.182985,-4826.401637
356.919895,-2886.803174,-7105.977043,-5362.668486
356.920217,-3701.029710,-8142.265362,-3907.087040
356.920539,-3997.112087,-8068.244768,-2604.724693
356.920861,-3627.009116,-8364.327145,-3140.991542
356.921182,-3552.988522,-10881.027347,-2911.162892
356.921504,-3849.070898,-13989.892304,-2528.115143
356.921826,-4293.194464,-13693.809927,-2298.286494
356.922148,-3478.967927,-10955.047942,-2145.067394
356.922469,-666.185348,-9178.553681,-2451.505594
356.922791,2146.597232,-8290.306550,-2757.943793
356.923113,2960.823768,-8808.450710,-2604.724693
356.923435,2368.659014,-9918.759623,-1378.971896
356.923756,1480.411884,-11843.295072,76.609550
356.924078,296.082377,-13027.624579,153.219100
356.924400,-666.185348,-12361.439231,-536.266849
356.924722,-1480.411884,-9770.718434,-1608.800546
356.925043,-1480.411884,-7550.100608,-2604.724693
356.925365,-740.205942,-6587.832884,-2911.162892
356.925687,-1036.288319,-7031.956449,-1685.410096
356.926009,-2146.597232,-7402.059420,-842.705048
356.926330,-3404.947333,-8882.471304,-689.485948
356.926652,-3775.050304,-10510.924376,-2298.286494
356.926974,-3552.988522,-10732.986159,-4366.744339
356.927296,-3108.864956,-10140.821405,-4903.011187
356.927617,-3108.864956,-9030.512492,-4290.134789
356.927939,-2590.720797,-8586.388927,-3600.648841
356.928261,-2812.782580,-9474.636058,-3600.648841
356.928583,-3404.947333,-10732.986159,-2987.772442
356.928904,-2960.823768,-11177.109724,-1838.629195
356.929226,-1406.391290,-9918.759623,-919.314598
356.929548,1480.411884,-8956.491898,-612.876398
356.929870,3627.009116,-8290.306550,919.314598
356.930191,4293.194464,-7402.059420,2068.457845
