#time,accel_x,accel_y,accel_z
529.826591,-518.144159,-9844.739029,-2068.457845
529.826914,-444.123565,-9474.636058,-1762.019645
529.827236,74.020594,-9474.636058,-2145.067394
529.827558,0.000000,-9326.594869,-2221.676944
529.827881,-370.102971,-9400.615463,-1991.848295
529.828203,-518.144159,-9474.636058,-2068.457845
529.828525,-444.123565,-9622.677246,-1838.629195
529.828847,-296.082377,-9474.636058,-1685.410096
529.829170,-444.123565,-9178.553681,-1838.629195
529.829492,-518.144159,-9400.615463,-1762.019645
529.829814,-296.082377,-9474.636058,-1915.238745
529.830137,-296.082377,-9548.656652,-1532.190996
529.830459,-222.061783,-9104.533087,-1915.238745
529.830781,-518.144159,-9326.594869,-1532.190996
529.831103,-666.185348,-9474.636058,-1455.581446
529.831426,-592.164754,-9474.636058,-1685.410096
529.831748,-592.164754,-9474.636058,-1455.581446
529.832070,-518.144159,-9474.636058,-1378.971896
529.832393,-148.041188,-8734.430116,-2451.505594
529.832715,-518.144159,-9104.533087,-1532.190996
529.833037,-592.164754,-9178.553681,-1455.581446
529.833359,-370.102971,-9474.636058,-1225.752797
529.833682,-740.205942,-9474.636058,-1225.752797
529.834004,-222.061783,-9474.636058,-1378.971896
529.834326,0.000000,-9400.615463,-1378.971896
529.834648,-370.102971,-9326.594869,-1302.362347
529.834971,-222.061783,-9252.574275,-1149.143247
529.835293,-296.082377,-9252.574275,-1072.533697
529.835615,-370.102971,-9326.594869,-1149.143247
529.835938,-148.041188,-9400.615463,-1225.752797
529.836260,-518.144159,-9326.594869,-1532.190996
529.836582,-592.164754,-9400.615463,-1532.190996
529.836904,-370.102971,-9400.615463,-1225.752797
529.837227,-444.123565,-9474.636058,-1225.752797
529.837549,0.000000,-9474.636058,-1378.971896
529.837871,-222.061783,-9326.594869,-766.095498
529.838194,-518.144159,-9400.615463,-1149.143247
529.838516,-592.164754,-9474.636058,-1149.143247
529.838838,-740.205942,-9474.636058,-1225.752797
529.839160,-666.185348,-9474.636058,-1608.800546
529.839483,-518.144159,-9178.553681,-1532.190996
529.839805,-592.164754,-9326.594869,-1532.190996
529.840127,-444.123565,-9400.615463,-1378.971896
529.840450,-592.164754,-9400.615463,-1532.190996
529.840772,-518.144159,-9548.656652,-1455.581446
529.841094,-592.164754,-9400.615463,-1532.190996
529.841416,0.000000,-9770.718434,-2145.067394
529.841739,-518.144159,-9400.615463,-1838.629195
529.842061,-444.123565,-9400.615463,-1608.800546
529.842383,-444.123565,-9104.533087,-1685.410096
529.842706,-296.082377,-9326.594869,-1838.629195
529.843028,-148.041188,-9400.615463,-1685.410096
529.843350,-296.082377,-9178.553681,-1532.190996
529.843672,-592.164754,-9474.636058,-1532.190996
529.843995,-370.102971,-9474.636058,-1762.019645
529.844317,-296.082377,-9252.574275,-1302.362347
529.844639,-666.185348,-8882.471304,-1915.238745
529.844962,-148.041188,-9030.512492,-1838.629195
529.845284,0.000000,-9178.553681,-1608.800546
529.845606,-296.082377,-9400.615463,-1838.629195
529.845928,-518.144159,-9548.656652,-1685.410096
529.846251,-740.205942,-9252.574275,-1838.629195
529.846573,0.000000,-9696.697840,-1838.629195
529.846895,-370.102971,-9474.636058,-1838.629195
529.847218,-518.144159,-9104.533087,-1915.238745
529.847540,-222.061783,-8882.471304,-1762.019645
529.847862,222.061783,-8586.388927,-1762.019645
529.848184,1406.391290,-9252.574275,-1991.848295
529.848507,2368.659014,-9918.759623,-1762.019645
529.848829,2072.576638,-9474.636058,-612.876398
529.849151,1184.329507,-8734.430116,-459.657299
529.849474,444.123565,-8734.430116,-1532.190996
529.849796,-592.164754,-8734.430116,-2451.505594
529.850118,-2072.576638,-9178.553681,-2451.505594
529.850440,-3108.864956,-9548.656652,-2221.676944
529.850763,-3701.029710,-9918.759623,-2451.505594
529.851085,-2368.659014,-9770.718434,-2834.553343
529.851407,518.144159,-11325.150913,-2451.505594
529.851730,2664.741391,-11843.295072,-1302.362347
529.852052,2664.741391,-10436.903782,-306.438199
529.852374,1998.556043,-8882.471304,0.000000
529.852696,2220.617826,-8882.471304,-1149.143247
529.853019,2812.782580,-8956.491898,-2374.896044
529.853341,2516.700203,-9474.636058,-2221.676944
529.853663,1036.288319,-8882.471304,-689.485948
529.853986,0.000000,-7772.162391,0.000000
529.854308,666.185348,-8216.285956,-1302.362347
529.854630,2072.576638,-9992.780217,-2528.115143
529.854952,1184.329507,-10584.944971,-1072.533697
529.855275,-740.205942,-8586.388927,306.438199
529.855597,-814.226536,-8882.471304,-1455.581446
529.855919,0.000000,-9104.533087,-3447.429741
529.856242,592.164754,-9326.594869,-2451.505594
529.856564,370.102971,-10214.842000,-536.266849
529.856886,592.164754,-10881.027347,-919.314598
529.857208,1850.514855,-9622.677246,-1762.019645
529.857531,2738.761985,-9622.677246,-1149.143247
529.857853,3775.050304,-11103.089130,-153.219100
529.858175,3404.947333,-10732.986159,0.000000
529.858498,1850.514855,-7772.162391,-1455.581446
529.858820,2220.617826,-7402.059420,-1072.533697
529.859142,2220.617826,-7920.203579,-919.314598
529.859464,2368.659014,-8364.327145,-1302.362347
529.859787,1776.494261,-7772.162391,-1225.752797
529.860109,1924.535449,-8660.409521,-766.095498
529.860431,2590.720797,-10140.821405,-766.095498
529.860754,3330.926739,-10881.027347,-1072.533697
529.861076,2960.823768,-9474.636058,-1608.800546
529.861398,2590.720797,-9622.677246,-1762.019645
529.861720,3182.885551,-9844.739029,-1302.362347
529.862043,3775.050304,-9622.677246,-1532.190996
529.862365,3330.926739,-8734.430116,-1991.848295
529.862687,3034.844362,-9474.636058,-1762.019645
529.863010,3256.906145,-9474.636058,-459.657299
529.863332,3404.947333,-8956.491898,-919.314598
529.863654,2590.720797,-8882.471304,-1608.800546
529.863976,2072.576638,-8808.450710,-1225.752797
529.864299,1332.370696,-8438.347739,-842.705048
529.864621,444.123565,-7402.059420,-1532.190996
529.864943,-296.082377,-8216.285956,-2528.115143
529.865266,-740.205942,-9178.553681,-2221.676944
529.865588,-592.164754,-10140.821405,-1991.848295
529.865910,-592.164754,-11029.068536,-1532.190996
529.866232,0.000000,-11843.295072,-1608.800546
529.866555,444.123565,-12213.398043,-1915.238745
529.866877,1258.350101,-11399.171507,-1608.800546
529.867199,1776.494261,-10436.903782,-919.314598
529.867522,1998.556043,-9252.574275,-1302.362347
529.867844,2146.597232,-8290.306550,-1532.190996
529.868166,2072.576638,-7698.141797,-1072.533697
529.868488,1628.453072,-7698.141797,-842.705048
529.868811,2146.597232,-7994.224174,-1225.752797
529.869133,2146.597232,-8216.285956,-1685.410096
529.869455,1776.494261,-8438.347739,-1302.362347
529.869778,1924.535449,-8142.265362,-1455.581446
529.870100,1850.514855,-7994.224174,-2374.896044
529.870422,1702.473667,-8216.285956,-2604.724693
529.870744,1702.473667,-9474.636058,-2681.334243
529.871067,1110.308913,-10066.800811,-2145.067394
529.871389,592.164754,-10732.986159,-2451.505594
529.871711,444.123565,-11473.192101,-2681.334243
529.872034,370.102971,-12361.439231,-2298.286494
529.872356,592.164754,-11843.295072,-1838.629195
529.872678,740.205942,-11103.089130,-766.095498
529.873000,666.185348,-9992.780217,-1225.752797
529.873323,1110.308913,-9400.615463,-919.314598
529.873645,1110.308913,-9030.512492,-459.657299
529.873967,1110.308913,-7920.203579,-459.657299
529.874290,1924.535449,-7179.997637,-919.314598
529.874612,3478.967927,-7179.997637,-1762.019645
529.874934,5107.421000,-7550.100608,-1838.629195
529.875256,5551.544565,-7846.182985,-1378.971896
529.875579,5329.482782,-8882.471304,-919.314598
529.875901,5033.400406,-9844.739029,-919.314598
529.876223,4145.153275,-11325.150913,-2298.286494
529.876545,2516.700203,-12435.459826,-2604.724693
529.876868,1036.288319,-13175.665768,-2145.067394
529.877190,296.082377,-12065.356855,-1378.971896
529.877512,148.041188,-10807.006753,-842.705048
529.877835,518.144159,-9030.512492,76.609550
529.878157,518.144159,-7254.018232,612.876398
529.878479,740.205942,-5921.647536,383.047749
529.878801,814.226536,-5699.585753,0.000000
529.879124,740.205942,-5255.462188,-536.266849
529.879446,1110.308913,-6291.750507,-1225.752797
529.879768,1184.329507,-7105.977043,-995.924147
529.880091,1110.308913,-8290.306550,-995.924147
529.880413,814.226536,-9770.718434,-1225.752797
529.880735,1110.308913,-11029.068536,-2298.286494
529.881057,1036.288319,-11621.233289,-2757.943793
529.881380,592.164754,-11547.212695,-3370.820191
529.881702,148.041188,-11917.315666,-3140.991542
529.882024,-592.164754,-11991.336260,-2911.162892
529.882347,-1332.370696,-12139.377449,-2681.334243
529.882669,-2294.638420,-12065.356855,-1991.848295
529.882991,-2294.638420,-11695.253884,-1378.971896
529.883313,-1850.514855,-11177.109724,-1302.362347
529.883636,-814.226536,-9844.739029,-612.876398
529.883958,0.000000,-9104.533087,459.657299
529.884280,1480.411884,-7624.121203,919.314598
529.884603,3478.967927,-5625.565159,919.314598
529.884925,5551.544565,-5181.441594,-612.876398
529.885247,6957.935855,-5255.462188,-995.924147
529.885569,6883.915261,-5995.668130,-536.266849
529.885892,6143.709319,-5847.626942,-1378.971896
529.886214,5847.626942,-7698.141797,-3600.648841
529.886536,5477.523971,-10807.006753,-4596.572988
529.886859,5033.400406,-13693.809927,-3140.991542
529.887181,2886.803174,-13545.768739,-1915.238745
529.887503,-370.102971,-12731.542202,-1225.752797
529.887825,-2590.720797,-11399.171507,-1608.800546
529.888148,-4737.318029,-10881.027347,-2528.115143
529.888470,-6587.832884,-8586.388927,-2221.676944
529.888792,-7179.997637,-7105.977043,-1838.629195
529.889115,-7031.956449,-6143.709319,-3064.381992
529.889437,-3552.988522,-8142.265362,-2221.676944
529.889759,814.226536,-8882.471304,-612.876398
529.890081,5107.421000,-8882.471304,-1072.533697
529.890404,8512.368333,-10288.862594,-1685.410096
529.890726,11843.295072,-10807.006753,0.000000
529.891048,13841.851115,-9992.780217,0.000000
529.891371,13841.851115,-7698.141797,-612.876398
529.891693,12435.459826,-7624.121203,-995.924147
529.892015,10658.965565,-8364.327145,-1455.581446
529.892337,7920.203579,-10658.965565,-2604.724693
529.892660,4071.132681,-11843.295072,-1608.800546
529.892982,-370.102971,-12879.583391,-1149.143247
529.893304,-3849.070898,-13101.645173,0.000000
529.893627,-6291.750507,-13397.727550,153.219100
529.893949,-9104.533087,-10732.986159,229.828649
529.894271,-11473.192101,-7476.080014,1532.190996
529.894594,-11177.109724,-3108.864956,-536.266849
529.894916,-7624.121203,-3404.947333,-1838.629195
529.895239,-2368.659014,-5551.544565,-2911.162892
529.895561,2590.720797,-6735.874072,-3600.648841
529.895883,6143.709319,-9178.553681,-2681.334243
529.896206,9474.636058,-12287.418637,-459.657299
529.896528,11251.130318,-13323.706956,-995.924147
529.896851,11029.068536,-11843.295072,-2604.724693
529.897173,8364.327145,-10288.862594,-4366.744339
529.897496,4663.297435,-9030.512492,-4903.011187
529.897818,1628.453072,-9252.574275,-5362.668486
529.898141,-148.041188,-9178.553681,-4290.134789
529.898463,-2738.761985,-9918.759623,-1455.581446
529.898785,-5255.462188,-12805.562797,1302.362347
529.899108,-6513.812290,-12509.480420,3677.258390
529.899430,-6069.688724,-10362.883188,3677.258390
529.899753,-5403.503377,-6365.771101,153.219100
529.900075,-2812.782580,-6661.853478,-383.047749
529.900398,2812.782580,-7402.059420,229.828649
529.900720,7624.121203,-4515.256246,-459.657299
529.901043,11325.150913,-4515.256246,-1991.848295
529.901365,13767.830521,-9178.553681,-1915.238745
529.901688,13545.768739,-12805.562797,383.047749
529.902010,8808.450710,-12731.542202,383.047749
529.902332,3182.885551,-12213.398043,-3064.381992
529.902655,-1628.453072,-13619.789333,-6435.202183
529.902977,-4885.359217,-14804.118840,-6128.763984
529.903300,-7994.224174,-10658.965565,-2068.457845
529.903622,-10066.800811,-6069.688724,-1149.143247
529.903945,-8586.388927,-4885.359217,-3140.991542
529.904267,-4367.215058,-7624.121203,-1608.800546
529.904590,-2664.741391,-8364.327145,536.266849
529.904912,-1406.391290,-7846.182985,2298.286494
529.905234,-296.082377,-7402.059420,1685.410096
529.905557,2220.617826,-7476.080014,0.000000
529.905879,4811.338623,-6365.771101,-766.095498
529.906202,5255.462188,-5625.565159,-2221.676944
529.906524,4071.132681,-7476.080014,-3370.820191
529.906847,4367.215058,-11251.130318,-2068.457845
529.907169,5773.606348,-11621.233289,-1455.581446
529.907492,6587.832884,-12139.377449,-4443.353888
529.907814,6513.812290,-12879.583391,-5132.839837
529.908136,5033.400406,-13323.706956,-2528.115143
529.908459,2664.741391,-12361.439231,0.000000
529.908781,444.123565,-10288.862594,459.657299
529.909104,-1628.453072,-8586.388927,-2604.724693
529.909426,-1850.514855,-9992.780217,-4136.915689
529.909749,-1776.494261,-11399.171507,0.000000
529.910071,-740.205942,-10955.047942,3907.087040
529.910394,1776.494261,-8660.409521,2987.772442
529.910716,5995.668130,-6143.709319,536.266849
529.911039,9104.533087,-5477.523971,1302.362347
529.911361,9696.697840,-4293.194464,1838.629195
529.911683,7846.182985,-3701.029710,0.000000
529.912006,4959.379811,-4071.132681,-2451.505594
529.912328,2960.823768,-6735.874072,-2681.334243
529.912651,1184.329507,-10066.800811,-4443.353888
529.912973,-1184.329507,-13027.624579,-7201.297681
529.913296,-4737.318029,-14582.057057,-6205.373534
529.913618,-5699.585753,-14508.036463,-2221.676944
529.913941,-4071.132681,-12953.603985,-1608.800546
529.914263,-1554.432478,-12583.501014,-4903.011187
529.914585,-2146.597232,-10362.883188,-5439.278036
529.914908,-1850.514855,-10436.903782,-1915.238745
529.915230,0.000000,-11103.089130,919.314598
529.915553,4145.153275,-11991.336260,766.095498
529.915875,6143.709319,-10658.965565,76.609550
529.916198,6587.832884,-8956.491898,1149.143247
529.916520,7254.018232,-8290.306550,5286.058936
529.916843,7994.224174,-5625.565159,6511.811733
529.917165,8512.368333,-2960.823768,2221.676944
529.917488,9622.677246,-1850.514855,-2911.162892
529.917810,10214.842000,-5033.400406,-4213.525239
529.918132,8438.347739,-8956.491898,0.000000
529.918455,4589.276840,-9548.656652,2604.724693
529.918777,-370.102971,-11251.130318,-459.657299
529.919100,-4441.235652,-12731.542202,-3753.867940
529.919422,-7179.997637,-11843.295072,-4443.353888
529.919745,-9474.636058,-10436.903782,-6588.421283
529.920067,-9326.594869,-11843.295072,-7354.516781
529.920390,-7624.121203,-12287.418637,-5056.230287
529.920712,-4885.359217,-11695.253884,-1532.190996
529.921034,-3552.988522,-9104.533087,536.266849
529.921357,-3034.844362,-9104.533087,1072.533697
529.921679,-1850.514855,-10807.006753,-1378.971896
529.922002,-592.164754,-9918.759623,-3294.210641
529.922324,-222.061783,-7476.080014,-459.657299
529.922647,1776.494261,-6365.771101,1149.143247
529.922969,5699.585753,-6661.853478,612.876398
529.923292,8216.285956,-6291.750507,-612.876398
529.923614,9326.594869,-6513.812290,1225.752797
529.923937,9548.656652,-7031.956449,1915.238745
529.924259,8808.450710,-8734.430116,-1149.143247
529.924581,6587.832884,-11473.192101,-3217.601092
529.924904,2960.823768,-12657.521608,-2374.896044
529.925226,74.020594,-11325.150913,-1915.238745
529.925549,-444.123565,-11325.150913,-3217.601092
529.925871,-370.102971,-11695.253884,-4213.525239
529.926194,-2368.659014,-10807.006753,-3600.648841
529.926516,-4293.194464,-10140.821405,-766.095498
529.926839,-5329.482782,-11399.171507,229.828649
529.927161,-4959.379811,-13175.665768,-1915.238745
529.927483,-4811.338623,-12139.377449,-2987.772442
529.927806,-4885.359217,-6661.853478,-1149.143247
529.928128,-2590.720797,-3627.009116,-306.438199
529.928451,1332.370696,-4367.215058,-2374.896044
529.928773,4663.297435,-6513.812290,-2681.334243
529.929096,5551.544565,-7179.997637,-536.266849
529.929418,5921.647536,-6661.853478,919.314598
529.929741,6439.791695,-8364.327145,-1455.581446
529.930063,5181.441594,-11029.068536,-3294.210641
529.930386,2442.679609,-11177.109724,-2681.334243
529.930708,-148.041188,-9252.574275,-2145.067394
529.931030,-370.102971,-10140.821405,-3447.429741
529.931353,1110.308913,-10732.986159,-4519.963438
529.931675,0.000000,-10510.924376,-3600.648841
529.931998,-1184.329507,-11251.130318,-1072.533697
529.932320,-1258.350101,-13841.851115,76.609550
529.932643,-740.205942,-15766.386565,0.000000
529.932965,-592.164754,-14285.974681,1685.410096
529.933288,222.061783,-10066.800811,2451.505594
529.933610,1776.494261,-5329.482782,1149.143247
529.933932,4737.318029,-3182.885551,-1378.971896
529.934255,6587.832884,-3330.926739,-1532.190996
529.934577,6365.771101,-4293.194464,1149.143247
529.934900,4515.256246,-5181.441594,1532.190996
529.935222,1036.288319,-7994.224174,-1915.238745
529.935545,-2590.720797,-11843.295072,-4060.306139
529.935867,-5181.441594,-13693.809927,-4290.134789
529.936190,-6883.915261,-13249.686362,-5362.668486
529.936512,-8068.244768,-11769.274478,-6894.859482
529.936835,-8142.265362,-10362.883188,-5209.449386
529.937157,-7846.182985,-9844.739029,-2528.115143
529.937479,-6809.894666,-11991.336260,-1149.143247
529.937802,-6513.812290,-13175.665768,-459.657299
529.938124,-5033.400406,-12879.583391,-766.095498
529.938447,-2072.576638,-10436.903782,-1149.143247
529.938769,1628.453072,-7698.141797,-689.485948
529.939092,4219.173869,-6217.729913,1378.971896
529.939414,5255.462188,-2886.803174,4290.134789
529.939737,6439.791695,-1184.329507,4213.525239
529.940059,6883.915261,-1332.370696,766.095498
529.940381,4737.318029,-4737.318029,-3294.210641
529.940704,518.144159,-8216.285956,-3600.648841
529.941026,-3552.988522,-10436.903782,-1838.629195
529.941349,-4515.256246,-11991.336260,-3217.601092
529.941671,-3701.029710,-13249.686362,-7890.783629
529.941994,-4737.318029,-14582.057057,-8886.707777
529.942316,-6587.832884,-15544.324782,-4290.134789
529.942639,-7476.080014,-16654.633695,-383.047749
529.942961,-6809.894666,-15100.201217,-919.314598
529.943284,-3849.070898,-13693.809927,-2757.943793
529.943606,740.205942,-11547.212695,-2451.505594
529.943928,4441.235652,-9252.574275,-766.095498
529.944251,7031.956449,-6291.750507,3140.991542
529.944573,8586.388927,-3034.844362,6665.030833
529.944896,9178.553681,0.000000,4213.525239
529.945218,9178.553681,-1036.288319,0.000000
529.945541,5847.626942,-4367.215058,-919.314598
529.945863,-296.082377,-6365.771101,-766.095498
529.946186,-4145.153275,-9030.512492,-1915.238745
529.946508,-4885.359217,-9252.574275,-3600.648841
529.946830,-4515.256246,-8290.306550,-6588.421283
529.947153,-4737.318029,-9326.594869,-7967.393179
529.947475,-5477.523971,-14359.995275,-5822.325785
529.947798,-6957.935855,-18135.045579,-2757.943793
529.948120,-6809.894666,-18949.272115,-1455.581446
529.948443,-4811.338623,-15840.407159,-2298.286494
529.948765,-1036.288319,-13101.645173,-4596.572988
529.949088,3404.947333,-11843.295072,-3294.210641
529.949410,6883.915261,-9104.533087,1225.752797
529.949733,8734.430116,-4441.235652,4596.572988
529.950055,10807.006753,-888.247130,4903.011187
529.950377,11769.274478,148.041188,1762.019645
529.950700,8660.409521,-2072.576638,-612.876398
529.951022,3330.926739,-4737.318029,0.000000
529.951345,-1036.288319,-6957.935855,0.000000
529.951667,-3923.091493,-9178.553681,-3294.210641
529.951990,-5329.482782,-10732.986159,-5975.544884
529.952312,-6217.729913,-10584.944971,-4136.915689
529.952635,-7476.080014,-12805.562797,-3677.258390
529.952957,-8438.347739,-16210.510130,-2757.943793
529.953279,-7328.038826,-17320.819043,-2145.067394
529.953602,-4737.318029,-15766.386565,-3600.648841
529.953924,-1184.329507,-14211.954086,-4213.525239
529.954247,1998.556043,-12583.501014,-1685.410096
529.954569,3256.906145,-9178.553681,1838.629195
529.954892,3849.070898,-4515.256246,2681.334243
529.955214,3701.029710,-1258.350101,1149.143247
529.955537,1776.494261,-2146.597232,-919.314598
529.955859,-1702.473667,-4071.132681,-612.876398
529.956182,-5625.565159,-3775.050304,-1915.238745
529.956504,-6291.750507,-5773.606348,-4060.306139
529.956826,-3775.050304,-9770.718434,-5209.449386
529.957149,-3849.070898,-11621.233289,-5286.058936
529.957471,-4441.235652,-13693.809927,-3064.381992
529.957794,-5995.668130,-15248.242405,-1762.019645
529.958116,-5773.606348,-17394.839637,-1762.019645
529.958439,-5033.400406,-15840.407159,-3064.381992
529.958761,-2738.761985,-13693.809927,-3370.820191
529.959084,1702.473667,-11843.295072,-1915.238745
529.959406,7772.162391,-10732.986159,-1149.143247
529.959728,10362.883188,-8956.491898,1991.848295
529.960051,10732.986159,-6069.688724,5745.716235
529.960373,9030.512492,-1998.556043,6205.373534
529.960696,5181.441594,-2220.617826,1225.752797
529.961018,740.205942,-3701.029710,-612.876398
529.961341,-3182.885551,-4071.132681,-1225.752797
529.961663,-6883.915261,-4441.235652,-3370.820191
529.961986,-9400.615463,-5847.626942,-4903.011187
529.962308,-9178.553681,-7994.224174,-4290.134789
529.962631,-9252.574275,-12139.377449,-5209.449386
529.962953,-8142.265362,-15988.448347,-4290.134789
529.963275,-8290.306550,-17246.798449,-3370.820191
529.963598,-6883.915261,-16210.510130,-2911.162892
529.963920,-1406.391290,-15692.365970,-3217.601092
529.964243,4441.235652,-13693.809927,-2987.772442
529.964565,7179.997637,-9030.512492,-1455.581446
529.964888,8808.450710,-5403.503377,1762.019645
529.965210,10510.924376,-3478.967927,3753.867940
529.965533,10658.965565,-3108.864956,1915.238745
529.965855,7550.100608,-3775.050304,76.609550
529.966177,2886.803174,-5551.544565,1302.362347
529.966500,-1110.308913,-6809.894666,1762.019645
529.966822,-2294.638420,-7846.182985,-1149.143247
529.967145,-4219.173869,-6735.874072,-4749.792088
529.967467,-5255.462188,-7772.162391,-5592.497135
529.967790,-5699.585753,-11251.130318,-3753.867940
529.968112,-5255.462188,-15174.221811,-1225.752797
529.968435,-5551.544565,-15396.283594,-2221.676944
529.968757,-2886.803174,-15544.324782,-4673.182538
529.969080,2664.741391,-17024.736666,-5209.449386
529.969402,6957.935855,-15100.201217,-2528.115143
529.969724,8290.306550,-11917.315666,0.000000
529.970047,7476.080014,-8364.327145,1608.800546
529.970369,7031.956449,-5255.462188,1608.800546
529.970692,3627.009116,-2960.823768,-689.485948
529.971014,-1998.556043,-3552.988522,-1378.971896
529.971337,-6735.874072,-4145.153275,-1302.362347
529.971659,-7179.997637,-5477.523971,-4136.915689
529.971982,-5625.565159,-7550.100608,-5056.230287
529.972304,-7179.997637,-8660.409521,-3830.477490
529.972626,-8068.244768,-9918.759623,-383.047749
529.972949,-8290.306550,-11177.109724,-1225.752797
529.973271,-6217.729913,-13397.727550,-4213.525239
529.973594,-4811.338623,-13915.871710,-5745.716235
529.973916,-1480.411884,-13249.686362,-6281.983084
529.974239,2072.576638,-14063.912898,-4443.353888
529.974561,5921.647536,-13989.892304,689.485948
529.974884,9252.574275,-11251.130318,3753.867940
529.975206,11325.150913,-7624.121203,2451.505594
529.975529,11103.089130,-6143.709319,919.314598
529.975851,7031.956449,-5033.400406,689.485948
529.976173,1184.329507,-4293.194464,1532.190996
529.976496,-2886.803174,-3552.988522,1915.238745
529.976818,-4441.235652,-3404.947333,0.000000
529.977141,-6291.750507,-4515.256246,-3524.039291
529.977463,-8364.327145,-6439.791695,-3524.039291
529.977786,-10584.944971,-10288.862594,-2068.457845
529.978108,-10066.800811,-14878.139434,-2221.676944
529.978431,-7920.203579,-16506.592507,-2528.115143
529.978753,-5921.647536,-13989.892304,-3447.429741
529.979075,-1776.494261,-12509.480420,-5056.230287
529.979398,2886.803174,-13249.686362,-4519.963438
529.979720,5921.647536,-11991.336260,-1378.971896
529.980043,6957.935855,-8734.430116,1532.190996
529.980365,7254.018232,-6735.874072,1072.533697
529.980688,6957.935855,-6661.853478,-536.266849
529.981010,3775.050304,-6957.935855,-919.314598
529.981333,74.020594,-6439.791695,306.438199
529.981655,-2146.597232,-5773.606348,0.000000
529.981978,-2220.617826,-6735.874072,-2451.505594
529.982300,-4145.153275,-6587.832884,-2681.334243
529.982622,-6957.935855,-6069.688724,-689.485948
529.982945,-7698.141797,-9474.636058,-1149.143247
529.983267,-6365.771101,-13767.830521,-3907.087040
529.983590,-2664.741391,-15914.427753,-4903.011187
529.983912,814.226536,-14211.954086,-3677.258390
529.984235,5921.647536,-14211.954086,-2298.286494
529.984557,9918.759623,-14063.912898,536.266849
529.984880,10362.883188,-10732.986159,2451.505594
529.985202,9104.533087,-7031.956449,1838.629195
529.985524,6735.874072,-6143.709319,76.609550
529.985847,3478.967927,-5921.647536,-3140.991542
529.986169,-1406.391290,-5625.565159,-3064.381992
529.986492,-5847.626942,-5329.482782,0.000000
529.986814,-6735.874072,-5403.503377,-995.924147
529.987137,-7328.038826,-6069.688724,-3447.429741
529.987459,-9104.533087,-7624.121203,-3753.867940
529.987782,-12139.377449,-7698.141797,-2451.505594
529.988104,-11991.336260,-12213.398043,-4136.915689
529.988427,-10584.944971,-14211.954086,-5669.106685
529.988749,-6587.832884,-13249.686362,-4749.792088
529.989071,-1184.329507,-13693.809927,-4519.963438
529.989394,6365.771101,-14211.954086,-3294.210641
529.989716,11917.315666,-13841.851115,-1072.533697
529.990039,12953.603985,-9474.636058,2834.553343
529.990361,11103.089130,-5773.606348,5056.230287
529.990684,9030.512492,-4737.318029,2374.896044
529.991006,5033.400406,-5625.565159,-2145.067394
529.991329,1036.288319,-5773.606348,-1532.190996
529.991651,-2220.617826,-5107.421000,153.219100
529.991973,-3997.112087,-5477.523971,153.219100
529.992296,-6809.894666,-4663.297435,0.000000
529.992618,-7846.182985,-5847.626942,-1762.019645
529.992941,-9178.553681,-9474.636058,-3447.429741
529.993263,-8734.430116,-14359.995275,-4673.182538
529.993586,-8068.244768,-15544.324782,-5439.278036
529.993908,-5255.462188,-15618.345376,-5745.716235
529.994231,592.164754,-16210.510130,-3907.087040
529.994553,6735.874072,-15840.407159,-2221.676944
529.994875,9178.553681,-12953.603985,-919.314598
529.995197,9326.594869,-9104.533087,919.314598
529.995520,9030.512492,-6143.709319,536.266849
529.995842,6735.874072,-4885.359217,-1762.019645
529.996164,2220.617826,-5847.626942,-1915.238745
529.996487,-2368.659014,-5921.647536,766.095498
529.996809,-4515.256246,-5847.626942,0.000000
529.997131,-5107.421000,-6291.750507,-1915.238745
529.997453,-7105.977043,-5847.626942,-766.095498
529.997776,-7772.162391,-7624.121203,-1225.752797
529.998098,-8364.327145,-9400.615463,-1532.190996
529.998420,-7254.018232,-13249.686362,-2374.896044
529.998742,-6069.688724,-14063.912898,-2911.162892
529.999065,-2368.659014,-13175.665768,-3677.258390
529.999387,3256.906145,-13915.871710,-4213.525239
529.999709,7328.038826,-13619.789333,-2068.457845
530.000032,9104.533087,-11473.192101,383.047749
530.000354,9400.615463,-8438.347739,1838.629195
530.000676,8956.491898,-6809.894666,1225.752797
530.000998,6365.771101,-5551.544565,-995.924147
530.001321,2590.720797,-6069.688724,-2681.334243
530.001643,-1480.411884,-5995.668130,-229.828649
530.001965,-3923.091493,-4663.297435,766.095498
530.002287,-6143.709319,-4811.338623,-1838.629195
530.002610,-9104.533087,-5699.585753,-2604.724693
530.002932,-11177.109724,-7105.977043,-2374.896044
530.003254,-11769.274478,-10584.944971,-2757.943793
530.003577,-10584.944971,-14211.954086,-3983.696590
530.003899,-6809.894666,-15396.283594,-4060.306139
530.004221,-1184.329507,-14137.933492,-4596.572988
530.004543,5995.668130,-14063.912898,-3983.696590
530.004866,11547.212695,-13175.665768,153.219100
530.005188,13397.727550,-10584.944971,2987.772442
530.005510,12657.521608,-6143.709319,3217.601092
530.005832,11103.089130,-3701.029710,306.438199
530.006155,7920.203579,-6365.771101,-3140.991542
530.006477,2516.700203,-8586.388927,-1838.629195
530.006799,-2220.617826,-7624.121203,1225.752797
530.007122,-5477.523971,-5921.647536,-229.828649
530.007444,-7179.997637,-5625.565159,-3294.210641
530.007766,-8216.285956,-7402.059420,-2298.286494
530.008088,-10881.027347,-8512.368333,-1915.238745
530.008411,-12583.501014,-11917.315666,-2604.724693
530.008733,-11769.274478,-13841.851115,-3983.696590
530.009055,-7179.997637,-14508.036463,-4826.401637
530.009377,-444.123565,-14508.036463,-4903.011187
530.009700,7402.059420,-15026.180623,-3447.429741
530.010022,11547.212695,-14063.912898,-306.438199
530.010344,12213.398043,-9474.636058,3447.429741
530.010667,11621.233289,-6439.791695,2604.724693
530.010989,9474.636058,-5403.503377,-1302.362347
530.011311,5181.441594,-6439.791695,-3677.258390
530.011633,-518.144159,-6883.915261,-1685.410096
530.011956,-4219.173869,-5847.626942,-229.828649
530.012278,-5329.482782,-5551.544565,-1685.410096
530.012600,-7846.182985,-5181.441594,-2451.505594
530.012922,-9770.718434,-7772.162391,-1532.190996
530.013245,-11399.171507,-9622.677246,-1072.533697
530.013567,-11769.274478,-12583.501014,-3983.696590
530.013889,-10807.006753,-13101.645173,-4826.401637
530.014212,-5921.647536,-13693.809927,-5745.716235
530.014534,1406.391290,-13693.809927,-4903.011187
530.014856,9474.636058,-14285.974681,-1915.238745
530.015178,13027.624579,-12435.459826,2145.067394
530.015501,12879.583391,-7846.182985,4749.792088
530.015823,11843.295072,-4811.338623,3370.820191
530.016145,9474.636058,-5181.441594,-1532.190996
530.016468,4959.379811,-6513.812290,-4366.744339
530.016790,-740.205942,-6883.915261,-995.924147
530.017112,-5033.400406,-5921.647536,766.095498
530.017434,-7031.956449,-5625.565159,-459.657299
530.017757,-9696.697840,-5625.565159,-1608.800546
530.018079,-11917.315666,-7846.182985,-2451.505594
530.018401,-12657.521608,-10436.903782,-2757.943793
530.018723,-11251.130318,-14211.954086,-3524.039291
530.019046,-8216.285956,-13915.871710,-4519.963438
530.019368,-1258.350101,-14063.912898,-5745.716235
530.019690,5921.647536,-13841.851115,-3447.429741
530.020013,10658.965565,-13915.871710,689.485948
530.020335,10362.883188,-10140.821405,2604.724693
530.020657,9178.553681,-5995.668130,2145.067394
530.020979,9104.533087,-4885.359217,-1991.848295
530.021302,6735.874072,-7846.182985,-5975.544884
530.021624,2146.597232,-9178.553681,-3064.381992
530.021946,-2590.720797,-7550.100608,2681.334243
530.022268,-3775.050304,-7698.141797,842.705048
530.022591,-4737.318029,-6587.832884,-1991.848295
530.022913,-7328.038826,-6883.915261,-2221.676944
530.023235,-10807.006753,-6809.894666,-1608.800546
530.023558,-11399.171507,-11029.068536,-2681.334243
530.023880,-8808.450710,-13397.727550,-3907.087040
530.024202,-4293.194464,-14211.954086,-4596.572988
530.024524,1258.350101,-14063.912898,-3140.991542
530.024847,7105.977043,-14285.974681,-153.219100
530.025169,10881.027347,-13249.686362,2068.457845
530.025491,11843.295072,-8882.471304,2757.943793
530.025813,10214.842000,-4367.215058,1838.629195
530.026136,8216.285956,-3627.009116,-1302.362347
530.026458,4367.215058,-5847.626942,-3064.381992
530.026780,518.144159,-7105.977043,-995.924147
530.027103,-1998.556043,-6661.853478,-229.828649
530.027425,-3478.967927,-6883.915261,-1455.581446
530.027747,-6069.688724,-8068.244768,-919.314598
530.028069,-10510.924376,-8216.285956,-919.314598
530.028392,-13693.809927,-10881.027347,-2068.457845
530.028714,-13027.624579,-12213.398043,-3447.429741
530.029036,-10510.924376,-12287.418637,-4979.620737
530.029358,-6143.709319,-12805.562797,-5975.544884
530.029681,666.185348,-12731.542202,-4673.182538
530.030003,7105.977043,-13323.706956,-995.924147
530.030325,11251.130318,-12065.356855,2911.162892
530.030648,13397.727550,-9252.574275,4290.134789
530.030970,12065.356855,-5329.482782,1991.848295
530.031292,8956.491898,-3627.009116,-2221.676944
530.031614,3997.112087,-5625.565159,-2834.553343
530.031937,666.185348,-7698.141797,-689.485948
530.032259,-1702.473667,-7550.100608,0.000000
530.032581,-4441.235652,-5773.606348,-2681.334243
530.032903,-7179.997637,-7105.977043,-1685.410096
530.033226,-11621.233289,-9474.636058,0.000000
530.033548,-13397.727550,-11621.233289,-1608.800546
530.033870,-12731.542202,-14211.954086,-5975.544884
530.034193,-10288.862594,-14804.118840,-6741.640382
530.034515,-4737.318029,-14508.036463,-5669.106685
530.034837,2368.659014,-13027.624579,-2987.772442
530.035159,8512.368333,-12213.398043,-229.828649
530.035482,12879.583391,-11547.212695,1762.019645
530.035804,14211.954086,-8438.347739,2528.115143
530.036126,12509.480420,-5033.400406,1225.752797
530.036448,8068.244768,-5403.503377,-1608.800546
530.036771,3182.885551,-6809.894666,-3217.601092
530.037093,-666.185348,-7254.018232,-1915.238745
530.037415,-4071.132681,-7179.997637,-1225.752797
530.037738,-7402.059420,-6513.812290,-2451.505594
530.038060,-10658.965565,-6957.935855,-1915.238745
530.038382,-11843.295072,-7772.162391,-2604.724693
530.038704,-11991.336260,-11695.253884,-4060.306139
530.039027,-11547.212695,-14582.057057,-4136.915689
530.039349,-8216.285956,-15100.201217,-3907.087040
530.039671,-3256.906145,-13545.768739,-3830.477490
530.039994,4441.235652,-11769.274478,-3140.991542
530.040316,11843.295072,-11251.130318,-1072.533697
530.040638,14508.036463,-9918.759623,2528.115143
530.040960,13397.727550,-4959.379811,4749.792088
530.041283,10807.006753,-2294.638420,2834.553343
530.041605,7772.162391,-5181.441594,-1455.581446
530.041927,4367.215058,-8512.368333,-2374.896044
530.042249,-222.061783,-8142.265362,-919.314598
530.042572,-4219.173869,-6513.812290,-1455.581446
530.042894,-7031.956449,-7105.977043,-2068.457845
530.043216,-9252.574275,-7476.080014,-689.485948
530.043539,-12435.459826,-8438.347739,-1762.019645
530.043861,-13323.706956,-12583.501014,-4826.401637
530.044183,-11177.109724,-14952.160028,-5286.058936
530.044505,-7031.956449,-15174.221811,-5056.230287
530.044828,-740.205942,-13767.830521,-4290.134789
530.045150,7328.038826,-13397.727550,-1608.800546
530.045472,11991.336260,-12731.542202,2604.724693
530.045794,12509.480420,-8512.368333,4366.744339
530.046117,11103.089130,-3775.050304,2834.553343
530.046439,9178.553681,-1850.514855,-1302.362347
530.046761,6217.729913,-5255.462188,-4136.915689
530.047084,2146.597232,-8216.285956,-2298.286494
530.047406,-1924.535449,-7994.224174,1302.362347
530.047728,-3330.926739,-7994.224174,383.047749
530.048050,-4737.318029,-9030.512492,-2451.505594
530.048373,-8660.409521,-9326.594869,-2221.676944
530.048695,-11621.233289,-10436.903782,-1532.190996
530.049017,-12879.583391,-11029.068536,-3524.039291
530.049339,-12287.418637,-11843.295072,-4519.963438
530.049662,-7772.162391,-13397.727550,-5056.230287
530.049984,-740.205942,-13397.727550,-5669.106685
530.050306,6513.812290,-15100.201217,-3524.039291
530.050629,10584.944971,-14211.954086,2528.115143
530.050951,10732.986159,-8882.471304,6665.030833
530.051273,8882.471304,-2368.659014,4979.620737
530.051595,7994.224174,-2664.741391,-2145.067394
530.051918,5329.482782,-6661.853478,-5515.887586
530.052240,444.123565,-7476.080014,-2528.115143
530.052562,-3997.112087,-5329.482782,612.876398
530.052884,-5995.668130,-5033.400406,-1072.533697
530.053207,-6439.791695,-6661.853478,-3830.477490
530.053529,-8586.388927,-9992.780217,-3064.381992
530.053851,-12509.480420,-13323.706956,-1915.238745
530.054174,-13397.727550,-14211.954086,-2374.896044
530.054496,-10732.986159,-13767.830521,-4366.744339
530.054818,-5107.421000,-11843.295072,-7354.516781
530.055140,1406.391290,-11843.295072,-5515.887586
530.055463,7179.997637,-12731.542202,-459.657299
530.055785,11029.068536,-11251.130318,3217.601092
530.056107,13101.645173,-6957.935855,3064.381992
530.056429,12139.377449,-2960.823768,919.314598
530.056752,9326.594869,-5255.462188,-766.095498
530.057074,4219.173869,-8586.388927,-995.924147
530.057396,-666.185348,-8660.409521,-919.314598
530.057719,-4293.194464,-7105.977043,-2604.724693
530.058041,-6439.791695,-5329.482782,-4213.525239
530.058363,-8216.285956,-6143.709319,-2757.943793
530.058685,-8438.347739,-9622.677246,-2451.505594
530.059008,-8956.491898,-12509.480420,-2681.334243
530.059330,-9104.533087,-15618.345376,-2451.505594
530.059652,-6809.894666,-15618.345376,-2451.505594
530.059975,-1036.288319,-13175.665768,-4673.182538
530.060297,4515.256246,-11843.295072,-4136.915689
530.060619,8586.388927,-11769.274478,0.000000
530.060941,10214.842000,-10214.842000,3447.429741
530.061264,9770.718434,-3997.112087,3600.648841
530.061586,7772.162391,-2072.576638,995.924147
530.061908,4959.379811,-5107.421000,-2681.334243
530.062230,1850.514855,-7994.224174,-3830.477490
530.062553,-1480.411884,-8068.244768,-3140.991542
530.062875,-3701.029710,-8216.285956,-1991.848295
530.063197,-5773.606348,-8290.306550,-1685.410096
530.063520,-8660.409521,-7920.203579,-995.924147
530.063842,-11473.192101,-8586.388927,-2757.943793
530.064164,-11843.295072,-11843.295072,-5439.278036
530.064486,-11029.068536,-14211.954086,-5822.325785
530.064809,-6587.832884,-14804.118840,-5745.716235
530.065131,-148.041188,-13767.830521,-3753.867940
530.065453,6439.791695,-13545.768739,-842.705048
530.065775,11251.130318,-13471.748144,3524.039291
530.066098,11769.274478,-8882.471304,6281.983084
530.066420,10362.883188,-2294.638420,3140.991542
530.066742,8512.368333,-666.185348,-1685.410096
530.067065,5995.668130,-3849.070898,-2298.286494
530.067387,2812.782580,-5625.565159,-612.876398
530.067709,-1184.329507,-5921.647536,76.609550
530.068031,-2146.597232,-8142.265362,-1149.143247
530.068354,-3478.967927,-10732.986159,-2068.457845
530.068676,-6735.874072,-10658.965565,-1915.238745
530.068998,-9622.677246,-11473.192101,-2757.943793
530.069320,-10955.047942,-13323.706956,-4443.353888
530.069643,-10955.047942,-13545.768739,-4903.011187
530.069965,-7254.018232,-12731.542202,-4903.011187
530.070287,-1850.514855,-11843.295072,-6281.983084
530.070610,3404.947333,-13175.665768,-4903.011187
530.070932,6069.688724,-12509.480420,1838.629195
530.071254,6661.853478,-8882.471304,4979.620737
530.071576,6217.729913,-5107.421000,2374.896044
530.071899,5551.544565,-4663.297435,-1762.019645
530.072221,2960.823768,-5033.400406,-3064.381992
530.072543,296.082377,-5329.482782,-1685.410096
530.072865,-1628.453072,-6143.709319,-383.047749
530.073188,-3182.885551,-6365.771101,-919.314598
530.073510,-5551.544565,-7179.997637,-1838.629195
530.073832,-5921.647536,-11103.089130,-842.705048
530.074155,-6957.935855,-14878.139434,-2221.676944
530.074477,-8068.244768,-15470.304188,-3217.601092
530.074799,-7402.059420,-13767.830521,-3600.648841
530.075121,-3256.906145,-12287.418637,-3217.601092
530.075444,2664.741391,-11843.295072,-2374.896044
530.075766,6069.688724,-11029.068536,306.438199
530.076088,5255.462188,-8438.347739,2451.505594
530.076410,4589.276840,-6217.729913,2528.115143
530.076733,5773.606348,-5847.626942,-612.876398
530.077055,5181.441594,-6439.791695,-3830.477490
530.077377,1776.494261,-7179.997637,-2911.162892
530.077700,-1184.329507,-6883.915261,306.438199
530.078022,-1628.453072,-7254.018232,0.000000
530.078344,-2516.700203,-7254.018232,-2604.724693
530.078666,-6957.935855,-7402.059420,-2911.162892
530.078989,-9844.739029,-9474.636058,-3830.477490
530.079311,-9548.656652,-12805.562797,-4673.182538
530.079633,-7994.224174,-14508.036463,-4826.401637
530.079955,-5329.482782,-13545.768739,-3600.648841
530.080278,-518.144159,-12879.583391,-3677.258390
530.080600,5329.482782,-13101.645173,-1225.752797
530.080922,9474.636058,-12509.480420,1762.019645
530.081245,9696.697840,-9326.594869,4290.134789
530.081567,9178.553681,-3997.112087,3370.820191
530.081889,8438.347739,-2294.638420,229.828649
530.082211,6439.791695,-4145.153275,-1608.800546
530.082534,3404.947333,-5403.503377,-383.047749
530.082856,0.000000,-5847.626942,-689.485948
530.083178,-1332.370696,-7846.182985,-2221.676944
530.083501,-3404.947333,-8808.450710,-2145.067394
530.083823,-7846.182985,-8586.388927,-2528.115143
530.084145,-9178.553681,-11251.130318,-5286.058936
530.084467,-9770.718434,-14878.139434,-5669.106685
530.084790,-9770.718434,-15988.448347,-5132.839837
530.085112,-7254.018232,-14434.015869,-4060.306139
530.085434,-2368.659014,-12805.562797,-4826.401637
530.085756,2960.823768,-12509.480420,-3140.991542
530.086079,5995.668130,-11547.212695,1149.143247
530.086401,5699.585753,-9178.553681,3524.039291
530.086723,5255.462188,-5033.400406,2757.943793
530.087046,5107.421000,-3034.844362,-1378.971896
530.087368,3849.070898,-3478.967927,-2145.067394
530.087690,1998.556043,-5255.462188,459.657299
530.088012,962.267725,-6365.771101,-153.219100
530.088335,-888.247130,-7031.956449,-1915.238745
530.088657,-2590.720797,-7698.141797,-1532.190996
530.088979,-5329.482782,-10214.842000,-1225.752797
530.089301,-6735.874072,-12287.418637,-3447.429741
530.089624,-8142.265362,-13989.892304,-4826.401637
530.089946,-7920.203579,-15100.201217,-4596.572988
530.090268,-4737.318029,-14804.118840,-3983.696590
530.090591,222.061783,-14137.933492,-3600.648841
530.090913,4071.132681,-12139.377449,-2298.286494
530.091235,5181.441594,-9474.636058,995.924147
530.091557,5773.606348,-7105.977043,3140.991542
530.091880,6217.729913,-3997.112087,1762.019645
530.092202,4737.318029,-3775.050304,-2451.505594
530.092524,1480.411884,-5255.462188,-2528.115143
530.092846,-1110.308913,-6291.750507,766.095498
530.093169,-2220.617826,-6735.874072,459.657299
530.093491,-3404.947333,-7179.997637,-1762.019645
530.093813,-4737.318029,-7772.162391,-2221.676944
530.094136,-6957.935855,-9400.615463,-3294.210641
530.094458,-6439.791695,-12509.480420,-3217.601092
530.094780,-5847.626942,-14063.912898,-3830.477490
530.095102,-3997.112087,-13989.892304,-4749.792088
530.095425,74.020594,-13545.768739,-4290.134789
530.095747,4367.215058,-13471.748144,-2987.772442
530.096069,5847.626942,-11695.253884,-229.828649
530.096392,5033.400406,-7994.224174,3140.991542
530.096714,5477.523971,-5995.668130,1532.190996
530.097036,5847.626942,-6291.750507,-2374.896044
530.097358,3923.091493,-7105.977043,-2757.943793
530.097681,-370.102971,-6291.750507,459.657299
530.098003,-2516.700203,-5921.647536,1608.800546
530.098325,-1998.556043,-6957.935855,-1072.533697
530.098648,-2886.803174,-7254.018232,-3217.601092
530.098970,-7105.977043,-7920.203579,-3370.820191
530.099292,-10066.800811,-10066.800811,-1685.410096
530.099615,-10436.903782,-12509.480420,-3217.601092
530.099937,-7550.100608,-13915.871710,-5898.935335
530.100259,-3330.926739,-14063.912898,-5439.278036
530.100581,1258.350101,-13619.789333,-3370.820191
530.100904,4885.359217,-13397.727550,-1685.410096
530.101226,5551.544565,-11251.130318,2528.115143
530.101548,5477.523971,-8216.285956,4290.134789
530.101871,5477.523971,-4663.297435,76.609550
530.102193,6143.709319,-4071.132681,-3830.477490
530.102515,4293.194464,-4959.379811,-2834.553343
530.102837,2146.597232,-6735.874072,995.924147
530.103160,888.247130,-7772.162391,2145.067394
530.103482,-222.061783,-7476.080014,1225.752797
530.103804,-2738.761985,-7698.141797,-153.219100
530.104127,-7254.018232,-7105.977043,-1915.238745
530.104449,-9252.574275,-9252.574275,-3753.867940
530.104771,-8956.491898,-12657.521608,-5439.278036
530.105093,-6365.771101,-14656.077652,-4903.011187
530.105416,-3034.844362,-13841.851115,-2681.334243
530.105738,2368.659014,-13545.768739,-842.705048
530.106060,6217.729913,-13545.768739,229.828649
530.106383,8512.368333,-10362.883188,995.924147
530.106705,7846.182985,-6439.791695,1685.410096
530.107027,7105.977043,-4367.215058,919.314598
530.107350,5625.565159,-5033.400406,-2604.724693
530.107672,2072.576638,-6661.853478,-2221.676944
530.107994,-1258.350101,-7031.956449,919.314598
530.108316,-2590.720797,-7105.977043,-306.438199
530.108639,-3330.926739,-8586.388927,-3064.381992
530.108961,-5181.441594,-9400.615463,-2374.896044
530.109283,-7846.182985,-9770.718434,-1532.190996
530.109606,-9400.615463,-9770.718434,-3064.381992
530.109928,-7624.121203,-14211.954086,-4673.182538
530.110250,-4959.379811,-14137.933492,-4290.134789
530.110572,-1480.411884,-11843.295072,-5362.668486
530.110895,3108.864956,-12065.356855,-4060.306139
530.111217,6661.853478,-12065.356855,612.876398
530.111539,8438.347739,-10658.965565,3753.867940
530.111862,8586.388927,-6809.894666,3064.381992
530.112184,7624.121203,-4515.256246,-153.219100
530.112506,5181.441594,-6069.688724,-3294.210641
530.112828,1406.391290,-6661.853478,-2757.943793
530.113151,-2590.720797,-5699.585753,-383.047749
530.113473,-5255.462188,-5773.606348,-1149.143247
530.113795,-5773.606348,-8364.327145,-4060.306139
530.114118,-7031.956449,-9992.780217,-3217.601092
530.114440,-9326.594869,-10732.986159,-2681.334243
530.114762,-11399.171507,-11621.233289,-2451.505594
530.115085,-10732.986159,-14137.933492,-3600.648841
530.115407,-6291.750507,-14508.036463,-4443.353888
530.115729,-1110.308913,-12435.459826,-5515.887586
530.116051,3404.947333,-11029.068536,-3677.258390
530.116374,6217.729913,-10362.883188,459.657299
530.116696,7920.203579,-8586.388927,3294.210641
530.117018,8290.306550,-5255.462188,1378.971896
530.117341,7031.956449,-3627.009116,-1685.410096
530.117663,4663.297435,-6439.791695,-2834.553343
530.117985,1628.453072,-8660.409521,-1838.629195
530.118307,-740.205942,-7994.224174,-306.438199
530.118630,-2738.761985,-8068.244768,-1455.581446
530.118952,-3775.050304,-8660.409521,-2221.676944
530.119274,-5329.482782,-8734.430116,-1378.971896
530.119597,-7105.977043,-8956.491898,-2374.896044
530.119919,-8142.265362,-11621.233289,-3830.477490
530.120241,-6217.729913,-14952.160028,-3983.696590
530.120564,-2072.576638,-15322.262999,-3140.991542
530.120886,2072.576638,-13175.665768,-2298.286494
530.121208,5477.523971,-11621.233289,-229.828649
530.121530,7105.977043,-9770.718434,1915.238745
530.121853,7846.182985,-6217.729913,2145.067394
530.122175,8364.327145,-3108.864956,-1225.752797
530.122497,7105.977043,-4367.215058,-2757.943793
530.122820,3775.050304,-7772.162391,-2374.896044
530.123142,0.000000,-8216.285956,995.924147
530.123464,-3330.926739,-8956.491898,76.609550
530.123786,-4441.235652,-10510.924376,-2068.457845
530.124109,-6365.771101,-10214.842000,-3140.991542
530.124431,-7994.224174,-8660.409521,-3217.601092
530.124753,-8882.471304,-8512.368333,-3524.039291
530.125076,-7105.977043,-12435.459826,-2145.067394
530.125398,-4663.297435,-13989.892304,-1378.971896
530.125720,-888.247130,-12139.377449,-2987.772442
530.126042,2442.679609,-10955.047942,-2911.162892
530.126365,6513.812290,-11251.130318,383.047749
530.126687,8142.265362,-9400.615463,2834.553343
530.127009,8512.368333,-5329.482782,1532.190996
530.127332,7994.224174,-3701.029710,-153.219100
530.127654,6661.853478,-4885.359217,-1072.533697
530.127976,3108.864956,-7402.059420,-1149.143247
530.128299,-1998.556043,-8142.265362,689.485948
530.128621,-5107.421000,-7328.038826,-153.219100
530.128943,-6291.750507,-8364.327145,-3907.087040
530.129265,-7476.080014,-10066.800811,-5132.839837
530.129588,-9474.636058,-11325.150913,-2145.067394
530.129910,-11843.295072,-11621.233289,-842.705048
530.130232,-10807.006753,-12213.398043,-2681.334243
530.130555,-6735.874072,-12657.521608,-4136.915689
530.130877,-1480.411884,-11917.315666,-5592.497135
530.131199,3627.009116,-12139.377449,-4903.011187
530.131521,8808.450710,-12065.356855,459.657299
530.131844,10807.006753,-9622.677246,3983.696590
530.132166,11399.171507,-5403.503377,3140.991542
530.132488,10214.842000,-3997.112087,612.876398
530.132811,6957.935855,-6291.750507,-1378.971896
530.133133,1850.514855,-8216.285956,-1762.019645
530.133455,-2368.659014,-7476.080014,-1991.848295
530.133778,-3552.988522,-7476.080014,-2221.676944
530.134100,-4811.338623,-8882.471304,-3753.867940
530.134422,-6661.853478,-10436.903782,-1532.190996
530.134744,-10066.800811,-9770.718434,0.000000
530.135067,-11547.212695,-11399.171507,-2757.943793
530.135389,-10140.821405,-13989.892304,-6281.983084
530.135711,-5847.626942,-14211.954086,-6741.640382
530.136034,-1332.370696,-12435.459826,-5592.497135
530.136356,4219.173869,-11991.336260,-2757.943793
530.136678,8068.244768,-11399.171507,1762.019645
530.137000,10140.821405,-8586.388927,4290.134789
530.137323,10436.903782,-4293.194464,1838.629195
530.137645,8956.491898,-2516.700203,-2451.505594
530.137967,5625.565159,-5329.482782,-3064.381992
530.138290,1776.494261,-8142.265362,-689.485948
530.138612,-1998.556043,-7994.224174,536.266849
530.138934,-5033.400406,-8142.265362,-1838.629195
530.139256,-7476.080014,-9400.615463,-3064.381992
530.139579,-8364.327145,-11103.089130,-1838.629195
530.139901,-9622.677246,-11177.109724,-3140.991542
530.140223,-9992.780217,-12287.418637,-3524.039291
530.140546,-7920.203579,-13101.645173,-3140.991542
530.140868,-2886.803174,-13397.727550,-2834.553343
530.141190,3108.864956,-11769.274478,-2528.115143
530.141513,7254.018232,-9992.780217,-1608.800546
530.141835,9622.677246,-8882.471304,536.266849
530.142157,10881.027347,-7105.977043,2757.943793
530.142479,10658.965565,-4515.256246,1302.362347
530.142802,7402.059420,-5403.503377,-1608.800546
530.143124,3108.864956,-8216.285956,-995.924147
530.143446,-962.267725,-8290.306550,-919.314598
530.143769,-4071.132681,-7254.018232,-2681.334243
530.144091,-5329.482782,-7994.224174,-3677.258390
530.144413,-7328.038826,-10362.883188,-3064.381992
530.144735,-9844.739029,-10807.006753,-1532.190996
530.145058,-10807.006753,-11177.109724,-766.095498
530.145380,-8586.388927,-13397.727550,-2068.457845
530.145702,-5181.441594,-14804.118840,-4443.353888
530.146025,-1110.308913,-12879.583391,-5209.449386
530.146347,3330.926739,-11621.233289,-2757.943793
530.146669,6883.915261,-9770.718434,1991.848295
530.146991,9474.636058,-6143.709319,3983.696590
530.147314,10584.944971,-2738.761985,1991.848295
530.147636,9622.677246,-3108.864956,-766.095498
530.147958,6217.729913,-7179.997637,-1302.362347
530.148281,1184.329507,-8734.430116,-306.438199
530.148603,-2590.720797,-8734.430116,229.828649
530.148925,-4219.173869,-8438.347739,-1378.971896
530.149248,-4219.173869,-9178.553681,-3447.429741
530.149570,-8142.265362,-8586.388927,-3447.429741
530.149892,-11769.274478,-10362.883188,-1532.190996
530.150214,-12287.418637,-13249.686362,-1532.190996
530.150537,-11103.089130,-13693.809927,-4290.134789
530.150859,-8142.265362,-13249.686362,-4596.572988
530.151181,-2590.720797,-12879.583391,-5362.668486
530.151504,3478.967927,-12879.583391,-2987.772442
530.151826,7476.080014,-11473.192101,2451.505594
530.152148,9252.574275,-7402.059420,5286.058936
530.152470,10584.944971,-2590.720797,1608.800546
530.152793,10436.903782,-2072.576638,-2145.067394
530.153115,7476.080014,-5033.400406,-2145.067394
530.153437,1850.514855,-7105.977043,-612.876398
530.153760,-2812.782580,-7994.224174,-1532.190996
530.154082,-4515.256246,-9622.677246,-2221.676944
530.154404,-4885.359217,-11769.274478,-2987.772442
530.154727,-7624.121203,-11917.315666,-2987.772442
530.155049,-9178.553681,-12583.501014,-2374.896044
530.155371,-10140.821405,-12509.480420,-1915.238745
530.155693,-8734.430116,-12953.603985,-3064.381992
530.156016,-4367.215058,-11473.192101,-3600.648841
530.156338,2146.597232,-11177.109724,-5209.449386
530.156660,6809.894666,-10584.944971,-3983.696590
530.156983,8290.306550,-9474.636058,1991.848295
530.157305,9326.594869,-7031.956449,5975.544884
530.157627,10288.862594,-4441.235652,2911.162892
530.157949,9178.553681,-3849.070898,-2604.724693
530.158272,4959.379811,-5995.668130,-3600.648841
530.158594,444.123565,-6883.915261,-612.876398
530.158916,-2368.659014,-6883.915261,-383.047749
530.159239,-4737.318029,-8290.306550,-2987.772442
530.159561,-7254.018232,-10362.883188,-3294.210641
530.159883,-9400.615463,-10955.047942,-3830.477490
530.160205,-10140.821405,-13249.686362,-4060.306139
530.160528,-9770.718434,-15248.242405,-3753.867940
530.160850,-6883.915261,-16136.489536,-3907.087040
530.161172,-2368.659014,-13989.892304,-4366.744339
530.161495,3256.906145,-10955.047942,-2451.505594
530.161817,8068.244768,-9696.697840,459.657299
530.162139,10881.027347,-8068.244768,2451.505594
530.162462,11843.295072,-3404.947333,3294.210641
530.162784,10955.047942,-740.205942,2068.457845
530.163106,7624.121203,-3034.844362,0.000000
530.163428,3108.864956,-6883.915261,0.000000
530.163751,-962.267725,-8068.244768,-153.219100
530.164073,-3108.864956,-7920.203579,-3524.039291
530.164395,-5921.647536,-8438.347739,-4213.525239
530.164718,-9474.636058,-10436.903782,-2911.162892
530.165040,-12065.356855,-11399.171507,-2834.553343
530.165362,-13915.871710,-13693.809927,-3524.039291
530.165684,-13545.768739,-15914.427753,-4366.744339
530.166007,-9474.636058,-15396.283594,-6358.592633
530.166329,-3552.988522,-13323.706956,-8427.050478
530.166651,2886.803174,-12583.501014,-5286.058936
530.166974,7698.141797,-11547.212695,1762.019645
530.167296,9696.697840,-8290.306550,5745.716235
530.167618,10510.924376,-2886.803174,3524.039291
530.167940,10584.944971,-1776.494261,-919.314598
530.168263,7254.018232,-4367.215058,-2221.676944
530.168585,2664.741391,-6957.935855,689.485948
530.168907,-1258.350101,-7031.956449,2451.505594
530.169230,-2664.741391,-6217.729913,-995.924147
530.169552,-2812.782580,-7698.141797,-3983.696590
530.169874,-4737.318029,-10066.800811,-1762.019645
530.170197,-7846.182985,-12435.459826,-1455.581446
530.170519,-10658.965565,-14211.954086,-1915.238745
530.170841,-10362.883188,-15248.242405,-3217.601092
530.171163,-6513.812290,-14434.015869,-5669.106685
530.171486,-1850.514855,-13619.789333,-6205.373534
530.171808,2442.679609,-11843.295072,-2834.553343
530.172130,5551.544565,-9252.574275,842.705048
530.172453,8068.244768,-6365.771101,2604.724693
530.172775,9178.553681,-3552.988522,2145.067394
530.173097,7920.203579,-4293.194464,-459.657299
530.173419,2516.700203,-6439.791695,-2221.676944
530.173742,-1628.453072,-8068.244768,-383.047749
530.174064,-3923.091493,-7031.956449,-536.266849
530.174386,-4145.153275,-6513.812290,-3600.648841
530.174709,-4071.132681,-8142.265362,-4366.744339
530.175031,-7105.977043,-9844.739029,-2145.067394
530.175353,-9030.512492,-12657.521608,-459.657299
530.175676,-9326.594869,-15026.180623,-1762.019645
530.175998,-7550.100608,-16210.510130,-3600.648841
530.176320,-3552.988522,-14211.954086,-5439.278036
530.176642,2664.741391,-11843.295072,-4673.182538
530.176965,6661.853478,-10584.944971,0.000000
530.177287,9474.636058,-7920.203579,4443.353888
530.177609,11103.089130,-3849.070898,5056.230287
530.177932,10955.047942,-1110.308913,2451.505594
530.178254,8808.450710,-3923.091493,-842.705048
530.178576,3849.070898,-7328.038826,-2145.067394
530.178898,-666.185348,-8364.327145,-1532.190996
530.179221,-2368.659014,-9474.636058,-1762.019645
530.179543,-3775.050304,-9178.553681,-2451.505594
530.179865,-6143.709319,-8364.327145,-3370.820191
530.180188,-9178.553681,-11103.089130,-3524.039291
530.180510,-10584.944971,-12953.603985,-3294.210641
530.180832,-11325.150913,-15322.262999,-4213.525239
530.181154,-9844.739029,-15544.324782,-4596.572988
530.181477,-4737.318029,-13323.706956,-5362.668486
530.181799,1554.432478,-12213.398043,-5439.278036
530.182121,6587.832884,-11103.089130,-1072.533697
530.182444,9030.512492,-8808.450710,4596.572988
530.182766,9696.697840,-3997.112087,5209.449386
530.183088,9548.656652,-370.102971,995.924147
530.183411,6809.894666,-2072.576638,-1762.019645
530.183733,2812.782580,-6069.688724,-766.095498
530.184055,74.020594,-8290.306550,-612.876398
530.184377,-1036.288319,-8438.347739,-2068.457845
530.184700,-2220.617826,-9474.636058,-3830.477490
530.185022,-3404.947333,-11177.109724,-2221.676944
530.185344,-5921.647536,-12583.501014,-1455.581446
530.185667,-9030.512492,-13175.665768,-2604.724693
530.185989,-10214.842000,-14582.057057,-3064.381992
530.186311,-8364.327145,-14359.995275,-4060.306139
530.186633,-3108.864956,-13027.624579,-6894.859482
530.186956,1406.391290,-10658.965565,-4673.182538
530.187278,4367.215058,-9474.636058,1685.410096
530.187600,6513.812290,-7328.038826,5822.325785
530.187923,8364.327145,-3627.009116,4519.963438
530.188245,7402.059420,-2294.638420,-76.609550
530.188567,3182.885551,-4219.173869,-2221.676944
530.188889,-1184.329507,-7402.059420,-995.924147
530.189212,-2960.823768,-8216.285956,-1532.190996
530.189534,-3923.091493,-7994.224174,-3447.429741
530.189856,-4737.318029,-8438.347739,-3983.696590
530.190179,-5329.482782,-9918.759623,-2298.286494
530.190501,-6291.750507,-13175.665768,-2681.334243
530.190823,-7920.203579,-14952.160028,-2451.505594
530.191146,-7846.182985,-15174.221811,-3064.381992
530.191468,-5033.400406,-13915.871710,-4290.134789
530.191790,-370.102971,-11991.336260,-4749.792088
530.192112,4663.297435,-10288.862594,-2604.724693
530.192435,7105.977043,-9030.512492,2298.286494
530.192757,8660.409521,-5699.585753,4979.620737
530.193079,9696.697840,-2738.761985,3217.601092
530.193402,8142.265362,-3997.112087,-612.876398
530.193724,4589.276840,-6883.915261,-2451.505594
530.194046,-296.082377,-7550.100608,-995.924147
530.194368,-3701.029710,-7402.059420,-2221.676944
530.194691,-5107.421000,-7772.162391,-4213.525239
530.195013,-6291.750507,-8808.450710,-4903.011187
530.195335,-8364.327145,-9622.677246,-5286.058936
530.195657,-9178.553681,-13101.645173,-3524.039291
530.195980,-7772.162391,-17542.880825,-3524.039291
530.196302,-4737.318029,-18949.272115,-3983.696590
530.196624,-666.185348,-16284.530724,-4673.182538
530.196947,4145.153275,-13323.706956,-2221.676944
530.197269,7105.977043,-10140.821405,1302.362347
530.197591,8734.430116,-5847.626942,3294.210641
530.197913,8882.471304,-1702.473667,3907.087040
530.198236,7476.080014,148.041188,1532.190996
530.198558,4367.215058,-2812.782580,-612.876398
530.198880,888.247130,-6217.729913,-306.438199
530.199202,-1480.411884,-7624.121203,-766.095498
530.199525,-2072.576638,-8956.491898,-3064.381992
530.199847,-1110.308913,-10288.862594,-2757.943793
530.200169,-3478.967927,-9696.697840,-2604.724693
530.200491,-6291.750507,-9770.718434,-3064.381992
530.200814,-9474.636058,-11251.130318,-3524.039291
530.201136,-9696.697840,-15248.242405,-3907.087040
530.201458,-7846.182985,-16136.489536,-6588.421283
530.201781,-3775.050304,-15174.221811,-7431.126331
530.202103,1110.308913,-14211.954086,-3983.696590
530.202425,5625.565159,-11991.336260,1302.362347
530.202747,8068.244768,-7179.997637,5745.716235
530.203070,8808.450710,-1998.556043,5362.668486
530.203392,7698.141797,-370.102971,76.609550
530.203714,3923.091493,-2442.679609,-2681.334243
530.204036,-1332.370696,-3923.091493,-536.266849
530.204359,-4441.235652,-4515.256246,0.000000
530.204681,-4367.215058,-7328.038826,-4213.525239
530.205003,-4071.132681,-10732.986159,-4290.134789
530.205325,-5033.400406,-12287.418637,-766.095498
530.205648,-7254.018232,-13027.624579,-842.705048
530.205970,-8068.244768,-14211.954086,-2987.772442
530.206292,-7846.182985,-16580.613101,-4596.572988
530.206615,-5329.482782,-15988.448347,-4979.620737
530.206937,-1184.329507,-13175.665768,-7048.078582
530.207259,3256.906145,-11843.295072,-4749.792088
530.207581,6217.729913,-9992.780217,1608.800546
530.207904,8068.244768,-7179.997637,4596.572988
530.208226,9252.574275,-4293.194464,3524.039291
530.208548,7772.162391,-4663.297435,459.657299
530.208870,3849.070898,-5477.523971,-766.095498
530.209193,-740.205942,-5329.482782,612.876398
530.209515,-1998.556043,-4885.359217,0.000000
530.209837,-1776.494261,-5625.565159,-2987.772442
530.210159,-1924.535449,-7179.997637,-3447.429741
530.210482,-3256.906145,-9622.677246,-2834.553343
530.210804,-5107.421000,-13323.706956,-2451.505594
530.211126,-6291.750507,-16358.551318,-3294.210641
530.211448,-6587.832884,-18061.024985,-3830.477490
530.211771,-3627.009116,-16728.654289,-5898.935335
530.212093,888.247130,-13619.789333,-5592.497135
530.212415,3997.112087,-10436.903782,-1532.190996
530.212738,5477.523971,-6809.894666,3370.820191
530.213060,7328.038826,-2590.720797,4903.011187
530.213382,7846.182985,-1110.308913,2221.676944
530.213704,5477.523971,-3627.009116,-536.266849
530.214027,888.247130,-6809.894666,0.000000
530.214349,-2294.638420,-7994.224174,536.266849
530.214671,-3108.864956,-8512.368333,-1302.362347
530.214993,-3256.906145,-8512.368333,-2604.724693
530.215316,-4145.153275,-7994.224174,-1915.238745
530.215638,-7328.038826,-6735.874072,-2681.334243
530.215960,-8068.244768,-10807.006753,-4213.525239
530.216282,-7402.059420,-15174.221811,-4979.620737
530.216605,-5477.523971,-17468.860231,-4903.011187
530.216927,-1850.514855,-17320.819043,-5592.497135
530.217249,2220.617826,-14582.057057,-3983.696590
530.217572,6291.750507,-12583.501014,766.095498
530.217894,8512.368333,-8586.388927,3447.429741
530.218216,9400.615463,-3404.947333,3294.210641
530.218538,7624.121203,-592.164754,1072.533697
530.218861,3923.091493,-1924.535449,-383.047749
530.219183,-962.267725,-5847.626942,612.876398
530.219505,-4663.297435,-5921.647536,306.438199
530.219827,-4441.235652,-7994.224174,-3064.381992
530.220150,-3923.091493,-10584.944971,-4366.744339
530.220472,-4885.359217,-10362.883188,-1455.581446
530.220794,-7328.038826,-10140.821405,-1455.581446
530.221116,-7698.141797,-12731.542202,-4060.306139
530.221439,-7402.059420,-14137.933492,-4673.182538
530.221761,-5921.647536,-14359.995275,-5745.716235
530.222083,-1628.453072,-14063.912898,-7201.297681
530.222406,3256.906145,-13767.830521,-4213.525239
530.222728,6291.750507,-11621.233289,1762.019645
530.223050,7105.977043,-7105.977043,4826.401637
530.223372,8364.327145,-3034.844362,3753.867940
530.223695,7550.100608,-4663.297435,-536.266849
530.224017,3997.112087,-6661.853478,-2145.067394
530.224339,-1776.494261,-5033.400406,-306.438199
530.224661,-4145.153275,-5181.441594,-919.314598
530.224984,-3330.926739,-8586.388927,-2911.162892
530.225306,-2516.700203,-8808.450710,-1685.410096
530.225628,-5773.606348,-7402.059420,-1532.190996
530.225950,-7254.018232,-10214.842000,-2221.676944
530.226273,-6957.935855,-13693.809927,-2834.553343
530.226595,-4737.318029,-15100.201217,-3370.820191
530.226917,-2442.679609,-14359.995275,-5056.230287
530.227239,592.164754,-12657.521608,-5745.716235
530.227562,3775.050304,-12583.501014,-1378.971896
530.227884,6291.750507,-10955.047942,2451.505594
530.228206,7179.997637,-5773.606348,3064.381992
530.228529,6661.853478,-3256.906145,842.705048
530.228851,4589.276840,-5329.482782,-1608.800546
530.229173,0.000000,-7179.997637,-1302.362347
530.229495,-3627.009116,-6587.832884,-383.047749
530.229818,-4737.318029,-6365.771101,-2298.286494
530.230140,-3923.091493,-8364.327145,-3830.477490
530.230462,-4737.318029,-9030.512492,-3294.210641
530.230784,-7698.141797,-9400.615463,-1532.190996
530.231107,-10510.924376,-11029.068536,-1608.800546
530.231429,-10807.006753,-14582.057057,-2451.505594
530.231751,-9992.780217,-15618.345376,-4519.963438
530.232073,-7476.080014,-11769.274478,-5898.935335
530.232396,-2960.823768,-10510.924376,-5669.106685
530.232718,2146.597232,-10066.800811,-1838.629195
530.233040,5625.565159,-9696.697840,1915.238745
530.233363,6957.935855,-6957.935855,2298.286494
530.233685,6883.915261,-5847.626942,536.266849
530.234007,5699.585753,-6809.894666,-1991.848295
530.234329,962.267725,-6661.853478,-2374.896044
530.234652,-3256.906145,-6809.894666,-229.828649
530.234974,-4293.194464,-6957.935855,-1915.238745
530.235296,-3775.050304,-8068.244768,-5209.449386
530.235618,-5107.421000,-9844.739029,-4443.353888
530.235941,-8142.265362,-11843.295072,-1532.190996
530.236263,-9844.739029,-13175.665768,-1149.143247
530.236585,-9030.512492,-15100.201217,-2145.067394
530.236907,-7402.059420,-13545.768739,-4213.525239
530.237230,-4663.297435,-11843.295072,-4366.744339
530.237552,-1184.329507,-9696.697840,-2451.505594
530.237874,2072.576638,-8660.409521,383.047749
530.238197,4145.153275,-6439.791695,2145.067394
530.238519,5551.544565,-4367.215058,1991.848295
530.238841,6809.894666,-3478.967927,919.314598
530.239163,5699.585753,-5773.606348,-1302.362347
530.239486,888.247130,-7846.182985,-2145.067394
530.239808,-4959.379811,-9326.594869,0.000000
530.240130,-7846.182985,-9770.718434,0.000000
530.240452,-7624.121203,-9030.512492,-3524.039291
530.240775,-7179.997637,-8882.471304,-7124.688131
530.241097,-9104.533087,-9622.677246,-6818.249932
530.241419,-10510.924376,-11843.295072,-1762.019645
530.241741,-10288.862594,-13323.706956,-612.876398
530.242064,-7698.141797,-14878.139434,-2145.067394
530.242386,-5403.503377,-14656.077652,-4366.744339
530.242708,-4959.379811,-10807.006753,-2374.896044
530.243030,-3256.906145,-6439.791695,612.876398
530.243353,1184.329507,-5107.421000,842.705048
530.243675,6143.709319,-5033.400406,-536.266849
530.243997,8216.285956,-5033.400406,689.485948
530.244320,7328.038826,-4293.194464,2451.505594
530.244642,6143.709319,-5329.482782,3294.210641
530.244964,4663.297435,-8364.327145,919.314598
530.245286,1036.288319,-10140.821405,-3064.381992
530.245609,-3701.029710,-10288.862594,-4903.011187
530.245931,-7550.100608,-10584.944971,-4979.620737
530.246253,-7920.203579,-11917.315666,-4673.182538
530.246575,-7624.121203,-13471.748144,-5975.544884
530.246898,-6365.771101,-13471.748144,-5056.230287
530.247220,-5847.626942,-12509.480420,-2221.676944
530.247542,-5033.400406,-11695.253884,-1072.533697
530.247864,-4071.132681,-11473.192101,-766.095498
530.248187,-2886.803174,-10732.986159,-2145.067394
530.248509,-2590.720797,-9770.718434,-1762.019645
530.248831,-2738.761985,-7179.997637,919.314598
530.249154,-1406.391290,-4737.318029,3294.210641
530.249476,888.247130,-3404.947333,2374.896044
530.249798,2368.659014,-3330.926739,459.657299
530.250120,2590.720797,-4515.256246,-995.924147
530.250443,2368.659014,-6735.874072,-1915.238745
530.250765,1998.556043,-9622.677246,-2145.067394
530.251087,1406.391290,-12731.542202,-3983.696590
530.251409,0.000000,-12657.521608,-4060.306139
530.251732,-2590.720797,-12435.459826,-4903.011187
530.252054,-5551.544565,-12953.603985,-4443.353888
530.252376,-7772.162391,-13545.768739,-3370.820191
530.252698,-8216.285956,-13249.686362,-2068.457845
530.253021,-7772.162391,-10436.903782,-2834.553343
530.253343,-5699.585753,-8808.450710,-3064.381992
530.253665,-3182.885551,-7254.018232,-995.924147
530.253988,-1554.432478,-6661.853478,1532.190996
530.254310,-518.144159,-5625.565159,2681.334243
530.254632,148.041188,-4737.318029,1455.581446
530.254954,-740.205942,-5033.400406,-766.095498
530.255277,-2812.782580,-7402.059420,-1455.581446
530.255599,-5699.585753,-9770.718434,-1532.190996
530.255921,-7402.059420,-11325.150913,-2145.067394
530.256243,-7179.997637,-11325.150913,-2911.162892
530.256566,-4663.297435,-11029.068536,-4290.134789
530.256888,-1702.473667,-10955.047942,-4443.353888
530.257210,0.000000,-11991.336260,-3524.039291
530.257532,296.082377,-11473.192101,-1378.971896
530.257855,1184.329507,-11251.130318,-1225.752797
530.258177,1924.535449,-11399.171507,-1915.238745
530.258499,2220.617826,-10807.006753,-2757.943793
530.258821,444.123565,-9474.636058,-2221.676944
530.259144,-1480.411884,-8068.244768,-536.266849
530.259466,-2590.720797,-7698.141797,919.314598
530.259788,-3849.070898,-7254.018232,1608.800546
530.260111,-4441.235652,-5773.606348,306.438199
530.260433,-5033.400406,-4219.173869,-2451.505594
530.260755,-4441.235652,-5551.544565,-3753.867940
530.261077,-3923.091493,-8956.491898,-3064.381992
530.261400,-3552.988522,-9992.780217,-1685.410096
530.261722,-3404.947333,-10881.027347,-2145.067394
530.262044,-3108.864956,-11843.295072,-2987.772442
530.262366,-2738.761985,-12213.398043,-3907.087040
530.262689,-2442.679609,-12213.398043,-4596.572988
530.263011,-3256.906145,-11547.212695,-4903.011187
530.263333,-2738.761985,-11843.295072,-2528.115143
530.263655,-2072.576638,-12287.418637,-536.266849
530.263978,-2368.659014,-10658.965565,766.095498
530.264300,-3552.988522,-8438.347739,842.705048
530.264622,-3997.112087,-6439.791695,76.609550
530.264945,-1924.535449,-4885.359217,-1455.581446
530.265267,-962.267725,-4145.153275,-2298.286494
530.265589,296.082377,-4219.173869,-1302.362347
530.265911,740.205942,-5551.544565,-229.828649
530.266234,1776.494261,-7772.162391,-689.485948
530.266556,2368.659014,-9992.780217,-1685.410096
530.266878,1480.411884,-11843.295072,-2528.115143
530.267200,-1036.288319,-12065.356855,-3830.477490
530.267523,-2960.823768,-12213.398043,-4290.134789
530.267845,-3701.029710,-12435.459826,-4519.963438
530.268167,-3775.050304,-12805.562797,-4290.134789
530.268489,-4145.153275,-12361.439231,-3140.991542
530.268812,-5329.482782,-11473.192101,-1378.971896
530.269134,-6217.729913,-9770.718434,-689.485948
530.269456,-5995.668130,-7920.203579,-1072.533697
530.269779,-4959.379811,-6661.853478,-1455.581446
530.270101,-3256.906145,-6069.688724,-1455.581446
530.270423,-2146.597232,-5255.462188,-689.485948
530.270745,-1480.411884,-5625.565159,-459.657299
530.271068,666.185348,-7179.997637,459.657299
530.271390,2590.720797,-9770.718434,0.000000
530.271712,3404.947333,-11177.109724,-1915.238745
530.272034,3256.906145,-13101.645173,-2528.115143
530.272357,666.185348,-12361.439231,-1608.800546
530.272679,-2590.720797,-11399.171507,-1991.848295
530.273001,-5477.523971,-11547.212695,-2834.553343
530.273323,-8068.244768,-11547.212695,-3064.381992
530.273646,-11029.068536,-9992.780217,-3447.429741
530.273968,-12435.459826,-8808.450710,-3677.258390
530.274290,-11325.150913,-8660.409521,-1762.019645
530.274612,-8142.265362,-8216.285956,-1225.752797
530.274935,-4219.173869,-7105.977043,-1225.752797
530.275257,-518.144159,-5477.523971,-229.828649
530.275579,1776.494261,-4885.359217,306.438199
530.275902,2590.720797,-5181.441594,229.828649
530.276224,2368.659014,-6957.935855,-995.924147
530.276546,1850.514855,-9474.636058,-3140.991542
530.276868,1480.411884,-12435.459826,-3370.820191
530.277191,1850.514855,-14137.933492,-1991.848295
530.277513,518.144159,-13619.789333,-1225.752797
530.277835,-1258.350101,-12509.480420,153.219100
530.278157,-2590.720797,-10807.006753,306.438199
530.278480,-4663.297435,-9400.615463,-766.095498
530.278802,-6809.894666,-8290.306550,-1838.629195
530.279124,-7920.203579,-7994.224174,-2451.505594
530.279446,-7846.182985,-8586.388927,-2221.676944
530.279769,-5477.523971,-9622.677246,-306.438199
530.280091,-3552.988522,-8660.409521,1608.800546
530.280413,-1998.556043,-8068.244768,2068.457845
530.280736,518.144159,-7624.121203,689.485948
530.281058,2294.638420,-6883.915261,-612.876398
530.281380,3404.947333,-6735.874072,-2374.896044
530.281702,3478.967927,-7105.977043,-3677.258390
530.282025,2886.803174,-9104.533087,-3447.429741
530.282347,1702.473667,-10066.800811,-3217.601092
530.282669,-444.123565,-10807.006753,-3140.991542
530.282991,-3330.926739,-11991.336260,-3447.429741
530.283314,-5181.441594,-13471.748144,-3600.648841
530.283636,-6587.832884,-13619.789333,-3140.991542
530.283958,-7698.141797,-11843.295072,-2451.505594
530.284280,-7624.121203,-10214.842000,-1532.190996
530.284603,-6587.832884,-7550.100608,-1072.533697
530.284925,-4515.256246,-6883.915261,-1225.752797
530.285247,-3330.926739,-5329.482782,-383.047749
530.285569,-2664.741391,-4293.194464,536.266849
530.285892,-2368.659014,-5329.482782,-306.438199
530.286214,-2368.659014,-8142.265362,-612.876398
530.286536,-2072.576638,-10362.883188,-995.924147
530.286859,-2146.597232,-10955.047942,-1991.848295
530.287181,-1258.350101,-11029.068536,-2834.553343
530.287503,0.000000,-11621.233289,-3370.820191
530.287825,888.247130,-11843.295072,-2145.067394
530.288148,814.226536,-11177.109724,-842.705048
530.288470,0.000000,-10807.006753,-383.047749
530.288792,-1480.411884,-10807.006753,-995.924147
530.289114,-2590.720797,-9918.759623,-1991.848295
530.289437,-4219.173869,-8290.306550,-3064.381992
530.289759,-5699.585753,-7031.956449,-2987.772442
530.290081,-5773.606348,-6069.688724,-2221.676944
530.290403,-5699.585753,-5847.626942,-1685.410096
530.290726,-5921.647536,-6069.688724,-1685.410096
530.291048,-5329.482782,-7179.997637,-2374.896044
530.291370,-4811.338623,-8956.491898,-3983.696590
530.291693,-4515.256246,-11103.089130,-4749.792088
530.292015,-4441.235652,-12287.418637,-4366.744339
530.292337,-3997.112087,-12657.521608,-3600.648841
530.292659,-2960.823768,-12361.439231,-3524.039291
530.292982,-1850.514855,-11843.295072,-3294.210641
530.293304,-370.102971,-11029.068536,-2681.334243
530.293626,518.144159,-10214.842000,-2451.505594
530.293948,1184.329507,-9992.780217,-1608.800546
530.294271,1406.391290,-9770.718434,-229.828649
530.294593,1110.308913,-9178.553681,612.876398
530.294915,1332.370696,-7772.162391,766.095498
530.295237,1184.329507,-6439.791695,-306.438199
530.295560,814.226536,-5921.647536,-612.876398
530.295882,296.082377,-5921.647536,0.000000
530.296204,-592.164754,-6883.915261,-306.438199
530.296527,-1258.350101,-8586.388927,-919.314598
530.296849,-1036.288319,-10436.903782,-1685.410096
530.297171,-962.267725,-11917.315666,-2221.676944
530.297493,-1036.288319,-12657.521608,-2298.286494
530.297816,-1258.350101,-13175.665768,-1378.971896
530.298138,-2294.638420,-12139.377449,-995.924147
530.298461,-2738.761985,-10288.862594,-1378.971896
530.298783,-3034.844362,-9474.636058,-1838.629195
530.299106,-3404.947333,-8808.450710,-2068.457845
530.299428,-3627.009116,-8512.368333,-1685.410096
530.299751,-3849.070898,-9326.594869,-612.876398
530.300073,-4145.153275,-8586.388927,0.000000
530.300395,-4515.256246,-7624.121203,-459.657299
530.300718,-4737.318029,-6513.812290,-1072.533697
530.301040,-5181.441594,-5477.523971,-1838.629195
530.301363,-5033.400406,-5699.585753,-2834.553343
530.301685,-4441.235652,-7105.977043,-3140.991542
530.302008,-4959.379811,-8660.409521,-2298.286494
530.302330,-4737.318029,-9992.780217,-2221.676944
530.302652,-3923.091493,-12139.377449,-2834.553343
530.302975,-2368.659014,-13101.645173,-2604.724693
530.303297,-1702.473667,-12805.562797,-1991.848295
530.303620,-1406.391290,-10955.047942,-612.876398
530.303942,-1184.329507,-9548.656652,-919.314598
530.304265,-1480.411884,-8438.347739,-1072.533697
530.304587,-2146.597232,-7994.224174,-995.924147
530.304910,-3849.070898,-8068.244768,229.828649
530.305232,-4589.276840,-8438.347739,229.828649
530.305554,-5403.503377,-7994.224174,-766.095498
530.305877,-4959.379811,-7698.141797,-1149.143247
530.306199,-3923.091493,-8512.368333,-689.485948
530.306522,-2738.761985,-8808.450710,-459.657299
530.306844,-2294.638420,-8586.388927,-1149.143247
530.307167,-1258.350101,-8512.368333,-2681.334243
530.307489,148.041188,-10584.944971,-3677.258390
530.307811,518.144159,-12139.377449,-3140.991542
530.308134,148.041188,-12731.542202,-2145.067394
530.308456,-370.102971,-12065.356855,-1991.848295
530.308779,0.000000,-12879.583391,-2451.505594
530.309101,444.123565,-13323.706956,-1838.629195
530.309424,-222.061783,-12361.439231,-689.485948
530.309746,-1184.329507,-10881.027347,1302.362347
530.310069,-814.226536,-8956.491898,2528.115143
530.310391,74.020594,-7105.977043,1302.362347
530.310713,1110.308913,-5699.585753,1149.143247
530.311036,2220.617826,-5921.647536,1378.971896
530.311358,3034.844362,-6587.832884,1685.410096
530.311681,3552.988522,-6809.894666,1532.190996
530.312003,3552.988522,-8438.347739,1455.581446
530.312326,3923.091493,-11177.109724,1302.362347
530.312648,3478.967927,-12361.439231,995.924147
530.312970,2442.679609,-12139.377449,766.095498
530.313293,1998.556043,-11473.192101,766.095498
530.313615,1776.494261,-11103.089130,995.924147
530.313938,1258.350101,-10881.027347,1532.190996
530.314260,0.000000,-9252.574275,2374.896044
530.314583,-666.185348,-8142.265362,2451.505594
530.314905,-962.267725,-8142.265362,1838.629195
530.315228,-1110.308913,-7624.121203,1532.190996
530.315550,-1924.535449,-7550.100608,2451.505594
530.315872,-2738.761985,-7624.121203,3600.648841
530.316195,-2886.803174,-7624.121203,3830.477490
530.316517,-2812.782580,-7772.162391,3064.381992
530.316840,-3330.926739,-7994.224174,2451.505594
530.317162,-2812.782580,-9030.512492,2451.505594
530.317485,-2886.803174,-9696.697840,2221.676944
530.317807,-2590.720797,-10140.821405,2298.286494
530.318129,-2664.741391,-10881.027347,2145.067394
530.318452,-2960.823768,-11473.192101,2374.896044
530.318774,-2886.803174,-11325.150913,2298.286494
530.319097,-3404.947333,-10881.027347,1685.410096
530.319419,-3256.906145,-10066.800811,1532.190996
530.319742,-2368.659014,-9992.780217,1915.238745
530.320064,-1850.514855,-9548.656652,2451.505594
530.320387,-1702.473667,-8364.327145,3370.820191
530.320709,-666.185348,-8512.368333,3294.210641
530.321031,-518.144159,-8586.388927,2374.896044
530.321354,-666.185348,-8808.450710,1608.800546
530.321676,-814.226536,-8956.491898,1302.362347
530.321999,-1406.391290,-8956.491898,1225.752797
530.322321,-1480.411884,-9178.553681,383.047749
530.322644,-1776.494261,-9474.636058,-229.828649
530.322966,-1628.453072,-9548.656652,-1302.362347
530.323288,-666.185348,-9992.780217,-1915.238745
530.323611,-740.205942,-10288.862594,-1225.752797
530.323933,-1702.473667,-9844.739029,0.000000
530.324256,-2368.659014,-9770.718434,-689.485948
530.324578,-2590.720797,-10881.027347,-1915.238745
530.324901,-1628.453072,-10658.965565,-1838.629195
530.325223,0.000000,-9622.677246,-1915.238745
530.325546,2146.597232,-8142.265362,-2451.505594
530.325868,4663.297435,-7254.018232,-1455.581446
530.326190,6217.729913,-6883.915261,-766.095498
530.326513,5995.668130,-6809.894666,-995.924147
530.326835,4515.256246,-8068.244768,-1302.362347
530.327158,2146.597232,-9104.533087,-3217.601092
530.327480,-296.082377,-9474.636058,-4596.572988
530.327803,-3108.864956,-10066.800811,-4673.182538
530.328125,-4145.153275,-11843.295072,-4903.011187
530.328447,-3404.947333,-12361.439231,-3753.867940
530.328770,-2812.782580,-11547.212695,-3294.210641
530.329092,-222.061783,-11991.336260,-2987.772442
530.329415,2886.803174,-13767.830521,-2451.505594
530.329737,3997.112087,-13323.706956,0.000000
530.330060,4441.235652,-11251.130318,1455.581446
530.330382,4959.379811,-9326.594869,1685.410096
530.330705,6513.812290,-7624.121203,1991.848295
530.331027,6957.935855,-6439.791695,1532.190996
530.331349,5847.626942,-5255.462188,842.705048
530.331672,2812.782580,-4737.318029,2987.772442
530.331994,-296.082377,-4737.318029,3447.429741
530.332317,-3701.029710,-6291.750507,76.609550
530.332639,-5921.647536,-8734.430116,-2145.067394
530.332962,-8364.327145,-10362.883188,-3677.258390
530.333284,-8734.430116,-12435.459826,-5286.058936
530.333606,-8068.244768,-13175.665768,-4749.792088
530.333929,-6143.709319,-15396.283594,-2681.334243
530.334251,-4959.379811,-15396.283594,-919.314598
530.334574,-3775.050304,-14359.995275,-1455.581446
530.334896,-2368.659014,-13175.665768,-2911.162892
530.335219,-1184.329507,-10807.006753,-3140.991542
530.335541,-1406.391290,-9622.677246,-1302.362347
530.335864,-2590.720797,-7179.997637,1302.362347
530.336186,-3182.885551,-7402.059420,3294.210641
530.336508,-3108.864956,-7772.162391,4366.744339
530.336831,-3034.844362,-7402.059420,4136.915689
530.337153,-2886.803174,-8142.265362,3753.867940
530.337476,-3256.906145,-9252.574275,4290.134789
530.337798,-2294.638420,-9622.677246,6128.763984
530.338121,-1332.370696,-7624.121203,6511.811733
530.338443,-370.102971,-5773.606348,4903.011187
530.338765,740.205942,-4441.235652,2221.676944
530.339088,2072.576638,-4811.338623,-229.828649
530.339410,2516.700203,-6883.915261,0.000000
530.339733,3034.844362,-9622.677246,2145.067394
530.340055,4071.132681,-12435.459826,3294.210641
530.340378,5625.565159,-13175.665768,2987.772442
530.340700,6143.709319,-13175.665768,2528.115143
530.341023,5181.441594,-11917.315666,2221.676944
530.341345,3552.988522,-9400.615463,1532.190996
530.341667,370.102971,-8290.306550,1915.238745
530.341990,-3478.967927,-7328.038826,4673.182538
530.342312,-6365.771101,-5329.482782,4979.620737
530.342635,-8364.327145,-6143.709319,2528.115143
530.342957,-6513.812290,-10510.924376,689.485948
530.343280,-3849.070898,-11843.295072,2068.457845
530.343602,-1110.308913,-11177.109724,2604.724693
530.343924,2368.659014,-9844.739029,3447.429741
530.344247,6661.853478,-9548.656652,3677.258390
530.344569,9696.697840,-8586.388927,1225.752797
530.344892,8882.471304,-9104.533087,-1302.362347
530.345214,6291.750507,-8512.368333,1991.848295
530.345537,5773.606348,-7772.162391,2068.457845
530.345859,5625.565159,-9252.574275,-4366.744339
530.346182,5181.441594,-14730.098246,-4519.963438
530.346504,2812.782580,-14804.118840,-153.219100
530.346826,-1850.514855,-9992.780217,1149.143247
530.347149,-7105.977043,-10510.924376,842.705048
530.347471,-9252.574275,-13545.768739,919.314598
530.347794,-13101.645173,-13323.706956,-4290.134789
530.348116,-17912.983796,-11325.150913,-5439.278036
530.348439,-20059.581028,-8808.450710,1915.238745
530.348761,-16062.468941,-4515.256246,1072.533697
530.349083,-6957.935855,-3701.029710,-5898.935335
530.349406,2516.700203,-5551.544565,-4519.963438
530.349728,8512.368333,-6217.729913,-1991.848295
530.350051,9844.739029,-8956.491898,-1455.581446
530.350373,11991.336260,-10955.047942,4749.792088
530.350696,11621.233289,-9030.512492,4903.011187
530.351018,9548.656652,-6587.832884,-7660.954980
530.351341,7476.080014,-10732.986159,-9959.241474
530.351663,4737.318029,-12583.501014,-1608.800546
530.351985,-740.205942,-11103.089130,1302.362347
530.352308,-7846.182985,-13249.686362,1378.971896
530.352630,-11547.212695,-14211.954086,4443.353888
530.352953,-13323.706956,-11843.295072,0.000000
530.353275,-10881.027347,-9770.718434,-7660.954980
530.353598,-8512.368333,-10584.944971,-6281.983084
530.353920,-5033.400406,-9030.512492,2451.505594
530.354242,-888.247130,-2960.823768,4290.134789
530.354565,3034.844362,-1184.329507,2298.286494
530.354887,5995.668130,-4959.379811,1302.362347
530.355210,6883.915261,-8808.450710,-2451.505594
530.355532,5181.441594,-10732.986159,-4366.744339
530.355855,2960.823768,-12435.459826,-766.095498
530.356177,1998.556043,-13989.892304,1532.190996
530.356500,2368.659014,-13841.851115,-229.828649
530.356822,2072.576638,-13101.645173,-229.828649
530.357144,-888.247130,-12731.542202,0.000000
530.357467,-3478.967927,-14359.995275,-995.924147
530.357789,-4441.235652,-12139.377449,1302.362347
530.358112,-3701.029710,-8438.347739,3907.087040
530.358434,-2516.700203,-4145.153275,1838.629195
530.358757,148.041188,-4959.379811,153.219100
530.359079,2442.679609,-6513.812290,2911.162892
530.359401,3256.906145,-5033.400406,3524.039291
530.359724,2664.741391,-5477.523971,2834.553343
530.360046,1036.288319,-8660.409521,4290.134789
530.360369,-962.267725,-10510.924376,4136.915689
530.360691,-1924.535449,-11769.274478,1608.800546
530.361014,-888.247130,-12361.439231,0.000000
530.361336,2220.617826,-11843.295072,76.609550
530.361659,3108.864956,-8068.244768,0.000000
530.361981,2220.617826,-7402.059420,3140.991542
530.362303,-444.123565,-9770.718434,5439.278036
530.362626,-1628.453072,-12509.480420,2604.724693
530.362948,-2072.576638,-13619.789333,-766.095498
530.363271,-2738.761985,-13841.851115,-842.705048
530.363593,-3923.091493,-11695.253884,2757.943793
530.363916,-3923.091493,-8586.388927,6205.373534
530.364238,-1998.556043,-6513.812290,6358.592633
530.364560,888.247130,-5551.544565,3983.696590
530.364883,3182.885551,-4071.132681,1072.533697
530.365205,3256.906145,-2960.823768,-459.657299
530.365528,2368.659014,-4219.173869,-229.828649
530.365850,888.247130,-8364.327145,1455.581446
530.366173,74.020594,-13101.645173,1762.019645
530.366495,-1850.514855,-13989.892304,919.314598
530.366818,-4811.338623,-13101.645173,-995.924147
530.367140,-7179.997637,-12731.542202,-3447.429741
530.367462,-8882.471304,-14137.933492,-3830.477490
530.367785,-8734.430116,-14063.912898,-306.438199
530.368107,-7846.182985,-11251.130318,2145.067394
530.368430,-5477.523971,-8586.388927,1072.533697
530.368752,-1850.514855,-7328.038826,-1378.971896
530.369075,2072.576638,-7624.121203,-1838.629195
530.369397,2886.803174,-7476.080014,-229.828649
530.369719,1776.494261,-9992.780217,2604.724693
530.370042,370.102971,-10288.862594,5592.497135
530.370364,666.185348,-8216.285956,3524.039291
530.370687,3701.029710,-5625.565159,-1225.752797
530.371009,6661.853478,-6883.915261,-3217.601092
530.371332,8586.388927,-7476.080014,-306.438199
530.371654,8512.368333,-6883.915261,1991.848295
530.371977,8142.265362,-7031.956449,1915.238745
530.372299,6143.709319,-9474.636058,-383.047749
530.372621,2294.638420,-13693.809927,-2681.334243
530.372944,-4589.276840,-16580.613101,-2604.724693
530.373266,-9474.636058,-16358.551318,-2451.505594
530.373589,-9770.718434,-14508.036463,-3753.867940
530.373911,-7105.977043,-12953.603985,-3447.429741
530.374234,-3997.112087,-10807.006753,383.047749
530.374556,-2368.659014,-7476.080014,3983.696590
530.374878,-1480.411884,-5255.462188,2911.162892
530.375201,-296.082377,-5329.482782,-689.485948
530.375523,-222.061783,-7402.059420,-1455.581446
530.375846,-2368.659014,-8438.347739,0.000000
530.376168,-3108.864956,-8956.491898,459.657299
530.376491,-740.205942,-9770.718434,0.000000
530.376813,2738.761985,-10362.883188,0.000000
530.377136,4293.194464,-8660.409521,76.609550
530.377458,4663.297435,-8438.347739,0.000000
530.377780,4589.276840,-8586.388927,-612.876398
530.378103,2738.761985,-8882.471304,-1915.238745
530.378425,-296.082377,-10362.883188,-1685.410096
530.378748,-3627.009116,-12731.542202,-1532.190996
530.379070,-5773.606348,-14211.954086,-2145.067394
530.379393,-6661.853478,-12953.603985,-689.485948
530.379715,-5181.441594,-11547.212695,1532.190996
530.380037,-3182.885551,-8364.327145,2451.505594
530.380360,888.247130,-5699.585753,1149.143247
530.380682,3330.926739,-3478.967927,459.657299
530.381005,3775.050304,-3478.967927,1608.800546
530.381327,2294.638420,-5033.400406,2528.115143
530.381650,888.247130,-7254.018232,2221.676944
530.381972,814.226536,-9326.594869,-459.657299
530.382295,888.247130,-9252.574275,-1762.019645
530.382617,962.267725,-8882.471304,-1762.019645
530.382939,1480.411884,-9400.615463,-2374.896044
530.383262,1628.453072,-10362.883188,-3064.381992
530.383584,-962.267725,-11843.295072,-3064.381992
530.383907,-4737.318029,-13101.645173,-1915.238745
530.384229,-7476.080014,-13323.706956,-3370.820191
530.384552,-8586.388927,-12657.521608,-6741.640382
530.384874,-7550.100608,-12435.459826,-6281.983084
530.385196,-5255.462188,-11769.274478,-2374.896044
530.385519,-2960.823768,-9918.759623,766.095498
530.385841,-1258.350101,-9770.718434,1532.190996
530.386164,-814.226536,-10436.903782,2681.334243
530.386486,-1184.329507,-10436.903782,3983.696590
530.386809,-888.247130,-9400.615463,995.924147
530.387131,2220.617826,-6587.832884,-2068.457845
530.387454,5847.626942,-3923.091493,-2374.896044
530.387776,7994.224174,-1776.494261,229.828649
530.388098,8216.285956,-3627.009116,1378.971896
530.388421,6735.874072,-8808.450710,919.314598
530.388743,3256.906145,-13471.748144,-383.047749
530.389066,-1702.473667,-14508.036463,-1991.848295
530.389388,-5181.441594,-14878.139434,-4366.744339
530.389711,-5625.565159,-14730.098246,-5898.935335
530.390033,-3108.864956,-10881.027347,-3064.381992
530.390355,-2590.720797,-6069.688724,536.266849
530.390678,-2368.659014,-5403.503377,2451.505594
530.391000,-2294.638420,-7550.100608,1762.019645
530.391323,-3108.864956,-9252.574275,842.705048
530.391645,-4441.235652,-9104.533087,536.266849
530.391968,-3478.967927,-10288.862594,0.000000
530.392290,370.102971,-9548.656652,842.705048
530.392613,4441.235652,-4885.359217,2834.553343
530.392935,6217.729913,0.000000,4213.525239
530.393257,7179.997637,0.000000,1838.629195
530.393580,7105.977043,-5403.503377,-1225.752797
530.393902,4219.173869,-9474.636058,-2757.943793
530.394225,-740.205942,-11917.315666,-2681.334243
530.394547,-3701.029710,-15914.427753,-3600.648841
530.394870,-3256.906145,-19393.395680,-4903.011187
530.395192,-3108.864956,-17838.963202,-3524.039291
530.395514,-3701.029710,-13841.851115,-459.657299
530.395837,-4219.173869,-10658.965565,-459.657299
530.396159,-3404.947333,-9622.677246,-2451.505594
530.396482,-2738.761985,-9178.553681,-2681.334243
530.396804,-3627.009116,-7772.162391,-612.876398
530.397127,-3034.844362,-7624.121203,-229.828649
530.397449,1406.391290,-8734.430116,-995.924147
530.397772,4811.338623,-7179.997637,-842.705048
530.398094,4737.318029,-6143.709319,-766.095498
530.398417,3330.926739,-7846.182985,-1302.362347
530.398739,2072.576638,-10066.800811,-2068.457845
530.399062,-296.082377,-10510.924376,-3830.477490
530.399384,-2886.803174,-10436.903782,-6128.763984
530.399707,-3627.009116,-11621.233289,-7890.783629
530.400029,-2516.700203,-12805.562797,-7660.954980
530.400351,-2516.700203,-11843.295072,-4366.744339
530.400674,-3182.885551,-11103.089130,-2451.505594
530.400996,-3552.988522,-11103.089130,-3217.601092
530.401319,-2812.782580,-11473.192101,-3907.087040
530.401641,-3256.906145,-11399.171507,-2451.505594
530.401964,-3627.009116,-11621.233289,0.000000
530.402286,-444.123565,-10584.944971,689.485948
530.402609,3849.070898,-6735.874072,383.047749
530.402931,7550.100608,-2146.597232,1225.752797
530.403254,8586.388927,1258.350101,1838.629195
530.403576,8512.368333,1406.391290,689.485948
530.403899,5329.482782,-962.267725,-153.219100
530.404221,-444.123565,-5847.626942,-1762.019645
530.404544,-6143.709319,-11843.295072,-3524.039291
530.404866,-9104.533087,-16136.489536,-6052.154434
530.405189,-9400.615463,-16728.654289,-7354.516781
530.405511,-8734.430116,-13767.830521,-6435.202183
530.405834,-4811.338623,-11029.068536,-4596.572988
530.406156,-2220.617826,-9548.656652,-3524.039291
530.406479,-2960.823768,-9326.594869,-2451.505594
530.406801,-5773.606348,-9622.677246,-459.657299
530.407124,-7105.977043,-11325.150913,-1302.362347
530.407446,-4145.153275,-11843.295072,-4136.915689
530.407769,814.226536,-8068.244768,-3524.039291
530.408091,5255.462188,-3701.029710,-1072.533697
530.408414,9326.594869,-2516.700203,919.314598
530.408736,11473.192101,-5033.400406,2451.505594
530.409059,10288.862594,-7105.977043,4596.572988
530.409381,5403.503377,-7105.977043,1149.143247
530.409703,1554.432478,-9992.780217,-4366.744339
530.410026,222.061783,-13545.768739,-7737.564530
530.410348,-518.144159,-15100.201217,-6052.154434
530.410671,-1480.411884,-14730.098246,-1378.971896
530.410993,-518.144159,-14952.160028,76.609550
530.411316,296.082377,-15766.386565,-229.828649
530.411638,0.000000,-15470.304188,-306.438199
530.411961,-2442.679609,-12213.398043,0.000000
530.412283,-3256.906145,-9474.636058,-612.876398
530.412606,296.082377,-7179.997637,-1378.971896
530.412928,4367.215058,-3923.091493,0.000000
530.413251,4737.318029,-814.226536,1532.190996
530.413573,2812.782580,-1702.473667,2604.724693
530.413896,740.205942,-7105.977043,2681.334243
530.414218,-2368.659014,-9548.656652,1991.848295
530.414541,-5255.462188,-9548.656652,-1608.800546
530.414863,-7254.018232,-10066.800811,-4903.011187
530.415186,-5699.585753,-11991.336260,-5439.278036
530.415508,-5107.421000,-11843.295072,-2068.457845
530.415831,-6439.791695,-11621.233289,919.314598
530.416153,-7476.080014,-11399.171507,1072.533697
530.416476,-6809.894666,-11547.212695,-2221.676944
530.416798,-5181.441594,-10881.027347,-2834.553343
530.417121,-3034.844362,-9252.574275,-2068.457845
530.417443,148.041188,-7550.100608,-1378.971896
530.417766,5551.544565,-6809.894666,919.314598
530.418088,9474.636058,-6143.709319,3983.696590
530.418410,9696.697840,-4811.338623,5592.497135
530.418733,7476.080014,-5625.565159,4060.306139
530.419055,4145.153275,-6883.915261,1225.752797
530.419378,518.144159,-5995.668130,-1915.238745
530.419700,-1480.411884,-5995.668130,-5745.716235
530.420023,-2072.576638,-9178.553681,-7048.078582
530.420345,-1332.370696,-12361.439231,-4213.525239
530.420668,-2812.782580,-13397.727550,-1072.533697
530.420990,-4071.132681,-13915.871710,-1762.019645
530.421313,-5255.462188,-15692.365970,-4519.963438
530.421635,-6365.771101,-15988.448347,-4903.011187
530.421958,-7994.224174,-12953.603985,-3677.258390
530.422280,-7254.018232,-10066.800811,-2987.772442
530.422603,-3108.864956,-9326.594869,-3217.601092
530.422925,2442.679609,-6587.832884,-1149.143247
530.423248,5477.523971,-2590.720797,229.828649
530.423570,6809.894666,-2590.720797,153.219100
530.423893,7476.080014,-6069.688724,-995.924147
530.424215,6069.688724,-7402.059420,-995.924147
530.424538,1776.494261,-6513.812290,-1225.752797
530.424860,-1998.556043,-8586.388927,-3524.039291
530.425183,-2590.720797,-12361.439231,-5515.887586
530.425505,-3330.926739,-12509.480420,-5286.058936
530.425828,-5107.421000,-10732.986159,-4060.306139
530.426150,-6587.832884,-10510.924376,-4443.353888
530.426473,-4515.256246,-12953.603985,-5592.497135
530.426795,-1850.514855,-13323.706956,-4519.963438
530.427118,-1258.350101,-11029.068536,-2604.724693
530.427440,-740.205942,-9696.697840,-1838.629195
530.427762,3034.844362,-9400.615463,-1838.629195
530.428085,7476.080014,-6217.729913,-1072.533697
530.428407,9474.636058,-3552.988522,-1991.848295
530.428730,9400.615463,-5107.421000,-1838.629195
530.429052,9622.677246,-7476.080014,-306.438199
530.429375,7772.162391,-6957.935855,842.705048
530.429697,3330.926739,-7328.038826,459.657299
530.430020,-518.144159,-9918.759623,-2451.505594
530.430342,-2812.782580,-12287.418637,-5132.839837
530.430665,-5551.544565,-12361.439231,-5898.935335
530.430987,-8290.306550,-13471.748144,-4060.306139
530.431310,-8882.471304,-12879.583391,-1991.848295
530.431632,-6809.894666,-12435.459826,-2681.334243
530.431955,-6069.688724,-10955.047942,-2757.943793
530.432277,-5773.606348,-9474.636058,-2451.505594
530.432600,-5477.523971,-9770.718434,-2451.505594
530.432922,-2294.638420,-9400.615463,-1378.971896
530.433245,444.123565,-7179.997637,-1072.533697
530.433567,1776.494261,-5403.503377,-3370.820191
530.433890,2738.761985,-7698.141797,-1915.238745
530.434212,2812.782580,-7550.100608,536.266849
530.434535,-814.226536,-5033.400406,766.095498
530.434857,-3849.070898,-7105.977043,-1149.143247
530.435180,-4145.153275,-10288.862594,-3524.039291
530.435502,-3034.844362,-11547.212695,-5669.106685
530.435825,-2738.761985,-11325.150913,-3753.867940
530.436147,-2442.679609,-13175.665768,-1225.752797
530.436470,-1702.473667,-14063.912898,0.000000
530.436792,0.000000,-13101.645173,229.828649
530.437114,148.041188,-9992.780217,2298.286494
530.437437,148.041188,-8290.306550,995.924147
530.437759,3552.988522,-8660.409521,-842.705048
530.438082,8438.347739,-6661.853478,-842.705048
530.438404,10510.924376,-3627.009116,-153.219100
530.438727,11695.253884,-4959.379811,1608.800546
530.439049,11251.130318,-6661.853478,3524.039291
530.439372,6365.771101,-6735.874072,2451.505594
530.439694,-1036.288319,-6439.791695,612.876398
530.440017,-6439.791695,-7772.162391,-3294.210641
530.440339,-8068.244768,-10955.047942,-8886.707777
530.440662,-7624.121203,-13841.851115,-8963.317327
530.440984,-8882.471304,-14285.974681,-4519.963438
530.441307,-9918.759623,-15248.242405,-383.047749
530.441629,-9992.780217,-14211.954086,1225.752797
530.441952,-10362.883188,-12287.418637,536.266849
530.442274,-11103.089130,-10214.842000,-4443.353888
530.442597,-7105.977043,-11251.130318,-6818.249932
530.442919,-666.185348,-9918.759623,-5515.887586
530.443242,4589.276840,-5255.462188,-1302.362347
530.443564,8956.491898,-1480.411884,6128.763984
530.443887,12583.501014,-1332.370696,7584.345430
530.444209,13619.789333,-5255.462188,919.314598
530.444532,10436.903782,-9474.636058,-2068.457845
530.444854,4811.338623,-9696.697840,76.609550
530.445177,518.144159,-9326.594869,-1915.238745
530.445499,-666.185348,-11251.130318,-4519.963438
530.445821,-962.267725,-11399.171507,-2451.505594
530.446144,-2886.803174,-9770.718434,-2145.067394
530.446466,-3701.029710,-11621.233289,-3830.477490
530.446789,-4441.235652,-14508.036463,-3217.601092
530.447111,-4811.338623,-15470.304188,-1915.238745
530.447434,-6365.771101,-11695.253884,-153.219100
530.447756,-5329.482782,-9844.739029,-1532.190996
530.448079,-962.267725,-7772.162391,-2911.162892
530.448401,4071.132681,-3627.009116,-1378.971896
530.448724,6661.853478,74.020594,0.000000
530.449046,6809.894666,-1036.288319,-766.095498
530.449369,5625.565159,-6217.729913,-612.876398
530.449691,3034.844362,-9252.574275,766.095498
530.450014,-1332.370696,-9622.677246,-1378.971896
530.450336,-4663.297435,-12583.501014,-4749.792088
530.450659,-4737.318029,-14508.036463,-6128.763984
530.450981,-5255.462188,-12657.521608,-4213.525239
530.451304,-5107.421000,-10732.986159,-2604.724693
530.451626,-5995.668130,-11621.233289,-2221.676944
530.451949,-5847.626942,-12731.542202,-3217.601092
530.452271,-5403.503377,-12361.439231,-3140.991542
530.452594,-6069.688724,-11843.295072,-2757.943793
530.452916,-2960.823768,-11473.192101,-1915.238745
530.453239,3182.885551,-9622.677246,0.000000
530.453561,7476.080014,-5329.482782,-383.047749
530.453884,9622.677246,-3701.029710,76.609550
530.454206,9844.739029,-3775.050304,1149.143247
530.454529,6661.853478,-2664.741391,766.095498
530.454851,1406.391290,-3997.112087,-1149.143247
530.455173,-3627.009116,-7328.038826,-2528.115143
530.455496,-5699.585753,-11769.274478,-5822.325785
530.455818,-5847.626942,-14582.057057,-7048.078582
530.456141,-6069.688724,-15766.386565,-3677.258390
530.456463,-7031.956449,-15914.427753,-2604.724693
530.456786,-5995.668130,-15026.180623,-3753.867940
530.457108,-4737.318029,-13101.645173,-3064.381992
530.457431,-5329.482782,-10362.883188,-1225.752797
530.457753,-5181.441594,-9030.512492,-842.705048
530.458076,-962.267725,-8882.471304,-1991.848295
530.458398,4145.153275,-5699.585753,-2221.676944
530.458721,8438.347739,-2146.597232,-1378.971896
530.459043,12065.356855,-3627.009116,-995.924147
530.459366,13915.871710,-8512.368333,2068.457845
530.459688,11029.068536,-7698.141797,4136.915689
530.460011,3775.050304,-5477.523971,3907.087040
530.460333,-2072.576638,-8290.306550,-842.705048
530.460656,-2812.782580,-12361.439231,-5515.887586
530.460978,-3701.029710,-13249.686362,-7737.564530
530.461301,-6143.709319,-12509.480420,-5286.058936
530.461623,-7179.997637,-12213.398043,-1762.019645
530.461946,-6513.812290,-13027.624579,919.314598
530.462268,-6069.688724,-12435.459826,1149.143247
530.462591,-6587.832884,-10066.800811,-383.047749
530.462913,-6143.709319,-11917.315666,-3447.429741
530.463236,-1702.473667,-12879.583391,-4596.572988
530.463558,3256.906145,-7476.080014,-1532.190996
530.463881,4885.359217,-592.164754,1991.848295
530.464203,7179.997637,2368.659014,3370.820191
530.464525,9992.780217,296.082377,536.266849
530.464848,8956.491898,-3775.050304,-2834.553343
530.465170,3108.864956,-8808.450710,-2451.505594
530.465493,-2886.803174,-14508.036463,-995.924147
530.465815,-5699.585753,-17764.942608,-1915.238745
530.466138,-5699.585753,-16950.716072,-1302.362347
530.466460,-5329.482782,-11991.336260,-2757.943793
530.466783,-4071.132681,-8660.409521,-5745.716235
530.467105,-2960.823768,-7698.141797,-3983.696590
530.467428,-3330.926739,-9992.780217,-383.047749
530.467750,-5477.523971,-11325.150913,1532.190996
530.468073,-4515.256246,-12361.439231,1225.752797
530.468395,0.000000,-12287.418637,-2068.457845
530.468718,5181.441594,-9696.697840,-3524.039291
530.469040,8142.265362,-6883.915261,-612.876398
530.469363,8660.409521,-4145.153275,3294.210641
530.469685,6217.729913,-1776.494261,3524.039291
530.470008,1776.494261,-2294.638420,2068.457845
530.470330,-3404.947333,-4885.359217,-1608.800546
530.470653,-6661.853478,-10066.800811,-7584.345430
530.470975,-7254.018232,-14508.036463,-8427.050478
530.471298,-7846.182985,-16506.592507,-3983.696590
530.471620,-7402.059420,-15914.427753,0.000000
530.471943,-5107.421000,-15248.242405,-766.095498
530.472265,-4737.318029,-12879.583391,153.219100
530.472588,-7476.080014,-10066.800811,153.219100
530.472910,-8586.388927,-8142.265362,-2757.943793
530.473232,-4441.235652,-9844.739029,-5975.544884
530.473555,1184.329507,-8734.430116,-4596.572988
530.473877,5033.400406,-4071.132681,1685.410096
530.474200,8808.450710,-2368.659014,6205.373534
530.474522,13249.686362,-4515.256246,3907.087040
530.474845,14656.077652,-7328.038826,766.095498
530.475167,11103.089130,-5995.668130,-689.485948
530.475490,3849.070898,-6587.832884,-2221.676944
530.475812,-740.205942,-11769.274478,-3447.429741
530.476135,-1776.494261,-15100.201217,-1915.238745
530.476457,-2294.638420,-12731.542202,-1991.848295
530.476780,-2664.741391,-10362.883188,-4213.525239
530.477102,-2294.638420,-13841.851115,-4596.572988
530.477425,-2886.803174,-14508.036463,-689.485948
530.477747,-4811.338623,-13841.851115,1072.533697
530.478070,-6809.894666,-10881.027347,-153.219100
530.478392,-3923.091493,-9400.615463,-3217.601092
530.478715,1110.308913,-6291.750507,-4136.915689
530.479037,3552.988522,-1776.494261,-1685.410096
530.479360,4441.235652,-1850.514855,0.000000
530.479682,5181.441594,-5403.503377,689.485948
530.480005,5033.400406,-7179.997637,995.924147
530.480327,2294.638420,-8364.327145,-612.876398
530.480650,-1776.494261,-10807.006753,-4749.792088
530.480972,-4145.153275,-14211.954086,-6588.421283
530.481295,-4515.256246,-13249.686362,-4979.620737
530.481617,-5181.441594,-12065.356855,-2987.772442
530.481940,-5477.523971,-12583.501014,-3140.991542
530.482262,-6291.750507,-13101.645173,-3600.648841
530.482584,-6809.894666,-12879.583391,-2987.772442
530.482907,-8142.265362,-13323.706956,-1762.019645
530.483229,-6291.750507,-13101.645173,-1762.019645
530.483552,296.082377,-10140.821405,-612.876398
530.483874,6735.874072,-6513.812290,-842.705048
530.484197,9326.594869,-4219.173869,612.876398
530.484519,9844.739029,-4441.235652,3907.087040
530.484842,7920.203579,-3034.844362,4366.744339
530.485164,4219.173869,-2590.720797,1149.143247
530.485487,-222.061783,-4811.338623,-2221.676944
530.485809,-3330.926739,-8438.347739,-3907.087040
530.486132,-4367.215058,-10066.800811,-4903.011187
530.486454,-3775.050304,-11547.212695,-2221.676944
530.486777,-3849.070898,-13619.789333,-766.095498
530.487099,-3478.967927,-15396.283594,-3217.601092
530.487422,-4367.215058,-16358.551318,-3983.696590
530.487744,-8808.450710,-13323.706956,1455.581446
530.488067,-11177.109724,-10807.006753,1915.238745
530.488389,-6883.915261,-10066.800811,-3524.039291
530.488712,0.000000,-8586.388927,-5822.325785
530.489034,4293.194464,-3627.009116,-1302.362347
530.489357,6735.874072,0.000000,5132.839837
530.489679,10066.800811,-1998.556043,5515.887586
530.490002,10510.924376,-5551.544565,3753.867940
530.490324,7105.977043,-6439.791695,995.924147
530.490647,2146.597232,-6587.832884,-2068.457845
530.490969,148.041188,-9400.615463,-4519.963438
530.491292,148.041188,-13249.686362,-3753.867940
530.491614,-222.061783,-13027.624579,-1302.362347
530.491936,-1480.411884,-11103.089130,-1532.190996
530.492259,-4219.173869,-11769.274478,-3907.087040
530.492581,-5477.523971,-16210.510130,-3447.429741
530.492904,-7328.038826,-18061.024985,-2145.067394
530.493226,-8290.306550,-16802.674883,-2987.772442
530.493549,-6513.812290,-12731.542202,-3217.601092
530.493871,-444.123565,-6365.771101,-1608.800546
530.494194,6143.709319,-518.144159,0.000000
530.494516,9474.636058,1036.288319,-919.314598
530.494839,9474.636058,-4441.235652,1455.581446
530.495161,5921.647536,-6513.812290,3753.867940
530.495484,370.102971,-7920.203579,2528.115143
530.495806,-2886.803174,-12139.377449,-1838.629195
530.496129,-2442.679609,-14137.933492,-6052.154434
530.496451,-1776.494261,-10881.027347,-7124.688131
530.496774,-2220.617826,-7846.182985,-3753.867940
530.497096,-1036.288319,-8734.430116,-1685.410096
530.497419,-1258.350101,-13471.748144,-1991.848295
530.497741,-5033.400406,-15544.324782,-2604.724693
530.498063,-10214.842000,-17172.777854,-995.924147
530.498386,-11843.295072,-17764.942608,-3447.429741
530.498708,-6809.894666,-15174.221811,-5286.058936
530.499031,1406.391290,-7031.956449,-2145.067394
530.499353,7031.956449,-518.144159,-459.657299
530.499676,9622.677246,1258.350101,1532.190996
530.499998,9622.677246,-2368.659014,3524.039291
530.500321,5181.441594,-3923.091493,3524.039291
530.500643,-1554.432478,-6217.729913,-766.095498
530.500965,-5255.462188,-10955.047942,-4519.963438
530.501288,-4589.276840,-12657.521608,-5822.325785
530.501610,-2812.782580,-11399.171507,-3983.696590
530.501933,-1332.370696,-10288.862594,153.219100
530.502255,-1406.391290,-10510.924376,0.000000
530.502578,-1332.370696,-11621.233289,-1685.410096
530.502900,-4219.173869,-12657.521608,-1455.581446
530.503222,-7772.162391,-11547.212695,-689.485948
530.503545,-7179.997637,-11251.130318,-3907.087040
530.503867,-1406.391290,-9400.615463,-4213.525239
530.504190,3552.988522,-5255.462188,-153.219100
530.504512,6957.935855,-1776.494261,2757.943793
530.504835,8364.327145,-2590.720797,2604.724693
530.505157,8956.491898,-5699.585753,1762.019645
530.505480,5699.585753,-7031.956449,383.047749
530.505802,740.205942,-7402.059420,-1608.800546
530.506124,-814.226536,-9474.636058,-3677.258390
530.506447,296.082377,-11177.109724,-5286.058936
530.506769,370.102971,-11325.150913,-3217.601092
530.507092,-1406.391290,-11843.295072,-919.314598
530.507414,-3775.050304,-14063.912898,-2451.505594
530.507737,-6217.729913,-16728.654289,-3753.867940
530.508059,-8438.347739,-16432.571912,-1685.410096
530.508381,-8216.285956,-15100.201217,-2298.286494
530.508704,-3997.112087,-12657.521608,-4673.182538
530.509026,1628.453072,-9326.594869,-2834.553343
530.509349,5107.421000,-4219.173869,1532.190996
530.509671,7254.018232,-1850.514855,2911.162892
530.509994,7476.080014,-4515.256246,842.705048
530.510316,4959.379811,-8142.265362,0.000000
530.510639,-222.061783,-7772.162391,-1149.143247
530.510961,-4663.297435,-8438.347739,-2374.896044
530.511283,-3997.112087,-10584.944971,-4290.134789
530.511606,-1554.432478,-10140.821405,-4979.620737
530.511928,-592.164754,-8512.368333,-2068.457845
530.512251,-1480.411884,-9178.553681,-229.828649
530.512573,-2442.679609,-12139.377449,-1455.581446
530.512896,-4737.318029,-14211.954086,-2604.724693
530.513218,-6217.729913,-13841.851115,-2604.724693
530.513540,-5699.585753,-13101.645173,-4213.525239
530.513863,-1036.288319,-11103.089130,-3830.477490
530.514185,4219.173869,-7698.141797,-842.705048
530.514508,6957.935855,-5403.503377,1838.629195
530.514830,7031.956449,-5699.585753,4366.744339
530.515153,6217.729913,-4959.379811,4060.306139
530.515475,2516.700203,-1702.473667,842.705048
530.515798,-1110.308913,-2664.741391,-2681.334243
530.516120,-2886.803174,-6513.812290,-4136.915689
530.516442,-2960.823768,-8586.388927,-4826.401637
530.516765,-2812.782580,-10288.862594,-2604.724693
530.517087,-2516.700203,-12657.521608,153.219100
530.517410,-2664.741391,-15174.221811,-2145.067394
530.517732,-3997.112087,-15766.386565,-5132.839837
530.518055,-6513.812290,-13619.789333,-2911.162892
530.518377,-7920.203579,-11399.171507,-1532.190996
530.518699,-5847.626942,-11769.274478,-2834.553343
530.519022,-962.267725,-11251.130318,-2604.724693
530.519344,2072.576638,-7328.038826,459.657299
530.519667,4071.132681,-5033.400406,1072.533697
530.519989,6809.894666,-7846.182985,153.219100
530.520312,8216.285956,-9252.574275,-612.876398
530.520634,5033.400406,-5107.421000,689.485948
530.520956,888.247130,-3627.009116,383.047749
530.521279,-740.205942,-7772.162391,-1608.800546
530.521601,0.000000,-10955.047942,-3830.477490
530.521924,-1776.494261,-10066.800811,-4596.572988
530.522246,-4737.318029,-9844.739029,-4060.306139
530.522569,-4441.235652,-13619.789333,-4443.353888
530.522891,-3478.967927,-15174.221811,-3753.867940
530.523214,-3849.070898,-14434.015869,-1838.629195
530.523536,-4589.276840,-12213.398043,-459.657299
530.523858,-3108.864956,-12213.398043,-2451.505594
530.524181,740.205942,-10732.986159,-2221.676944
530.524503,2812.782580,-6587.832884,-612.876398
530.524826,4071.132681,-4441.235652,-229.828649
530.525148,6439.791695,-5107.421000,0.000000
530.525471,7328.038826,-3552.988522,995.924147
530.525793,4293.194464,-2590.720797,842.705048
530.526115,148.041188,-6513.812290,153.219100
530.526438,-1332.370696,-10807.006753,-1991.848295
530.526760,-1850.514855,-11399.171507,-3753.867940
530.527083,-2220.617826,-11103.089130,-3217.601092
530.527405,-2738.761985,-12509.480420,-2298.286494
530.527728,-2442.679609,-13249.686362,-1762.019645
530.528050,-2516.700203,-11177.109724,-536.266849
530.528373,-4441.235652,-9696.697840,1378.971896
530.528695,-4811.338623,-10140.821405,-459.657299
530.529017,-1998.556043,-9992.780217,-3140.991542
530.529340,1554.432478,-7254.018232,-2604.724693
530.529662,3034.844362,-5181.441594,-1225.752797
530.529985,3552.988522,-6883.915261,1149.143247
530.530307,3627.009116,-7328.038826,3064.381992
530.530630,1332.370696,-4737.318029,1608.800546
530.530952,-2960.823768,-5033.400406,-919.314598
530.531274,-5107.421000,-8660.409521,-4596.572988
530.531597,-4515.256246,-10807.006753,-6971.469032
530.531919,-4515.256246,-9844.739029,-6665.030833
530.532242,-2590.720797,-10732.986159,-3677.258390
530.532564,-1554.432478,-13323.706956,-2681.334243
530.532887,-888.247130,-15026.180623,-3447.429741
530.533209,-3404.947333,-13619.789333,-2221.676944
530.533532,-5625.565159,-12435.459826,-1378.971896
530.533854,-3775.050304,-12953.603985,-4060.306139
530.534176,1406.391290,-11769.274478,-4903.011187
530.534499,5477.523971,-7698.141797,-2987.772442
530.534821,7105.977043,-5699.585753,1455.581446
530.535144,8882.471304,-5181.441594,4673.182538
530.535466,8512.368333,-4811.338623,3677.258390
530.535789,3849.070898,-4219.173869,383.047749
530.536111,-1480.411884,-5033.400406,-1532.190996
530.536433,-3404.947333,-7624.121203,-4903.011187
530.536756,-2960.823768,-9992.780217,-7814.174080
530.537078,-2368.659014,-12361.439231,-5056.230287
530.537401,-2590.720797,-12805.562797,-1608.800546
530.537723,-2442.679609,-14137.933492,-2451.505594
530.538046,-2960.823768,-13989.892304,-3140.991542
530.538368,-5403.503377,-13619.789333,-2681.334243
530.538691,-6661.853478,-12953.603985,-3447.429741
530.539013,-4145.153275,-12139.377449,-5362.668486
530.539335,-222.061783,-8586.388927,-3830.477490
530.539658,3182.885551,-4959.379811,-229.828649
530.539980,5551.544565,-3404.947333,2911.162892
530.540303,7920.203579,-4737.318029,1915.238745
530.540625,7476.080014,-5995.668130,536.266849
530.540948,3182.885551,-5403.503377,995.924147
530.541270,-1258.350101,-6661.853478,0.000000
530.541592,-2886.803174,-9844.739029,-2451.505594
530.541915,-2442.679609,-10214.842000,-4136.915689
530.542237,-2442.679609,-9548.656652,-2681.334243
530.542560,-4145.153275,-9474.636058,-1685.410096
530.542882,-3701.029710,-11843.295072,-1532.190996
530.543205,-4145.153275,-13397.727550,-2604.724693
530.543527,-4811.338623,-12509.480420,-1532.190996
530.543849,-4441.235652,-10955.047942,-1762.019645
530.544172,0.000000,-10881.027347,-4673.182538
530.544494,4293.194464,-8512.368333,-5056.230287
530.544817,5107.421000,-6587.832884,-383.047749
530.545139,4737.318029,-6883.915261,3677.258390
530.545462,3701.029710,-7105.977043,3064.381992
530.545784,1184.329507,-7476.080014,229.828649
530.546107,-2738.761985,-6661.853478,-1149.143247
530.546429,-4071.132681,-7031.956449,-3217.601092
530.546751,-2812.782580,-8586.388927,-4903.011187
530.547074,-1628.453072,-9326.594869,-4213.525239
530.547396,0.000000,-10732.986159,-459.657299
530.547719,-1554.432478,-12287.418637,612.876398
530.548041,-3330.926739,-14359.995275,-612.876398
530.548364,-5921.647536,-15766.386565,-1685.410096
530.548686,-7402.059420,-14508.036463,-1762.019645
530.549008,-4885.359217,-11325.150913,-2604.724693
530.549331,370.102971,-6365.771101,-3753.867940
530.549653,6587.832884,-1628.453072,-2298.286494
530.549976,9696.697840,-2590.720797,-306.438199
530.550298,9548.656652,-8586.388927,2145.067394
530.550621,6143.709319,-12139.377449,3140.991542
530.550943,-444.123565,-9474.636058,1838.629195
530.551266,-6365.771101,-9400.615463,-1608.800546
530.551588,-6291.750507,-10510.924376,-4136.915689
530.551910,-3552.988522,-8438.347739,-6435.202183
530.552233,-2220.617826,-4737.318029,-5056.230287
530.552555,-962.267725,-6439.791695,-383.047749
530.552878,-962.267725,-9622.677246,842.705048
530.553200,-2812.782580,-13249.686362,-2068.457845
530.553523,-6809.894666,-14878.139434,-2681.334243
530.553845,-8808.450710,-15396.283594,-2298.286494
530.554167,-5847.626942,-14656.077652,-5132.839837
530.554490,1406.391290,-10510.924376,-4519.963438
530.554812,7328.038826,-2368.659014,0.000000
530.555135,10732.986159,148.041188,1225.752797
530.555457,11251.130318,-3108.864956,1225.752797
530.555780,9696.697840,-7698.141797,612.876398
530.556102,3775.050304,-7846.182985,-842.705048
530.556425,-2368.659014,-9844.739029,-2911.162892
530.556747,-4219.173869,-13989.892304,-3907.087040
530.557069,-3330.926739,-12509.480420,-4060.306139
530.557392,-2960.823768,-9474.636058,-3907.087040
530.557714,-3108.864956,-9326.594869,-1455.581446
530.558037,-3404.947333,-10584.944971,-1532.190996
530.558359,-4441.235652,-11843.295072,-2451.505594
530.558682,-6439.791695,-11103.089130,-2834.553343
530.559004,-6217.729913,-11917.315666,-1378.971896
530.559326,-2294.638420,-11843.295072,-3447.429741
530.559649,4145.153275,-9622.677246,-4903.011187
530.559971,6883.915261,-6069.688724,-2145.067394
530.560294,7179.997637,-5625.565159,1225.752797
530.560616,5181.441594,-6735.874072,2374.896044
530.560939,1184.329507,-8142.265362,689.485948
530.561261,-3997.112087,-9030.512492,-1685.410096
530.561584,-6587.832884,-10140.821405,-4596.572988
530.561906,-4737.318029,-10436.903782,-7354.516781
530.562228,-3627.009116,-8808.450710,-6741.640382
530.562551,-1628.453072,-9992.780217,-1838.629195
530.562873,-2664.741391,-11251.130318,76.609550
530.563196,-3627.009116,-14063.912898,0.000000
530.563518,-5847.626942,-14063.912898,-689.485948
530.563841,-7031.956449,-12361.439231,-1991.848295
530.564163,-4737.318029,-11029.068536,-3907.087040
530.564485,1110.308913,-7846.182985,-3600.648841
530.564808,6957.935855,-2368.659014,-229.828649
530.565130,10807.006753,296.082377,2834.553343
530.565453,13027.624579,-3034.844362,2757.943793
530.565775,11473.192101,-7624.121203,1149.143247
530.566098,5699.585753,-7994.224174,689.485948
530.566420,-1628.453072,-8660.409521,0.000000
530.566742,-4737.318029,-12139.377449,-2451.505594
530.567065,-3627.009116,-14508.036463,-4903.011187
530.567387,-3701.029710,-12139.377449,-4366.744339
530.567710,-5403.503377,-9178.553681,-459.657299
530.568032,-5107.421000,-10362.883188,612.876398
530.568355,-4737.318029,-11325.150913,-1149.143247
530.568677,-6069.688724,-10584.944971,-2145.067394
530.569000,-8216.285956,-8364.327145,-1072.533697
530.569322,-5625.565159,-9548.656652,-3217.601092
530.569644,0.000000,-9770.718434,-3294.210641
530.569967,4885.359217,-6365.771101,76.609550
530.570289,6513.812290,-4663.297435,1378.971896
530.570612,8142.265362,-7698.141797,383.047749
530.570934,7550.100608,-9474.636058,766.095498
530.571257,3552.988522,-6587.832884,383.047749
530.571579,-1258.350101,-7550.100608,-1532.190996
530.571901,-2738.761985,-12361.439231,-3370.820191
530.572224,-2738.761985,-13027.624579,-4519.963438
530.572546,-4367.215058,-12065.356855,-4136.915689
530.572869,-5921.647536,-12509.480420,-1149.143247
530.573191,-5107.421000,-13397.727550,-1532.190996
530.573514,-3923.091493,-12509.480420,-3753.867940
530.573836,-4441.235652,-11547.212695,-1149.143247
530.574159,-4959.379811,-10658.965565,306.438199
530.574481,-2442.679609,-10881.027347,-995.924147
530.574803,1850.514855,-7624.121203,-689.485948
530.575126,5921.647536,-2960.823768,229.828649
530.575448,7920.203579,-3034.844362,-1532.190996
530.575771,9622.677246,-6735.874072,-1225.752797
530.576093,9178.553681,-7402.059420,1378.971896
530.576416,3256.906145,-5551.544565,1762.019645
530.576738,-2812.782580,-9104.533087,76.609550
530.577060,-4663.297435,-13693.809927,-2298.286494
530.577383,-4589.276840,-12509.480420,-4903.011187
530.577705,-5773.606348,-9326.594869,-5362.668486
530.578028,-4959.379811,-10214.842000,-4136.915689
530.578350,-4219.173869,-11251.130318,-2145.067394
530.578673,-4441.235652,-11103.089130,-766.095498
530.578995,-5551.544565,-10732.986159,1532.190996
530.579318,-6365.771101,-11621.233289,612.876398
530.579640,-3701.029710,-11177.109724,-3447.429741
530.579962,1776.494261,-5477.523971,-2987.772442
530.580285,5995.668130,-518.144159,-2451.505594
530.580607,10214.842000,-1776.494261,-2834.553343
530.580930,11843.295072,-6143.709319,-842.705048
530.581252,7920.203579,-7105.977043,3370.820191
530.581575,-592.164754,-8216.285956,2757.943793
530.581897,-5107.421000,-13619.789333,-2374.896044
530.582219,-5477.523971,-15988.448347,-8044.002729
530.582542,-4737.318029,-14434.015869,-9806.022374
530.582864,-5625.565159,-11029.068536,-5439.278036
530.583187,-4737.318029,-11695.253884,-689.485948
530.583509,-1998.556043,-13323.706956,-536.266849
530.583832,-2738.761985,-13915.871710,-383.047749
530.584154,-6883.915261,-11621.233289,-459.657299
530.584476,-7031.956449,-9548.656652,-2451.505594
530.584799,222.061783,-9770.718434,-5132.839837
530.585121,7772.162391,-6143.709319,-4136.915689
530.585444,11103.089130,-2590.720797,-2221.676944
530.585766,12139.377449,-5403.503377,3217.601092
530.586089,11473.192101,-7476.080014,5975.544884
530.586411,4663.297435,-5329.482782,2528.115143
530.586734,-3627.009116,-8216.285956,-2298.286494
530.587056,-8068.244768,-12361.439231,-5898.935335
530.587378,-7698.141797,-12213.398043,-7967.393179
530.587701,-6143.709319,-10584.944971,-7737.564530
530.588023,-3775.050304,-12435.459826,-1762.019645
530.588346,-4145.153275,-13693.809927,1915.238745
530.588668,-6587.832884,-13397.727550,1455.581446
530.588991,-8364.327145,-10807.006753,1149.143247
530.589313,-7846.182985,-8660.409521,-2451.505594
530.589635,-4367.215058,-9548.656652,-7967.393179
530.589958,2220.617826,-7402.059420,-4979.620737
530.590280,5847.626942,-2072.576638,3294.210641
530.590603,8438.347739,0.000000,5669.106685
530.590925,12509.480420,-5403.503377,2757.943793
530.591248,12287.418637,-10732.986159,459.657299
530.591570,5699.585753,-6513.812290,-995.924147
530.591893,-1776.494261,-5995.668130,-2451.505594
530.592215,-3849.070898,-11399.171507,-2911.162892
530.592537,-1480.411884,-12953.603985,-3064.381992
530.592860,-1406.391290,-9622.677246,-3447.429741
530.593182,-5847.626942,-7920.203579,-3064.381992
530.593505,-8216.285956,-13841.851115,-919.314598
530.593827,-8660.409521,-17542.880825,-995.924147
530.594150,-9252.574275,-16136.489536,-1302.362347
530.594472,-8438.347739,-12065.356855,-1455.581446
530.594794,-2738.761985,-9252.574275,-2298.286494
530.595117,4663.297435,-4959.379811,-1302.362347
530.595439,9474.636058,0.000000,383.047749
530.595762,10140.821405,0.000000,0.000000
530.596084,9622.677246,-7550.100608,76.609550
530.596407,6143.709319,-9844.739029,1455.581446
530.596729,-1332.370696,-9770.718434,689.485948
530.597052,-5995.668130,-13471.748144,-1608.800546
530.597374,-5551.544565,-16210.510130,-4519.963438
530.597696,-3330.926739,-13841.851115,-5362.668486
530.598019,-5181.441594,-9252.574275,-3217.601092
530.598341,-5033.400406,-8586.388927,0.000000
530.598663,-3404.947333,-11991.336260,-1991.848295
530.598986,-4145.153275,-12361.439231,-2068.457845
530.599308,-7254.018232,-11769.274478,-766.095498
530.599631,-6587.832884,-11843.295072,-995.924147
530.599953,-1036.288319,-10362.883188,-1991.848295
530.600275,5625.565159,-5995.668130,0.000000
530.600598,8808.450710,-1850.514855,1455.581446
530.600920,10881.027347,-2664.741391,1072.533697
530.601243,12139.377449,-8364.327145,1302.362347
530.601565,9104.533087,-7698.141797,1302.362347
530.601887,1554.432478,-5995.668130,229.828649
530.602210,-4293.194464,-10584.944971,-2068.457845
530.602532,-4145.153275,-12731.542202,-4060.306139
530.602854,-3552.988522,-10955.047942,-5515.887586
530.603177,-3775.050304,-9548.656652,-3753.867940
530.603499,-4737.318029,-11103.089130,-1302.362347
530.603822,-5699.585753,-13989.892304,-766.095498
530.604144,-8586.388927,-13397.727550,76.609550
530.604466,-9844.739029,-11843.295072,1378.971896
530.604789,-7179.997637,-10732.986159,-2757.943793
530.605111,-370.102971,-8512.368333,-6358.592633
530.605433,5329.482782,-2664.741391,-1991.848295
530.605756,8438.347739,1850.514855,1838.629195
530.606078,10584.944971,-2294.638420,229.828649
530.606401,11177.109724,-9326.594869,-459.657299
530.606723,6365.771101,-10362.883188,-766.095498
530.607045,-1628.453072,-9918.759623,-2834.553343
530.607368,-6069.688724,-13693.809927,-5132.839837
530.607690,-4959.379811,-16210.510130,-5822.325785
530.608013,-2590.720797,-12805.562797,-4903.011187
530.608335,-3923.091493,-8734.430116,-3677.258390
530.608657,-5329.482782,-10881.027347,-1378.971896
530.608980,-5699.585753,-14211.954086,-995.924147
530.609302,-7031.956449,-14063.912898,-229.828649
530.609624,-7846.182985,-10955.047942,-919.314598
530.609947,-4737.318029,-8364.327145,-2604.724693
530.610269,2368.659014,-5699.585753,-2604.724693
