#time,accel_x,accel_y,accel_z
425.789259,-370.102971,-9326.594869,-1302.362347
425.789581,-518.144159,-9104.533087,-1608.800546
425.789902,-444.123565,-9252.574275,-1532.190996
425.790224,-370.102971,-9400.615463,-1608.800546
425.790546,-370.102971,-9178.553681,-1455.581446
425.790867,-296.082377,-9030.512492,-1838.629195
425.791189,-296.082377,-9474.636058,-1455.581446
425.791510,-296.082377,-9474.636058,-1608.800546
425.791832,-296.082377,-9326.594869,-1378.971896
425.792154,-148.041188,-9252.574275,-1302.362347
425.792475,-222.061783,-9326.594869,-1532.190996
425.792797,-296.082377,-9178.553681,-1455.581446
425.793118,-296.082377,-9474.636058,-1378.971896
425.793440,-222.061783,-9474.636058,-1608.800546
425.793762,-370.102971,-9252.574275,-1455.581446
425.794083,0.000000,-9474.636058,-1532.190996
425.794405,74.020594,-9326.594869,-1149.143247
425.794727,0.000000,-9474.636058,-1532.190996
425.795048,0.000000,-9474.636058,-1455.581446
425.795370,-370.102971,-9474.636058,-1378.971896
425.795691,-370.102971,-9326.594869,-1225.752797
425.796013,-296.082377,-9474.636058,-1225.752797
425.796335,-222.061783,-9400.615463,-1302.362347
425.796656,-148.041188,-9474.636058,-1532.190996
425.796978,-148.041188,-9400.615463,-1685.410096
425.797299,0.000000,-9326.594869,-1685.410096
425.797621,-444.123565,-8882.471304,-2068.457845
425.797943,-222.061783,-9104.533087,-1378.971896
425.798264,-296.082377,-9326.594869,-1378.971896
425.798586,-296.082377,-9400.615463,-1378.971896
425.798908,-370.102971,-9474.636058,-1378.971896
425.799229,-296.082377,-9252.574275,-1149.143247
425.799551,-296.082377,-9548.656652,-1608.800546
425.799872,-592.164754,-9400.615463,-1455.581446
425.800194,-592.164754,-9474.636058,-1455.581446
425.800516,-592.164754,-9474.636058,-1532.190996
425.800837,-592.164754,-9474.636058,-1608.800546
425.801159,-518.144159,-9252.574275,-612.876398
425.801480,-814.226536,-9252.574275,-1762.019645
425.801802,-814.226536,-9252.574275,-1608.800546
425.802124,-592.164754,-9400.615463,-1532.190996
425.802445,-518.144159,-9326.594869,-1455.581446
425.802767,-740.205942,-8956.491898,-1762.019645
425.803089,-370.102971,-9252.574275,-1838.629195
425.803410,-666.185348,-9474.636058,-1532.190996
425.803732,-666.185348,-9474.636058,-1455.581446
425.804053,-370.102971,-9326.594869,-1455.581446
425.804375,-592.164754,-9178.553681,-995.924147
425.804697,-370.102971,-9252.574275,-1455.581446
425.805018,-296.082377,-9178.553681,-1608.800546
425.805340,-370.102971,-9400.615463,-1532.190996
425.805661,-370.102971,-9474.636058,-1685.410096
425.805983,-444.123565,-9548.656652,-1532.190996
425.806305,-666.185348,-8956.491898,-995.924147
425.806626,0.000000,-9252.574275,-1378.971896
425.806948,-444.123565,-9178.553681,-1532.190996
425.807269,-222.061783,-9178.553681,-1762.019645
425.807591,-296.082377,-9252.574275,-1762.019645
425.807913,-444.123565,-9178.553681,-1378.971896
425.808234,74.020594,-9992.780217,-1608.800546
425.808556,-370.102971,-9474.636058,-1225.752797
425.808878,-296.082377,-9548.656652,-1378.971896
425.809199,-222.061783,-9474.636058,-1302.362347
425.809521,0.000000,-9252.574275,-1532.190996
425.809842,-370.102971,-8956.491898,-766.095498
425.810164,74.020594,-9326.594869,-1608.800546
425.810486,148.041188,-9178.553681,-1455.581446
425.810807,740.205942,-9696.697840,-1685.410096
425.811129,1036.288319,-10066.800811,-1608.800546
425.811450,888.247130,-9548.656652,-842.705048
425.811772,888.247130,-9548.656652,-229.828649
425.812094,444.123565,-9030.512492,-1072.533697
425.812415,296.082377,-9178.553681,-1762.019645
425.812737,-296.082377,-9030.512492,-1915.238745
425.813059,-962.267725,-8882.471304,-1838.629195
425.813380,-1184.329507,-8586.388927,-1149.143247
425.813702,0.000000,-9548.656652,-1991.848295
425.814023,74.020594,-10362.883188,-1302.362347
425.814345,-148.041188,-10214.842000,-536.266849
425.814667,-148.041188,-9104.533087,-1072.533697
425.814988,1110.308913,-9252.574275,-2068.457845
425.815310,2072.576638,-10140.821405,-2604.724693
425.815631,1554.432478,-10214.842000,-1149.143247
425.815953,888.247130,-9104.533087,0.000000
425.816275,1998.556043,-9030.512492,-612.876398
425.816596,3404.947333,-10066.800811,-1149.143247
425.816918,3478.967927,-9622.677246,-689.485948
425.817240,2516.700203,-8512.368333,-459.657299
425.817561,2516.700203,-7920.203579,-612.876398
425.817883,3256.906145,-8364.327145,-1532.190996
425.818204,3182.885551,-9474.636058,-1149.143247
425.818526,2664.741391,-8660.409521,-766.095498
425.818848,2516.700203,-8586.388927,-1225.752797
425.819169,3256.906145,-9030.512492,-2451.505594
425.819491,4071.132681,-10807.006753,-2068.457845
425.819812,3849.070898,-10362.883188,-1302.362347
425.820134,3478.967927,-9326.594869,-1378.971896
425.820456,3923.091493,-9696.697840,-1532.190996
425.820777,4441.235652,-10732.986159,-1838.629195
425.821099,3923.091493,-10140.821405,-2451.505594
425.821421,3330.926739,-9622.677246,-2298.286494
425.821742,3182.885551,-9252.574275,-995.924147
425.822064,3775.050304,-8734.430116,-766.095498
425.822385,4663.297435,-8290.306550,-1838.629195
425.822707,5033.400406,-8586.388927,-1915.238745
425.823029,5699.585753,-9030.512492,-1225.752797
425.823350,5847.626942,-9030.512492,-1378.971896
425.823672,5847.626942,-9178.553681,-1532.190996
425.823993,5625.565159,-8586.388927,-1072.533697
425.824315,4293.194464,-9400.615463,-1915.238745
425.824637,2368.659014,-10436.903782,-2145.067394
425.824958,814.226536,-11547.212695,-2145.067394
425.825280,-222.061783,-11769.274478,-1378.971896
425.825601,-962.267725,-11991.336260,-383.047749
425.825923,-518.144159,-12879.583391,0.000000
425.826245,-296.082377,-11769.274478,536.266849
425.826566,518.144159,-10436.903782,995.924147
425.826888,1110.308913,-9400.615463,1149.143247
425.827210,740.205942,-7846.182985,1378.971896
425.827531,-222.061783,-5995.668130,1072.533697
425.827853,-962.267725,-4811.338623,0.000000
425.828174,-444.123565,-4737.318029,-1685.410096
425.828496,962.267725,-5107.421000,-3064.381992
425.828818,2442.679609,-5181.441594,-3217.601092
425.829139,4219.173869,-5625.565159,-4366.744339
425.829461,6365.771101,-8216.285956,-4213.525239
425.829782,7105.977043,-11103.089130,-3753.867940
425.830104,6513.812290,-13175.665768,-3217.601092
425.830426,5329.482782,-14582.057057,-2451.505594
425.830747,5551.544565,-14359.995275,-2528.115143
425.831069,5181.441594,-13915.871710,-1991.848295
425.831391,3478.967927,-12879.583391,229.828649
425.831712,1480.411884,-10584.944971,2604.724693
425.832034,962.267725,-8734.430116,3217.601092
425.832355,1332.370696,-6735.874072,2451.505594
425.832677,1110.308913,-5107.421000,2451.505594
425.832999,148.041188,-4145.153275,2451.505594
425.833320,-296.082377,-4145.153275,1072.533697
425.833642,296.082377,-5699.585753,-306.438199
425.833963,592.164754,-6809.894666,-1149.143247
425.834285,740.205942,-8438.347739,-2221.676944
425.834607,370.102971,-10214.842000,-4903.011187
425.834928,518.144159,-12805.562797,-5515.887586
425.835250,888.247130,-15026.180623,-5286.058936
425.835572,666.185348,-17172.777854,-5209.449386
425.835893,444.123565,-16284.530724,-4749.792088
425.836215,666.185348,-13841.851115,-3830.477490
425.836536,2072.576638,-11251.130318,-3677.258390
425.836858,4145.153275,-9474.636058,-2911.162892
425.837180,5477.523971,-8512.368333,-536.266849
425.837501,5995.668130,-7328.038826,1991.848295
425.837823,6365.771101,-6809.894666,3753.867940
425.838144,7550.100608,-6143.709319,3983.696590
425.838466,8660.409521,-4811.338623,2374.896044
425.838788,7846.182985,-5033.400406,1302.362347
425.839109,5255.462188,-4737.318029,3370.820191
425.839431,3478.967927,-4515.256246,2528.115143
425.839752,2960.823768,-7105.977043,-2221.676944
425.840074,2368.659014,-9696.697840,-4519.963438
425.840396,296.082377,-9992.780217,-2987.772442
425.840717,-1628.453072,-11399.171507,-3217.601092
425.841039,-2072.576638,-15174.221811,-3983.696590
425.841361,-2738.761985,-16284.530724,-3600.648841
425.841682,-3775.050304,-13397.727550,-5209.449386
425.842004,-2812.782580,-10732.986159,-5209.449386
425.842325,-370.102971,-10288.862594,-3524.039291
425.842647,1332.370696,-8882.471304,-2374.896044
425.842969,3404.947333,-7105.977043,-2451.505594
425.843290,5995.668130,-7254.018232,-459.657299
425.843612,8290.306550,-8956.491898,306.438199
425.843933,8142.265362,-9252.574275,1149.143247
425.844255,7179.997637,-8290.306550,2221.676944
425.844577,6143.709319,-7105.977043,1608.800546
425.844898,5403.503377,-8438.347739,766.095498
425.845220,3256.906145,-8808.450710,383.047749
425.845542,0.000000,-8290.306550,689.485948
425.845863,-1850.514855,-7772.162391,76.609550
425.846185,-1554.432478,-9844.739029,-919.314598
425.846506,-222.061783,-11325.150913,-1915.238745
425.846828,0.000000,-10807.006753,-2451.505594
425.847150,222.061783,-10066.800811,-1455.581446
425.847471,1850.514855,-10140.821405,-919.314598
425.847793,3997.112087,-9918.759623,-2987.772442
425.848114,5329.482782,-9474.636058,-5132.839837
425.848436,5403.503377,-8882.471304,-3140.991542
425.848758,4811.338623,-8956.491898,-1378.971896
425.849079,4589.276840,-8438.347739,-995.924147
425.849401,3552.988522,-7846.182985,-1378.971896
425.849723,2146.597232,-7476.080014,-1608.800546
425.850044,1110.308913,-7994.224174,-2451.505594
425.850366,740.205942,-9400.615463,-3447.429741
425.850687,0.000000,-10881.027347,-2374.896044
425.851009,-740.205942,-10066.800811,459.657299
425.851331,-740.205942,-7402.059420,1762.019645
425.851652,592.164754,-8808.450710,-1149.143247
425.851974,2294.638420,-10955.047942,-3140.991542
425.852295,3849.070898,-12805.562797,-2757.943793
425.852617,3701.029710,-13619.789333,-1608.800546
425.852939,4441.235652,-14952.160028,919.314598
425.853260,5551.544565,-13471.748144,2604.724693
425.853582,5699.585753,-10436.903782,383.047749
425.853903,6439.791695,-7476.080014,-995.924147
425.854225,7994.224174,-7328.038826,-2451.505594
425.854547,9030.512492,-9326.594869,-3370.820191
425.854868,9770.718434,-8956.491898,-766.095498
425.855190,9474.636058,-7476.080014,2604.724693
425.855512,7550.100608,-5995.668130,2834.553343
425.855833,5773.606348,-6217.729913,995.924147
425.856155,2146.597232,-4663.297435,-1532.190996
425.856476,-2146.597232,-3997.112087,-3983.696590
425.856798,-4737.318029,-6069.688724,-4290.134789
425.857120,-5995.668130,-10066.800811,-3064.381992
425.857441,-4737.318029,-11843.295072,-3677.258390
425.857763,-3404.947333,-11695.253884,-4749.792088
425.858084,-1776.494261,-13619.789333,-3370.820191
425.858406,-1406.391290,-13841.851115,-2145.067394
425.858728,-1998.556043,-12361.439231,-2145.067394
425.859049,-1184.329507,-10436.903782,-4213.525239
425.859371,2294.638420,-11029.068536,-4749.792088
425.859692,3849.070898,-12879.583391,-3370.820191
425.860014,4811.338623,-12139.377449,-689.485948
425.860336,7328.038826,-11769.274478,2834.553343
425.860657,9474.636058,-9474.636058,3983.696590
425.860979,11325.150913,-7402.059420,4519.963438
425.861300,11399.171507,-6069.688724,2604.724693
425.861622,10807.006753,-6587.832884,-536.266849
425.861944,9770.718434,-6587.832884,-153.219100
425.862265,8216.285956,-5551.544565,1072.533697
425.862587,3627.009116,-5403.503377,766.095498
425.862908,444.123565,-6883.915261,459.657299
425.863230,-1924.535449,-7105.977043,-383.047749
425.863551,-4515.256246,-8956.491898,-4060.306139
425.863873,-6809.894666,-10881.027347,-6128.763984
425.864195,-7624.121203,-13249.686362,-5898.935335
425.864516,-9252.574275,-12657.521608,-4826.401637
425.864838,-9992.780217,-11621.233289,-2757.943793
425.865159,-9252.574275,-12879.583391,-2757.943793
425.865481,-7624.121203,-13915.871710,-6358.592633
425.865803,-6513.812290,-13101.645173,-5286.058936
425.866124,-4441.235652,-11769.274478,-2145.067394
425.866446,-222.061783,-8660.409521,229.828649
425.866767,4737.318029,-5847.626942,995.924147
425.867089,8068.244768,-4589.276840,1072.533697
425.867411,9844.739029,-4589.276840,1991.848295
425.867732,10066.800811,-3849.070898,1838.629195
425.868054,9104.533087,-5329.482782,1455.581446
425.868375,9030.512492,-7994.224174,1302.362347
425.868697,8438.347739,-9326.594869,-459.657299
425.869018,6365.771101,-9326.594869,-919.314598
425.869340,3997.112087,-10436.903782,-306.438199
425.869662,1924.535449,-11473.192101,-689.485948
425.869983,-666.185348,-11843.295072,-3294.210641
425.870305,-3775.050304,-12287.418637,-4060.306139
425.870626,-6069.688724,-13249.686362,-3983.696590
425.870948,-6069.688724,-12953.603985,-3983.696590
425.871270,-4219.173869,-12139.377449,-3983.696590
425.871591,-2590.720797,-11473.192101,-2451.505594
425.871913,-2294.638420,-10658.965565,-612.876398
425.872234,-2368.659014,-9030.512492,536.266849
425.872556,-1850.514855,-7105.977043,76.609550
425.872878,-592.164754,-5921.647536,-1991.848295
425.873199,1036.288319,-5847.626942,-3830.477490
425.873521,1628.453072,-5921.647536,-2451.505594
425.873842,1406.391290,-6735.874072,-306.438199
425.874164,1924.535449,-6883.915261,306.438199
425.874486,1480.411884,-7105.977043,-2221.676944
425.874807,888.247130,-8586.388927,-4060.306139
425.875129,0.000000,-12139.377449,-3524.039291
425.875450,-1258.350101,-14730.098246,-1915.238745
425.875772,-1480.411884,-13323.706956,-1915.238745
425.876093,444.123565,-12287.418637,-1762.019645
425.876415,2812.782580,-13249.686362,-1378.971896
425.876737,3627.009116,-11843.295072,-306.438199
425.877058,2442.679609,-10362.883188,0.000000
425.877380,2368.659014,-8734.430116,1302.362347
425.877701,2812.782580,-8068.244768,2374.896044
425.878023,2886.803174,-7476.080014,229.828649
425.878345,1628.453072,-5551.544565,-689.485948
425.878666,814.226536,-4737.318029,536.266849
425.878988,-740.205942,-5403.503377,383.047749
425.879309,-2812.782580,-5255.462188,0.000000
425.879631,-6809.894666,-5551.544565,-2298.286494
425.879953,-9030.512492,-9178.553681,-4519.963438
425.880274,-10807.006753,-10584.944971,-4979.620737
425.880596,-11251.130318,-10288.862594,-5669.106685
425.880917,-10140.821405,-11769.274478,-5439.278036
425.881239,-6587.832884,-14211.954086,-3600.648841
425.881560,-3552.988522,-13323.706956,-3294.210641
425.881882,-592.164754,-11769.274478,-2834.553343
425.882204,2294.638420,-11843.295072,-306.438199
425.882525,4071.132681,-10584.944971,0.000000
425.882847,5403.503377,-6809.894666,-1608.800546
425.883168,6809.894666,-5921.647536,-1302.362347
425.883490,7105.977043,-7105.977043,1302.362347
425.883812,7031.956449,-7105.977043,2757.943793
425.884133,5995.668130,-6365.771101,2757.943793
425.884455,4811.338623,-7105.977043,2068.457845
425.884776,3923.091493,-8956.491898,1302.362347
425.885098,962.267725,-9474.636058,-766.095498
425.885420,-1998.556043,-8512.368333,-2451.505594
425.885741,-3701.029710,-8290.306550,-2298.286494
425.886063,-3701.029710,-10362.883188,-3524.039291
425.886384,-3182.885551,-13323.706956,-4213.525239
425.886706,-3108.864956,-14656.077652,-4060.306139
425.887027,-2960.823768,-14211.954086,-2911.162892
425.887349,-1332.370696,-13027.624579,-2374.896044
425.887671,518.144159,-11103.089130,-3064.381992
425.887992,1258.350101,-9104.533087,-3600.648841
425.888314,444.123565,-8808.450710,-3447.429741
425.888635,-222.061783,-8734.430116,-1762.019645
425.888957,-740.205942,-8290.306550,-612.876398
425.889279,-1110.308913,-7254.018232,-689.485948
425.889600,-1776.494261,-7698.141797,0.000000
425.889922,-2664.741391,-8216.285956,383.047749
425.890243,-3404.947333,-7105.977043,995.924147
425.890565,-3552.988522,-5329.482782,0.000000
425.890887,-2664.741391,-6513.812290,-1149.143247
425.891208,-1628.453072,-8956.491898,-1762.019645
425.891530,-370.102971,-10807.006753,-2145.067394
425.891851,888.247130,-11103.089130,-766.095498
425.892173,3108.864956,-12435.459826,0.000000
425.892494,4737.318029,-13323.706956,229.828649
425.892816,4737.318029,-11769.274478,-459.657299
425.893138,4367.215058,-9622.677246,-1225.752797
425.893459,4737.318029,-8808.450710,-2374.896044
425.893781,4811.338623,-8586.388927,-1991.848295
425.894102,3775.050304,-7105.977043,-1455.581446
425.894424,1554.432478,-6143.709319,-612.876398
425.894746,-814.226536,-7105.977043,459.657299
425.895067,-3108.864956,-8438.347739,-306.438199
425.895389,-5255.462188,-7772.162391,-1378.971896
425.895710,-6661.853478,-7476.080014,-2604.724693
425.896032,-6883.915261,-8586.388927,-2451.505594
425.896354,-6069.688724,-9844.739029,-2145.067394
425.896675,-5255.462188,-10140.821405,-1685.410096
425.896997,-4219.173869,-10362.883188,-919.314598
425.897318,-1628.453072,-10732.986159,-1225.752797
425.897640,666.185348,-11029.068536,-2681.334243
425.897961,2146.597232,-11251.130318,-3447.429741
425.898283,3330.926739,-11621.233289,-2604.724693
425.898605,5403.503377,-10584.944971,-1302.362347
425.898926,6217.729913,-10362.883188,-1762.019645
425.899248,5329.482782,-9252.574275,-1685.410096
425.899569,3034.844362,-8216.285956,-689.485948
425.899891,444.123565,-8438.347739,-1378.971896
425.900213,-2146.597232,-10140.821405,-2221.676944
425.900534,-5107.421000,-10510.924376,-919.314598
425.900856,-6365.771101,-10288.862594,-1072.533697
425.901177,-5329.482782,-9844.739029,-1838.629195
425.901499,-3034.844362,-10436.903782,-1378.971896
425.901821,-1850.514855,-9696.697840,383.047749
425.902142,-1480.411884,-8956.491898,459.657299
425.902464,-518.144159,-8438.347739,0.000000
425.902785,148.041188,-8734.430116,-1838.629195
425.903107,296.082377,-9770.718434,-2604.724693
425.903428,222.061783,-9400.615463,-2221.676944
425.903750,222.061783,-9622.677246,-2374.896044
425.904072,740.205942,-9918.759623,-1225.752797
425.904393,518.144159,-8808.450710,-1225.752797
425.904715,0.000000,-8068.244768,-1685.410096
425.905036,-1258.350101,-8142.265362,-2145.067394
425.905358,-3478.967927,-7624.121203,-1378.971896
425.905680,-5551.544565,-7624.121203,-612.876398
425.906001,-5033.400406,-8068.244768,-1532.190996
425.906323,-3404.947333,-9326.594869,-2221.676944
425.906644,-1258.350101,-9696.697840,-1225.752797
425.906966,74.020594,-8512.368333,919.314598
425.907288,1702.473667,-7846.182985,1532.190996
425.907609,3034.844362,-8216.285956,0.000000
425.907931,3701.029710,-8660.409521,-1302.362347
425.908252,3701.029710,-9178.553681,-1532.190996
425.908574,3775.050304,-9474.636058,-1532.190996
425.908896,3849.070898,-10510.924376,-2451.505594
425.909217,4071.132681,-9326.594869,-1991.848295
425.909539,3108.864956,-9030.512492,-2298.286494
425.909860,1332.370696,-8660.409521,-3140.991542
425.910182,-1258.350101,-9252.574275,-2528.115143
425.910503,-2960.823768,-9918.759623,-2528.115143
425.910825,-4589.276840,-11103.089130,-3677.258390
425.911147,-4219.173869,-11621.233289,-4060.306139
425.911468,-3330.926739,-13101.645173,-2604.724693
425.911790,-2146.597232,-12361.439231,-459.657299
425.912111,-1036.288319,-10510.924376,76.609550
425.912433,1036.288319,-9104.533087,-1149.143247
425.912755,2590.720797,-9992.780217,-1072.533697
425.913076,2368.659014,-9622.677246,-1762.019645
425.913398,1480.411884,-9030.512492,-1608.800546
425.913719,1924.535449,-8956.491898,0.000000
425.914041,2886.803174,-8882.471304,-1149.143247
425.914363,2220.617826,-7476.080014,-2374.896044
425.914684,-370.102971,-7698.141797,-1685.410096
425.915006,-2590.720797,-8808.450710,-306.438199
425.915327,-4145.153275,-9104.533087,-1762.019645
425.915649,-4811.338623,-10140.821405,-2834.553343
425.915970,-5181.441594,-11103.089130,-2068.457845
425.916292,-4071.132681,-11029.068536,-1225.752797
425.916614,-2516.700203,-10066.800811,-1685.410096
425.916935,-592.164754,-9696.697840,-612.876398
425.917257,370.102971,-8734.430116,383.047749
425.917578,148.041188,-7328.038826,-689.485948
425.917900,814.226536,-7550.100608,-1302.362347
425.918222,1776.494261,-9104.533087,-1608.800546
425.918543,2590.720797,-9104.533087,-1378.971896
425.918865,2960.823768,-9326.594869,-229.828649
425.919186,2738.761985,-8882.471304,919.314598
425.919508,1702.473667,-7550.100608,1685.410096
425.919830,-296.082377,-7698.141797,153.219100
425.920151,-2294.638420,-8216.285956,-1455.581446
425.920473,-3997.112087,-7994.224174,-1838.629195
425.920794,-5255.462188,-7920.203579,-1685.410096
425.921116,-5255.462188,-8586.388927,-995.924147
425.921437,-3256.906145,-10214.842000,-612.876398
425.921759,-1998.556043,-10140.821405,-1302.362347
425.922081,-1924.535449,-10436.903782,-995.924147
425.922402,-1406.391290,-10732.986159,-383.047749
425.922724,-740.205942,-10066.800811,-1838.629195
425.923045,0.000000,-9252.574275,-3294.210641
425.923367,1110.308913,-9178.553681,-3217.601092
425.923689,2664.741391,-9326.594869,-3217.601092
425.924010,3330.926739,-9622.677246,-2757.943793
425.924332,2960.823768,-9326.594869,-1378.971896
425.924653,1036.288319,-9622.677246,-306.438199
425.924975,-1184.329507,-10807.006753,-1608.800546
425.925297,-2812.782580,-11399.171507,-2834.553343
425.925618,-4367.215058,-10881.027347,-1762.019645
425.925940,-4441.235652,-9622.677246,-1149.143247
425.926261,-2738.761985,-9104.533087,-919.314598
425.926583,-1036.288319,-8216.285956,-612.876398
425.926904,444.123565,-8290.306550,-766.095498
425.927226,1258.350101,-9104.533087,-995.924147
425.927548,2072.576638,-9104.533087,-612.876398
425.927869,1776.494261,-9104.533087,-1225.752797
425.928191,1702.473667,-9992.780217,-1149.143247
425.928512,2294.638420,-10362.883188,-2451.505594
425.928834,2516.700203,-10436.903782,-3217.601092
425.929156,2368.659014,-9918.759623,-2068.457845
425.929477,1480.411884,-8956.491898,-1225.752797
425.929799,962.267725,-8142.265362,-1915.238745
425.930120,-1110.308913,-9178.553681,-2451.505594
425.930442,-2886.803174,-9770.718434,-1532.190996
425.930764,-4515.256246,-8956.491898,-229.828649
425.931085,-4071.132681,-8068.244768,-1072.533697
425.931407,-2072.576638,-8586.388927,-1378.971896
425.931728,-370.102971,-7846.182985,-1225.752797
425.932050,-296.082377,-7402.059420,995.924147
425.932371,0.000000,-7624.121203,1685.410096
425.932693,1036.288319,-8068.244768,229.828649
425.933015,2072.576638,-8438.347739,-1762.019645
425.933336,2072.576638,-8882.471304,-2604.724693
425.933658,2590.720797,-9844.739029,-2298.286494
425.933979,3404.947333,-9770.718434,-2374.896044
425.934301,3404.947333,-9696.697840,-2145.067394
425.934623,2294.638420,-9918.759623,-1608.800546
425.934944,518.144159,-10140.821405,-2145.067394
425.935266,-1554.432478,-10881.027347,-3064.381992
425.935587,-3923.091493,-11991.336260,-2757.943793
425.935909,-4663.297435,-11621.233289,-1991.848295
425.936231,-3627.009116,-11473.192101,-2068.457845
425.936552,-1554.432478,-10955.047942,-1455.581446
425.936874,-740.205942,-9992.780217,76.609550
425.937195,-740.205942,-8438.347739,995.924147
425.937517,-222.061783,-7402.059420,-229.828649
425.937838,370.102971,-7772.162391,-1225.752797
425.938160,0.000000,-9030.512492,-1532.190996
425.938482,0.000000,-9030.512492,-1455.581446
425.938803,740.205942,-9622.677246,-1762.019645
425.939125,1776.494261,-10658.965565,-1608.800546
425.939446,740.205942,-10436.903782,-1302.362347
425.939768,-1406.391290,-9474.636058,-995.924147
425.940090,-3182.885551,-9696.697840,-2604.724693
425.940411,-4293.194464,-10214.842000,-3294.210641
425.940733,-5255.462188,-9252.574275,-2451.505594
425.941054,-4885.359217,-8068.244768,-2681.334243
425.941376,-3034.844362,-9104.533087,-2298.286494
425.941698,-1480.411884,-9030.512492,0.000000
425.942019,-1480.411884,-8512.368333,1225.752797
425.942341,-1036.288319,-7772.162391,536.266849
425.942662,370.102971,-7476.080014,-1072.533697
425.942984,1036.288319,-7328.038826,-2221.676944
425.943306,1184.329507,-7994.224174,-2221.676944
425.943627,1776.494261,-7698.141797,-1915.238745
425.943949,2368.659014,-8364.327145,-1532.190996
425.944270,2368.659014,-9548.656652,-1225.752797
425.944592,962.267725,-10510.924376,-766.095498
425.944913,-666.185348,-10066.800811,-1455.581446
425.945235,-1480.411884,-10881.027347,-3064.381992
425.945557,-1554.432478,-10732.986159,-2451.505594
425.945878,-2368.659014,-10288.862594,-2374.896044
425.946200,-1850.514855,-9474.636058,-1302.362347
425.946521,-1036.288319,-9252.574275,-689.485948
425.946843,-444.123565,-8438.347739,-459.657299
425.947165,0.000000,-7772.162391,-1302.362347
425.947486,0.000000,-8882.471304,-1455.581446
425.947808,222.061783,-9104.533087,-1072.533697
425.948129,592.164754,-8956.491898,-766.095498
425.948451,1628.453072,-8734.430116,-1838.629195
425.948773,3478.967927,-9326.594869,-3370.820191
425.949094,4219.173869,-9548.656652,-3753.867940
425.949416,2516.700203,-9918.759623,-2987.772442
425.949737,518.144159,-10436.903782,-1455.581446
425.950059,-962.267725,-11769.274478,-1685.410096
425.950380,-2146.597232,-13175.665768,-2451.505594
425.950702,-3627.009116,-12731.542202,-2604.724693
425.951024,-3627.009116,-11399.171507,-1838.629195
425.951345,-2146.597232,-10066.800811,-1532.190996
425.951667,222.061783,-8882.471304,-1378.971896
425.951988,1110.308913,-7698.141797,-306.438199
425.952310,1406.391290,-6291.750507,919.314598
425.952632,814.226536,-6217.729913,995.924147
425.952953,592.164754,-7402.059420,-842.705048
425.953275,74.020594,-7402.059420,-1915.238745
425.953596,814.226536,-8808.450710,-2374.896044
425.953918,1480.411884,-10140.821405,-2374.896044
425.954240,888.247130,-9844.739029,-842.705048
425.954561,-962.267725,-8882.471304,0.000000
425.954883,-2590.720797,-9252.574275,-2528.115143
425.955204,-3627.009116,-11177.109724,-4290.134789
425.955526,-4663.297435,-12435.459826,-3447.429741
425.955847,-4367.215058,-11029.068536,-2451.505594
425.956169,-1628.453072,-9992.780217,-1762.019645
425.956491,1036.288319,-10214.842000,-689.485948
425.956812,1776.494261,-9104.533087,1149.143247
425.957134,1480.411884,-7476.080014,1532.190996
425.957455,1850.514855,-5699.585753,-153.219100
425.957777,2812.782580,-6809.894666,-2374.896044
425.958099,1998.556043,-7402.059420,-1762.019645
425.958421,444.123565,-7179.997637,-536.266849
425.958743,1110.308913,-8660.409521,306.438199
425.959065,2368.659014,-9696.697840,-1608.800546
425.959386,2664.741391,-10140.821405,-3370.820191
425.959708,1036.288319,-10510.924376,-2757.943793
425.960030,-1332.370696,-11177.109724,-1455.581446
425.960352,-3256.906145,-11547.212695,-1532.190996
425.960674,-4515.256246,-11177.109724,-2374.896044
425.960996,-4885.359217,-11103.089130,-3064.381992
425.961318,-3627.009116,-11621.233289,-3064.381992
425.961640,-2590.720797,-10881.027347,-2298.286494
425.961962,-1924.535449,-9474.636058,-612.876398
425.962283,-962.267725,-9252.574275,919.314598
425.962605,592.164754,-8956.491898,536.266849
425.962927,1036.288319,-7698.141797,-1455.581446
425.963249,888.247130,-7254.018232,-1225.752797
425.963571,814.226536,-6809.894666,-1149.143247
425.963893,1406.391290,-7772.162391,-2528.115143
425.964215,1480.411884,-9326.594869,-2757.943793
425.964537,148.041188,-9992.780217,-1225.752797
425.964858,-1554.432478,-10732.986159,-842.705048
425.965180,-2960.823768,-11251.130318,-1608.800546
425.965502,-3404.947333,-11843.295072,-2145.067394
425.965824,-3478.967927,-10807.006753,-2834.553343
425.966146,-1702.473667,-9474.636058,-3370.820191
425.966468,666.185348,-8586.388927,-1455.581446
425.966790,1554.432478,-7994.224174,0.000000
425.967112,666.185348,-7476.080014,459.657299
425.967434,-370.102971,-7105.977043,-229.828649
425.967755,-444.123565,-8142.265362,-1532.190996
425.968077,0.000000,-8364.327145,-1991.848295
425.968399,222.061783,-7772.162391,-2911.162892
425.968721,1258.350101,-7328.038826,-2298.286494
425.969043,2516.700203,-8142.265362,-1302.362347
425.969365,2590.720797,-8882.471304,-1149.143247
425.969687,1110.308913,-9548.656652,-2221.676944
425.970009,-1258.350101,-11251.130318,-2451.505594
425.970331,-2738.761985,-11843.295072,-2834.553343
425.970652,-3849.070898,-11473.192101,-2681.334243
425.970974,-3627.009116,-10881.027347,-2604.724693
425.971296,-2072.576638,-10214.842000,-1991.848295
425.971618,370.102971,-9252.574275,-995.924147
425.971940,1332.370696,-8512.368333,0.000000
425.972262,1628.453072,-7846.182985,-306.438199
425.972584,1184.329507,-7698.141797,-536.266849
425.972906,962.267725,-7920.203579,-1378.971896
425.973227,1184.329507,-8438.347739,-2221.676944
425.973549,2146.597232,-8734.430116,-2604.724693
425.973871,3034.844362,-9178.553681,-2451.505594
425.974193,2368.659014,-9770.718434,-2145.067394
425.974515,370.102971,-9918.759623,-1455.581446
425.974837,-1998.556043,-11103.089130,-1685.410096
425.975159,-3256.906145,-12361.439231,-3140.991542
425.975481,-4145.153275,-13027.624579,-3370.820191
425.975803,-4219.173869,-11177.109724,-3140.991542
425.976124,-3182.885551,-10140.821405,-2528.115143
425.976446,-1036.288319,-10732.986159,-612.876398
425.976768,-296.082377,-8956.491898,689.485948
425.977090,74.020594,-7179.997637,842.705048
425.977412,1184.329507,-7031.956449,-229.828649
425.977734,2072.576638,-7402.059420,-1762.019645
425.978056,1332.370696,-7179.997637,-1149.143247
425.978378,1554.432478,-7105.977043,229.828649
425.978700,1554.432478,-7772.162391,-536.266849
425.979021,2516.700203,-8512.368333,-1685.410096
425.979343,814.226536,-9400.615463,-1838.629195
425.979665,-1184.329507,-9696.697840,-1455.581446
425.979987,-2368.659014,-10881.027347,-1991.848295
425.980309,-3997.112087,-10881.027347,-2834.553343
425.980631,-5329.482782,-11325.150913,-1378.971896
425.980953,-4885.359217,-10214.842000,-995.924147
425.981275,-2664.741391,-9474.636058,-2911.162892
425.981597,-444.123565,-9622.677246,-2451.505594
425.981918,74.020594,-9622.677246,-383.047749
425.982240,148.041188,-7994.224174,1685.410096
425.982562,666.185348,-7328.038826,689.485948
425.982884,1480.411884,-7994.224174,-1225.752797
425.983206,1480.411884,-9030.512492,-1838.629195
425.983528,1850.514855,-8216.285956,-1762.019645
425.983850,2442.679609,-7254.018232,-2221.676944
425.984172,2886.803174,-8364.327145,-1762.019645
425.984493,1480.411884,-9548.656652,-1455.581446
425.984815,-1258.350101,-10732.986159,-1915.238745
425.985137,-2886.803174,-11917.315666,-1915.238745
425.985459,-4589.276840,-12213.398043,-2604.724693
425.985781,-4959.379811,-11843.295072,-3140.991542
425.986103,-4515.256246,-10584.944971,-3294.210641
425.986425,-2516.700203,-10288.862594,-1991.848295
425.986747,-814.226536,-9770.718434,-1072.533697
425.987069,814.226536,-9400.615463,-229.828649
425.987390,1332.370696,-8438.347739,76.609550
425.987712,2294.638420,-8068.244768,76.609550
425.988034,2072.576638,-7698.141797,-842.705048
425.988356,1776.494261,-7328.038826,-1455.581446
425.988678,2368.659014,-7328.038826,-1991.848295
425.989000,3108.864956,-8142.265362,-2451.505594
425.989322,1998.556043,-8808.450710,-1915.238745
425.989644,0.000000,-9474.636058,-1838.629195
425.989966,-2220.617826,-10436.903782,-2221.676944
425.990287,-3997.112087,-11843.295072,-2451.505594
425.990609,-5625.565159,-11325.150913,-1532.190996
425.990931,-5403.503377,-9770.718434,-3064.381992
425.991253,-2812.782580,-9474.636058,-4519.963438
425.991575,-370.102971,-9844.739029,-2911.162892
425.991897,0.000000,-9696.697840,612.876398
425.992219,0.000000,-8364.327145,1532.190996
425.992541,740.205942,-8142.265362,-229.828649
425.992863,2368.659014,-9474.636058,-2145.067394
425.993184,2220.617826,-8734.430116,-1378.971896
425.993506,2368.659014,-7105.977043,-1225.752797
425.993828,3182.885551,-7179.997637,-1532.190996
425.994150,4145.153275,-8142.265362,-1149.143247
425.994472,2368.659014,-9474.636058,-229.828649
425.994794,-666.185348,-9400.615463,-842.705048
425.995116,-2738.761985,-10436.903782,-2604.724693
425.995438,-3701.029710,-11621.233289,-3140.991542
425.995759,-4367.215058,-11695.253884,-2451.505594
425.996081,-4219.173869,-10436.903782,-2451.505594
425.996403,-1702.473667,-10140.821405,-2145.067394
425.996725,1184.329507,-10066.800811,-1685.410096
425.997047,1628.453072,-9622.677246,0.000000
425.997369,1184.329507,-8586.388927,306.438199
425.997691,814.226536,-8216.285956,-689.485948
425.998013,518.144159,-8586.388927,-2145.067394
425.998335,74.020594,-9104.533087,-2298.286494
425.998656,888.247130,-8882.471304,-1608.800546
425.998978,1924.535449,-8882.471304,-1915.238745
425.999300,962.267725,-9104.533087,-1378.971896
425.999622,-1554.432478,-9326.594869,-842.705048
425.999944,-4145.153275,-9918.759623,-1532.190996
426.000266,-5255.462188,-11177.109724,-3447.429741
426.000588,-5033.400406,-11917.315666,-2987.772442
426.000910,-4367.215058,-11547.212695,-3217.601092
426.001232,-3034.844362,-9770.718434,-2068.457845
426.001553,-888.247130,-9770.718434,0.000000
426.001875,222.061783,-9400.615463,842.705048
426.002197,1184.329507,-8734.430116,0.000000
426.002519,2220.617826,-8216.285956,-1302.362347
426.002841,2738.761985,-8882.471304,-842.705048
426.003163,2738.761985,-8956.491898,0.000000
426.003485,2072.576638,-7476.080014,612.876398
426.003807,2294.638420,-7179.997637,0.000000
426.004128,2886.803174,-7772.162391,-1608.800546
426.004450,1924.535449,-7624.121203,-2987.772442
426.004772,-666.185348,-8068.244768,-2221.676944
426.005094,-2738.761985,-9992.780217,-1608.800546
426.005416,-4885.359217,-10658.965565,-459.657299
426.005738,-6661.853478,-10732.986159,-612.876398
426.006060,-6883.915261,-10214.842000,-2757.943793
426.006382,-4737.318029,-10362.883188,-3524.039291
426.006704,-2960.823768,-9252.574275,-2604.724693
426.007025,-1258.350101,-9030.512492,-536.266849
426.007347,74.020594,-8734.430116,1072.533697
426.007669,1258.350101,-8290.306550,153.219100
426.007991,1998.556043,-8438.347739,-1225.752797
426.008313,2812.782580,-8438.347739,-1608.800546
426.008635,3849.070898,-8068.244768,-2451.505594
426.008957,4145.153275,-8142.265362,-2757.943793
426.009279,3923.091493,-8808.450710,-1838.629195
426.009601,2368.659014,-9178.553681,-842.705048
426.009922,296.082377,-10066.800811,-1149.143247
426.010244,-1258.350101,-12731.542202,-2298.286494
426.010566,-3108.864956,-12657.521608,-2374.896044
426.010888,-4071.132681,-11473.192101,-2987.772442
426.011210,-2960.823768,-10732.986159,-2681.334243
426.011532,-1184.329507,-10362.883188,-1225.752797
426.011854,0.000000,-9178.553681,-612.876398
426.012176,740.205942,-8290.306550,-612.876398
426.012498,1628.453072,-8290.306550,-612.876398
426.012819,1258.350101,-9474.636058,-1225.752797
426.013141,666.185348,-9400.615463,-1072.533697
426.013463,222.061783,-8808.450710,-1149.143247
426.013785,1406.391290,-8956.491898,-2145.067394
426.014107,2072.576638,-8734.430116,-2374.896044
426.014429,444.123565,-8364.327145,-1762.019645
426.014751,-1406.391290,-8068.244768,-1685.410096
426.015073,-3478.967927,-9474.636058,-2298.286494
426.015394,-4515.256246,-10658.965565,-3830.477490
426.015716,-5329.482782,-11473.192101,-3600.648841
426.016038,-4737.318029,-10658.965565,-2987.772442
426.016360,-2516.700203,-10658.965565,-2298.286494
426.016682,0.000000,-10362.883188,-1608.800546
426.017004,74.020594,-9326.594869,0.000000
426.017326,0.000000,-8290.306550,766.095498
426.017648,518.144159,-7920.203579,0.000000
426.017970,1332.370696,-7846.182985,-1149.143247
426.018291,1702.473667,-7105.977043,-766.095498
426.018613,2738.761985,-7476.080014,-766.095498
426.018935,3775.050304,-7772.162391,-153.219100
426.019257,4219.173869,-7920.203579,306.438199
426.019579,2664.741391,-8068.244768,229.828649
426.019901,1110.308913,-8586.388927,-612.876398
426.020223,-518.144159,-9474.636058,-2374.896044
426.020545,-2516.700203,-11103.089130,-2834.553343
426.020867,-4441.235652,-11547.212695,-1608.800546
426.021188,-4219.173869,-10658.965565,-1762.019645
426.021510,-2960.823768,-10584.944971,-2757.943793
426.021832,-1924.535449,-9918.759623,-2145.067394
426.022154,-1480.411884,-9474.636058,-919.314598
426.022476,-1184.329507,-9474.636058,-612.876398
426.022798,-518.144159,-9548.656652,-995.924147
426.023120,-666.185348,-9252.574275,-1378.971896
426.023442,-888.247130,-8734.430116,-919.314598
426.023763,592.164754,-9178.553681,-842.705048
426.024085,1480.411884,-9030.512492,-1762.019645
426.024407,1554.432478,-9326.594869,-1762.019645
426.024729,222.061783,-9400.615463,-536.266849
426.025051,-1628.453072,-10510.924376,-459.657299
426.025373,-2368.659014,-11325.150913,-1455.581446
426.025695,-3182.885551,-11029.068536,-2068.457845
426.026017,-3034.844362,-10658.965565,-1991.848295
426.026339,-1702.473667,-10362.883188,-1532.190996
426.026660,-296.082377,-9474.636058,-1302.362347
426.026982,0.000000,-9474.636058,-459.657299
426.027304,222.061783,-8956.491898,383.047749
426.027626,666.185348,-9104.533087,-306.438199
426.027948,1332.370696,-8586.388927,-1225.752797
426.028270,2146.597232,-8808.450710,-1608.800546
426.028592,2442.679609,-8512.368333,-1455.581446
426.028914,2812.782580,-7846.182985,-766.095498
426.029236,1924.535449,-6439.791695,-229.828649
426.029557,370.102971,-6661.853478,-1149.143247
426.029879,-1480.411884,-7698.141797,-1915.238745
426.030201,-3552.988522,-9622.677246,-2451.505594
426.030523,-5477.523971,-10140.821405,-1838.629195
426.030845,-5329.482782,-10658.965565,-995.924147
426.031167,-4737.318029,-10658.965565,-1532.190996
426.031489,-3182.885551,-10140.821405,-1225.752797
426.031811,-1702.473667,-9178.553681,-1072.533697
426.032133,-592.164754,-8586.388927,-1072.533697
426.032454,592.164754,-7994.224174,-1225.752797
426.032776,2220.617826,-7698.141797,-1378.971896
426.033098,2738.761985,-8216.285956,-1608.800546
426.033420,3923.091493,-8586.388927,-1685.410096
426.033742,5181.441594,-9104.533087,-2221.676944
426.034064,5625.565159,-9918.759623,-2604.724693
426.034386,4219.173869,-10288.862594,-995.924147
426.034708,1776.494261,-9918.759623,-612.876398
426.035029,-666.185348,-10140.821405,-1838.629195
426.035351,-2294.638420,-11103.089130,-2757.943793
426.035673,-3404.947333,-11695.253884,-2145.067394
426.035995,-3552.988522,-10436.903782,-3140.991542
426.036317,-3108.864956,-10140.821405,-2451.505594
426.036639,-2220.617826,-9400.615463,-1378.971896
426.036961,-1924.535449,-10362.883188,-766.095498
426.037283,-1998.556043,-10066.800811,-1225.752797
426.037605,-2368.659014,-9622.677246,-995.924147
426.037926,-2590.720797,-9548.656652,-2221.676944
426.038248,-2146.597232,-9474.636058,-3064.381992
426.038570,-444.123565,-8364.327145,-2834.553343
426.038892,1332.370696,-8734.430116,-2528.115143
426.039214,2220.617826,-8660.409521,-1455.581446
426.039536,2294.638420,-8068.244768,0.000000
426.039858,592.164754,-8364.327145,-1378.971896
426.040180,-1332.370696,-11103.089130,-1915.238745
426.040502,-3108.864956,-11769.274478,-1455.581446
426.040823,-3923.091493,-10436.903782,-1762.019645
426.041145,-2886.803174,-9400.615463,-1072.533697
426.041467,-666.185348,-9770.718434,-919.314598
426.041789,296.082377,-8808.450710,0.000000
426.042111,222.061783,-7846.182985,995.924147
426.042433,370.102971,-8068.244768,766.095498
426.042755,814.226536,-7698.141797,76.609550
426.043077,962.267725,-7402.059420,-995.924147
426.043398,370.102971,-7105.977043,-919.314598
426.043720,888.247130,-7772.162391,-842.705048
426.044042,2220.617826,-8512.368333,-1838.629195
426.044364,2146.597232,-8882.471304,-1302.362347
426.044686,444.123565,-8438.347739,-536.266849
426.045008,-740.205942,-9548.656652,-2221.676944
426.045330,-1554.432478,-10732.986159,-3217.601092
426.045652,-2590.720797,-11325.150913,-2834.553343
426.045974,-2368.659014,-10955.047942,-2451.505594
426.046295,-1406.391290,-9770.718434,-2298.286494
426.046617,-222.061783,-9252.574275,-1455.581446
426.046939,-370.102971,-9252.574275,-612.876398
426.047261,-370.102971,-9030.512492,-766.095498
426.047583,0.000000,-8586.388927,-1762.019645
426.047905,1110.308913,-9104.533087,-1378.971896
426.048227,1776.494261,-9474.636058,-766.095498
426.048549,2294.638420,-8512.368333,-459.657299
426.048871,2886.803174,-9252.574275,-919.314598
426.049192,3404.947333,-10436.903782,-1072.533697
426.049514,2146.597232,-10214.842000,-1838.629195
426.049836,148.041188,-9548.656652,-2451.505594
426.050158,-1332.370696,-10955.047942,-2528.115143
426.050480,-2738.761985,-11769.274478,-2298.286494
426.050802,-3849.070898,-12065.356855,-2221.676944
426.051124,-3330.926739,-11029.068536,-2221.676944
426.051446,-1924.535449,-10214.842000,-2681.334243
426.051768,0.000000,-9918.759623,-2528.115143
426.052089,0.000000,-9252.574275,-689.485948
426.052411,-666.185348,-7772.162391,0.000000
426.052733,-1036.288319,-7476.080014,-536.266849
426.053055,0.000000,-8068.244768,-1532.190996
426.053377,518.144159,-8660.409521,-2298.286494
426.053699,814.226536,-7254.018232,-2528.115143
426.054021,1480.411884,-7105.977043,-1378.971896
426.054343,1554.432478,-7476.080014,0.000000
426.054664,962.267725,-8216.285956,-153.219100
426.054986,-370.102971,-8586.388927,-1915.238745
426.055308,-1702.473667,-10584.944971,-2298.286494
426.055630,-3330.926739,-11399.171507,-1762.019645
426.055952,-3330.926739,-11029.068536,-1225.752797
426.056274,-2442.679609,-9918.759623,-1378.971896
426.056596,-518.144159,-9918.759623,-689.485948
426.056918,222.061783,-9252.574275,-459.657299
426.057240,370.102971,-7698.141797,-153.219100
426.057561,740.205942,-7179.997637,-689.485948
426.057883,1406.391290,-7476.080014,-2374.896044
426.058205,1776.494261,-8364.327145,-2451.505594
426.058527,1776.494261,-9104.533087,-1072.533697
426.058849,1702.473667,-10658.965565,-766.095498
426.059171,1406.391290,-9992.780217,-1915.238745
426.059493,740.205942,-10066.800811,-2604.724693
426.059815,-518.144159,-11029.068536,-2604.724693
426.060137,-1998.556043,-11843.295072,-2451.505594
426.060458,-3404.947333,-11473.192101,-2374.896044
426.060780,-3849.070898,-11325.150913,-2298.286494
426.061102,-2368.659014,-11029.068536,-1762.019645
426.061424,-1184.329507,-11177.109724,-1608.800546
426.061746,-888.247130,-9918.759623,-612.876398
426.062068,-1406.391290,-8882.471304,459.657299
426.062390,-518.144159,-7772.162391,536.266849
426.062711,296.082377,-8364.327145,-1378.971896
426.063033,444.123565,-8142.265362,-1532.190996
426.063355,0.000000,-8068.244768,-842.705048
426.063677,1332.370696,-8290.306550,-842.705048
426.063999,2664.741391,-9474.636058,-1915.238745
426.064321,2368.659014,-9770.718434,-1685.410096
426.064642,296.082377,-9622.677246,-842.705048
426.064964,-1036.288319,-9918.759623,-459.657299
426.065286,-1924.535449,-9992.780217,-1915.238745
426.065608,-2146.597232,-10658.965565,-3370.820191
426.065930,-2664.741391,-10807.006753,-2221.676944
426.066252,-2072.576638,-9918.759623,-766.095498
426.066573,-888.247130,-8882.471304,-153.219100
426.066895,-222.061783,-7920.203579,536.266849
426.067217,-666.185348,-7476.080014,1302.362347
426.067539,-814.226536,-7105.977043,-153.219100
426.067861,-518.144159,-6809.894666,-1608.800546
426.068183,296.082377,-7328.038826,-1685.410096
426.068505,1406.391290,-7994.224174,-995.924147
426.068826,2664.741391,-7772.162391,-995.924147
426.069148,4663.297435,-8734.430116,-1532.190996
426.069470,3552.988522,-9400.615463,-1532.190996
426.069792,1406.391290,-9918.759623,-1378.971896
426.070114,-740.205942,-10732.986159,-1762.019645
426.070436,-2368.659014,-10214.842000,-2757.943793
426.070757,-2516.700203,-10584.944971,-3753.867940
426.071079,-2146.597232,-10807.006753,-3447.429741
426.071401,-1110.308913,-10288.862594,-1838.629195
426.071723,0.000000,-9030.512492,-1072.533697
426.072045,444.123565,-8956.491898,-1608.800546
426.072367,1036.288319,-9104.533087,-995.924147
426.072688,370.102971,-9622.677246,-1762.019645
426.073010,-740.205942,-8808.450710,-2374.896044
426.073332,-1332.370696,-9326.594869,-2451.505594
426.073654,0.000000,-9400.615463,-2834.553343
426.073976,1036.288319,-9622.677246,-3140.991542
426.074298,1258.350101,-9844.739029,-2221.676944
426.074620,-666.185348,-10584.944971,-1302.362347
426.074941,-1924.535449,-11547.212695,-1838.629195
426.075263,-2294.638420,-12213.398043,-3064.381992
426.075585,-2812.782580,-11917.315666,-3217.601092
426.075907,-2294.638420,-11103.089130,-2604.724693
426.076229,-1332.370696,-9992.780217,-1302.362347
426.076551,444.123565,-8956.491898,-919.314598
426.076872,1332.370696,-8586.388927,-306.438199
426.077194,444.123565,-8364.327145,306.438199
426.077516,296.082377,-8438.347739,536.266849
426.077838,0.000000,-8068.244768,-919.314598
426.078160,296.082377,-7772.162391,-1685.410096
426.078482,1036.288319,-7328.038826,-919.314598
426.078804,1258.350101,-6439.791695,-1149.143247
426.079125,666.185348,-7105.977043,-1225.752797
426.079447,-740.205942,-7994.224174,-1302.362347
426.079769,-2516.700203,-10214.842000,-1762.019645
426.080091,-4071.132681,-11843.295072,-3064.381992
426.080413,-4737.318029,-11991.336260,-2145.067394
426.080735,-4515.256246,-11103.089130,-919.314598
426.081056,-3182.885551,-9548.656652,-1072.533697
426.081378,-1184.329507,-9400.615463,-1608.800546
426.081700,370.102971,-8364.327145,-459.657299
426.082022,962.267725,-7476.080014,612.876398
426.082344,1554.432478,-6439.791695,229.828649
426.082666,1924.535449,-6883.915261,0.000000
426.082987,1702.473667,-7698.141797,-459.657299
426.083309,1554.432478,-9326.594869,-459.657299
426.083631,2220.617826,-9252.574275,-919.314598
426.083953,3627.009116,-9770.718434,-1072.533697
426.084275,4145.153275,-9696.697840,-383.047749
426.084597,1702.473667,-9104.533087,-306.438199
426.084919,-740.205942,-9622.677246,-229.828649
426.085240,-2220.617826,-11547.212695,-1915.238745
426.085562,-3182.885551,-11843.295072,-3524.039291
426.085884,-3923.091493,-11251.130318,-4060.306139
426.086206,-3404.947333,-10881.027347,-1762.019645
426.086528,-1998.556043,-10881.027347,-689.485948
426.086850,-1184.329507,-9696.697840,-229.828649
426.087171,-888.247130,-8734.430116,-536.266849
426.087493,-518.144159,-9030.512492,-1225.752797
426.087815,-148.041188,-8364.327145,-1685.410096
426.088137,-740.205942,-7920.203579,-2068.457845
426.088459,-296.082377,-7698.141797,-1302.362347
426.088781,1036.288319,-8216.285956,-1149.143247
426.089102,2220.617826,-8660.409521,-1915.238745
426.089424,1554.432478,-9104.533087,-1455.581446
426.089746,888.247130,-10510.924376,-842.705048
426.090068,-370.102971,-11621.233289,-1532.190996
426.090390,-962.267725,-11843.295072,-2068.457845
426.090712,-1406.391290,-11843.295072,-1762.019645
426.091034,-1184.329507,-10436.903782,-1378.971896
426.091355,0.000000,-8734.430116,-1149.143247
426.091677,1628.453072,-8364.327145,-689.485948
426.091999,1998.556043,-8364.327145,-229.828649
426.092321,2368.659014,-7846.182985,-536.266849
426.092643,2294.638420,-7772.162391,-536.266849
426.092965,2294.638420,-7846.182985,0.000000
426.093286,1406.391290,-7920.203579,-689.485948
426.093608,1258.350101,-7550.100608,-1915.238745
426.093930,1036.288319,-8142.265362,-2834.553343
426.094252,592.164754,-8660.409521,-2604.724693
426.094574,-1332.370696,-9474.636058,-2451.505594
426.094896,-3404.947333,-9992.780217,-1991.848295
426.095217,-4811.338623,-11103.089130,-2451.505594
426.095539,-5181.441594,-11695.253884,-3370.820191
426.095861,-5551.544565,-11103.089130,-4060.306139
426.096183,-3775.050304,-10584.944971,-3677.258390
426.096505,-2220.617826,-10362.883188,-2374.896044
426.096827,-148.041188,-8438.347739,-1149.143247
426.097149,370.102971,-7920.203579,0.000000
426.097470,1480.411884,-8216.285956,-995.924147
426.097792,2220.617826,-8956.491898,-2221.676944
426.098114,1332.370696,-9474.636058,-995.924147
426.098436,666.185348,-9252.574275,-153.219100
426.098758,1924.535449,-8808.450710,-995.924147
426.099080,3182.885551,-8956.491898,-2068.457845
426.099401,2220.617826,-9252.574275,-842.705048
426.099723,-444.123565,-9400.615463,-153.219100
426.100045,-2886.803174,-9992.780217,-1302.362347
426.100367,-3997.112087,-11547.212695,-2528.115143
426.100689,-5107.421000,-12435.459826,-2528.115143
426.101011,-4959.379811,-11399.171507,-2145.067394
426.101332,-3256.906145,-10881.027347,-2451.505594
426.101654,-962.267725,-9696.697840,-919.314598
426.101976,-592.164754,-9326.594869,536.266849
426.102298,-1110.308913,-7920.203579,306.438199
426.102620,-1110.308913,-7105.977043,-229.828649
426.102942,-814.226536,-7105.977043,-1378.971896
426.103264,-444.123565,-7624.121203,-2374.896044
426.103585,74.020594,-7105.977043,-2145.067394
426.103907,1258.350101,-7179.997637,-995.924147
426.104229,1332.370696,-8290.306550,-1532.190996
426.104551,148.041188,-9326.594869,-612.876398
426.104873,-1628.453072,-9696.697840,-536.266849
426.105195,-3256.906145,-10436.903782,-1532.190996
426.105516,-3627.009116,-11621.233289,-2604.724693
426.105838,-3701.029710,-10955.047942,-1915.238745
426.106160,-2072.576638,-10140.821405,-995.924147
426.106482,444.123565,-9844.739029,229.828649
426.106804,1998.556043,-9326.594869,1302.362347
426.107126,3256.906145,-8216.285956,1302.362347
426.107448,3330.926739,-7772.162391,0.000000
426.107769,3701.029710,-7994.224174,-689.485948
426.108091,3849.070898,-8216.285956,-536.266849
426.108413,3330.926739,-7846.182985,-536.266849
426.108735,3478.967927,-7772.162391,-995.924147
426.109057,4219.173869,-9104.533087,-2145.067394
426.109379,2368.659014,-9400.615463,-2451.505594
426.109700,-518.144159,-9474.636058,-2451.505594
426.110022,-2738.761985,-10732.986159,-2528.115143
426.110344,-4071.132681,-12509.480420,-3217.601092
426.110666,-5329.482782,-13915.871710,-3677.258390
426.110988,-5847.626942,-12805.562797,-2604.724693
426.111310,-4589.276840,-11621.233289,-2374.896044
426.111631,-1776.494261,-10510.924376,-2681.334243
426.111953,0.000000,-9992.780217,-1838.629195
426.112275,592.164754,-8364.327145,612.876398
426.112597,1480.411884,-7402.059420,306.438199
426.112919,2812.782580,-6661.853478,-612.876398
426.113241,3478.967927,-7402.059420,-1302.362347
426.113563,3404.947333,-7476.080014,-689.485948
426.113884,3256.906145,-7772.162391,-1149.143247
426.114206,2738.761985,-8438.347739,-2528.115143
426.114528,1036.288319,-9474.636058,-1685.410096
426.114850,-740.205942,-10362.883188,-1378.971896
426.115172,-2590.720797,-10584.944971,-2068.457845
426.115494,-3923.091493,-10807.006753,-2451.505594
426.115815,-4663.297435,-10955.047942,-2451.505594
426.116137,-3182.885551,-11177.109724,-2834.553343
426.116459,-2220.617826,-9844.739029,-2834.553343
426.116781,-1258.350101,-8216.285956,-1455.581446
426.117103,-962.267725,-8364.327145,-383.047749
426.117425,-1110.308913,-8290.306550,0.000000
426.117746,-1036.288319,-7698.141797,-1915.238745
426.118068,-666.185348,-7772.162391,-1532.190996
426.118390,74.020594,-8290.306550,-1685.410096
426.118712,1258.350101,-8364.327145,-1608.800546
426.119034,2220.617826,-7772.162391,-1149.143247
426.119356,2368.659014,-8660.409521,-919.314598
426.119678,740.205942,-9400.615463,-1608.800546
426.119999,-1776.494261,-10881.027347,-3140.991542
426.120321,-3775.050304,-11621.233289,-2757.943793
426.120643,-4885.359217,-11473.192101,-2145.067394
426.120965,-4219.173869,-11473.192101,-3140.991542
426.121287,-1776.494261,-11251.130318,-2834.553343
426.121609,962.267725,-11177.109724,-995.924147
426.121930,1998.556043,-9992.780217,306.438199
426.122252,2294.638420,-9030.512492,766.095498
426.122574,2294.638420,-8364.327145,842.705048
426.122896,3108.864956,-7550.100608,-919.314598
426.123218,2368.659014,-7550.100608,-1455.581446
426.123540,2664.741391,-7624.121203,-1532.190996
426.123861,3108.864956,-8808.450710,-995.924147
426.124183,2664.741391,-9252.574275,-76.609550
426.124505,740.205942,-9400.615463,153.219100
426.124827,-1332.370696,-9918.759623,-1455.581446
426.125149,-3627.009116,-10807.006753,-2911.162892
426.125471,-5921.647536,-11177.109724,-3677.258390
426.125793,-7624.121203,-11177.109724,-3064.381992
426.126114,-6957.935855,-10436.903782,-3140.991542
426.126436,-4367.215058,-10881.027347,-3140.991542
426.126758,-2368.659014,-11177.109724,-1378.971896
426.127080,-1628.453072,-9326.594869,689.485948
426.127402,-592.164754,-7698.141797,383.047749
426.127724,740.205942,-7698.141797,-689.485948
426.128045,2072.576638,-7476.080014,-1685.410096
426.128367,2590.720797,-7328.038826,-1302.362347
426.128689,3923.091493,-7402.059420,-153.219100
426.129011,4515.256246,-7846.182985,842.705048
426.129333,4071.132681,-7772.162391,306.438199
426.129655,2516.700203,-8364.327145,-919.314598
426.129977,0.000000,-9622.677246,-1149.143247
426.130298,-2146.597232,-11399.171507,-1225.752797
426.130620,-4071.132681,-11177.109724,-1378.971896
426.130942,-3849.070898,-9992.780217,-2221.676944
426.131264,-1628.453072,-10288.862594,-2681.334243
426.131586,370.102971,-10658.965565,-1302.362347
426.131908,296.082377,-8586.388927,-689.485948
426.132229,740.205942,-7698.141797,-383.047749
426.132551,962.267725,-9104.533087,-1149.143247
426.132873,666.185348,-8956.491898,-1685.410096
426.133195,222.061783,-8660.409521,-2451.505594
426.133517,1184.329507,-8882.471304,-2911.162892
426.133839,2664.741391,-9474.636058,-2221.676944
426.134160,2516.700203,-8956.491898,-1455.581446
426.134482,888.247130,-7772.162391,-1608.800546
426.134804,0.000000,-7994.224174,-2298.286494
426.135126,-1110.308913,-11177.109724,-3907.087040
426.135448,-3627.009116,-12953.603985,-4290.134789
426.135770,-6143.709319,-12139.377449,-2528.115143
426.136092,-6069.688724,-10955.047942,-3140.991542
426.136413,-2960.823768,-11991.336260,-3677.258390
426.136735,148.041188,-12657.521608,-2145.067394
426.137057,518.144159,-10288.862594,-995.924147
426.137379,518.144159,-8216.285956,383.047749
426.137701,1776.494261,-8068.244768,306.438199
426.138023,3256.906145,-8512.368333,-1225.752797
426.138344,3478.967927,-8512.368333,-1991.848295
426.138666,3108.864956,-7402.059420,-459.657299
426.138988,2886.803174,-7772.162391,-459.657299
426.139310,2516.700203,-8586.388927,-1072.533697
426.139632,518.144159,-9252.574275,-766.095498
426.139954,-1554.432478,-9252.574275,-995.924147
426.140275,-4145.153275,-9400.615463,-2528.115143
426.140597,-5255.462188,-9548.656652,-3294.210641
426.140919,-6143.709319,-10140.821405,-2911.162892
426.141241,-6217.729913,-9918.759623,-2298.286494
426.141563,-4959.379811,-9770.718434,-2298.286494
426.141885,-3034.844362,-8956.491898,-1685.410096
426.142207,-1628.453072,-9104.533087,-1838.629195
426.142528,-962.267725,-9252.574275,-995.924147
426.142850,-296.082377,-8290.306550,0.000000
426.143172,592.164754,-7476.080014,-689.485948
426.143494,2220.617826,-7254.018232,-1915.238745
426.143816,3256.906145,-8142.265362,-1532.190996
426.144138,3404.947333,-8216.285956,153.219100
426.144459,2738.761985,-7772.162391,536.266849
426.144781,1702.473667,-8586.388927,-612.876398
426.145103,296.082377,-10732.986159,-1378.971896
426.145425,-1554.432478,-11029.068536,-1072.533697
426.145747,-3478.967927,-10436.903782,-1608.800546
426.146069,-2960.823768,-10288.862594,-2451.505594
426.146390,-1110.308913,-10807.006753,-2145.067394
426.146712,444.123565,-10288.862594,-1225.752797
426.147034,0.000000,-9548.656652,-306.438199
426.147356,592.164754,-9400.615463,0.000000
426.147678,1110.308913,-9992.780217,-536.266849
426.148000,1480.411884,-9770.718434,-1915.238745
426.148322,1480.411884,-8364.327145,-2068.457845
426.148643,2220.617826,-7698.141797,-1685.410096
426.148965,2886.803174,-8142.265362,-842.705048
426.149287,2664.741391,-9104.533087,-1149.143247
426.149609,1036.288319,-9030.512492,-1302.362347
426.149931,-1628.453072,-9326.594869,-2145.067394
426.150253,-4367.215058,-11251.130318,-2757.943793
426.150574,-6143.709319,-12065.356855,-2451.505594
426.150896,-7105.977043,-10881.027347,-2911.162892
426.151218,-6661.853478,-9992.780217,-2987.772442
426.151540,-3627.009116,-10140.821405,-2834.553343
426.151862,-1258.350101,-9400.615463,-2528.115143
426.152184,296.082377,-9326.594869,-1608.800546
426.152505,1702.473667,-9474.636058,-306.438199
426.152827,2368.659014,-8956.491898,0.000000
426.153149,3108.864956,-8586.388927,-1149.143247
426.153471,3330.926739,-9622.677246,-1149.143247
426.153793,3627.009116,-9770.718434,0.000000
426.154115,2886.803174,-7846.182985,766.095498
426.154437,2442.679609,-6439.791695,-306.438199
426.154758,2442.679609,-7179.997637,-1072.533697
426.155080,1110.308913,-9030.512492,-1378.971896
426.155402,-2146.597232,-9474.636058,-1072.533697
426.155724,-4293.194464,-9622.677246,-689.485948
426.156046,-4367.215058,-10288.862594,-2145.067394
426.156368,-3256.906145,-10584.944971,-3830.477490
426.156689,-2738.761985,-9622.677246,-2987.772442
426.157011,-2442.679609,-8290.306550,-1378.971896
426.157333,-1554.432478,-7772.162391,-1991.848295
426.157655,-296.082377,-8216.285956,-2374.896044
426.157977,0.000000,-9474.636058,-2451.505594
426.158299,-296.082377,-9474.636058,-2451.505594
426.158621,814.226536,-9252.574275,-2987.772442
426.158942,2442.679609,-9548.656652,-3294.210641
426.159264,3404.947333,-9696.697840,-2451.505594
426.159586,1776.494261,-8364.327145,-995.924147
426.159908,148.041188,-7994.224174,-1149.143247
426.160230,-962.267725,-9770.718434,-2987.772442
426.160552,-2072.576638,-11769.274478,-3677.258390
426.160873,-3182.885551,-11547.212695,-2068.457845
426.161195,-2738.761985,-11991.336260,-1149.143247
426.161517,-370.102971,-12213.398043,-1378.971896
426.161839,1850.514855,-11103.089130,-919.314598
426.162161,1776.494261,-10066.800811,459.657299
426.162482,1110.308913,-9030.512492,689.485948
426.162804,1702.473667,-7920.203579,-612.876398
426.163126,1258.350101,-7624.121203,-1225.752797
426.163448,1110.308913,-8290.306550,-1072.533697
426.163770,1332.370696,-9030.512492,-536.266849
426.164091,2294.638420,-8290.306550,-919.314598
426.164413,2368.659014,-8438.347739,-1072.533697
426.164735,1258.350101,-9178.553681,-995.924147
426.165057,-1036.288319,-10362.883188,-1378.971896
426.165379,-3627.009116,-10658.965565,-2451.505594
426.165700,-6291.750507,-10066.800811,-1915.238745
426.166022,-7402.059420,-10214.842000,-1149.143247
426.166344,-6069.688724,-9622.677246,-2528.115143
426.166666,-3923.091493,-8364.327145,-3447.429741
426.166988,-2886.803174,-7920.203579,-1838.629195
426.167309,-1480.411884,-7328.038826,76.609550
426.167631,-592.164754,-6883.915261,153.219100
426.167953,222.061783,-6809.894666,-306.438199
426.168275,592.164754,-8216.285956,-995.924147
426.168597,1332.370696,-8882.471304,-1072.533697
426.168919,1998.556043,-9178.553681,-1149.143247
426.169240,2220.617826,-9104.533087,-229.828649
426.169562,2812.782580,-9252.574275,306.438199
426.169884,2294.638420,-9104.533087,-1072.533697
426.170206,1036.288319,-10732.986159,-2221.676944
426.170528,-592.164754,-11843.295072,-842.705048
426.170849,-2146.597232,-11103.089130,-689.485948
426.171171,-1850.514855,-10140.821405,-1838.629195
426.171493,-592.164754,-10436.903782,-2145.067394
426.171815,-592.164754,-9622.677246,-1072.533697
426.172137,-666.185348,-8364.327145,-1302.362347
426.172458,-592.164754,-8290.306550,-1302.362347
426.172780,0.000000,-8660.409521,-1149.143247
426.173102,-592.164754,-8808.450710,-2068.457845
426.173424,-888.247130,-8956.491898,-2528.115143
426.173746,-148.041188,-9400.615463,-2374.896044
426.174067,814.226536,-9770.718434,-3140.991542
426.174389,592.164754,-9548.656652,-3447.429741
426.174711,-740.205942,-9252.574275,-3064.381992
426.175033,-2294.638420,-11547.212695,-2451.505594
426.175355,-3627.009116,-12657.521608,-2604.724693
426.175676,-4367.215058,-12583.501014,-2834.553343
426.175998,-3330.926739,-10732.986159,-2911.162892
426.176320,-814.226536,-9992.780217,-2451.505594
426.176642,1480.411884,-8956.491898,-995.924147
426.176964,1406.391290,-7402.059420,0.000000
426.177285,1554.432478,-7031.956449,766.095498
426.177607,1628.453072,-7550.100608,0.000000
426.177929,1776.494261,-7624.121203,-1838.629195
426.178251,1406.391290,-7550.100608,-1915.238745
426.178573,2072.576638,-8364.327145,-1302.362347
426.178894,2812.782580,-9400.615463,-919.314598
426.179216,3775.050304,-9844.739029,-1149.143247
426.179538,2960.823768,-9770.718434,-1378.971896
426.179860,1998.556043,-9918.759623,-1455.581446
426.180182,0.000000,-10732.986159,-1455.581446
426.180504,-3034.844362,-10436.903782,-1455.581446
426.180825,-5107.421000,-10510.924376,-1225.752797
426.181147,-4885.359217,-9844.739029,-2451.505594
426.181469,-3923.091493,-9844.739029,-2987.772442
426.181791,-2664.741391,-8808.450710,-1378.971896
426.182113,-1702.473667,-7920.203579,-306.438199
426.182434,0.000000,-7624.121203,-612.876398
426.182756,888.247130,-8290.306550,-1302.362347
426.183078,888.247130,-8882.471304,-383.047749
426.183400,1258.350101,-7402.059420,0.000000
426.183722,2072.576638,-6217.729913,-2757.943793
426.184043,3552.988522,-8512.368333,-2987.772442
426.184365,3108.864956,-9548.656652,-1532.190996
426.184687,296.082377,-9326.594869,-383.047749
426.185009,-1258.350101,-10658.965565,-1225.752797
426.185331,-1776.494261,-12805.562797,-1991.848295
426.185652,-3034.844362,-12879.583391,-2911.162892
426.185974,-4959.379811,-11473.192101,-2757.943793
426.186296,-5181.441594,-10732.986159,-1838.629195
426.186618,-3256.906145,-10732.986159,-1455.581446
426.186940,-1924.535449,-9844.739029,-1149.143247
426.187261,-2590.720797,-9104.533087,0.000000
426.187583,-3478.967927,-7402.059420,842.705048
426.187905,-3330.926739,-6957.935855,-842.705048
426.188227,-2664.741391,-7772.162391,-2221.676944
426.188549,-2368.659014,-7846.182985,-1225.752797
426.188870,-1554.432478,-7624.121203,-1072.533697
426.189192,74.020594,-8290.306550,-2374.896044
426.189514,592.164754,-10584.944971,-2451.505594
426.189836,-888.247130,-11843.295072,-1072.533697
426.190158,-3552.988522,-11843.295072,-919.314598
426.190479,-6217.729913,-11473.192101,-2374.896044
426.190801,-7402.059420,-10881.027347,-2221.676944
426.191123,-7772.162391,-9474.636058,-3524.039291
426.191445,-6217.729913,-8660.409521,-3447.429741
426.191767,-4441.235652,-8734.430116,-2221.676944
426.192089,-3997.112087,-7698.141797,0.000000
426.192410,-3627.009116,-6439.791695,1302.362347
426.192732,-2960.823768,-6217.729913,76.609550
426.193054,-1776.494261,-6957.935855,-2145.067394
426.193376,-1850.514855,-7402.059420,-2681.334243
426.193698,-2294.638420,-7402.059420,-1915.238745
426.194019,-1480.411884,-8068.244768,-1302.362347
426.194341,222.061783,-9400.615463,-1072.533697
426.194663,740.205942,-9548.656652,-1532.190996
426.194985,148.041188,-10140.821405,-2298.286494
426.195307,-888.247130,-11547.212695,-2681.334243
426.195628,-2664.741391,-11843.295072,-1915.238745
426.195950,-5107.421000,-11991.336260,-2145.067394
426.196272,-6809.894666,-11399.171507,-1608.800546
426.196594,-6291.750507,-10066.800811,-1838.629195
426.196916,-4515.256246,-9400.615463,-2451.505594
426.197237,-2664.741391,-8068.244768,-2068.457845
426.197559,-2146.597232,-7105.977043,-459.657299
426.197881,-1036.288319,-6809.894666,842.705048
426.198203,592.164754,-7846.182985,459.657299
426.198525,0.000000,-8808.450710,-383.047749
426.198846,-2220.617826,-7772.162391,-689.485948
426.199168,-4145.153275,-7550.100608,-1915.238745
426.199490,-4071.132681,-8956.491898,-5056.230287
426.199812,-4145.153275,-9696.697840,-5286.058936
426.200134,-4737.318029,-10436.903782,-4443.353888
426.200455,-4589.276840,-11769.274478,-3753.867940
426.200777,-3849.070898,-12509.480420,-3217.601092
426.201099,-3849.070898,-13471.748144,-3524.039291
426.201421,-5403.503377,-13693.809927,-3830.477490
426.201743,-7328.038826,-12509.480420,-2911.162892
426.202065,-8734.430116,-10807.006753,-1685.410096
426.202386,-9030.512492,-9548.656652,-383.047749
426.202708,-7105.977043,-7105.977043,0.000000
426.203030,-4737.318029,-5699.585753,-536.266849
426.203352,-1702.473667,-5551.544565,0.000000
426.203674,1110.308913,-6735.874072,1072.533697
426.203995,3330.926739,-7105.977043,2145.067394
426.204317,4737.318029,-7105.977043,2068.457845
426.204639,4589.276840,-8438.347739,919.314598
426.204961,1702.473667,-8290.306550,0.000000
426.205283,-2368.659014,-8290.306550,-1762.019645
426.205604,-5625.565159,-9474.636058,-2987.772442
426.205926,-7772.162391,-10955.047942,-3983.696590
426.206248,-8364.327145,-11547.212695,-4213.525239
426.206570,-9030.512492,-11251.130318,-4136.915689
426.206892,-8068.244768,-11029.068536,-2834.553343
426.207213,-7105.977043,-10140.821405,-1915.238745
426.207535,-7254.018232,-9474.636058,-1991.848295
426.207857,-7550.100608,-7698.141797,-2298.286494
426.208179,-7772.162391,-7624.121203,-2451.505594
426.208501,-7031.956449,-8734.430116,-2374.896044
426.208822,-6217.729913,-9918.759623,-459.657299
426.209144,-4737.318029,-9696.697840,1991.848295
426.209466,-2294.638420,-8512.368333,2451.505594
426.209788,888.247130,-7402.059420,919.314598
426.210110,3478.967927,-6513.812290,-766.095498
426.210431,4219.173869,-6365.771101,-459.657299
426.210753,4145.153275,-7105.977043,0.000000
426.211075,3552.988522,-7550.100608,-766.095498
426.211397,3182.885551,-8290.306550,-2374.896044
426.211719,2220.617826,-10436.903782,-3447.429741
426.212040,740.205942,-11843.295072,-3600.648841
426.212362,-1258.350101,-12139.377449,-2987.772442
426.212684,-3182.885551,-12213.398043,-2834.553343
426.213006,-4737.318029,-11843.295072,-2298.286494
426.213328,-6291.750507,-11103.089130,-2451.505594
426.213650,-7550.100608,-9252.574275,-3524.039291
426.213971,-8438.347739,-8364.327145,-3983.696590
426.214293,-7846.182985,-8660.409521,-4366.744339
426.214615,-7105.977043,-9474.636058,-3370.820191
426.214937,-6439.791695,-9918.759623,-766.095498
426.215259,-5107.421000,-10362.883188,1072.533697
426.215580,-3775.050304,-9474.636058,766.095498
426.215902,-1850.514855,-8290.306550,-995.924147
426.216224,518.144159,-7698.141797,-1685.410096
426.216546,2368.659014,-7105.977043,-1302.362347
426.216868,3923.091493,-7920.203579,-1915.238745
426.217189,4071.132681,-9104.533087,-2298.286494
426.217511,3256.906145,-11251.130318,-995.924147
426.217833,740.205942,-12953.603985,-612.876398
426.218155,-3108.864956,-13249.686362,-612.876398
426.218477,-6957.935855,-12213.398043,-1225.752797
426.218798,-9326.594869,-10658.965565,-2451.505594
426.219120,-10584.944971,-8290.306550,-3370.820191
426.219442,-10732.986159,-6291.750507,-2681.334243
426.219764,-10436.903782,-5181.441594,-2145.067394
426.220086,-9326.594869,-5033.400406,-1838.629195
426.220407,-7328.038826,-6883.915261,-1685.410096
426.220729,-5773.606348,-9474.636058,-1072.533697
426.221051,-4441.235652,-11029.068536,-383.047749
426.221373,-3256.906145,-10732.986159,-383.047749
426.221695,-1554.432478,-9400.615463,-995.924147
426.222016,296.082377,-8734.430116,-1455.581446
426.222338,296.082377,-7550.100608,-1762.019645
426.222660,-814.226536,-6069.688724,-2451.505594
426.222982,-1924.535449,-6661.853478,-2911.162892
426.223304,-3034.844362,-8882.471304,-3140.991542
426.223625,-3997.112087,-10881.027347,-3064.381992
426.223947,-6069.688724,-12435.459826,-1532.190996
426.224269,-7105.977043,-12953.603985,-306.438199
426.224591,-7698.141797,-12287.418637,0.000000
426.224913,-7698.141797,-10436.903782,-1149.143247
426.225235,-7179.997637,-8586.388927,-1378.971896
426.225556,-5107.421000,-6809.894666,-1608.800546
426.225878,-2738.761985,-5551.544565,-1225.752797
426.226200,-814.226536,-4441.235652,-1072.533697
426.226522,1110.308913,-5329.482782,-766.095498
426.226844,1702.473667,-8216.285956,-1378.971896
426.227165,2442.679609,-10881.027347,-2681.334243
426.227487,1184.329507,-13175.665768,-2221.676944
426.227809,-148.041188,-14063.912898,-306.438199
426.228131,-2146.597232,-12805.562797,0.000000
426.228453,-3330.926739,-11621.233289,-1302.362347
426.228774,-3923.091493,-10955.047942,-2221.676944
426.229096,-5403.503377,-10584.944971,-2528.115143
426.229418,-7254.018232,-8512.368333,-2068.457845
426.229740,-8216.285956,-6587.832884,-1072.533697
426.230062,-8068.244768,-6143.709319,-1455.581446
426.230383,-6291.750507,-6809.894666,-3064.381992
426.230705,-5033.400406,-7698.141797,-4366.744339
426.231027,-3552.988522,-9474.636058,-4366.744339
426.231349,-3404.947333,-10214.842000,-1685.410096
426.231671,-3627.009116,-9474.636058,76.609550
426.231992,-3108.864956,-8290.306550,-1455.581446
426.232314,-1850.514855,-9252.574275,-4443.353888
426.232636,-888.247130,-12435.459826,-5362.668486
426.232958,-592.164754,-14878.139434,-2757.943793
426.233280,-814.226536,-14804.118840,2298.286494
426.233601,74.020594,-12583.501014,5975.544884
426.233923,2442.679609,-10066.800811,5439.278036
426.234245,4441.235652,-8438.347739,1685.410096
426.234567,3330.926739,-8734.430116,536.266849
426.234889,1110.308913,-7402.059420,3370.820191
426.235210,-1110.308913,-5255.462188,4979.620737
426.235532,-3627.009116,-3997.112087,5515.887586
426.235854,-6809.894666,-3404.947333,4749.792088
426.236176,-8216.285956,-3330.926739,-229.828649
426.236498,-9104.533087,-4145.153275,-6205.373534
426.236820,-8660.409521,-5403.503377,-7124.688131
426.237141,-8216.285956,-7402.059420,-5209.449386
426.237463,-6957.935855,-10584.944971,-4903.011187
426.237785,-7105.977043,-14656.077652,-3907.087040
426.238107,-6883.915261,-17172.777854,-4136.915689
426.238429,-6883.915261,-17764.942608,-5286.058936
426.238750,-5551.544565,-16876.695478,-4519.963438
426.239072,-3404.947333,-13767.830521,-2451.505594
426.239394,-2368.659014,-9992.780217,689.485948
426.239716,-1998.556043,-7105.977043,3524.039291
426.240038,-1406.391290,-4811.338623,5286.058936
426.240359,-370.102971,-2960.823768,3524.039291
426.240681,592.164754,-2960.823768,1225.752797
426.241003,222.061783,-5847.626942,1915.238745
426.241325,-518.144159,-8808.450710,4213.525239
426.241647,-1184.329507,-10807.006753,4213.525239
426.241968,1110.308913,-11991.336260,1225.752797
426.242290,3849.070898,-10732.986159,-1685.410096
426.242612,4367.215058,-9104.533087,-2834.553343
426.242934,2368.659014,-10955.047942,-2987.772442
426.243256,740.205942,-15766.386565,-1915.238745
426.243577,592.164754,-16950.716072,-2374.896044
426.243899,888.247130,-16580.613101,-3447.429741
426.244221,1406.391290,-15840.407159,-1532.190996
426.244543,1702.473667,-13323.706956,1149.143247
426.244865,-592.164754,-9474.636058,2068.457845
426.245186,-2442.679609,-5773.606348,4213.525239
426.245508,-1998.556043,-3552.988522,4903.011187
426.245830,-1036.288319,-1702.473667,1915.238745
426.246152,-222.061783,296.082377,-459.657299
426.246474,666.185348,-1628.453072,689.485948
426.246796,1184.329507,-5403.503377,3983.696590
426.247117,962.267725,-7179.997637,4749.792088
426.247439,1776.494261,-9104.533087,919.314598
426.247761,2886.803174,-11695.253884,-3677.258390
426.248083,2220.617826,-12361.439231,-4673.182538
426.248405,740.205942,-12805.562797,-2834.553343
426.248726,-962.267725,-15100.201217,-612.876398
426.249048,-1332.370696,-16432.571912,842.705048
426.249370,-1998.556043,-15026.180623,76.609550
426.249692,-2368.659014,-13323.706956,0.000000
426.250014,-2516.700203,-12657.521608,2528.115143
426.250335,-2886.803174,-11177.109724,4443.353888
426.250657,-4071.132681,-8660.409521,5745.716235
426.250979,-4441.235652,-6661.853478,7354.516781
426.251301,-3182.885551,-6365.771101,6358.592633
426.251623,-3849.070898,-6883.915261,3600.648841
426.251944,-4367.215058,-7772.162391,4060.306139
426.252266,-2442.679609,-7031.956449,4979.620737
426.252588,1850.514855,-7031.956449,2221.676944
426.252910,4737.318029,-5107.421000,995.924147
426.253232,4367.215058,-3182.885551,995.924147
426.253553,3108.864956,-5107.421000,-306.438199
426.253875,1776.494261,-10436.903782,-3830.477490
426.254197,-666.185348,-14137.933492,-5209.449386
426.254519,-4737.318029,-16432.571912,-4443.353888
426.254841,-9178.553681,-18283.086767,-1072.533697
426.255162,-11769.274478,-18579.169144,3217.601092
426.255484,-12139.377449,-14952.160028,3524.039291
426.255806,-10362.883188,-10807.006753,1991.848295
426.256128,-7402.059420,-9696.697840,2145.067394
426.256450,-6365.771101,-9252.574275,4443.353888
426.256771,-5033.400406,-7179.997637,9499.584175
426.257093,-2960.823768,-2072.576638,12257.527968
426.257415,1258.350101,2072.576638,9959.241474
426.257737,6143.709319,-740.205942,3753.867940
426.258059,10288.862594,-3552.988522,536.266849
426.258381,9918.759623,-4293.194464,766.095498
426.258702,7624.121203,-7846.182985,3600.648841
426.259024,6587.832884,-15470.304188,6511.811733
426.259346,4663.297435,-19689.478057,3140.991542
426.259668,740.205942,-17987.004391,-2987.772442
426.259990,-2220.617826,-16432.571912,-3600.648841
426.260311,-2664.741391,-16062.468941,-842.705048
426.260633,-2664.741391,-11843.295072,306.438199
426.260955,-3552.988522,-4885.359217,536.266849
426.261277,-3330.926739,-3849.070898,2145.067394
426.261599,-2072.576638,-6809.894666,3600.648841
426.261920,-3404.947333,-7476.080014,2987.772442
426.262242,-5255.462188,-6513.812290,2221.676944
426.262564,-3552.988522,-7031.956449,3370.820191
426.262886,74.020594,-9770.718434,5362.668486
426.263207,1184.329507,-9474.636058,6818.249932
426.263529,2368.659014,-4811.338623,6971.469032
426.263851,7179.997637,-3627.009116,-459.657299
426.264173,10732.986159,-6217.729913,-6205.373534
426.264495,8142.265362,-7328.038826,-4213.525239
426.264816,1702.473667,-8586.388927,76.609550
426.265138,-2368.659014,-15914.427753,0.000000
426.265460,-3775.050304,-21762.054695,-2374.896044
426.265782,-5033.400406,-21391.951724,-5975.544884
426.266104,-5107.421000,-16802.674883,-6818.249932
426.266425,-2220.617826,-13989.892304,-2911.162892
426.266747,0.000000,-10436.903782,689.485948
426.267069,518.144159,-6365.771101,2451.505594
426.267391,1998.556043,-3552.988522,3294.210641
426.267713,2812.782580,-5403.503377,536.266849
426.268034,1184.329507,-8438.347739,0.000000
426.268356,222.061783,-8438.347739,3064.381992
426.268678,888.247130,-7624.121203,2528.115143
426.269000,2886.803174,-10066.800811,995.924147
426.269322,4885.359217,-11325.150913,1762.019645
426.269643,1258.350101,-10214.842000,2451.505594
426.269965,-4515.256246,-8956.491898,1685.410096
426.270287,-7476.080014,-8290.306550,306.438199
426.270609,-8734.430116,-8438.347739,-4673.182538
426.270931,-10584.944971,-8142.265362,-8733.488677
426.271252,-12139.377449,-10881.027347,-6511.811733
426.271574,-11103.089130,-15174.221811,-1608.800546
426.271896,-8290.306550,-15396.283594,-306.438199
426.272218,-4737.318029,-13767.830521,0.000000
426.272540,-1628.453072,-13101.645173,1991.848295
426.272861,-518.144159,-11325.150913,3983.696590
426.273183,1702.473667,-5995.668130,3294.210641
426.273505,5181.441594,-888.247130,919.314598
426.273827,9178.553681,-370.102971,2068.457845
426.274149,10436.903782,-2368.659014,5975.544884
426.274470,7550.100608,-5033.400406,8427.050478
426.274792,3108.864956,-8068.244768,8273.831378
426.275114,740.205942,-11399.171507,6665.030833
426.275436,-1110.308913,-13915.871710,3294.210641
426.275758,-3256.906145,-12213.398043,1838.629195
426.276079,-3997.112087,-8882.471304,842.705048
426.276401,-2960.823768,-7328.038826,612.876398
426.276723,-1776.494261,-7550.100608,1302.362347
426.277045,-2738.761985,-8660.409521,2298.286494
426.277366,-4515.256246,-9622.677246,612.876398
426.277688,-5551.544565,-12731.542202,-153.219100
426.278010,-5625.565159,-14730.098246,153.219100
426.278332,-4589.276840,-13175.665768,2068.457845
426.278654,-2146.597232,-9696.697840,2451.505594
426.278975,1184.329507,-8068.244768,2374.896044
426.279297,3997.112087,-7402.059420,3753.867940
426.279619,4441.235652,-8216.285956,4903.011187
426.279941,4515.256246,-7624.121203,5132.839837
426.280263,5625.565159,-7920.203579,4136.915689
426.280584,6365.771101,-7846.182985,2681.334243
426.280906,5699.585753,-8660.409521,2987.772442
426.281228,3404.947333,-8882.471304,3447.429741
426.281550,1110.308913,-10140.821405,2987.772442
426.281872,-1406.391290,-11917.315666,612.876398
426.282193,-3404.947333,-14656.077652,-689.485948
426.282515,-4441.235652,-16580.613101,-306.438199
426.282837,-3775.050304,-15692.365970,76.609550
426.283159,-1406.391290,-12657.521608,459.657299
426.283481,1036.288319,-11399.171507,842.705048
426.283802,1702.473667,-9696.697840,2145.067394
426.284124,74.020594,-9178.553681,2528.115143
426.284446,-2960.823768,-7994.224174,3064.381992
426.284768,-4737.318029,-8068.244768,2068.457845
426.285090,-4293.194464,-7846.182985,995.924147
426.285411,-1258.350101,-7402.059420,229.828649
426.285733,1628.453072,-6809.894666,919.314598
426.286055,3478.967927,-6735.874072,2451.505594
426.286377,3701.029710,-8216.285956,3753.867940
426.286699,1850.514855,-9252.574275,4136.915689
426.287020,-2368.659014,-8438.347739,1225.752797
426.287342,-5995.668130,-7254.018232,-2221.676944
426.287664,-6587.832884,-7550.100608,-4366.744339
426.287986,-6143.709319,-7179.997637,-5822.325785
426.288308,-4737.318029,-8956.491898,-4903.011187
426.288629,-3182.885551,-12509.480420,-1149.143247
426.288951,-2442.679609,-15470.304188,1455.581446
426.289273,-2072.576638,-16210.510130,1915.238745
426.289595,-2146.597232,-13841.851115,1532.190996
426.289917,-1924.535449,-9992.780217,0.000000
426.290238,-1258.350101,-5995.668130,-689.485948
426.290560,444.123565,-2960.823768,-306.438199
426.290882,2442.679609,-2368.659014,1302.362347
426.291204,4737.318029,-4515.256246,2911.162892
426.291525,6069.688724,-6957.935855,2911.162892
426.291847,6365.771101,-9844.739029,1991.848295
426.292169,5403.503377,-11177.109724,842.705048
426.292491,3701.029710,-10362.883188,-383.047749
426.292813,1628.453072,-7698.141797,-2145.067394
426.293134,518.144159,-5403.503377,-4596.572988
426.293456,-1702.473667,-5699.585753,-6818.249932
426.293778,-4663.297435,-8438.347739,-7354.516781
426.294100,-7105.977043,-12213.398043,-5745.716235
426.294422,-8512.368333,-16728.654289,-4213.525239
426.294743,-8142.265362,-19541.436869,-3524.039291
426.295065,-7550.100608,-17838.963202,-2451.505594
426.295387,-5847.626942,-13249.686362,-2374.896044
426.295709,-3775.050304,-8586.388927,-2451.505594
426.296031,-1332.370696,-5995.668130,-1225.752797
426.296352,370.102971,-5403.503377,-536.266849
426.296674,2220.617826,-4959.379811,842.705048
426.296996,3404.947333,-5995.668130,2374.896044
426.297318,6069.688724,-7772.162391,2987.772442
426.297640,8216.285956,-8290.306550,1455.581446
426.297961,8882.471304,-7402.059420,-612.876398
426.298283,8068.244768,-7846.182985,-1072.533697
426.298605,6217.729913,-9474.636058,-919.314598
426.298927,2886.803174,-11769.274478,-1532.190996
426.299249,-592.164754,-13545.768739,-2757.943793
426.299570,-3627.009116,-15248.242405,-3294.210641
426.299892,-4737.318029,-15914.427753,-2911.162892
426.300214,-5181.441594,-14137.933492,-2451.505594
426.300536,-4811.338623,-11621.233289,-1762.019645
426.300858,-4367.215058,-10288.862594,306.438199
426.301179,-4441.235652,-9326.594869,2221.676944
426.301501,-4589.276840,-7846.182985,2528.115143
426.301823,-3627.009116,-5773.606348,2374.896044
426.302145,-1184.329507,-3997.112087,1455.581446
426.302467,1332.370696,-3034.844362,919.314598
426.302788,1998.556043,-3701.029710,2145.067394
426.303110,1406.391290,-3701.029710,3600.648841
426.303432,2516.700203,-6513.812290,2145.067394
426.303754,3627.009116,-8660.409521,-1608.800546
426.304075,2738.761985,-10140.821405,-3524.039291
426.304397,222.061783,-10807.006753,-1838.629195
426.304719,-1998.556043,-12953.603985,-383.047749
426.305041,-2812.782580,-14434.015869,-1072.533697
426.305363,-3256.906145,-13767.830521,-2068.457845
426.305684,-3404.947333,-12213.398043,-2298.286494
426.306006,-3256.906145,-10881.027347,-766.095498
426.306328,-1776.494261,-9696.697840,229.828649
426.306650,-370.102971,-8808.450710,1915.238745
426.306972,1258.350101,-5995.668130,3447.429741
426.307293,3182.885551,-3108.864956,2451.505594
426.307615,4219.173869,-2812.782580,306.438199
426.307937,3775.050304,-5699.585753,-383.047749
426.308259,1036.288319,-6957.935855,1149.143247
426.308581,-1776.494261,-7105.977043,1378.971896
426.308902,-888.247130,-9400.615463,-1225.752797
426.309224,814.226536,-12361.439231,-6128.763984
426.309546,-814.226536,-11473.192101,-6511.811733
426.309868,-3552.988522,-11473.192101,-4596.572988
426.310190,-5773.606348,-15174.221811,-3447.429741
426.310511,-6735.874072,-16358.551318,-4060.306139
426.310833,-6661.853478,-14730.098246,-6894.859482
426.311155,-6143.709319,-12879.583391,-7354.516781
426.311477,-3330.926739,-12805.562797,-3830.477490
426.311799,-222.061783,-11325.150913,-995.924147
426.312120,1332.370696,-8734.430116,1302.362347
426.312442,3627.009116,-5551.544565,2681.334243
426.312764,5329.482782,-5181.441594,2681.334243
426.313086,5551.544565,-4145.153275,229.828649
426.313408,4145.153275,-3849.070898,-1225.752797
426.313729,3775.050304,-5551.544565,-1608.800546
426.314051,3923.091493,-8882.471304,-766.095498
426.314373,2960.823768,-10732.986159,-459.657299
426.314695,592.164754,-11621.233289,-1149.143247
426.315017,-1480.411884,-12953.603985,-2834.553343
426.315338,-3552.988522,-13471.748144,-4749.792088
426.315660,-5477.523971,-11251.130318,-6358.592633
426.315982,-5921.647536,-10732.986159,-6971.469032
426.316304,-4589.276840,-11843.295072,-5056.230287
426.316626,-3256.906145,-10436.903782,-2528.115143
426.316947,-1924.535449,-7179.997637,-1302.362347
426.317269,0.000000,-7031.956449,-689.485948
426.317591,1850.514855,-6883.915261,-536.266849
426.317913,1776.494261,-4663.297435,-1608.800546
426.318234,1850.514855,-3404.947333,-689.485948
426.318556,2738.761985,-5107.421000,612.876398
426.318878,3478.967927,-7624.121203,766.095498
426.319200,3034.844362,-8660.409521,842.705048
426.319522,2294.638420,-8734.430116,536.266849
426.319843,2146.597232,-9548.656652,-689.485948
426.320165,1258.350101,-11029.068536,-2528.115143
426.320487,-740.205942,-11991.336260,-2604.724693
426.320809,-2590.720797,-12583.501014,-2221.676944
426.321131,-2812.782580,-13693.809927,-1685.410096
426.321452,-2220.617826,-13619.789333,-1685.410096
426.321774,-222.061783,-10955.047942,-1685.410096
426.322096,1110.308913,-7476.080014,-1991.848295
426.322418,2664.741391,-5329.482782,-1838.629195
426.322740,3034.844362,-5625.565159,-1838.629195
426.323061,2368.659014,-6217.729913,-919.314598
426.323383,0.000000,-7846.182985,-766.095498
426.323705,-2516.700203,-10214.842000,-689.485948
426.324027,-4145.153275,-12731.542202,-1455.581446
426.324349,-3923.091493,-12065.356855,-2298.286494
426.324670,-3330.926739,-11621.233289,-2757.943793
426.324992,-2664.741391,-11473.192101,-2451.505594
426.325314,-3330.926739,-11769.274478,-995.924147
426.325636,-4145.153275,-11991.336260,-153.219100
426.325958,-4737.318029,-12287.418637,-1225.752797
426.326279,-3627.009116,-11399.171507,-2068.457845
426.326601,-1850.514855,-10436.903782,-1762.019645
426.326923,666.185348,-8512.368333,-919.314598
426.327245,2886.803174,-7328.038826,383.047749
426.327567,4737.318029,-7550.100608,995.924147
426.327888,5107.421000,-7772.162391,2757.943793
426.328210,4145.153275,-6957.935855,2068.457845
426.328532,1924.535449,-6735.874072,995.924147
426.328854,1480.411884,-6661.853478,-306.438199
426.329176,2072.576638,-7846.182985,-2221.676944
426.329497,1406.391290,-7550.100608,-1915.238745
426.329819,0.000000,-8142.265362,76.609550
426.330141,-2590.720797,-10807.006753,2298.286494
426.330463,-4441.235652,-13027.624579,1378.971896
426.330784,-6291.750507,-12435.459826,-766.095498
426.331106,-6587.832884,-10140.821405,-2221.676944
426.331428,-4589.276840,-7920.203579,-1532.190996
426.331750,-1406.391290,-6143.709319,-1225.752797
426.332072,888.247130,-4737.318029,-612.876398
426.332393,2220.617826,-4737.318029,0.000000
426.332715,2368.659014,-7328.038826,842.705048
426.333037,1776.494261,-8290.306550,153.219100
426.333359,1332.370696,-8438.347739,-1455.581446
426.333681,1702.473667,-8216.285956,-3217.601092
426.334002,3552.988522,-9104.533087,-3753.867940
426.334324,4589.276840,-8808.450710,-2604.724693
426.334646,3404.947333,-9918.759623,-1225.752797
426.334968,444.123565,-12213.398043,-612.876398
426.335290,-2812.782580,-14359.995275,-1838.629195
426.335611,-4589.276840,-14063.912898,-2987.772442
426.335933,-4811.338623,-13545.768739,-4443.353888
426.336255,-3552.988522,-11695.253884,-4749.792088
426.336577,-1332.370696,-9474.636058,-2911.162892
426.336899,1406.391290,-7105.977043,-766.095498
426.337220,2960.823768,-6661.853478,-306.438199
426.337542,2664.741391,-7994.224174,-1915.238745
426.337864,962.267725,-9844.739029,-2757.943793
426.338186,-740.205942,-9844.739029,-2681.334243
426.338508,-1184.329507,-8660.409521,-2681.334243
426.338829,666.185348,-9178.553681,-4519.963438
426.339151,2294.638420,-10288.862594,-4366.744339
426.339473,1628.453072,-10584.944971,-3064.381992
426.339795,-296.082377,-11843.295072,-1991.848295
426.340117,-1850.514855,-13989.892304,-2528.115143
426.340438,-3552.988522,-14285.974681,-2834.553343
426.340760,-4293.194464,-11843.295072,-4136.915689
426.341082,-3478.967927,-9474.636058,-3294.210641
426.341404,-1036.288319,-8512.368333,-1072.533697
426.341726,1406.391290,-6143.709319,536.266849
426.342047,2516.700203,-4663.297435,383.047749
426.342369,2886.803174,-5625.565159,919.314598
426.342691,1998.556043,-7698.141797,766.095498
426.343013,1110.308913,-6883.915261,-153.219100
426.343335,148.041188,-6365.771101,-1378.971896
426.343656,1332.370696,-6957.935855,-2068.457845
426.343978,1480.411884,-8290.306550,-2528.115143
426.344300,666.185348,-9030.512492,-2221.676944
426.344622,-1110.308913,-9992.780217,-842.705048
426.344943,-2812.782580,-11251.130318,-1455.581446
426.345265,-4663.297435,-12361.439231,-2298.286494
426.345587,-5107.421000,-11621.233289,-2374.896044
426.345909,-5255.462188,-9770.718434,-3370.820191
426.346231,-3478.967927,-9030.512492,-2681.334243
426.346552,-1110.308913,-9252.574275,-306.438199
426.346874,222.061783,-7698.141797,1149.143247
426.347196,1110.308913,-6661.853478,-306.438199
426.347518,2220.617826,-7846.182985,-766.095498
426.347840,2960.823768,-9104.533087,0.000000
426.348161,2442.679609,-7402.059420,0.000000
426.348483,1924.535449,-6587.832884,-995.924147
426.348805,2664.741391,-7920.203579,-2374.896044
426.349127,2886.803174,-10732.986159,-2451.505594
426.349449,1258.350101,-11325.150913,-1838.629195
426.349770,-1406.391290,-12805.562797,-1838.629195
426.350092,-2812.782580,-15248.242405,-1762.019645
426.350414,-3404.947333,-15692.365970,-1838.629195
426.350736,-4441.235652,-13249.686362,-2757.943793
426.351058,-4441.235652,-11251.130318,-2757.943793
426.351379,-2368.659014,-10436.903782,-1225.752797
426.351701,-666.185348,-9030.512492,0.000000
426.352023,74.020594,-6957.935855,0.000000
426.352345,1184.329507,-6069.688724,536.266849
426.352667,1998.556043,-7031.956449,536.266849
426.352988,2072.576638,-7179.997637,383.047749
426.353310,1406.391290,-6069.688724,306.438199
426.353632,2220.617826,-5551.544565,-689.485948
426.353954,3849.070898,-8142.265362,-2604.724693
426.354276,3404.947333,-9770.718434,-2298.286494
426.354597,888.247130,-10881.027347,-612.876398
426.354919,-1406.391290,-12879.583391,689.485948
426.355241,-3034.844362,-15026.180623,306.438199
426.355563,-3923.091493,-12435.459826,-1608.800546
426.355885,-4367.215058,-9548.656652,-2987.772442
426.356206,-2442.679609,-8142.265362,-1838.629195
426.356528,-1184.329507,-7846.182985,459.657299
426.356850,148.041188,-5477.523971,1762.019645
426.357172,1258.350101,-3997.112087,2068.457845
426.357493,2590.720797,-4515.256246,1455.581446
426.357815,2442.679609,-6587.832884,-229.828649
426.358137,1332.370696,-5995.668130,-1149.143247
426.358459,444.123565,-5477.523971,-1608.800546
426.358781,1998.556043,-7550.100608,-3064.381992
426.359102,3404.947333,-10214.842000,-3753.867940
426.359424,1776.494261,-10510.924376,-2528.115143
426.359746,-1628.453072,-12435.459826,-2374.896044
426.360068,-3849.070898,-15544.324782,-2221.676944
426.360390,-5033.400406,-16358.551318,-3064.381992
426.360711,-6217.729913,-12953.603985,-5975.544884
426.361033,-5847.626942,-10658.965565,-6511.811733
426.361355,-4145.153275,-10510.924376,-2528.115143
426.361677,-1850.514855,-9992.780217,153.219100
426.361998,-740.205942,-7476.080014,612.876398
426.362320,740.205942,-6069.688724,229.828649
426.362642,2072.576638,-6291.750507,-383.047749
426.362964,2590.720797,-6217.729913,-2145.067394
426.363285,2220.617826,-5033.400406,-3140.991542
426.363607,2738.761985,-6735.874072,-2911.162892
426.363929,2960.823768,-9622.677246,-2451.505594
426.364250,2812.782580,-12657.521608,-2911.162892
426.364572,888.247130,-15322.262999,-2757.943793
426.364894,-2368.659014,-15914.427753,-2757.943793
426.365216,-4515.256246,-14804.118840,-3217.601092
426.365537,-4885.359217,-11991.336260,-4060.306139
426.365859,-3849.070898,-10214.842000,-5362.668486
426.366181,-2516.700203,-8882.471304,-4979.620737
426.366503,-2146.597232,-8660.409521,-2145.067394
426.366824,-2146.597232,-8216.285956,1608.800546
426.367146,-1480.411884,-7920.203579,2528.115143
426.367468,-296.082377,-6439.791695,0.000000
426.367790,666.185348,-4885.359217,-1378.971896
426.368111,2146.597232,-2220.617826,-1608.800546
426.368433,2886.803174,-2886.803174,-1302.362347
426.368755,3552.988522,-4737.318029,-1072.533697
426.369077,3997.112087,-8068.244768,-689.485948
426.369398,3775.050304,-10214.842000,-2145.067394
426.369720,2590.720797,-13249.686362,-2757.943793
426.370042,-592.164754,-15248.242405,-2987.772442
426.370364,-3627.009116,-15248.242405,-2374.896044
426.370685,-4293.194464,-13027.624579,-2604.724693
426.371007,-2960.823768,-10955.047942,-3217.601092
426.371329,-1184.329507,-9252.574275,-2145.067394
426.371650,-148.041188,-7994.224174,-1302.362347
426.371972,370.102971,-7254.018232,766.095498
426.372294,1406.391290,-7031.956449,2145.067394
426.372616,2294.638420,-6365.771101,1455.581446
426.372937,2960.823768,-4737.318029,-229.828649
426.373259,1776.494261,-3775.050304,-1532.190996
426.373581,740.205942,-5329.482782,-995.924147
426.373903,148.041188,-9030.512492,-2068.457845
426.374224,0.000000,-12139.377449,-3064.381992
426.374546,-962.267725,-13027.624579,-2681.334243
426.374868,-2812.782580,-14211.954086,-1608.800546
426.375190,-4293.194464,-16284.530724,-1532.190996
426.375511,-5329.482782,-15692.365970,-2757.943793
426.375833,-5551.544565,-12657.521608,-4749.792088
426.376155,-4737.318029,-11473.192101,-4903.011187
426.376477,-3478.967927,-11547.212695,-1685.410096
426.376798,-2368.659014,-10066.800811,536.266849
426.377120,-1998.556043,-8364.327145,1149.143247
426.377442,148.041188,-6735.874072,995.924147
426.377764,2664.741391,-5625.565159,153.219100
426.378085,3330.926739,-3627.009116,-919.314598
426.378407,2590.720797,-4071.132681,-919.314598
426.378729,2664.741391,-6217.729913,612.876398
426.379050,2664.741391,-9104.533087,0.000000
426.379372,2812.782580,-11917.315666,-2068.457845
426.379694,1110.308913,-13915.871710,-2145.067394
426.380016,-1406.391290,-13619.789333,-306.438199
426.380337,-2664.741391,-13101.645173,-612.876398
426.380659,-2516.700203,-11177.109724,-1149.143247
426.380981,-1480.411884,-9622.677246,-2757.943793
426.381303,-740.205942,-8660.409521,-2987.772442
426.381624,-666.185348,-9178.553681,229.828649
426.381946,-740.205942,-8882.471304,4136.915689
426.382268,-444.123565,-7772.162391,4673.182538
426.382590,444.123565,-5625.565159,2068.457845
426.382911,1776.494261,-2812.782580,-153.219100
426.383233,2368.659014,-1480.411884,-1072.533697
426.383555,1850.514855,-3627.009116,-383.047749
426.383877,1332.370696,-6809.894666,536.266849
426.384198,1480.411884,-9992.780217,-919.314598
426.384520,1184.329507,-11917.315666,-2145.067394
426.384842,-888.247130,-13619.789333,-2374.896044
426.385164,-4441.235652,-14137.933492,-1991.848295
426.385485,-5699.585753,-13471.748144,-2681.334243
426.385807,-5255.462188,-11251.130318,-4903.011187
426.386129,-4441.235652,-9844.739029,-5975.544884
426.386450,-3923.091493,-10288.862594,-3370.820191
426.386772,-3775.050304,-11029.068536,0.000000
426.387094,-3701.029710,-10658.965565,1072.533697
426.387416,-2664.741391,-9474.636058,612.876398
426.387737,-222.061783,-7846.182985,-612.876398
426.388059,1554.432478,-3627.009116,-3064.381992
426.388381,2368.659014,-2072.576638,-3907.087040
426.388703,3404.947333,-5255.462188,-2451.505594
426.389024,3552.988522,-9622.677246,-1378.971896
426.389346,2664.741391,-11177.109724,-2604.724693
426.389668,2072.576638,-15026.180623,-4136.915689
426.389990,592.164754,-17468.860231,-3753.867940
426.390311,-1998.556043,-16358.551318,-3447.429741
426.390633,-2590.720797,-12435.459826,-4060.306139
426.390955,-962.267725,-11547.212695,-5362.668486
426.391277,1332.370696,-11325.150913,-5209.449386
426.391598,1110.308913,-9992.780217,-3064.381992
426.391920,222.061783,-9104.533087,383.047749
426.392242,444.123565,-9474.636058,3370.820191
426.392564,962.267725,-8364.327145,842.705048
426.392885,592.164754,-5477.523971,-1225.752797
426.393207,444.123565,-1554.432478,-1532.190996
426.393529,1036.288319,-888.247130,-2298.286494
426.393850,1628.453072,-4737.318029,-2528.115143
426.394172,-222.061783,-8364.327145,-1302.362347
426.394494,-2516.700203,-10140.821405,-536.266849
426.394816,-3849.070898,-12065.356855,-1762.019645
426.395137,-4441.235652,-14137.933492,-3600.648841
426.395459,-5329.482782,-12805.562797,-4903.011187
426.395781,-6069.688724,-10436.903782,-5286.058936
426.396103,-5255.462188,-10066.800811,-3600.648841
426.396424,-4441.235652,-10584.944971,-1378.971896
426.396746,-3552.988522,-9770.718434,-383.047749
426.397068,-2442.679609,-8882.471304,-842.705048
426.397390,-296.082377,-7920.203579,0.000000
426.397711,1998.556043,-6217.729913,0.000000
426.398033,4515.256246,-2812.782580,0.000000
426.398355,6143.709319,-1554.432478,306.438199
426.398677,6809.894666,-4071.132681,612.876398
426.398998,5403.503377,-8586.388927,766.095498
426.399320,3330.926739,-10807.006753,995.924147
426.399642,2220.617826,-12731.542202,0.000000
426.399964,1554.432478,-14656.077652,-1991.848295
426.400285,296.082377,-15174.221811,-2834.553343
426.400607,-1554.432478,-12139.377449,-1915.238745
426.400929,-2220.617826,-10881.027347,-1302.362347
426.401250,-888.247130,-11769.274478,-2145.067394
426.401572,-1184.329507,-11547.212695,-3140.991542
426.401894,-2664.741391,-9844.739029,-2068.457845
426.402216,-3849.070898,-10362.883188,612.876398
426.402537,-2664.741391,-9992.780217,919.314598
426.402859,-1628.453072,-8290.306550,-689.485948
426.403181,-1332.370696,-6365.771101,-2221.676944
426.403503,-1998.556043,-6365.771101,-1915.238745
426.403824,-2516.700203,-7698.141797,-995.924147
426.404146,-2368.659014,-8734.430116,-1455.581446
426.404468,-1480.411884,-9622.677246,-2911.162892
426.404790,-814.226536,-10510.924376,-4136.915689
426.405111,-1702.473667,-12509.480420,-2681.334243
426.405433,-2960.823768,-14804.118840,-536.266849
426.405755,-4145.153275,-14508.036463,-459.657299
426.406077,-3404.947333,-12287.418637,-2528.115143
426.406398,-962.267725,-10955.047942,-2145.067394
426.406720,1406.391290,-9178.553681,-383.047749
426.407042,3775.050304,-6439.791695,459.657299
426.407364,5477.523971,-4737.318029,1608.800546
426.407685,7031.956449,-5921.647536,2987.772442
426.408007,6735.874072,-4737.318029,3217.601092
426.408329,5181.441594,-4737.318029,1302.362347
426.408650,3182.885551,-5921.647536,306.438199
426.408972,1776.494261,-8660.409521,0.000000
426.409294,1554.432478,-8216.285956,-1378.971896
426.409616,888.247130,-7846.182985,-2221.676944
426.409937,-296.082377,-9400.615463,-766.095498
426.410259,-3330.926739,-11325.150913,-1302.362347
426.410581,-6661.853478,-12213.398043,-2298.286494
426.410903,-8660.409521,-12731.542202,-3600.648841
426.411224,-8142.265362,-12139.377449,-4903.011187
426.411546,-7031.956449,-10214.842000,-4596.572988
426.411868,-4885.359217,-8512.368333,-2374.896044
426.412190,-3923.091493,-7624.121203,153.219100
426.412511,-2738.761985,-7328.038826,153.219100
426.412833,-1702.473667,-6957.935855,-1532.190996
426.413155,-518.144159,-5921.647536,-2604.724693
426.413477,296.082377,-5921.647536,-3370.820191
426.413798,1480.411884,-7105.977043,-3600.648841
426.414120,2664.741391,-9474.636058,-3140.991542
426.414442,3775.050304,-10955.047942,-1991.848295
426.414764,3997.112087,-12435.459826,-1608.800546
426.415085,1998.556043,-14434.015869,-2528.115143
426.415407,-814.226536,-15026.180623,-3064.381992
426.415729,-1480.411884,-13323.706956,-3907.087040
426.416050,0.000000,-11769.274478,-5822.325785
426.416372,2294.638420,-11843.295072,-5515.887586
426.416694,3552.988522,-10955.047942,-2374.896044
426.417016,3182.885551,-8808.450710,842.705048
426.417337,2886.803174,-8364.327145,1455.581446
426.417659,2664.741391,-9178.553681,0.000000
426.417981,1406.391290,-7476.080014,-1532.190996
426.418303,-222.061783,-5033.400406,-2298.286494
426.418624,-518.144159,-5477.523971,-2987.772442
426.418946,-148.041188,-7846.182985,-2145.067394
426.419268,-666.185348,-8290.306550,-1225.752797
426.419590,-1850.514855,-8734.430116,-1762.019645
426.419911,-1924.535449,-10510.924376,-3753.867940
426.420233,-3330.926739,-13471.748144,-4136.915689
426.420555,-5477.523971,-13175.665768,-3753.867940
426.420877,-7402.059420,-12657.521608,-2911.162892
426.421198,-6513.812290,-11695.253884,-2298.286494
426.421520,-4219.173869,-10807.006753,-1991.848295
426.421842,-2294.638420,-7772.162391,-1149.143247
426.422164,-666.185348,-6069.688724,-306.438199
426.422485,962.267725,-4737.318029,76.609550
426.422807,2368.659014,-4737.318029,229.828649
426.423129,2960.823768,-4515.256246,995.924147
426.423450,3034.844362,-5847.626942,842.705048
426.423772,3034.844362,-7698.141797,306.438199
426.424094,1924.535449,-9696.697840,76.609550
426.424416,888.247130,-9770.718434,0.000000
426.424737,814.226536,-9844.739029,-612.876398
426.425059,888.247130,-10807.006753,-1532.190996
426.425381,0.000000,-12139.377449,-766.095498
426.425703,-1776.494261,-11917.315666,-995.924147
426.426024,-1924.535449,-11695.253884,-1762.019645
426.426346,-444.123565,-11991.336260,-2604.724693
426.426668,888.247130,-11843.295072,-2528.115143
426.426990,888.247130,-9844.739029,-1225.752797
426.427311,444.123565,-8512.368333,612.876398
426.427633,296.082377,-8290.306550,1302.362347
426.427955,962.267725,-7476.080014,-229.828649
426.428277,0.000000,-6439.791695,-1532.190996
426.428598,-1036.288319,-6587.832884,-842.705048
426.428920,-1998.556043,-9104.533087,-1302.362347
426.429242,-1850.514855,-10288.862594,-612.876398
426.429564,-1850.514855,-10658.965565,-612.876398
426.429885,-2146.597232,-11547.212695,-1455.581446
426.430207,-3034.844362,-13693.809927,-2221.676944
426.430529,-4071.132681,-13101.645173,-1685.410096
426.430850,-5181.441594,-11473.192101,-2987.772442
426.431172,-4219.173869,-10436.903782,-3294.210641
426.431494,-1850.514855,-11325.150913,-2145.067394
426.431816,444.123565,-9548.656652,-1149.143247
426.432137,444.123565,-7476.080014,-536.266849
426.432459,2072.576638,-7031.956449,0.000000
426.432781,2664.741391,-7920.203579,536.266849
426.433103,2960.823768,-6661.853478,-459.657299
426.433424,2146.597232,-6291.750507,-1838.629195
426.433746,1776.494261,-7105.977043,-1149.143247
426.434068,1998.556043,-9770.718434,-766.095498
426.434390,2294.638420,-9252.574275,-306.438199
426.434711,1184.329507,-8586.388927,-612.876398
426.435033,74.020594,-9326.594869,-689.485948
426.435355,-1184.329507,-9844.739029,-1072.533697
426.435677,-2368.659014,-8216.285956,-1838.629195
426.435998,-2590.720797,-8216.285956,-3447.429741
426.436320,-1332.370696,-9178.553681,-3217.601092
426.436642,-370.102971,-9696.697840,-1608.800546
426.436964,148.041188,-9178.553681,306.438199
426.437285,814.226536,-8660.409521,689.485948
426.437607,1998.556043,-9474.636058,-995.924147
426.437929,1702.473667,-8438.347739,-2451.505594
426.438250,592.164754,-6513.812290,-2681.334243
426.438572,74.020594,-6143.709319,-2451.505594
426.438894,0.000000,-8438.347739,-2757.943793
426.439216,-222.061783,-9770.718434,-3294.210641
426.439537,-1628.453072,-10955.047942,-2374.896044
426.439859,-2960.823768,-12287.418637,-2068.457845
426.440181,-4145.153275,-14211.954086,-2221.676944
426.440503,-4737.318029,-12139.377449,-2604.724693
426.440824,-4885.359217,-8586.388927,-3830.477490
426.441146,-2368.659014,-8290.306550,-3983.696590
426.441468,-814.226536,-9696.697840,-3524.039291
426.441790,0.000000,-9252.574275,-2374.896044
426.442111,74.020594,-9622.677246,-919.314598
426.442433,1480.411884,-11399.171507,-536.266849
426.442755,3108.864956,-12657.521608,-919.314598
426.443077,2960.823768,-9474.636058,-2221.676944
426.443398,2442.679609,-7105.977043,-2681.334243
426.443720,3478.967927,-6291.750507,-2374.896044
426.444042,3997.112087,-7846.182985,-2604.724693
426.444364,2442.679609,-8956.491898,-2681.334243
426.444685,-962.267725,-10584.944971,-1685.410096
426.445007,-3182.885551,-12805.562797,-459.657299
426.445329,-4293.194464,-14434.015869,-1149.143247
426.445650,-4737.318029,-10732.986159,-2604.724693
426.445972,-4145.153275,-8290.306550,-4136.915689
426.446294,-2146.597232,-8364.327145,-3447.429741
426.446616,-222.061783,-8438.347739,-1149.143247
426.446937,148.041188,-7402.059420,536.266849
426.447259,444.123565,-7846.182985,306.438199
426.447581,1110.308913,-9474.636058,-766.095498
426.447903,1332.370696,-8956.491898,-1915.238745
426.448224,1036.288319,-7402.059420,-1762.019645
426.448546,1776.494261,-6735.874072,-766.095498
426.448868,2738.761985,-7476.080014,-1455.581446
426.449190,2146.597232,-9400.615463,-1455.581446
426.449511,-888.247130,-10584.944971,0.000000
426.449833,-3552.988522,-11621.233289,612.876398
426.450155,-4959.379811,-13619.789333,-766.095498
426.450477,-5181.441594,-12139.377449,-1762.019645
426.450798,-4737.318029,-8808.450710,-2451.505594
426.451120,-3108.864956,-7031.956449,-1685.410096
426.451442,-518.144159,-7846.182985,536.266849
426.451764,888.247130,-7179.997637,1072.533697
426.452085,1110.308913,-7254.018232,-153.219100
426.452407,1406.391290,-8068.244768,229.828649
426.452729,1480.411884,-9844.739029,0.000000
426.453050,1850.514855,-8438.347739,-1838.629195
426.453372,1184.329507,-7179.997637,-1762.019645
426.453694,2812.782580,-8216.285956,-1302.362347
426.454016,2960.823768,-9548.656652,-1915.238745
426.454337,2146.597232,-10140.821405,-2528.115143
426.454659,74.020594,-12139.377449,-2451.505594
426.454981,-1702.473667,-13545.768739,-1072.533697
426.455303,-3627.009116,-13619.789333,-1455.581446
426.455624,-3923.091493,-10066.800811,-2451.505594
426.455946,-3182.885551,-8808.450710,-2987.772442
426.456268,-2072.576638,-8956.491898,-1915.238745
426.456590,-666.185348,-9770.718434,153.219100
426.456911,0.000000,-8734.430116,919.314598
426.457233,1998.556043,-8142.265362,1149.143247
426.457555,3849.070898,-8364.327145,536.266849
426.457877,4441.235652,-7550.100608,-306.438199
426.458198,4367.215058,-5181.441594,-1302.362347
426.458520,4071.132681,-4885.359217,-1762.019645
426.458842,4367.215058,-8882.471304,-3294.210641
426.459164,2738.761985,-12139.377449,-3370.820191
426.459485,-666.185348,-13101.645173,-1838.629195
426.459807,-3997.112087,-14952.160028,-766.095498
426.460129,-5181.441594,-16136.489536,-1225.752797
426.460450,-5847.626942,-13323.706956,-2451.505594
426.460772,-5477.523971,-8882.471304,-4060.306139
426.461094,-5255.462188,-6513.812290,-3830.477490
426.461416,-4219.173869,-6735.874072,-1225.752797
426.461737,-2590.720797,-5921.647536,689.485948
426.462059,-1924.535449,-5625.565159,-689.485948
426.462381,-1554.432478,-7402.059420,-1072.533697
426.462703,-1406.391290,-10066.800811,-689.485948
426.463024,-962.267725,-9548.656652,-995.924147
426.463346,74.020594,-8364.327145,-1915.238745
426.463668,2146.597232,-7179.997637,-2528.115143
426.463990,3552.988522,-8586.388927,-2911.162892
426.464312,2886.803174,-7772.162391,-1685.410096
426.464633,1258.350101,-9474.636058,-766.095498
426.464955,222.061783,-12139.377449,-1302.362347
426.465277,-1036.288319,-13989.892304,-2528.115143
426.465599,-1998.556043,-11917.315666,-2221.676944
426.465920,-1776.494261,-10436.903782,-1302.362347
426.466242,-148.041188,-9622.677246,0.000000
426.466564,1628.453072,-9474.636058,-153.219100
426.466886,2886.803174,-6365.771101,459.657299
426.467208,3849.070898,-4663.297435,536.266849
426.467529,4515.256246,-5181.441594,-536.266849
426.467851,3923.091493,-7328.038826,-1838.629195
426.468173,1998.556043,-7179.997637,-1225.752797
426.468495,814.226536,-7920.203579,-1532.190996
426.468816,1628.453072,-11473.192101,-3753.867940
426.469138,592.164754,-13027.624579,-3830.477490
426.469460,-1628.453072,-11917.315666,-2298.286494
426.469782,-3775.050304,-11843.295072,-1838.629195
426.470104,-4293.194464,-13175.665768,-2374.896044
426.470425,-4589.276840,-11769.274478,-4136.915689
426.470747,-5921.647536,-9030.512492,-4826.401637
426.471069,-6217.729913,-8512.368333,-3600.648841
426.471391,-5551.544565,-10362.883188,-1302.362347
426.471712,-3923.091493,-10288.862594,-612.876398
426.472034,-2960.823768,-8734.430116,-306.438199
426.472356,-962.267725,-7920.203579,-612.876398
426.472678,1110.308913,-8438.347739,-1378.971896
426.473000,2294.638420,-6735.874072,-1838.629195
426.473321,2812.782580,-5699.585753,-2298.286494
426.473643,4293.194464,-6587.832884,-2681.334243
426.473965,4589.276840,-9474.636058,-2145.067394
426.474287,4367.215058,-11251.130318,-1532.190996
426.474608,1628.453072,-12287.418637,-919.314598
426.474930,0.000000,-13397.727550,-1302.362347
426.475252,-1554.432478,-14730.098246,-919.314598
426.475574,-2516.700203,-12731.542202,-1225.752797
426.475896,-3330.926739,-9992.780217,-1991.848295
426.476217,-2072.576638,-8808.450710,-1302.362347
426.476539,0.000000,-8512.368333,1072.533697
426.476861,1554.432478,-5477.523971,2145.067394
426.477183,2072.576638,-3849.070898,1072.533697
426.477504,2886.803174,-4441.235652,766.095498
426.477826,2442.679609,-6809.894666,306.438199
426.478148,444.123565,-6661.853478,-229.828649
426.478470,-1332.370696,-7328.038826,-995.924147
426.478792,-444.123565,-9474.636058,-1685.410096
426.479113,592.164754,-10955.047942,-2298.286494
426.479435,0.000000,-11251.130318,-2834.553343
426.479757,-2072.576638,-11695.253884,-2604.724693
426.480079,-3404.947333,-12953.603985,-1685.410096
426.480400,-4737.318029,-12731.542202,-1685.410096
426.480722,-6069.688724,-10658.965565,-2834.553343
426.481044,-5551.544565,-9326.594869,-3294.210641
426.481366,-4663.297435,-9844.739029,-1225.752797
426.481688,-3108.864956,-9400.615463,919.314598
426.482009,-1184.329507,-6809.894666,1532.190996
426.482331,1776.494261,-5625.565159,1302.362347
426.482653,3849.070898,-6439.791695,1225.752797
426.482975,4071.132681,-6957.935855,536.266849
426.483296,3552.988522,-5329.482782,995.924147
426.483618,4885.359217,-5625.565159,-536.266849
426.483940,6365.771101,-9030.512492,-3677.258390
426.484262,6365.771101,-11029.068536,-4443.353888
426.484584,3478.967927,-12213.398043,-2834.553343
426.484905,222.061783,-15174.221811,-842.705048
426.485227,-2886.803174,-17838.963202,0.000000
426.485549,-4959.379811,-16284.530724,-1915.238745
426.485871,-5921.647536,-12435.459826,-4519.963438
426.486192,-4515.256246,-9622.677246,-4136.915689
426.486514,-2664.741391,-8586.388927,-1762.019645
426.486836,-962.267725,-6217.729913,153.219100
426.487158,296.082377,-3997.112087,1225.752797
426.487480,962.267725,-4589.276840,919.314598
426.487801,296.082377,-7402.059420,-689.485948
426.488123,-962.267725,-8586.388927,-1915.238745
426.488445,-1924.535449,-9474.636058,-1685.410096
426.488767,-1036.288319,-9844.739029,-2298.286494
426.489088,740.205942,-11251.130318,-3753.867940
426.489410,2220.617826,-10066.800811,-2604.724693
426.489732,518.144159,-9770.718434,-1915.238745
426.490054,-2442.679609,-11399.171507,-1915.238745
426.490376,-4367.215058,-13693.809927,-2221.676944
426.490697,-5181.441594,-13027.624579,-3753.867940
426.491019,-5329.482782,-11029.068536,-4979.620737
426.491341,-3627.009116,-10658.965565,-1072.533697
426.491663,-1332.370696,-9474.636058,1991.848295
426.491984,592.164754,-5995.668130,1838.629195
426.492306,2294.638420,-3404.947333,1149.143247
426.492628,3849.070898,-3108.864956,689.485948
426.492950,4219.173869,-3182.885551,-536.266849
426.493272,3701.029710,-3923.091493,-1838.629195
426.493593,2960.823768,-5699.585753,-1225.752797
426.493915,3849.070898,-9252.574275,-1608.800546
426.494237,4811.338623,-11547.212695,-2987.772442
426.494559,3849.070898,-13323.706956,-3140.991542
426.494881,1628.453072,-15174.221811,-2221.676944
426.495202,-2664.741391,-16210.510130,-1685.410096
426.495524,-4737.318029,-15026.180623,-1762.019645
426.495846,-5107.421000,-11177.109724,-3600.648841
426.496168,-3478.967927,-8290.306550,-4749.792088
426.496489,-2146.597232,-6957.935855,-2757.943793
426.496811,-962.267725,-5477.523971,995.924147
426.497133,-518.144159,-5181.441594,1762.019645
426.497455,74.020594,-5847.626942,153.219100
426.497777,0.000000,-8512.368333,-1302.362347
426.498098,-1480.411884,-8734.430116,-1302.362347
426.498420,-2442.679609,-8734.430116,-2451.505594
426.498742,-1554.432478,-8956.491898,-3447.429741
426.499064,814.226536,-10658.965565,-4596.572988
426.499385,2368.659014,-11177.109724,-3830.477490
426.499707,666.185348,-12213.398043,-3447.429741
426.500029,-1998.556043,-14582.057057,-2298.286494
426.500351,-4515.256246,-16062.468941,-1072.533697
426.500673,-4589.276840,-14508.036463,-2374.896044
426.500994,-3997.112087,-10881.027347,-4519.963438
426.501316,-2146.597232,-9326.594869,-3447.429741
426.501638,0.000000,-8956.491898,536.266849
426.501960,1554.432478,-6291.750507,3294.210641
426.502281,3182.885551,-5107.421000,2987.772442
426.502603,4811.338623,-5477.523971,1915.238745
426.502925,5033.400406,-6439.791695,459.657299
426.503247,3034.844362,-5921.647536,306.438199
426.503569,2590.720797,-6291.750507,536.266849
426.503890,3552.988522,-8512.368333,-689.485948
426.504212,4293.194464,-10732.986159,-2451.505594
426.504534,2886.803174,-10658.965565,-1685.410096
426.504856,148.041188,-11325.150913,-459.657299
426.505177,-2886.803174,-14878.139434,-306.438199
426.505499,-4737.318029,-15100.201217,-1608.800546
426.505821,-6587.832884,-11769.274478,-3370.820191
426.506143,-5847.626942,-8586.388927,-2911.162892
426.506465,-4367.215058,-8290.306550,-383.047749
426.506786,-3404.947333,-6513.812290,1455.581446
426.507108,-3034.844362,-4515.256246,1915.238745
426.507430,-1998.556043,-4367.215058,1608.800546
426.507752,-666.185348,-6069.688724,536.266849
426.508073,-592.164754,-6217.729913,-306.438199
426.508395,-1110.308913,-5625.565159,-383.047749
426.508717,444.123565,-5699.585753,-1149.143247
426.509039,2886.803174,-9992.780217,-2604.724693
426.509361,4071.132681,-11473.192101,-2451.505594
426.509682,1776.494261,-12435.459826,-1838.629195
426.510004,-518.144159,-13767.830521,-1225.752797
426.510326,-1554.432478,-15174.221811,-1762.019645
426.510648,-1480.411884,-12213.398043,-3294.210641
426.510969,-1258.350101,-10510.924376,-5209.449386
426.511291,-222.061783,-10658.965565,-3370.820191
426.511613,74.020594,-11029.068536,-383.047749
426.511935,74.020594,-9992.780217,2068.457845
426.512257,518.144159,-8660.409521,2604.724693
426.512578,592.164754,-7402.059420,1149.143247
426.512900,1184.329507,-5477.523971,-2068.457845
426.513222,2072.576638,-3627.009116,-3294.210641
426.513544,2738.761985,-4663.297435,-2834.553343
426.513865,2220.617826,-7476.080014,-2221.676944
426.514187,1776.494261,-11029.068536,-1608.800546
426.514509,444.123565,-13249.686362,-2604.724693
426.514831,-1110.308913,-14730.098246,-3830.477490
426.515153,-3478.967927,-16284.530724,-4519.963438
426.515474,-5181.441594,-15914.427753,-4213.525239
426.515796,-5625.565159,-12139.377449,-4903.011187
426.516118,-4367.215058,-10584.944971,-4366.744339
426.516440,-2812.782580,-9622.677246,-1762.019645
426.516761,-2294.638420,-7031.956449,1149.143247
426.517083,-1554.432478,-4811.338623,1608.800546
426.517405,222.061783,-3775.050304,612.876398
426.517727,1702.473667,-3849.070898,459.657299
426.518049,2368.659014,-2738.761985,306.438199
426.518370,1480.411884,-3478.967927,-229.828649
426.518692,1480.411884,-5995.668130,383.047749
426.519014,1480.411884,-8660.409521,-383.047749
426.519336,1776.494261,-9992.780217,-1608.800546
426.519657,1702.473667,-11547.212695,-4290.134789
426.519979,962.267725,-12287.418637,-4519.963438
426.520301,-666.185348,-13545.768739,-3447.429741
426.520623,-2146.597232,-13397.727550,-2374.896044
426.520945,-2590.720797,-12805.562797,-2987.772442
426.521266,-2812.782580,-11399.171507,-4136.915689
426.521588,-2146.597232,-10658.965565,-2911.162892
426.521910,-1184.329507,-9104.533087,-229.828649
426.522232,0.000000,-7624.121203,1838.629195
426.522554,1702.473667,-5699.585753,1455.581446
426.522875,2516.700203,-3330.926739,0.000000
426.523197,3256.906145,-2220.617826,-1072.533697
426.523519,2738.761985,-5107.421000,-1532.190996
426.523841,1036.288319,-8956.491898,-1532.190996
426.524162,-370.102971,-11843.295072,-1915.238745
426.524484,0.000000,-14063.912898,-3064.381992
426.524806,-444.123565,-15100.201217,-3064.381992
426.525128,-1998.556043,-16062.468941,-3064.381992
426.525450,-4219.173869,-15248.242405,-2374.896044
426.525771,-5107.421000,-13249.686362,-2681.334243
426.526093,-3849.070898,-11325.150913,-4519.963438
426.526415,-3034.844362,-9992.780217,-4596.572988
426.526737,-2442.679609,-9474.636058,-1072.533697
426.527058,-1998.556043,-8290.306550,1762.019645
426.527380,-814.226536,-7328.038826,1915.238745
426.527702,296.082377,-7105.977043,1149.143247
426.528024,1332.370696,-4589.276840,0.000000
426.528346,1554.432478,-4219.173869,-1532.190996
426.528667,1850.514855,-6217.729913,-919.314598
426.528989,1628.453072,-9104.533087,153.219100
426.529311,2146.597232,-9770.718434,-383.047749
426.529633,2886.803174,-11251.130318,-1302.362347
426.529954,2590.720797,-11843.295072,-1762.019645
426.530276,222.061783,-12361.439231,-995.924147
426.530598,-2294.638420,-11251.130318,-459.657299
426.530920,-2812.782580,-10658.965565,-1225.752797
426.531242,-1628.453072,-10510.924376,-2068.457845
426.531563,-888.247130,-9918.759623,-919.314598
426.531885,-1406.391290,-7105.977043,1762.019645
426.532207,0.000000,-5403.503377,3677.258390
426.532529,1776.494261,-3923.091493,1455.581446
426.532850,2960.823768,-3775.050304,-2221.676944
426.533172,1554.432478,-3108.864956,-1685.410096
426.533494,-666.185348,-5551.544565,-536.266849
426.533816,-1554.432478,-9104.533087,-1455.581446
426.534138,-740.205942,-12213.398043,-3217.601092
426.534459,-296.082377,-11769.274478,-3907.087040
426.534781,-740.205942,-11769.274478,-4673.182538
426.535103,-1628.453072,-13767.830521,-3600.648841
426.535425,-2812.782580,-15248.242405,-2298.286494
426.535746,-4441.235652,-13619.789333,-3294.210641
426.536068,-5181.441594,-11621.233289,-3907.087040
426.536390,-3997.112087,-11547.212695,-1915.238745
426.536712,-1998.556043,-9252.574275,0.000000
426.537034,222.061783,-6217.729913,-766.095498
426.537355,2664.741391,-4737.318029,-536.266849
426.537677,4219.173869,-6217.729913,995.924147
426.537999,4071.132681,-6809.894666,1532.190996
426.538321,1480.411884,-6809.894666,306.438199
426.538642,0.000000,-9030.512492,-612.876398
426.538964,0.000000,-11621.233289,-2221.676944
426.539286,740.205942,-10955.047942,-4290.134789
426.539608,888.247130,-9918.759623,-5362.668486
426.539930,74.020594,-10584.944971,-3677.258390
426.540251,-1702.473667,-13175.665768,-2298.286494
426.540573,-3330.926739,-13767.830521,-2604.724693
426.540895,-4737.318029,-13767.830521,-4903.011187
426.541217,-5033.400406,-13471.748144,-5362.668486
426.541538,-4293.194464,-12435.459826,-2757.943793
426.541860,-2220.617826,-9326.594869,306.438199
426.542182,0.000000,-5921.647536,1072.533697
426.542504,2590.720797,-4071.132681,536.266849
426.542826,3849.070898,-3923.091493,612.876398
426.543147,3404.947333,-3404.947333,766.095498
426.543469,2590.720797,-5033.400406,536.266849
426.543791,2516.700203,-8068.244768,-689.485948
426.544113,2368.659014,-9992.780217,-383.047749
426.544434,2886.803174,-10066.800811,-842.705048
426.544756,2738.761985,-10214.842000,-1378.971896
426.545078,962.267725,-10732.986159,-1455.581446
426.545400,-1776.494261,-10955.047942,-2145.067394
426.545722,-3775.050304,-10807.006753,-2298.286494
426.546043,-4145.153275,-10584.944971,-3217.601092
426.546365,-3997.112087,-10807.006753,-3217.601092
426.546687,-3108.864956,-9696.697840,-1685.410096
426.547009,-2146.597232,-7476.080014,229.828649
426.547330,-740.205942,-6143.709319,459.657299
426.547652,0.000000,-6365.771101,-153.219100
426.547974,-222.061783,-5403.503377,-1302.362347
426.548296,-1184.329507,-4737.318029,-2298.286494
426.548618,-814.226536,-6513.812290,-2681.334243
426.548939,-296.082377,-10140.821405,-3294.210641
426.549261,74.020594,-11177.109724,-3140.991542
426.549583,148.041188,-11991.336260,-2451.505594
426.549905,74.020594,-14137.933492,-2221.676944
426.550226,-1628.453072,-16284.530724,-2604.724693
426.550548,-2886.803174,-14508.036463,-3600.648841
426.550870,-2960.823768,-12435.459826,-4366.744339
426.551192,-962.267725,-11251.130318,-4213.525239
426.551514,1332.370696,-11251.130318,-3140.991542
426.551835,2738.761985,-8956.491898,-1532.190996
426.552157,3182.885551,-7105.977043,612.876398
426.552479,4219.173869,-7402.059420,1532.190996
426.552801,3478.967927,-8290.306550,383.047749
426.553123,1628.453072,-6513.812290,-1378.971896
426.553444,-296.082377,-6365.771101,-1378.971896
426.553766,-740.205942,-7846.182985,-612.876398
426.554088,-296.082377,-10288.862594,-1532.190996
426.554410,0.000000,-10658.965565,-2451.505594
426.554731,-740.205942,-10955.047942,-3140.991542
426.555053,-2368.659014,-12065.356855,-2604.724693
426.555375,-4145.153275,-13101.645173,-1072.533697
426.555697,-4959.379811,-11547.212695,-1378.971896
426.556019,-5107.421000,-9918.759623,-2911.162892
426.556340,-4663.297435,-9474.636058,-2911.162892
426.556662,-2886.803174,-8956.491898,0.000000
426.556984,-1184.329507,-7550.100608,2451.505594
426.557306,74.020594,-5551.544565,2528.115143
426.557627,1924.535449,-4219.173869,1838.629195
426.557949,3478.967927,-2368.659014,1532.190996
426.558271,4145.153275,-1702.473667,383.047749
426.558593,3997.112087,-3182.885551,153.219100
426.558915,2738.761985,-7105.977043,306.438199
426.559236,2220.617826,-10288.862594,-612.876398
426.559558,1332.370696,-11695.253884,-1072.533697
426.559880,0.000000,-12361.439231,-919.314598
426.560202,-1850.514855,-13249.686362,-383.047749
426.560523,-3182.885551,-11843.295072,-1991.848295
426.560845,-3775.050304,-9400.615463,-4673.182538
426.561167,-3108.864956,-9252.574275,-4903.011187
426.561489,-2738.761985,-11325.150913,-2451.505594
426.561811,-2516.700203,-11177.109724,-153.219100
426.562132,-2590.720797,-10584.944971,-612.876398
426.562454,-666.185348,-9844.739029,-766.095498
426.562776,962.267725,-10140.821405,-2298.286494
426.563098,1258.350101,-7772.162391,-2528.115143
426.563419,1110.308913,-6883.915261,-3447.429741
426.563741,1924.535449,-7772.162391,-2298.286494
426.564063,2590.720797,-9474.636058,-1915.238745
426.564385,2886.803174,-10140.821405,-3217.601092
426.564706,1702.473667,-11843.295072,-3753.867940
426.565028,-592.164754,-15026.180623,-2757.943793
426.565350,-3775.050304,-17246.798449,-1378.971896
426.565672,-5625.565159,-15692.365970,-1915.238745
426.565993,-4589.276840,-12509.480420,-3524.039291
426.566315,-2368.659014,-10584.944971,-4596.572988
426.566637,-148.041188,-8660.409521,-2987.772442
426.566959,1110.308913,-5699.585753,-459.657299
426.567280,2738.761985,-5033.400406,383.047749
426.567602,2590.720797,-6809.894666,459.657299
426.567924,1332.370696,-7105.977043,76.609550
426.568246,-296.082377,-6217.729913,-1072.533697
426.568567,-962.267725,-7624.121203,-3140.991542
426.568889,-1110.308913,-10584.944971,-3447.429741
426.569211,-1184.329507,-11325.150913,-1838.629195
426.569532,-1554.432478,-9400.615463,-306.438199
426.569854,-1776.494261,-8882.471304,-306.438199
426.570176,-2442.679609,-10881.027347,-1072.533697
426.570498,-3552.988522,-8660.409521,-1838.629195
426.570819,-4219.173869,-5551.544565,-3600.648841
426.571141,-2886.803174,-4663.297435,-3140.991542
426.571463,-1258.350101,-7105.977043,-995.924147
426.571785,-518.144159,-8808.450710,995.924147
426.572106,-740.205942,-9030.512492,1915.238745
426.572428,962.267725,-9696.697840,1532.190996
426.572750,2516.700203,-10066.800811,383.047749
426.573072,3627.009116,-6291.750507,-842.705048
426.573393,3552.988522,-3404.947333,-1838.629195
426.573715,4515.256246,-3701.029710,-2834.553343
426.574037,5107.421000,-8364.327145,-2451.505594
426.574359,3552.988522,-10362.883188,-1915.238745
426.574680,-296.082377,-12435.459826,-1149.143247
426.575002,-2590.720797,-15470.304188,-383.047749
426.575324,-4367.215058,-17468.860231,-1685.410096
426.575646,-5107.421000,-14137.933492,-3370.820191
426.575967,-4811.338623,-10066.800811,-4366.744339
426.576289,-3034.844362,-8364.327145,-3447.429741
426.576611,-740.205942,-8068.244768,-1149.143247
426.576933,-74.020594,-7328.038826,76.609550
426.577254,0.000000,-7254.018232,0.000000
426.577576,370.102971,-8142.265362,-1072.533697
