#time,accel_x,accel_y,accel_z
153.043039,-518.144159,-9400.615463,-1762.019645
153.043360,-740.205942,-9252.574275,-1072.533697
153.043682,-370.102971,-9474.636058,-1378.971896
153.044004,-444.123565,-9474.636058,-1685.410096
153.044325,-296.082377,-9622.677246,-1225.752797
153.044647,-370.102971,-9326.594869,-1302.362347
153.044969,0.000000,-9252.574275,-1072.533697
153.045290,0.000000,-9474.636058,-1302.362347
153.045612,0.000000,-9326.594869,-1532.190996
153.045934,-296.082377,-9252.574275,-1685.410096
153.046255,-296.082377,-9474.636058,-1225.752797
153.046577,-296.082377,-9326.594869,-1915.238745
153.046899,-296.082377,-9252.574275,-1072.533697
153.047220,-296.082377,-9474.636058,-1455.581446
153.047542,-296.082377,-9400.615463,-1532.190996
153.047864,-518.144159,-9400.615463,-1608.800546
153.048185,-518.144159,-9104.533087,-1378.971896
153.048507,-296.082377,-9030.512492,-1915.238745
153.048829,-370.102971,-9548.656652,-1608.800546
153.049150,-666.185348,-9474.636058,-1532.190996
153.049472,-592.164754,-9548.656652,-1532.190996
153.049794,-444.123565,-9770.718434,-1532.190996
153.050115,-296.082377,-9474.636058,-1838.629195
153.050437,-444.123565,-9030.512492,-1225.752797
153.050759,-370.102971,-9104.533087,-1532.190996
153.051080,-296.082377,-9474.636058,-1608.800546
153.051402,-518.144159,-9400.615463,-1302.362347
153.051724,-666.185348,-9400.615463,-1762.019645
153.052045,-296.082377,-9474.636058,-1378.971896
153.052367,-444.123565,-9474.636058,-1532.190996
153.052689,-518.144159,-9622.677246,-1302.362347
153.053010,-666.185348,-9474.636058,-1225.752797
153.053332,-296.082377,-9474.636058,-1455.581446
153.053654,74.020594,-9252.574275,-1378.971896
153.053975,0.000000,-9474.636058,-1608.800546
153.054297,0.000000,-9252.574275,-1685.410096
153.054619,-222.061783,-9548.656652,-1302.362347
153.054940,-296.082377,-9326.594869,-1225.752797
153.055262,-370.102971,-9474.636058,-995.924147
153.055584,0.000000,-9326.594869,-1685.410096
153.055905,-296.082377,-9400.615463,-1532.190996
153.056227,-296.082377,-9400.615463,-1149.143247
153.056549,-296.082377,-9178.553681,-1532.190996
153.056870,0.000000,-9326.594869,-1455.581446
153.057192,0.000000,-9178.553681,-1608.800546
153.057514,-370.102971,-9252.574275,-1455.581446
153.057835,-370.102971,-9474.636058,-1225.752797
153.058157,-518.144159,-9400.615463,-995.924147
153.058479,-518.144159,-9474.636058,-1149.143247
153.058800,-222.061783,-9178.553681,-1608.800546
153.059122,0.000000,-9474.636058,-1685.410096
153.059444,-148.041188,-9252.574275,-1532.190996
153.059765,-296.082377,-9474.636058,-1455.581446
153.060087,-222.061783,-9474.636058,-1378.971896
153.060409,-296.082377,-9252.574275,-1302.362347
153.060730,-740.205942,-9178.553681,-842.705048
153.061052,-444.123565,-9474.636058,-1302.362347
153.061374,-296.082377,-9548.656652,-1302.362347
153.061695,-370.102971,-9474.636058,-1378.971896
153.062017,0.000000,-9400.615463,-1302.362347
153.062339,592.164754,-9252.574275,-1302.362347
153.062660,1184.329507,-9474.636058,-1302.362347
153.062982,1036.288319,-9548.656652,-1225.752797
153.063304,888.247130,-9252.574275,-689.485948
153.063625,444.123565,-8882.471304,-1072.533697
153.063947,0.000000,-9178.553681,-1455.581446
153.064269,-296.082377,-9474.636058,-1608.800546
153.064590,-1406.391290,-9178.553681,-1532.190996
153.064912,-1258.350101,-9252.574275,-1762.019645
153.065234,-370.102971,-9770.718434,-2145.067394
153.065555,-370.102971,-10214.842000,-1608.800546
153.065877,-444.123565,-9622.677246,-995.924147
153.066199,0.000000,-8808.450710,-1302.362347
153.066520,1110.308913,-9326.594869,-1915.238745
153.066842,1850.514855,-10288.862594,-1991.848295
153.067164,1184.329507,-9992.780217,-995.924147
153.067485,1110.308913,-8586.388927,-229.828649
153.067807,2294.638420,-8956.491898,-919.314598
153.068129,3404.947333,-9918.759623,-1225.752797
153.068450,3330.926739,-9326.594869,-689.485948
153.068772,2590.720797,-8142.265362,-306.438199
153.069094,2886.803174,-8068.244768,-842.705048
153.069415,2812.782580,-8438.347739,-919.314598
153.069737,2738.761985,-9844.739029,-995.924147
153.070059,2146.597232,-8956.491898,-689.485948
153.070380,2294.638420,-8734.430116,-1685.410096
153.070702,2886.803174,-9400.615463,-2528.115143
153.071024,2960.823768,-10807.006753,-1762.019645
153.071345,2664.741391,-11029.068536,-1762.019645
153.071667,2590.720797,-9770.718434,-1685.410096
153.071989,3182.885551,-10288.862594,-1608.800546
153.072310,3701.029710,-10362.883188,-1685.410096
153.072632,3775.050304,-9918.759623,-1685.410096
153.072954,2960.823768,-9178.553681,-1838.629195
153.073275,3034.844362,-8956.491898,-1302.362347
153.073597,2960.823768,-9252.574275,-919.314598
153.073919,2886.803174,-8882.471304,-1149.143247
153.074240,2516.700203,-8438.347739,-1532.190996
153.074562,2886.803174,-8364.327145,-1225.752797
153.074884,3849.070898,-9030.512492,-1685.410096
153.075205,4441.235652,-9178.553681,-1532.190996
153.075527,4737.318029,-8734.430116,-1302.362347
153.075849,4811.338623,-8882.471304,-1378.971896
153.076170,4441.235652,-9918.759623,-1685.410096
153.076492,2960.823768,-9622.677246,-1378.971896
153.076814,1036.288319,-10881.027347,-1608.800546
153.077135,-1628.453072,-11177.109724,-1532.190996
153.077457,-3627.009116,-11991.336260,-995.924147
153.077779,-5033.400406,-11991.336260,-383.047749
153.078100,-4959.379811,-10807.006753,-229.828649
153.078422,-3775.050304,-10066.800811,-153.219100
153.078744,-2072.576638,-9104.533087,459.657299
153.079065,-370.102971,-8068.244768,689.485948
153.079387,1258.350101,-7920.203579,612.876398
153.079709,2220.617826,-7402.059420,536.266849
153.080030,1850.514855,-6439.791695,0.000000
153.080352,1998.556043,-6957.935855,-1149.143247
153.080674,1554.432478,-7550.100608,-2451.505594
153.080995,888.247130,-8068.244768,-2834.553343
153.081317,370.102971,-7772.162391,-3370.820191
153.081638,148.041188,-7994.224174,-3983.696590
153.081960,888.247130,-8586.388927,-4443.353888
153.082282,740.205942,-9104.533087,-4749.792088
153.082603,0.000000,-10214.842000,-4290.134789
153.082925,-1702.473667,-10955.047942,-2681.334243
153.083247,-3701.029710,-11103.089130,-1455.581446
153.083568,-5033.400406,-11325.150913,-2528.115143
153.083890,-6365.771101,-11695.253884,-2374.896044
153.084212,-7624.121203,-11843.295072,-1608.800546
153.084533,-7846.182985,-11843.295072,-153.219100
153.084855,-6735.874072,-11177.109724,842.705048
153.085177,-5181.441594,-10362.883188,1225.752797
153.085498,-3849.070898,-9474.636058,1608.800546
153.085820,-2886.803174,-8364.327145,2604.724693
153.086142,-1554.432478,-7402.059420,1532.190996
153.086463,0.000000,-6735.874072,-459.657299
153.086785,592.164754,-5995.668130,-689.485948
153.087107,296.082377,-5551.544565,-919.314598
153.087428,222.061783,-6513.812290,-1991.848295
153.087750,518.144159,-7920.203579,-3983.696590
153.088072,222.061783,-9548.656652,-6128.763984
153.088393,370.102971,-11325.150913,-5822.325785
153.088715,962.267725,-12287.418637,-4979.620737
153.089037,1776.494261,-12065.356855,-4826.401637
153.089358,2368.659014,-11103.089130,-5132.839837
153.089680,2368.659014,-10436.903782,-4213.525239
153.090002,1702.473667,-10436.903782,-2834.553343
153.090323,1332.370696,-10584.944971,-2451.505594
153.090645,-222.061783,-11621.233289,-842.705048
153.090967,-1702.473667,-11843.295072,1608.800546
153.091288,-1628.453072,-10955.047942,3600.648841
153.091610,370.102971,-9474.636058,3524.039291
153.091932,2738.761985,-8438.347739,3447.429741
153.092253,4441.235652,-7031.956449,4366.744339
153.092575,4515.256246,-5329.482782,5362.668486
153.092897,4959.379811,-5403.503377,4596.572988
153.093218,5033.400406,-5699.585753,2604.724693
153.093540,3775.050304,-4811.338623,919.314598
153.093862,444.123565,-3923.091493,-919.314598
153.094183,-2590.720797,-6069.688724,-3370.820191
153.094505,-4811.338623,-8956.491898,-7048.078582
153.094827,-5847.626942,-10732.986159,-10035.851024
153.095148,-5699.585753,-12879.583391,-9116.536426
153.095470,-3478.967927,-15396.283594,-6205.373534
153.095792,-1184.329507,-15174.221811,-6435.202183
153.096113,814.226536,-13841.851115,-7737.564530
153.096435,1554.432478,-13767.830521,-5362.668486
153.096757,1850.514855,-12583.501014,-2374.896044
153.097078,1776.494261,-10066.800811,-1532.190996
153.097400,592.164754,-8438.347739,-1838.629195
153.097722,-518.144159,-9474.636058,1455.581446
153.098043,-1332.370696,-9992.780217,3677.258390
153.098365,-1036.288319,-7994.224174,4290.134789
153.098687,1702.473667,-6661.853478,3370.820191
153.099008,3404.947333,-5477.523971,3064.381992
153.099330,2886.803174,-5403.503377,3753.867940
153.099652,1850.514855,-5773.606348,3677.258390
153.099973,814.226536,-7846.182985,1225.752797
153.100295,222.061783,-8364.327145,-1762.019645
153.100617,-518.144159,-7994.224174,-3907.087040
153.100938,-1998.556043,-9844.739029,-5669.106685
153.101260,-2960.823768,-13989.892304,-6511.811733
153.101582,-3034.844362,-14952.160028,-6818.249932
153.101903,-2220.617826,-13619.789333,-7277.907231
153.102225,518.144159,-12657.521608,-7048.078582
153.102547,1998.556043,-11843.295072,-6358.592633
153.102868,888.247130,-9622.677246,-6358.592633
153.103190,-518.144159,-7698.141797,-3830.477490
153.103512,-666.185348,-6809.894666,-1149.143247
153.103833,-1480.411884,-7402.059420,-1072.533697
153.104155,-3923.091493,-9104.533087,-229.828649
153.104477,-5847.626942,-10510.924376,3140.991542
153.104798,-5329.482782,-9992.780217,4903.011187
153.105120,-1998.556043,-9104.533087,3140.991542
153.105442,1258.350101,-8808.450710,2681.334243
153.105763,2590.720797,-7476.080014,4519.963438
153.106085,2812.782580,-6735.874072,4290.134789
153.106407,3256.906145,-8364.327145,3447.429741
153.106728,3997.112087,-7846.182985,2145.067394
153.107050,2812.782580,-5329.482782,-689.485948
153.107372,888.247130,-5847.626942,-2451.505594
153.107693,-740.205942,-8290.306550,-4136.915689
153.108015,-2220.617826,-9696.697840,-6128.763984
153.108337,-2590.720797,-10436.903782,-7584.345430
153.108658,-1924.535449,-12435.459826,-6205.373534
153.108980,-1480.411884,-13027.624579,-4749.792088
153.109302,-1924.535449,-11547.212695,-5898.935335
153.109623,-2664.741391,-9918.759623,-5439.278036
153.109945,-2590.720797,-9622.677246,-4060.306139
153.110267,-3849.070898,-9252.574275,-3677.258390
153.110588,-5847.626942,-9548.656652,-2068.457845
153.110910,-7550.100608,-10510.924376,842.705048
153.111232,-7402.059420,-10732.986159,2451.505594
153.111554,-5107.421000,-10436.903782,1608.800546
153.111876,-1924.535449,-10066.800811,2298.286494
153.112198,444.123565,-8364.327145,3524.039291
153.112520,2442.679609,-6883.915261,3983.696590
153.112841,4737.318029,-6513.812290,3983.696590
153.113163,6217.729913,-6809.894666,2221.676944
153.113485,6217.729913,-6587.832884,-153.219100
153.113807,5181.441594,-7031.956449,-1991.848295
153.114129,4293.194464,-9252.574275,-3140.991542
153.114451,3256.906145,-10436.903782,-4903.011187
153.114773,2146.597232,-11843.295072,-6511.811733
153.115095,1258.350101,-13175.665768,-5822.325785
153.115417,1628.453072,-12657.521608,-4749.792088
153.115739,1184.329507,-10658.965565,-5975.544884
153.116061,1184.329507,-9992.780217,-6435.202183
153.116382,-814.226536,-8808.450710,-4596.572988
153.116704,-2738.761985,-8956.491898,-3217.601092
153.117026,-5181.441594,-9918.759623,-1915.238745
153.117348,-6439.791695,-11621.233289,-383.047749
153.117670,-6809.894666,-12213.398043,1149.143247
153.117992,-4885.359217,-11399.171507,1685.410096
153.118314,-1998.556043,-9918.759623,2528.115143
153.118636,1110.308913,-7846.182985,3677.258390
153.118958,3701.029710,-6217.729913,4366.744339
153.119280,5255.462188,-5033.400406,4060.306139
153.119601,5995.668130,-4737.318029,3064.381992
153.119923,5255.462188,-5847.626942,2068.457845
153.120245,2664.741391,-6735.874072,689.485948
153.120567,-296.082377,-7550.100608,-383.047749
153.120889,-2368.659014,-8068.244768,-2987.772442
153.121211,-3108.864956,-9030.512492,-6435.202183
153.121533,-2664.741391,-10214.842000,-7584.345430
153.121855,-2368.659014,-11325.150913,-6435.202183
153.122177,-1998.556043,-10732.986159,-5592.497135
153.122499,-1406.391290,-10955.047942,-5745.716235
153.122821,-1332.370696,-12509.480420,-5286.058936
153.123142,-2294.638420,-13249.686362,-4903.011187
153.123464,-3701.029710,-12139.377449,-3677.258390
153.123786,-4219.173869,-11103.089130,-2068.457845
153.124108,-4071.132681,-10436.903782,-766.095498
153.124430,-3849.070898,-8956.491898,612.876398
153.124752,-2590.720797,-7994.224174,1302.362347
153.125074,-1036.288319,-7698.141797,1915.238745
153.125396,0.000000,-7624.121203,2681.334243
153.125718,962.267725,-7179.997637,3524.039291
153.126040,1924.535449,-7772.162391,2528.115143
153.126361,2442.679609,-7476.080014,1072.533697
153.126683,2146.597232,-6735.874072,229.828649
153.127005,1332.370696,-7698.141797,-383.047749
153.127327,814.226536,-9178.553681,-2374.896044
153.127649,888.247130,-10140.821405,-5362.668486
153.127971,740.205942,-11177.109724,-6894.859482
153.128293,1258.350101,-12361.439231,-6052.154434
153.128615,1850.514855,-12953.603985,-4519.963438
153.128937,2442.679609,-11547.212695,-5669.106685
153.129259,2960.823768,-10955.047942,-5975.544884
153.129581,2664.741391,-10955.047942,-4443.353888
153.129902,814.226536,-9918.759623,-2757.943793
153.130224,-1406.391290,-8808.450710,-1685.410096
153.130546,-1998.556043,-9252.574275,-766.095498
153.130868,-2812.782580,-9770.718434,842.705048
153.131190,-3108.864956,-9474.636058,1685.410096
153.131512,-3034.844362,-9030.512492,2298.286494
153.131834,-1332.370696,-8956.491898,3830.477490
153.132156,148.041188,-8364.327145,4060.306139
153.132478,1850.514855,-7772.162391,3447.429741
153.132800,3108.864956,-7550.100608,2757.943793
153.133122,4071.132681,-6809.894666,2528.115143
153.133443,3108.864956,-6069.688724,1685.410096
153.133765,1998.556043,-6735.874072,536.266849
153.134087,148.041188,-7402.059420,-1455.581446
153.134409,-962.267725,-8068.244768,-4596.572988
153.134731,-1332.370696,-9622.677246,-6128.763984
153.135053,-1406.391290,-10881.027347,-6052.154434
153.135375,-888.247130,-10807.006753,-6511.811733
153.135697,-740.205942,-10732.986159,-6665.030833
153.136019,-444.123565,-11177.109724,-5745.716235
153.136341,-1036.288319,-11473.192101,-5056.230287
153.136662,-3182.885551,-11177.109724,-4749.792088
153.136984,-4589.276840,-11103.089130,-3447.429741
153.137306,-5551.544565,-10658.965565,-1532.190996
153.137628,-6291.750507,-10362.883188,-383.047749
153.137950,-6217.729913,-9844.739029,1149.143247
153.138272,-5255.462188,-9548.656652,1762.019645
153.138594,-3330.926739,-9474.636058,2374.896044
153.138916,-1332.370696,-8364.327145,2757.943793
153.139238,740.205942,-8586.388927,2987.772442
153.139560,2368.659014,-7550.100608,2451.505594
153.139882,4071.132681,-6217.729913,919.314598
153.140203,4441.235652,-6069.688724,-306.438199
153.140525,3552.988522,-6957.935855,-1072.533697
153.140847,2516.700203,-8512.368333,-2834.553343
153.141169,1184.329507,-9622.677246,-5439.278036
153.141491,740.205942,-12139.377449,-6358.592633
153.141813,1110.308913,-13915.871710,-5439.278036
153.142135,1184.329507,-12287.418637,-4903.011187
153.142457,1406.391290,-9844.739029,-5286.058936
153.142779,1036.288319,-9622.677246,-4749.792088
153.143101,-666.185348,-9474.636058,-4060.306139
153.143423,-3330.926739,-8808.450710,-3830.477490
153.143744,-5329.482782,-9696.697840,-1838.629195
153.144066,-5995.668130,-10955.047942,459.657299
153.144388,-6291.750507,-11029.068536,1378.971896
153.144710,-4737.318029,-10066.800811,2145.067394
153.145032,-2146.597232,-9400.615463,3753.867940
153.145354,518.144159,-8068.244768,4290.134789
153.145676,2664.741391,-6439.791695,3907.087040
153.145998,4367.215058,-5625.565159,3983.696590
153.146320,5181.441594,-5181.441594,3217.601092
153.146642,4589.276840,-5329.482782,2681.334243
153.146963,3034.844362,-6957.935855,1378.971896
153.147285,1258.350101,-7254.018232,-459.657299
153.147607,148.041188,-7179.997637,-2834.553343
153.147929,-370.102971,-9326.594869,-6588.421283
153.148251,-962.267725,-11029.068536,-6281.983084
153.148573,-1776.494261,-11029.068536,-5056.230287
153.148895,-2294.638420,-10658.965565,-5515.887586
153.149217,-1258.350101,-12435.459826,-6128.763984
153.149539,-1776.494261,-13693.809927,-5515.887586
153.149861,-3182.885551,-13249.686362,-4213.525239
153.150183,-3701.029710,-11843.295072,-2604.724693
153.150504,-2812.782580,-10807.006753,-1608.800546
153.150826,-2146.597232,-9548.656652,-536.266849
153.151148,-2368.659014,-8808.450710,919.314598
153.151470,-2368.659014,-8660.409521,1915.238745
153.151792,-1702.473667,-8512.368333,2451.505594
153.152114,-666.185348,-8438.347739,2681.334243
153.152436,0.000000,-8290.306550,2374.896044
153.152758,1332.370696,-7402.059420,1072.533697
153.153080,2072.576638,-6291.750507,383.047749
153.153402,2812.782580,-6735.874072,0.000000
153.153723,2960.823768,-7846.182985,-995.924147
153.154045,2738.761985,-8956.491898,-2911.162892
153.154367,2368.659014,-9770.718434,-5669.106685
153.154689,1406.391290,-12213.398043,-5745.716235
153.155011,1332.370696,-13619.789333,-5515.887586
153.155333,1702.473667,-12657.521608,-5592.497135
153.155655,2664.741391,-11547.212695,-5898.935335
153.155977,3404.947333,-10658.965565,-4749.792088
153.156299,2886.803174,-9622.677246,-3524.039291
153.156621,1480.411884,-8586.388927,-2681.334243
153.156943,222.061783,-7920.203579,-1915.238745
153.157264,-962.267725,-8438.347739,-1149.143247
153.157586,-2516.700203,-8734.430116,-153.219100
153.157908,-3627.009116,-9104.533087,766.095498
153.158230,-4219.173869,-9326.594869,2451.505594
153.158552,-3478.967927,-9844.739029,3600.648841
153.158874,-2220.617826,-9030.512492,3217.601092
153.159196,0.000000,-8142.265362,2451.505594
153.159518,1702.473667,-6735.874072,2068.457845
153.159840,2590.720797,-5921.647536,2145.067394
153.160162,1924.535449,-6587.832884,1762.019645
153.160484,1036.288319,-6809.894666,229.828649
153.160805,0.000000,-6661.853478,-2451.505594
153.161127,-888.247130,-8142.265362,-4903.011187
153.161449,-1332.370696,-10658.965565,-6128.763984
153.161771,-1258.350101,-11325.150913,-6588.421283
153.162093,-814.226536,-11251.130318,-6818.249932
153.162415,518.144159,-11547.212695,-5975.544884
153.162737,1184.329507,-11695.253884,-4903.011187
153.163059,0.000000,-11029.068536,-4903.011187
153.163381,-2368.659014,-10584.944971,-4290.134789
153.163703,-3775.050304,-11029.068536,-3140.991542
153.164024,-5329.482782,-10881.027347,-2068.457845
153.164346,-6439.791695,-10658.965565,-612.876398
153.164668,-7105.977043,-10362.883188,1302.362347
153.164990,-6365.771101,-9992.780217,1762.019645
153.165312,-4959.379811,-9992.780217,1608.800546
153.165634,-3108.864956,-9622.677246,2451.505594
153.165956,-888.247130,-8512.368333,2987.772442
153.166278,1110.308913,-7254.018232,1608.800546
153.166600,3108.864956,-6735.874072,995.924147
153.166922,4219.173869,-5995.668130,536.266849
153.167244,3701.029710,-6587.832884,-1378.971896
153.167565,2738.761985,-8142.265362,-2911.162892
153.167887,2220.617826,-10436.903782,-4213.525239
153.168209,1554.432478,-11621.233289,-5362.668486
153.168531,1628.453072,-12435.459826,-5745.716235
153.168853,1332.370696,-11843.295072,-4366.744339
153.169175,1480.411884,-10288.862594,-4290.134789
153.169497,962.267725,-8882.471304,-4213.525239
153.169819,-518.144159,-8068.244768,-3447.429741
153.170141,-2664.741391,-8142.265362,-2451.505594
153.170463,-4219.173869,-9178.553681,-1302.362347
153.170785,-5847.626942,-10658.965565,229.828649
153.171106,-5847.626942,-11029.068536,2145.067394
153.171428,-4663.297435,-11029.068536,2987.772442
153.171750,-2590.720797,-10362.883188,3600.648841
153.172072,0.000000,-8290.306550,4213.525239
153.172394,2664.741391,-7031.956449,3753.867940
153.172716,4589.276840,-5403.503377,3140.991542
153.173038,5773.606348,-4811.338623,2528.115143
153.173360,5477.523971,-4959.379811,2451.505594
153.173682,4145.153275,-5921.647536,1762.019645
153.174004,2220.617826,-6365.771101,-689.485948
153.174325,666.185348,-7920.203579,-3983.696590
153.174647,-666.185348,-10140.821405,-6128.763984
153.174969,-2146.597232,-11103.089130,-6205.373534
153.175291,-3256.906145,-11103.089130,-5975.544884
153.175613,-1850.514855,-11991.336260,-5822.325785
153.175935,-1258.350101,-12953.603985,-5975.544884
153.176257,-1850.514855,-13249.686362,-5515.887586
153.176579,-2368.659014,-12435.459826,-4366.744339
153.176901,-2294.638420,-11399.171507,-2451.505594
153.177223,-1702.473667,-10584.944971,-2145.067394
153.177545,-2072.576638,-9992.780217,-1532.190996
153.177866,-2664.741391,-9548.656652,689.485948
153.178188,-2664.741391,-9104.533087,1302.362347
153.178510,-1628.453072,-9030.512492,1149.143247
153.178832,74.020594,-8808.450710,1608.800546
153.179154,740.205942,-8068.244768,2528.115143
153.179476,1850.514855,-7105.977043,1532.190996
153.179798,2886.803174,-6365.771101,766.095498
153.180120,3256.906145,-6439.791695,0.000000
153.180442,2294.638420,-7105.977043,-1915.238745
153.180764,740.205942,-8956.491898,-3830.477490
153.181085,148.041188,-10881.027347,-5362.668486
153.181407,0.000000,-12583.501014,-7124.688131
153.181729,518.144159,-13841.851115,-6665.030833
153.182051,1702.473667,-13471.748144,-5439.278036
153.182373,2812.782580,-11843.295072,-5286.058936
153.182695,3256.906145,-10288.862594,-4903.011187
153.183017,3182.885551,-9622.677246,-3753.867940
153.183339,1924.535449,-8882.471304,-3140.991542
153.183661,0.000000,-8290.306550,-2451.505594
153.183983,-2072.576638,-8586.388927,-919.314598
153.184305,-3552.988522,-9178.553681,995.924147
153.184626,-4663.297435,-9400.615463,2145.067394
153.184948,-4293.194464,-8882.471304,2451.505594
153.185270,-2886.803174,-9030.512492,2987.772442
153.185592,-1702.473667,-8808.450710,3600.648841
153.185914,-740.205942,-7476.080014,3907.087040
153.186236,740.205942,-6883.915261,3447.429741
153.186558,1776.494261,-6365.771101,2451.505594
153.186880,1554.432478,-5477.523971,842.705048
153.187202,444.123565,-5625.565159,-689.485948
153.187524,-666.185348,-6809.894666,-2374.896044
153.187846,-962.267725,-9252.574275,-4673.182538
153.188167,-1036.288319,-10658.965565,-5745.716235
153.188489,-962.267725,-11473.192101,-5898.935335
153.188811,-370.102971,-11695.253884,-4673.182538
153.189133,370.102971,-11177.109724,-4673.182538
153.189455,-222.061783,-10214.842000,-4903.011187
153.189777,-888.247130,-9918.759623,-4290.134789
153.190099,-2442.679609,-9844.739029,-3064.381992
153.190421,-4589.276840,-10066.800811,-2221.676944
153.190743,-5625.565159,-10658.965565,-919.314598
153.191065,-6735.874072,-10584.944971,919.314598
153.191386,-6513.812290,-10955.047942,1608.800546
153.191708,-6069.688724,-10436.903782,1838.629195
153.192030,-4515.256246,-9474.636058,2528.115143
153.192352,-2072.576638,-8660.409521,2298.286494
153.192674,518.144159,-7698.141797,1915.238745
153.192996,2812.782580,-7105.977043,1378.971896
153.193318,3849.070898,-6957.935855,919.314598
153.193640,4737.318029,-7476.080014,-229.828649
153.193962,4811.338623,-8586.388927,-1991.848295
153.194284,4219.173869,-9770.718434,-3907.087040
153.194606,3330.926739,-10510.924376,-4903.011187
153.194927,2146.597232,-12139.377449,-4979.620737
153.195249,1628.453072,-12139.377449,-5286.058936
153.195571,1554.432478,-11547.212695,-5669.106685
153.195893,1776.494261,-10436.903782,-5362.668486
153.196215,1036.288319,-9622.677246,-3830.477490
153.196537,-740.205942,-9474.636058,-3830.477490
153.196859,-2516.700203,-9252.574275,-2757.943793
153.197181,-3849.070898,-9918.759623,-1455.581446
153.197503,-4811.338623,-10658.965565,76.609550
153.197825,-5403.503377,-10436.903782,1685.410096
153.198147,-4663.297435,-9770.718434,3447.429741
153.198468,-2368.659014,-8734.430116,3064.381992
153.198790,518.144159,-7846.182985,2681.334243
153.199112,3256.906145,-6809.894666,2604.724693
153.199434,5033.400406,-5625.565159,2987.772442
153.199756,6365.771101,-5107.421000,3064.381992
153.200078,5181.441594,-5921.647536,2374.896044
153.200400,3182.885551,-7105.977043,1072.533697
153.200722,74.020594,-6883.915261,-1378.971896
153.201044,-2442.679609,-7550.100608,-4749.792088
153.201366,-2886.803174,-9474.636058,-7277.907231
153.201687,-2738.761985,-10584.944971,-7354.516781
153.202009,-2368.659014,-10214.842000,-6511.811733
153.202331,-1554.432478,-11251.130318,-4979.620737
153.202653,-740.205942,-12805.562797,-4366.744339
153.202975,-1332.370696,-13249.686362,-4519.963438
153.203297,-2220.617826,-12065.356855,-4673.182538
153.203619,-2590.720797,-11251.130318,-3217.601092
153.203941,-2368.659014,-10362.883188,-2298.286494
153.204263,-2960.823768,-9770.718434,-689.485948
153.204585,-3404.947333,-9030.512492,1532.190996
153.204907,-2664.741391,-8956.491898,1455.581446
153.205228,-1406.391290,-9104.533087,1532.190996
153.205550,-148.041188,-8956.491898,1915.238745
153.205872,888.247130,-8216.285956,1915.238745
153.206194,2072.576638,-7402.059420,1608.800546
153.206516,2812.782580,-6735.874072,1378.971896
153.206838,2960.823768,-6365.771101,1149.143247
153.207160,1776.494261,-7105.977043,-1532.190996
153.207482,444.123565,-8882.471304,-4519.963438
153.207804,-444.123565,-10658.965565,-6205.373534
153.208126,-444.123565,-12435.459826,-6894.859482
153.208447,962.267725,-14211.954086,-6511.811733
153.208769,2442.679609,-13471.748144,-5286.058936
153.209091,3256.906145,-12065.356855,-4826.401637
153.209413,3404.947333,-10955.047942,-4290.134789
153.209735,2960.823768,-9770.718434,-4060.306139
153.210057,1628.453072,-8364.327145,-3524.039291
153.210379,0.000000,-7846.182985,-2451.505594
153.210701,-1776.494261,-8364.327145,-153.219100
153.211023,-3034.844362,-9178.553681,1685.410096
153.211345,-3775.050304,-9474.636058,2604.724693
153.211667,-3775.050304,-9844.739029,3217.601092
153.211989,-2516.700203,-9252.574275,4060.306139
153.212311,-1110.308913,-7920.203579,3907.087040
153.212633,888.247130,-7105.977043,3064.381992
153.212955,2590.720797,-6513.812290,2451.505594
153.213276,3182.885551,-5107.421000,2451.505594
153.213598,2294.638420,-5551.544565,1838.629195
153.213920,1184.329507,-7105.977043,-459.657299
153.214242,148.041188,-8216.285956,-3064.381992
153.214564,-518.144159,-9474.636058,-5745.716235
153.214886,-814.226536,-10881.027347,-5975.544884
153.215208,-370.102971,-11621.233289,-4903.011187
153.215530,-74.020594,-10955.047942,-4673.182538
153.215852,0.000000,-10288.862594,-4903.011187
153.216174,-296.082377,-10658.965565,-4903.011187
153.216496,-1850.514855,-10510.924376,-4673.182538
153.216818,-3849.070898,-9992.780217,-4290.134789
153.217140,-5107.421000,-9474.636058,-2757.943793
153.217462,-5699.585753,-9992.780217,-995.924147
153.217784,-6439.791695,-10881.027347,153.219100
153.218106,-6439.791695,-11029.068536,1685.410096
153.218428,-6217.729913,-10214.842000,2145.067394
153.218750,-3923.091493,-9548.656652,1532.190996
153.219072,-1776.494261,-9252.574275,2145.067394
153.219394,444.123565,-7920.203579,2298.286494
153.219716,2368.659014,-6735.874072,2068.457845
153.220037,3775.050304,-6439.791695,1072.533697
153.220359,4367.215058,-7254.018232,0.000000
153.220681,3775.050304,-8068.244768,-2451.505594
153.221003,2812.782580,-9178.553681,-4443.353888
153.221325,2294.638420,-11399.171507,-5515.887586
153.221647,2220.617826,-12731.542202,-5975.544884
153.221969,2220.617826,-12435.459826,-5439.278036
153.222291,2368.659014,-11769.274478,-4596.572988
153.222613,2294.638420,-10584.944971,-4443.353888
153.222935,888.247130,-9474.636058,-4749.792088
153.223257,-1332.370696,-8882.471304,-3830.477490
153.223579,-3108.864956,-9104.533087,-2757.943793
153.223901,-4737.318029,-9474.636058,-1532.190996
153.224223,-6217.729913,-9918.759623,153.219100
153.224545,-5847.626942,-10658.965565,1915.238745
153.224867,-4811.338623,-10436.903782,2987.772442
153.225189,-2664.741391,-9474.636058,3064.381992
153.225511,-222.061783,-8068.244768,3140.991542
153.225833,2886.803174,-7031.956449,3370.820191
153.226155,4589.276840,-5107.421000,2757.943793
153.226477,4811.338623,-4367.215058,2987.772442
153.226798,4145.153275,-5033.400406,2987.772442
153.227120,2368.659014,-6069.688724,919.314598
153.227442,592.164754,-7105.977043,-2374.896044
153.227764,-444.123565,-8882.471304,-5515.887586
153.228086,-1332.370696,-10732.986159,-6894.859482
153.228408,-1776.494261,-11917.315666,-5515.887586
153.228730,-1998.556043,-11769.274478,-4443.353888
153.229052,-1110.308913,-12287.418637,-4826.401637
153.229374,-444.123565,-12657.521608,-5669.106685
153.229696,-1184.329507,-12805.562797,-4979.620737
153.230018,-2738.761985,-11621.233289,-3677.258390
153.230340,-2590.720797,-10140.821405,-2451.505594
153.230662,-2072.576638,-9548.656652,-1302.362347
153.230984,-2220.617826,-9622.677246,0.000000
153.231306,-3108.864956,-9548.656652,1685.410096
153.231628,-3404.947333,-9548.656652,1685.410096
153.231950,-2516.700203,-9474.636058,1532.190996
153.232272,-1184.329507,-8808.450710,2221.676944
153.232594,0.000000,-7994.224174,1762.019645
153.232916,1480.411884,-6217.729913,1685.410096
153.233238,2442.679609,-5773.606348,1532.190996
153.233559,2960.823768,-6809.894666,-153.219100
153.233881,2590.720797,-8216.285956,-2374.896044
153.234203,1554.432478,-9474.636058,-4596.572988
153.234525,814.226536,-11177.109724,-5745.716235
153.234847,814.226536,-13471.748144,-6818.249932
153.235169,1554.432478,-14137.933492,-5515.887586
153.235491,2368.659014,-12657.521608,-5592.497135
153.235813,3404.947333,-10807.006753,-5515.887586
153.236135,3775.050304,-9770.718434,-4060.306139
153.236457,3034.844362,-8586.388927,-2757.943793
153.236779,1258.350101,-7402.059420,-2757.943793
153.237101,-148.041188,-7772.162391,-1455.581446
153.237423,-1850.514855,-8808.450710,0.000000
153.237745,-3552.988522,-9326.594869,1532.190996
153.238067,-4737.318029,-9400.615463,1991.848295
153.238389,-4145.153275,-9474.636058,2068.457845
153.238711,-3108.864956,-9400.615463,2681.334243
153.239033,-1480.411884,-8586.388927,2911.162892
153.239355,222.061783,-7402.059420,2834.553343
153.239677,2072.576638,-6291.750507,2834.553343
153.239999,2220.617826,-5551.544565,2451.505594
153.240320,1110.308913,-6513.812290,842.705048
153.240642,296.082377,-7254.018232,-1225.752797
153.240964,0.000000,-7772.162391,-3753.867940
153.241286,-296.082377,-9548.656652,-5515.887586
153.241608,-666.185348,-11029.068536,-5745.716235
153.241930,-296.082377,-11695.253884,-4903.011187
153.242252,-74.020594,-11251.130318,-4903.011187
153.242574,444.123565,-11029.068536,-4903.011187
153.242896,148.041188,-10732.986159,-4749.792088
153.243218,-1554.432478,-9992.780217,-4596.572988
153.243540,-3256.906145,-9696.697840,-4136.915689
153.243862,-4367.215058,-10140.821405,-2374.896044
153.244184,-5329.482782,-10732.986159,-689.485948
153.244506,-6587.832884,-11029.068536,689.485948
153.244828,-6809.894666,-11399.171507,1762.019645
153.245150,-5625.565159,-11029.068536,766.095498
153.245472,-4219.173869,-10732.986159,1225.752797
153.245794,-2590.720797,-9696.697840,2451.505594
153.246116,-444.123565,-8290.306550,2604.724693
153.246438,2146.597232,-7105.977043,1455.581446
153.246760,4219.173869,-6365.771101,612.876398
153.247082,4441.235652,-6957.935855,-612.876398
153.247403,4071.132681,-7624.121203,-1915.238745
153.247725,3552.988522,-9178.553681,-3753.867940
153.248047,3256.906145,-11103.089130,-4903.011187
153.248369,2442.679609,-12065.356855,-4979.620737
153.248691,2590.720797,-12065.356855,-5515.887586
153.249013,1702.473667,-10955.047942,-4673.182538
153.249335,1110.308913,-9770.718434,-4673.182538
153.249657,222.061783,-8956.491898,-4443.353888
153.249979,-1406.391290,-8438.347739,-3830.477490
153.250301,-3034.844362,-8808.450710,-1991.848295
153.250623,-4737.318029,-10362.883188,-766.095498
153.250945,-5699.585753,-10658.965565,1302.362347
153.251267,-5699.585753,-10362.883188,2681.334243
153.251589,-4071.132681,-9918.759623,2604.724693
153.251911,-1628.453072,-9030.512492,2298.286494
153.252233,814.226536,-7105.977043,3447.429741
153.252555,2442.679609,-6069.688724,3907.087040
153.252877,4071.132681,-5329.482782,3370.820191
153.253199,4737.318029,-4663.297435,2911.162892
153.253521,3997.112087,-5329.482782,2145.067394
153.253843,2442.679609,-6365.771101,0.000000
153.254164,1184.329507,-7179.997637,-2757.943793
153.254486,296.082377,-8512.368333,-6358.592633
153.254808,-518.144159,-10140.821405,-6358.592633
153.255130,-1628.453072,-11029.068536,-4903.011187
153.255452,-2072.576638,-11251.130318,-5745.716235
153.255774,-1332.370696,-12213.398043,-6511.811733
153.256096,-1110.308913,-13619.789333,-6128.763984
153.256418,-2146.597232,-13545.768739,-5209.449386
153.256740,-3034.844362,-12139.377449,-3447.429741
153.257062,-2664.741391,-10807.006753,-2068.457845
153.257384,-2590.720797,-9844.739029,-842.705048
153.257706,-3256.906145,-9474.636058,76.609550
153.258028,-3775.050304,-8882.471304,689.485948
153.258350,-3182.885551,-8512.368333,689.485948
153.258672,-2146.597232,-8956.491898,1608.800546
153.258994,-1258.350101,-9104.533087,2681.334243
153.259316,-444.123565,-7994.224174,2451.505594
153.259638,1184.329507,-7402.059420,1378.971896
153.259960,2368.659014,-6883.915261,153.219100
153.260282,2220.617826,-7105.977043,-1302.362347
153.260604,1258.350101,-7846.182985,-2374.896044
153.260925,1406.391290,-9474.636058,-4366.744339
153.261247,1480.411884,-11325.150913,-5898.935335
153.261569,1924.535449,-12953.603985,-5898.935335
153.261891,2368.659014,-13693.809927,-4903.011187
153.262213,2886.803174,-12065.356855,-5056.230287
153.262535,3552.988522,-10955.047942,-5439.278036
153.262857,3849.070898,-10140.821405,-4136.915689
153.263179,2812.782580,-9030.512492,-2987.772442
153.263501,740.205942,-8068.244768,-2221.676944
153.263823,-1184.329507,-8290.306550,-766.095498
153.264145,-2664.741391,-9104.533087,1149.143247
153.264467,-4589.276840,-9030.512492,2145.067394
153.264789,-4515.256246,-9400.615463,1838.629195
153.265111,-3552.988522,-9400.615463,2374.896044
153.265433,-2442.679609,-8808.450710,3524.039291
153.265755,-962.267725,-7550.100608,4443.353888
153.266077,592.164754,-7105.977043,3294.210641
153.266399,2072.576638,-6513.812290,2451.505594
153.266721,1850.514855,-5477.523971,1762.019645
153.267043,1110.308913,-6439.791695,383.047749
153.267365,518.144159,-7254.018232,-1455.581446
153.267686,370.102971,-8068.244768,-4213.525239
153.268008,0.000000,-9326.594869,-5745.716235
153.268330,-592.164754,-10362.883188,-5439.278036
153.268652,-518.144159,-11177.109724,-4979.620737
153.268974,0.000000,-11029.068536,-5669.106685
153.269296,518.144159,-10732.986159,-5822.325785
153.269618,888.247130,-11251.130318,-4903.011187
153.269940,-592.164754,-10732.986159,-3370.820191
153.270262,-2590.720797,-10436.903782,-2374.896044
153.270584,-3923.091493,-10436.903782,-1302.362347
153.270906,-5329.482782,-10807.006753,153.219100
153.271228,-6439.791695,-10807.006753,1225.752797
153.271550,-6735.874072,-10214.842000,1378.971896
153.271872,-5477.523971,-9548.656652,1149.143247
153.272194,-3256.906145,-9326.594869,2145.067394
153.272516,-1258.350101,-8586.388927,3064.381992
153.272838,222.061783,-8068.244768,2221.676944
153.273160,2368.659014,-7698.141797,1225.752797
153.273482,3775.050304,-6957.935855,0.000000
153.273804,3775.050304,-7254.018232,-1455.581446
153.274126,3182.885551,-8364.327145,-2911.162892
153.274447,3034.844362,-9326.594869,-5439.278036
153.274769,2294.638420,-10436.903782,-5898.935335
153.275091,1332.370696,-12361.439231,-6281.983084
153.275413,1036.288319,-13027.624579,-5132.839837
153.275735,1036.288319,-12435.459826,-5515.887586
153.276057,1406.391290,-11029.068536,-5822.325785
153.276379,740.205942,-9548.656652,-4519.963438
153.276701,-592.164754,-9326.594869,-2757.943793
153.277023,-2664.741391,-8586.388927,-1532.190996
153.277345,-4367.215058,-9178.553681,-536.266849
153.277667,-5033.400406,-10214.842000,1149.143247
153.277989,-4959.379811,-9844.739029,2298.286494
153.278311,-3108.864956,-9548.656652,1838.629195
153.278633,-592.164754,-9030.512492,2987.772442
153.278955,1702.473667,-7624.121203,4673.182538
153.279277,3182.885551,-5995.668130,4826.401637
153.279599,4589.276840,-5477.523971,3447.429741
153.279921,4811.338623,-5329.482782,2068.457845
153.280243,3775.050304,-5181.441594,766.095498
153.280565,1332.370696,-5403.503377,-919.314598
153.280887,-814.226536,-6587.832884,-3064.381992
153.281209,-1406.391290,-8808.450710,-6052.154434
153.281530,-2072.576638,-10732.986159,-7354.516781
153.281852,-3034.844362,-11695.253884,-6511.811733
153.282174,-2886.803174,-12509.480420,-4979.620737
153.282496,-2146.597232,-12805.562797,-5975.544884
153.282818,-1110.308913,-12139.377449,-6281.983084
153.283140,-1332.370696,-12287.418637,-4903.011187
153.283462,-1554.432478,-11325.150913,-2374.896044
153.283784,-1924.535449,-10066.800811,-1762.019645
153.284106,-2220.617826,-10066.800811,-383.047749
153.284428,-2664.741391,-9844.739029,1302.362347
153.284750,-2368.659014,-9696.697840,1762.019645
153.285072,-2072.576638,-9326.594869,1455.581446
153.285394,-1406.391290,-8512.368333,2374.896044
153.285716,-962.267725,-7031.956449,3983.696590
153.286038,296.082377,-6587.832884,2145.067394
153.286360,1850.514855,-7698.141797,536.266849
153.286682,2590.720797,-7624.121203,842.705048
153.287004,2368.659014,-7105.977043,-536.266849
153.287326,2220.617826,-9252.574275,-2145.067394
153.287648,2368.659014,-11251.130318,-4366.744339
153.287970,1332.370696,-11769.274478,-5975.544884
153.288291,222.061783,-12287.418637,-5592.497135
153.288613,592.164754,-13545.768739,-4673.182538
153.288935,1998.556043,-12953.603985,-5669.106685
153.289257,2368.659014,-11177.109724,-6281.983084
153.289579,2738.761985,-10362.883188,-4443.353888
153.289901,2516.700203,-9104.533087,-2145.067394
153.290223,1702.473667,-7105.977043,-1302.362347
153.290545,296.082377,-7624.121203,-1149.143247
153.290867,-1332.370696,-8586.388927,383.047749
153.291189,-3182.885551,-9252.574275,1838.629195
153.291511,-4293.194464,-10066.800811,2221.676944
153.291833,-3404.947333,-9918.759623,3600.648841
153.292155,-2294.638420,-8882.471304,4136.915689
153.292477,-518.144159,-8290.306550,3370.820191
153.292799,1332.370696,-7402.059420,2911.162892
153.293121,2146.597232,-6217.729913,2681.334243
153.293443,1776.494261,-5329.482782,1991.848295
153.293765,888.247130,-6069.688724,0.000000
153.294087,888.247130,-7402.059420,-1915.238745
153.294409,0.000000,-8290.306550,-4903.011187
153.294731,-888.247130,-9770.718434,-5515.887586
153.295052,-1480.411884,-11103.089130,-4979.620737
153.295374,-1406.391290,-10955.047942,-5056.230287
153.295696,-962.267725,-10955.047942,-5822.325785
153.296018,0.000000,-11399.171507,-6281.983084
153.296340,-148.041188,-10955.047942,-5209.449386
153.296662,-1480.411884,-10066.800811,-3830.477490
153.296984,-2664.741391,-9326.594869,-1915.238745
153.297306,-3997.112087,-8882.471304,-995.924147
153.297628,-4885.359217,-10140.821405,-995.924147
153.297950,-5921.647536,-10658.965565,153.219100
153.298272,-6291.750507,-10732.986159,1302.362347
153.298594,-5477.523971,-10140.821405,1378.971896
153.298916,-3108.864956,-9400.615463,2604.724693
153.299238,-888.247130,-8586.388927,2528.115143
153.299560,962.267725,-7994.224174,2298.286494
153.299882,2886.803174,-7550.100608,1225.752797
153.300204,4293.194464,-6883.915261,153.219100
153.300526,4293.194464,-6439.791695,-1149.143247
153.300848,3404.947333,-7550.100608,-1915.238745
153.301170,2368.659014,-9178.553681,-4443.353888
153.301492,1480.411884,-11473.192101,-6358.592633
153.301813,222.061783,-12657.521608,-6741.640382
153.302135,0.000000,-12879.583391,-5669.106685
153.302457,370.102971,-11991.336260,-5669.106685
153.302779,962.267725,-11177.109724,-5132.839837
153.303101,444.123565,-9474.636058,-4366.744339
153.303423,-1110.308913,-8660.409521,-2987.772442
153.303745,-2664.741391,-8068.244768,-2068.457845
153.304067,-3849.070898,-8956.491898,-766.095498
153.304389,-4663.297435,-10066.800811,153.219100
153.304711,-5181.441594,-10436.903782,2298.286494
153.305033,-3552.988522,-10584.944971,2911.162892
153.305355,-962.267725,-10066.800811,3524.039291
153.305677,1554.432478,-8216.285956,4596.572988
153.305999,3552.988522,-6143.709319,4213.525239
153.306321,5107.421000,-4811.338623,2911.162892
153.306643,5329.482782,-4515.256246,2221.676944
153.306965,3923.091493,-4885.359217,1302.362347
153.307287,2294.638420,-6143.709319,-536.266849
153.307609,592.164754,-7328.038826,-2681.334243
153.307931,-296.082377,-10362.883188,-5515.887586
153.308253,-1924.535449,-11399.171507,-6358.592633
153.308574,-3034.844362,-11621.233289,-4903.011187
153.308896,-3108.864956,-12139.377449,-4903.011187
153.309218,-2072.576638,-12583.501014,-6128.763984
153.309540,-1776.494261,-11843.295072,-6665.030833
153.309862,-2368.659014,-11473.192101,-4673.182538
153.310184,-2368.659014,-10658.965565,-2221.676944
153.310506,-2294.638420,-9918.759623,-1608.800546
153.310828,-2146.597232,-9770.718434,-689.485948
153.311150,-2368.659014,-9918.759623,842.705048
153.311471,-3330.926739,-9770.718434,1838.629195
153.311793,-3256.906145,-9770.718434,1762.019645
153.312115,-2294.638420,-9326.594869,2451.505594
153.312437,-1184.329507,-8068.244768,2451.505594
153.312759,222.061783,-6439.791695,1762.019645
153.313080,1776.494261,-6143.709319,1225.752797
153.313402,2590.720797,-6513.812290,229.828649
153.313724,3182.885551,-7105.977043,-842.705048
153.314046,3182.885551,-8512.368333,-2834.553343
153.314367,2590.720797,-10288.862594,-5056.230287
153.314689,1702.473667,-11547.212695,-4903.011187
153.315011,740.205942,-12509.480420,-5592.497135
153.315333,592.164754,-12731.542202,-5362.668486
153.315654,1110.308913,-12139.377449,-6128.763984
153.315976,2146.597232,-11399.171507,-6052.154434
153.316298,2738.761985,-11177.109724,-3677.258390
153.316620,1850.514855,-8956.491898,-2604.724693
153.316941,1184.329507,-7550.100608,-1838.629195
153.317263,0.000000,-7476.080014,-1302.362347
153.317585,-1776.494261,-8586.388927,0.000000
153.317907,-3775.050304,-8882.471304,1302.362347
153.318228,-4589.276840,-9474.636058,2834.553343
153.318550,-3775.050304,-9918.759623,2911.162892
153.318872,-1998.556043,-9400.615463,3217.601092
153.319194,0.000000,-7846.182985,3447.429741
153.319515,1924.535449,-6661.853478,3064.381992
153.319837,3404.947333,-5403.503377,2451.505594
153.320159,2960.823768,-5625.565159,1762.019645
153.320481,1628.453072,-6439.791695,0.000000
153.320802,370.102971,-7476.080014,-2374.896044
153.321124,-740.205942,-8586.388927,-4749.792088
153.321446,-1258.350101,-10140.821405,-6205.373534
153.321768,-1628.453072,-11325.150913,-6435.202183
153.322089,-1406.391290,-11843.295072,-6128.763984
153.322411,-592.164754,-11769.274478,-5745.716235
153.322733,0.000000,-11843.295072,-5592.497135
153.323055,148.041188,-11695.253884,-5132.839837
153.323377,-1258.350101,-10658.965565,-3677.258390
153.323698,-2812.782580,-9992.780217,-2451.505594
153.324020,-4071.132681,-9770.718434,-1915.238745
153.324342,-4811.338623,-10584.944971,-612.876398
153.324664,-6143.709319,-10807.006753,1225.752797
153.324985,-6217.729913,-10584.944971,2221.676944
153.325307,-4515.256246,-10140.821405,1915.238745
153.325629,-2516.700203,-9252.574275,2374.896044
153.325951,-740.205942,-8216.285956,2681.334243
153.326272,1036.288319,-7179.997637,2451.505594
153.326594,2738.761985,-6365.771101,1685.410096
153.326916,3775.050304,-6587.832884,229.828649
153.327238,4145.153275,-7846.182985,-1378.971896
153.327559,3627.009116,-8956.491898,-2681.334243
153.327881,2812.782580,-10140.821405,-4290.134789
153.328203,2220.617826,-11547.212695,-5209.449386
153.328525,1406.391290,-11843.295072,-4749.792088
153.328846,1036.288319,-11843.295072,-5286.058936
153.329168,444.123565,-11029.068536,-4903.011187
153.329490,0.000000,-9992.780217,-5209.449386
153.329812,-740.205942,-9548.656652,-4136.915689
153.330133,-2072.576638,-8956.491898,-2604.724693
153.330455,-2886.803174,-8512.368333,-1302.362347
153.330777,-4145.153275,-9400.615463,0.000000
153.331099,-4885.359217,-9696.697840,1532.190996
153.331420,-4589.276840,-9918.759623,2757.943793
153.331742,-2886.803174,-9474.636058,3600.648841
153.332064,-1110.308913,-8586.388927,3600.648841
153.332386,1776.494261,-7476.080014,3217.601092
153.332708,3478.967927,-6217.729913,3600.648841
153.333029,4589.276840,-5107.421000,3370.820191
153.333351,4663.297435,-5403.503377,2604.724693
153.333673,3775.050304,-6883.915261,612.876398
153.333995,1480.411884,-6957.935855,-1149.143247
153.334316,296.082377,-7624.121203,-4213.525239
153.334638,-592.164754,-8956.491898,-6128.763984
153.334960,-1850.514855,-10214.842000,-6281.983084
153.335282,-2738.761985,-10140.821405,-6281.983084
153.335603,-3034.844362,-10807.006753,-6588.421283
153.335925,-2368.659014,-13101.645173,-6741.640382
153.336247,-2590.720797,-14730.098246,-5898.935335
153.336569,-3478.967927,-13841.851115,-4903.011187
153.336890,-3330.926739,-11917.315666,-3140.991542
153.337212,-1850.514855,-10658.965565,-2145.067394
153.337534,-1332.370696,-9844.739029,-1302.362347
153.337856,-2220.617826,-8808.450710,229.828649
153.338177,-2886.803174,-8290.306550,1378.971896
153.338499,-2442.679609,-8364.327145,1838.629195
153.338821,-1702.473667,-8882.471304,1685.410096
153.339143,-1258.350101,-8586.388927,2221.676944
153.339464,-296.082377,-7698.141797,1838.629195
153.339786,1406.391290,-7105.977043,1225.752797
153.340108,3108.864956,-7105.977043,153.219100
153.340430,3404.947333,-7179.997637,-919.314598
153.340751,3552.988522,-8586.388927,-2681.334243
153.341073,2294.638420,-10066.800811,-4673.182538
153.341395,1406.391290,-11621.233289,-5822.325785
153.341717,962.267725,-12805.562797,-6052.154434
153.342038,1332.370696,-12953.603985,-6052.154434
153.342360,2072.576638,-12139.377449,-5286.058936
153.342682,2220.617826,-11251.130318,-5056.230287
153.343004,2516.700203,-10658.965565,-3600.648841
153.343326,2072.576638,-8956.491898,-2298.286494
153.343647,814.226536,-7179.997637,-1762.019645
153.343969,-222.061783,-7254.018232,-536.266849
153.344291,-2220.617826,-8290.306550,612.876398
153.344613,-3775.050304,-9178.553681,2145.067394
153.344934,-4515.256246,-9992.780217,3370.820191
153.345256,-3478.967927,-9844.739029,4366.744339
153.345578,-1628.453072,-8956.491898,4060.306139
153.345900,1184.329507,-7624.121203,2911.162892
153.346221,2960.823768,-6217.729913,2834.553343
153.346543,3775.050304,-5403.503377,2911.162892
153.346865,3404.947333,-6143.709319,2221.676944
153.347187,2368.659014,-7031.956449,306.438199
153.347508,1110.308913,-7846.182985,-1991.848295
153.347830,296.082377,-9178.553681,-4979.620737
153.348152,-518.144159,-10510.924376,-5439.278036
153.348474,-1406.391290,-10584.944971,-5745.716235
153.348795,-1258.350101,-10510.924376,-5362.668486
153.349117,-592.164754,-10955.047942,-5132.839837
153.349439,222.061783,-11991.336260,-5286.058936
153.349761,-1184.329507,-11843.295072,-5132.839837
153.350082,-2960.823768,-10955.047942,-4060.306139
153.350404,-3923.091493,-10436.903782,-2374.896044
153.350726,-4441.235652,-10584.944971,-1608.800546
153.351048,-5181.441594,-10510.924376,153.219100
153.351369,-5403.503377,-10732.986159,1149.143247
153.351691,-5625.565159,-10066.800811,1455.581446
153.352013,-4441.235652,-9770.718434,1225.752797
153.352335,-2812.782580,-9400.615463,2221.676944
153.352656,-1184.329507,-8216.285956,2528.115143
153.352978,1184.329507,-8142.265362,1915.238745
153.353300,2812.782580,-7698.141797,766.095498
153.353622,3849.070898,-7328.038826,-229.828649
153.353944,3701.029710,-7328.038826,-1455.581446
153.354265,2960.823768,-8290.306550,-3064.381992
153.354587,2368.659014,-9548.656652,-4366.744339
153.354909,2072.576638,-11621.233289,-6511.811733
153.355231,1628.453072,-12583.501014,-6588.421283
153.355552,1036.288319,-11991.336260,-5439.278036
153.355874,370.102971,-10658.965565,-4673.182538
153.356196,-222.061783,-9918.759623,-4826.401637
153.356518,-1406.391290,-9030.512492,-4136.915689
153.356839,-2960.823768,-9104.533087,-3524.039291
153.357161,-4441.235652,-9252.574275,-2221.676944
153.357483,-5181.441594,-9400.615463,-536.266849
153.357805,-5181.441594,-9474.636058,1532.190996
153.358126,-4367.215058,-9252.574275,2451.505594
153.358448,-2516.700203,-9696.697840,2451.505594
153.358770,-296.082377,-9474.636058,3677.258390
153.359092,1850.514855,-7994.224174,4136.915689
153.359413,3701.029710,-6291.750507,3600.648841
153.359735,5255.462188,-5033.400406,2834.553343
153.360057,4959.379811,-4737.318029,1455.581446
153.360379,3552.988522,-5625.565159,766.095498
153.360700,2368.659014,-6217.729913,-919.314598
153.361022,1554.432478,-7031.956449,-4443.353888
153.361344,1258.350101,-9622.677246,-6741.640382
153.361666,-222.061783,-11251.130318,-5515.887586
153.361987,-2220.617826,-11695.253884,-4060.306139
153.362309,-2960.823768,-11547.212695,-4903.011187
153.362631,-2442.679609,-12213.398043,-6435.202183
153.362953,-2664.741391,-13101.645173,-6358.592633
153.363274,-3478.967927,-12065.356855,-3830.477490
153.363596,-3182.885551,-10584.944971,-2374.896044
153.363918,-2294.638420,-10214.842000,-1378.971896
153.364240,-1850.514855,-10140.821405,-153.219100
153.364562,-2442.679609,-9474.636058,1302.362347
153.364883,-3182.885551,-8512.368333,1685.410096
153.365205,-2220.617826,-8956.491898,995.924147
153.365527,-1406.391290,-9252.574275,2068.457845
153.365849,-1110.308913,-7994.224174,2604.724693
153.366170,370.102971,-6957.935855,2374.896044
153.366492,2590.720797,-7031.956449,1072.533697
153.366814,3701.029710,-7031.956449,-229.828649
153.367136,4145.153275,-7698.141797,-1762.019645
153.367457,3552.988522,-9548.656652,-2911.162892
153.367779,3034.844362,-11177.109724,-3753.867940
153.368101,1850.514855,-12139.377449,-5209.449386
153.368423,962.267725,-12509.480420,-5056.230287
153.368744,1628.453072,-13101.645173,-4903.011187
153.369066,1924.535449,-11991.336260,-5362.668486
153.369388,2442.679609,-10658.965565,-4979.620737
153.369710,2590.720797,-9474.636058,-3140.991542
153.370031,1998.556043,-7920.203579,-1302.362347
153.370353,1110.308913,-7846.182985,-1532.190996
153.370675,-1184.329507,-8216.285956,-689.485948
153.370997,-3034.844362,-9252.574275,612.876398
153.371318,-4589.276840,-9474.636058,1838.629195
153.371640,-4515.256246,-10214.842000,2145.067394
153.371962,-3997.112087,-9844.739029,3600.648841
153.372284,-2294.638420,-9548.656652,3217.601092
153.372605,-148.041188,-8068.244768,2757.943793
153.372927,2072.576638,-6735.874072,2451.505594
153.373249,2812.782580,-5477.523971,1915.238745
153.373571,2368.659014,-5847.626942,995.924147
153.373893,1036.288319,-6587.832884,76.609550
153.374214,222.061783,-7105.977043,-1838.629195
153.374536,-222.061783,-8438.347739,-4826.401637
153.374858,-740.205942,-10140.821405,-5822.325785
153.375180,-1332.370696,-10732.986159,-5362.668486
153.375501,-1036.288319,-10658.965565,-5362.668486
153.375823,-222.061783,-10510.924376,-5669.106685
153.376145,148.041188,-11029.068536,-5515.887586
153.376467,-740.205942,-11177.109724,-4979.620737
153.376788,-3034.844362,-10140.821405,-3907.087040
153.377110,-4663.297435,-9992.780217,-1685.410096
153.377432,-5255.462188,-10658.965565,-1915.238745
153.377754,-6365.771101,-10732.986159,-1149.143247
153.378075,-6957.935855,-10584.944971,306.438199
153.378397,-6439.791695,-10066.800811,766.095498
153.378719,-4441.235652,-9326.594869,1608.800546
153.379041,-1924.535449,-9474.636058,2068.457845
153.379362,0.000000,-9252.574275,2757.943793
153.379684,1628.453072,-7994.224174,2681.334243
153.380006,3256.906145,-7550.100608,1225.752797
153.380328,4515.256246,-7328.038826,-306.438199
153.380649,5033.400406,-6513.812290,-1149.143247
153.380971,3997.112087,-6661.853478,-3677.258390
153.381293,3478.967927,-9696.697840,-4749.792088
153.381615,2220.617826,-11843.295072,-5439.278036
153.381936,1036.288319,-12287.418637,-6128.763984
153.382258,962.267725,-11991.336260,-5975.544884
153.382580,888.247130,-12435.459826,-5209.449386
153.382902,0.000000,-10881.027347,-4673.182538
153.383223,-2368.659014,-8808.450710,-4366.744339
153.383545,-3849.070898,-8734.430116,-2987.772442
153.383867,-4737.318029,-9400.615463,-1915.238745
153.384189,-5699.585753,-9696.697840,-1378.971896
153.384511,-6513.812290,-10436.903782,536.266849
153.384832,-5625.565159,-10066.800811,2604.724693
153.385154,-2960.823768,-10066.800811,2911.162892
153.385476,0.000000,-9474.636058,3064.381992
153.385798,2442.679609,-7920.203579,3677.258390
153.386119,4515.256246,-5921.647536,3907.087040
153.386441,6069.688724,-5477.523971,2604.724693
153.386763,6365.771101,-5329.482782,2068.457845
153.387085,4959.379811,-5403.503377,995.924147
153.387406,3478.967927,-5847.626942,-1302.362347
153.387728,2516.700203,-7772.162391,-4443.353888
153.388050,814.226536,-9844.739029,-5592.497135
153.388372,-814.226536,-10807.006753,-5592.497135
153.388693,-1924.535449,-12435.459826,-4366.744339
153.389015,-1776.494261,-13397.727550,-3983.696590
153.389337,-1184.329507,-13027.624579,-5439.278036
153.389659,-1850.514855,-11399.171507,-5515.887586
153.389980,-2146.597232,-10436.903782,-3907.087040
153.390302,-2146.597232,-10066.800811,-2374.896044
153.390624,-3108.864956,-9992.780217,-1455.581446
153.390946,-4145.153275,-10436.903782,306.438199
153.391267,-4737.318029,-9474.636058,1608.800546
153.391589,-4145.153275,-8808.450710,919.314598
153.391911,-2960.823768,-8956.491898,459.657299
153.392233,-2220.617826,-8512.368333,2221.676944
153.392554,-1480.411884,-7254.018232,3064.381992
153.392876,370.102971,-7031.956449,1838.629195
153.393198,2368.659014,-7254.018232,76.609550
153.393520,2738.761985,-7105.977043,-1302.362347
153.393841,1998.556043,-7698.141797,-2604.724693
153.394163,2146.597232,-10066.800811,-3447.429741
153.394485,2368.659014,-11621.233289,-3983.696590
153.394807,2442.679609,-11917.315666,-5439.278036
153.395129,2590.720797,-12583.501014,-5056.230287
153.395450,2960.823768,-12953.603985,-4060.306139
153.395772,3330.926739,-11399.171507,-4903.011187
153.396094,4145.153275,-10066.800811,-5286.058936
153.396416,3701.029710,-8438.347739,-2987.772442
153.396737,2368.659014,-7698.141797,-1532.190996
153.397059,0.000000,-8216.285956,-919.314598
153.397381,-2516.700203,-9178.553681,459.657299
153.397703,-4293.194464,-9474.636058,1378.971896
153.398024,-4737.318029,-9030.512492,1149.143247
153.398346,-4145.153275,-9400.615463,1225.752797
153.398668,-3404.947333,-9474.636058,2451.505594
153.398990,-2220.617826,-8734.430116,3753.867940
153.399311,-444.123565,-7698.141797,3370.820191
153.399633,1480.411884,-7105.977043,2298.286494
153.399955,2294.638420,-6735.874072,1149.143247
153.400277,1110.308913,-6365.771101,0.000000
153.400598,0.000000,-7031.956449,-842.705048
153.400920,-296.082377,-7846.182985,-2528.115143
153.401242,-518.144159,-8660.409521,-4749.792088
153.401564,-888.247130,-9400.615463,-6358.592633
153.401885,-1628.453072,-10288.862594,-5898.935335
153.402207,-1480.411884,-10584.944971,-5362.668486
153.402529,-444.123565,-10584.944971,-6128.763984
153.402851,0.000000,-11103.089130,-5975.544884
153.403172,-592.164754,-11843.295072,-4519.963438
153.403494,-1998.556043,-11325.150913,-2528.115143
153.403816,-3849.070898,-11325.150913,-1762.019645
153.404138,-4663.297435,-11251.130318,-1149.143247
153.404460,-5107.421000,-11177.109724,-383.047749
153.404781,-5921.647536,-10436.903782,995.924147
153.405103,-5403.503377,-9474.636058,1378.971896
153.405425,-3701.029710,-9030.512492,1685.410096
153.405747,-962.267725,-8364.327145,2451.505594
153.406068,814.226536,-8364.327145,2298.286494
153.406390,2294.638420,-8364.327145,2145.067394
153.406712,3256.906145,-7402.059420,1685.410096
153.407034,3923.091493,-6661.853478,-229.828649
153.407355,3478.967927,-6957.935855,-2221.676944
153.407677,3330.926739,-7328.038826,-3830.477490
153.407999,2738.761985,-9622.677246,-5822.325785
153.408321,1924.535449,-11843.295072,-6511.811733
153.408642,370.102971,-12139.377449,-4673.182538
153.408964,-444.123565,-12361.439231,-4213.525239
153.409286,-148.041188,-12139.377449,-5132.839837
153.409608,370.102971,-10732.986159,-5209.449386
153.409929,-666.185348,-9104.533087,-4290.134789
153.410251,-2368.659014,-8660.409521,-2068.457845
153.410573,-2516.700203,-8438.347739,229.828649
153.410895,-3552.988522,-9178.553681,766.095498
153.411217,-4219.173869,-9770.718434,1225.752797
153.411539,-3478.967927,-10510.924376,2604.724693
153.411861,-1406.391290,-10214.842000,2528.115143
153.412182,1406.391290,-8660.409521,3447.429741
153.412504,3404.947333,-7179.997637,5209.449386
153.412826,4959.379811,-5699.585753,4366.744339
153.413148,5847.626942,-5403.503377,2834.553343
153.413470,5033.400406,-5107.421000,2145.067394
153.413792,3108.864956,-5181.441594,459.657299
153.414114,2368.659014,-6439.791695,-2451.505594
153.414436,1406.391290,-8956.491898,-4903.011187
153.414758,-518.144159,-10658.965565,-5592.497135
153.415079,-2960.823768,-10658.965565,-4903.011187
153.415401,-3923.091493,-11621.233289,-4903.011187
153.415723,-3627.009116,-13397.727550,-6128.763984
153.416045,-3701.029710,-13175.665768,-7507.735880
153.416367,-4293.194464,-12657.521608,-6511.811733
153.416689,-3849.070898,-11843.295072,-3370.820191
153.417011,-3034.844362,-10510.924376,-1762.019645
153.417333,-2442.679609,-9844.739029,-2451.505594
153.417655,-2664.741391,-9770.718434,-842.705048
153.417976,-3404.947333,-9548.656652,766.095498
153.418298,-3256.906145,-8956.491898,689.485948
153.418620,-2368.659014,-9104.533087,1072.533697
153.418942,-888.247130,-8586.388927,3140.991542
153.419264,-666.185348,-7402.059420,2911.162892
153.419586,888.247130,-7179.997637,1532.190996
153.419908,2368.659014,-7105.977043,383.047749
153.420230,3034.844362,-6661.853478,-766.095498
153.420552,2516.700203,-7328.038826,-1991.848295
153.420873,2960.823768,-9918.759623,-3447.429741
153.421195,2368.659014,-11325.150913,-4749.792088
153.421517,1628.453072,-11769.274478,-5898.935335
153.421839,888.247130,-12805.562797,-5132.839837
153.422161,1110.308913,-13397.727550,-5209.449386
153.422483,1554.432478,-11991.336260,-5669.106685
153.422805,1776.494261,-10362.883188,-5898.935335
153.423127,2294.638420,-9696.697840,-3677.258390
153.423449,1702.473667,-8142.265362,-1762.019645
153.423770,296.082377,-7254.018232,-1378.971896
153.424092,-1702.473667,-7328.038826,229.828649
153.424414,-2886.803174,-9326.594869,1532.190996
153.424736,-4293.194464,-10066.800811,1838.629195
153.425058,-4663.297435,-10288.862594,1991.848295
153.425380,-3108.864956,-9992.780217,3294.210641
153.425702,-518.144159,-8808.450710,3447.429741
153.426024,1924.535449,-7105.977043,3447.429741
153.426346,3478.967927,-6587.832884,3294.210641
153.426667,3701.029710,-5329.482782,2604.724693
153.426989,3034.844362,-5181.441594,1225.752797
153.427311,2146.597232,-6439.791695,-1072.533697
153.427633,1184.329507,-7846.182985,-3677.258390
153.427955,222.061783,-9104.533087,-5515.887586
153.428277,-962.267725,-10658.965565,-5898.935335
153.428599,-1406.391290,-11843.295072,-4903.011187
153.428921,-740.205942,-12065.356855,-5132.839837
153.429243,148.041188,-11843.295072,-6588.421283
153.429564,518.144159,-11769.274478,-6052.154434
153.429886,0.000000,-11325.150913,-4213.525239
153.430208,-1628.453072,-10140.821405,-3064.381992
153.430530,-3034.844362,-10214.842000,-2068.457845
153.430852,-4515.256246,-10510.924376,-306.438199
153.431174,-5477.523971,-10807.006753,0.000000
153.431496,-6143.709319,-10140.821405,536.266849
153.431818,-5107.421000,-9622.677246,995.924147
153.432139,-3256.906145,-9548.656652,1762.019645
153.432461,-1924.535449,-8808.450710,2987.772442
153.432783,-148.041188,-7254.018232,3600.648841
153.433105,1776.494261,-6883.915261,2528.115143
153.433427,2590.720797,-6661.853478,0.000000
153.433749,2960.823768,-6661.853478,-1532.190996
153.434071,2812.782580,-7698.141797,-2451.505594
153.434393,2368.659014,-9326.594869,-3677.258390
153.434715,2072.576638,-10584.944971,-4749.792088
153.435036,962.267725,-11843.295072,-5515.887586
153.435358,370.102971,-13175.665768,-5592.497135
153.435680,740.205942,-13249.686362,-5669.106685
153.436002,740.205942,-11769.274478,-6128.763984
153.436324,1036.288319,-10732.986159,-5286.058936
153.436646,-444.123565,-8882.471304,-2528.115143
153.436968,-1628.453072,-7624.121203,-1455.581446
153.437290,-3182.885551,-8068.244768,-1455.581446
153.437612,-4515.256246,-9918.759623,0.000000
153.437933,-5551.544565,-10584.944971,1685.410096
153.438255,-5107.421000,-10066.800811,2221.676944
153.438577,-2442.679609,-10362.883188,2757.943793
153.438899,222.061783,-9400.615463,4290.134789
153.439221,2220.617826,-6883.915261,5209.449386
153.439543,3849.070898,-4589.276840,4826.401637
153.439865,4589.276840,-3627.009116,2987.772442
153.440187,4589.276840,-4663.297435,1608.800546
153.440509,2516.700203,-5477.523971,0.000000
153.440830,444.123565,-6069.688724,-1685.410096
153.441152,-888.247130,-7994.224174,-4903.011187
153.441474,-1702.473667,-10288.862594,-6894.859482
153.441796,-3330.926739,-11547.212695,-7124.688131
153.442118,-4219.173869,-11917.315666,-5669.106685
153.442440,-3478.967927,-13693.809927,-6435.202183
153.442762,-1998.556043,-13915.871710,-6588.421283
153.443084,-1406.391290,-13027.624579,-5669.106685
153.443406,-888.247130,-11251.130318,-3830.477490
153.443727,-666.185348,-9918.759623,-1915.238745
153.444049,-666.185348,-9400.615463,-1072.533697
153.444371,-1554.432478,-9474.636058,76.609550
153.444693,-2220.617826,-9474.636058,1991.848295
153.445015,-2442.679609,-9104.533087,2068.457845
153.445337,-1776.494261,-8512.368333,1915.238745
153.445659,-444.123565,-7698.141797,3524.039291
153.445981,74.020594,-6439.791695,3907.087040
153.446303,1480.411884,-6217.729913,1838.629195
153.446624,2886.803174,-6957.935855,919.314598
153.446946,3034.844362,-6735.874072,-612.876398
153.447268,2294.638420,-6809.894666,-2298.286494
153.447590,1406.391290,-9474.636058,-4673.182538
153.447912,518.144159,-12213.398043,-5975.544884
153.448234,-222.061783,-13767.830521,-6205.373534
153.448556,-444.123565,-14359.995275,-6052.154434
153.448878,740.205942,-14656.077652,-5439.278036
153.449200,2368.659014,-13323.706956,-6205.373534
153.449521,3182.885551,-11029.068536,-5286.058936
153.449843,3404.947333,-8512.368333,-3294.210641
153.450165,3034.844362,-6365.771101,-2145.067394
153.450487,1554.432478,-6513.812290,-1378.971896
153.450809,-1258.350101,-8586.388927,536.266849
153.451131,-4071.132681,-9992.780217,2528.115143
153.451453,-4737.318029,-9770.718434,3064.381992
153.451775,-3330.926739,-9622.677246,2681.334243
153.452097,-1480.411884,-9178.553681,2911.162892
153.452418,518.144159,-7846.182985,3983.696590
153.452740,1850.514855,-6291.750507,4519.963438
153.453062,2590.720797,-6439.791695,3907.087040
153.453384,2664.741391,-6439.791695,2374.896044
153.453706,1258.350101,-5995.668130,0.000000
153.454028,148.041188,-6883.915261,-2298.286494
153.454350,-666.185348,-8734.430116,-3830.477490
153.454672,-888.247130,-10288.862594,-5286.058936
153.454994,-1628.453072,-10140.821405,-5669.106685
153.455315,-1924.535449,-10732.986159,-4903.011187
153.455637,-1258.350101,-11843.295072,-4903.011187
153.455959,-1406.391290,-11399.171507,-6894.859482
153.456281,-1184.329507,-10658.965565,-6665.030833
153.456603,-1554.432478,-9918.759623,-4136.915689
153.456925,-2368.659014,-9400.615463,-2221.676944
153.457247,-2960.823768,-9622.677246,-1685.410096
153.457569,-4515.256246,-10214.842000,0.000000
153.457890,-5403.503377,-10955.047942,1072.533697
153.458212,-5329.482782,-10658.965565,1149.143247
153.458534,-4071.132681,-10436.903782,1378.971896
153.458856,-2368.659014,-9030.512492,3447.429741
153.459178,-666.185348,-8068.244768,3064.381992
153.459500,1110.308913,-7105.977043,3140.991542
153.459822,3034.844362,-7624.121203,1685.410096
153.460144,3701.029710,-7402.059420,0.000000
153.460466,3404.947333,-7254.018232,-1532.190996
153.460787,2664.741391,-7476.080014,-2298.286494
153.461109,2368.659014,-9474.636058,-4213.525239
153.461431,1702.473667,-11029.068536,-6358.592633
153.461753,296.082377,-11547.212695,-6741.640382
153.462075,-444.123565,-12065.356855,-5975.544884
153.462397,-148.041188,-12435.459826,-6435.202183
153.462719,518.144159,-12287.418637,-7277.907231
153.463041,0.000000,-11325.150913,-6281.983084
153.463363,-1036.288319,-10362.883188,-3600.648841
153.463684,-2368.659014,-9622.677246,-1762.019645
153.464006,-2886.803174,-8956.491898,-689.485948
153.464328,-4145.153275,-9474.636058,153.219100
153.464650,-4219.173869,-10066.800811,1455.581446
153.464972,-3330.926739,-9844.739029,2145.067394
153.465294,-962.267725,-9474.636058,2911.162892
153.465616,2072.576638,-8142.265362,4596.572988
153.465938,3849.070898,-5921.647536,5362.668486
153.466260,4515.256246,-5107.421000,4596.572988
153.466581,4515.256246,-5181.441594,2834.553343
153.466903,3478.967927,-5995.668130,1302.362347
153.467225,1702.473667,-5847.626942,-153.219100
153.467547,222.061783,-6513.812290,-2298.286494
153.467869,-888.247130,-8290.306550,-5209.449386
153.468191,-1480.411884,-10214.842000,-6511.811733
153.468513,-2886.803174,-10436.903782,-5822.325785
153.468835,-3404.947333,-11325.150913,-5592.497135
153.469157,-2960.823768,-12879.583391,-6281.983084
153.469478,-2442.679609,-13545.768739,-6818.249932
153.469800,-2738.761985,-12435.459826,-5439.278036
153.470122,-2146.597232,-11621.233289,-3064.381992
153.470444,-1480.411884,-10510.924376,-1302.362347
153.470766,-1702.473667,-9770.718434,-536.266849
153.471088,-2220.617826,-9474.636058,1302.362347
153.471410,-2960.823768,-8956.491898,1915.238745
153.471732,-2368.659014,-9104.533087,1608.800546
153.472054,-1924.535449,-8438.347739,2298.286494
153.472375,-1036.288319,-7105.977043,3524.039291
153.472697,518.144159,-5921.647536,2911.162892
153.473019,2072.576638,-6291.750507,1762.019645
153.473341,2886.803174,-7550.100608,995.924147
153.473663,2886.803174,-7402.059420,0.000000
153.473985,2664.741391,-8512.368333,-2221.676944
153.474307,2442.679609,-10510.924376,-4366.744339
153.474629,1554.432478,-11769.274478,-5592.497135
153.474951,1036.288319,-12435.459826,-5898.935335
153.475272,814.226536,-12953.603985,-5439.278036
153.475594,1628.453072,-13323.706956,-6052.154434
153.475916,2368.659014,-12509.480420,-6818.249932
153.476238,2590.720797,-11769.274478,-5745.716235
153.476560,2220.617826,-9548.656652,-2834.553343
153.476882,1480.411884,-7772.162391,-1838.629195
153.477204,370.102971,-7624.121203,-1302.362347
153.477526,-1480.411884,-8438.347739,0.000000
153.477848,-3404.947333,-9104.533087,1302.362347
153.478169,-3923.091493,-10066.800811,2987.772442
153.478491,-3330.926739,-9548.656652,3140.991542
153.478813,-1850.514855,-8734.430116,3677.258390
153.479135,370.102971,-7476.080014,3447.429741
153.479457,2368.659014,-6809.894666,3140.991542
153.479779,3775.050304,-5921.647536,2298.286494
153.480101,3034.844362,-5847.626942,1838.629195
153.480423,1776.494261,-6883.915261,612.876398
153.480745,592.164754,-7550.100608,-1532.190996
153.481066,0.000000,-8512.368333,-4519.963438
153.481388,-370.102971,-9992.780217,-5515.887586
153.481710,-1110.308913,-10140.821405,-5209.449386
153.482032,-1702.473667,-9992.780217,-5362.668486
153.482354,-1554.432478,-10436.903782,-6052.154434
153.482676,-1110.308913,-11621.233289,-6511.811733
153.482998,-1258.350101,-12287.418637,-5822.325785
153.483320,-2516.700203,-11991.336260,-4673.182538
153.483642,-3627.009116,-11251.130318,-2911.162892
153.483963,-4145.153275,-10658.965565,-1915.238745
153.484285,-4589.276840,-10288.862594,-1225.752797
153.484607,-5033.400406,-10214.842000,229.828649
153.484929,-4885.359217,-10288.862594,1608.800546
153.485251,-3997.112087,-9918.759623,1149.143247
153.485573,-2738.761985,-9548.656652,1762.019645
153.485895,-1184.329507,-9030.512492,3370.820191
153.486217,296.082377,-7698.141797,3294.210641
153.486538,2072.576638,-7105.977043,1302.362347
153.486860,3552.988522,-7031.956449,-536.266849
153.487182,3775.050304,-6365.771101,-995.924147
153.487504,2886.803174,-6957.935855,-2374.896044
153.487826,2368.659014,-8734.430116,-3677.258390
153.488148,1998.556043,-11177.109724,-5515.887586
153.488470,888.247130,-12065.356855,-6435.202183
153.488792,-148.041188,-11695.253884,-6052.154434
153.489114,-296.082377,-11843.295072,-5056.230287
153.489435,-222.061783,-11399.171507,-5515.887586
153.489757,-592.164754,-10214.842000,-5209.449386
153.490079,-1258.350101,-9252.574275,-4290.134789
153.490401,-2368.659014,-9474.636058,-2528.115143
153.490723,-3478.967927,-9696.697840,-306.438199
153.491045,-4367.215058,-9548.656652,1072.533697
153.491367,-4071.132681,-9252.574275,2374.896044
153.491689,-2590.720797,-9622.677246,3217.601092
153.492011,-666.185348,-9696.697840,3524.039291
153.492332,1702.473667,-8068.244768,4519.963438
153.492654,3701.029710,-5995.668130,5362.668486
153.492976,5033.400406,-5181.441594,3907.087040
153.493298,5551.544565,-5033.400406,2681.334243
153.493620,3997.112087,-4811.338623,2451.505594
153.493942,2516.700203,-5477.523971,612.876398
153.494264,1776.494261,-7031.956449,-2681.334243
153.494586,518.144159,-9252.574275,-5592.497135
153.494908,-1776.494261,-9992.780217,-6052.154434
153.495229,-3478.967927,-10066.800811,-5592.497135
153.495551,-3478.967927,-12139.377449,-5515.887586
153.495873,-2516.700203,-13027.624579,-7277.907231
153.496195,-2072.576638,-13249.686362,-7354.516781
153.496517,-2664.741391,-13249.686362,-4903.011187
153.496839,-2664.741391,-12213.398043,-2145.067394
153.497161,-1480.411884,-10510.924376,-1455.581446
153.497483,-1332.370696,-9992.780217,-1685.410096
153.497805,-2146.597232,-9844.739029,76.609550
153.498126,-3182.885551,-9474.636058,1532.190996
153.498448,-3404.947333,-8586.388927,1225.752797
153.498770,-2146.597232,-8808.450710,1455.581446
153.499092,-740.205942,-8512.368333,3064.381992
153.499414,-444.123565,-7179.997637,2757.943793
153.499736,740.205942,-6957.935855,1915.238745
153.500058,2368.659014,-6957.935855,76.609550
153.500380,2886.803174,-7105.977043,-1302.362347
153.500702,3108.864956,-8290.306550,-2298.286494
153.501023,2294.638420,-10140.821405,-3983.696590
153.501345,1110.308913,-11695.253884,-5362.668486
153.501667,814.226536,-13101.645173,-6205.373534
153.501989,1036.288319,-13841.851115,-5898.935335
153.502311,1628.453072,-13693.809927,-5975.544884
153.502633,2590.720797,-12139.377449,-6281.983084
153.502955,2220.617826,-10436.903782,-4826.401637
153.503277,2146.597232,-8290.306550,-2987.772442
153.503599,1184.329507,-7105.977043,-2528.115143
153.503920,-444.123565,-7624.121203,-2221.676944
153.504242,-2960.823768,-8808.450710,-383.047749
153.504564,-5477.523971,-9474.636058,2298.286494
153.504886,-5921.647536,-9696.697840,2604.724693
153.505208,-3849.070898,-10066.800811,2145.067394
153.505530,-2220.617826,-9474.636058,2604.724693
153.505852,-592.164754,-7624.121203,3447.429741
153.506174,1480.411884,-6143.709319,3600.648841
153.506496,2960.823768,-5699.585753,2834.553343
153.506817,3034.844362,-5181.441594,1225.752797
153.507139,1702.473667,-5551.544565,0.000000
153.507461,1258.350101,-7402.059420,-1762.019645
153.507783,740.205942,-8586.388927,-3830.477490
153.508105,148.041188,-10288.862594,-5515.887586
153.508427,-740.205942,-10807.006753,-5439.278036
153.508749,-1184.329507,-10881.027347,-4596.572988
153.509071,-962.267725,-11103.089130,-5209.449386
153.509393,-666.185348,-11695.253884,-6665.030833
153.509714,-518.144159,-11325.150913,-5898.935335
153.510036,-1628.453072,-10658.965565,-4060.306139
153.510358,-2738.761985,-10288.862594,-2374.896044
153.510680,-3552.988522,-10362.883188,-995.924147
153.511002,-4367.215058,-10510.924376,-306.438199
153.511324,-5329.482782,-10436.903782,612.876398
153.511646,-5403.503377,-10732.986159,1225.752797
153.511968,-4219.173869,-10066.800811,1532.190996
153.512289,-2516.700203,-9252.574275,2068.457845
153.512611,-740.205942,-8364.327145,3524.039291
153.512933,888.247130,-7179.997637,3677.258390
153.513255,2516.700203,-7031.956449,1378.971896
153.513567,3627.009116,-6957.935855,-306.438199
153.513889,4219.173869,-7328.038826,-1225.752797
153.514211,4071.132681,-8290.306550,-2604.724693
153.514533,3552.988522,-9548.656652,-4290.134789
153.514855,2294.638420,-11399.171507,-5362.668486
153.515177,814.226536,-11843.295072,-5286.058936
153.515499,-222.061783,-11917.315666,-5439.278036
153.515821,-592.164754,-12065.356855,-5975.544884
153.516143,-740.205942,-11843.295072,-6205.373534
153.516465,-1110.308913,-10288.862594,-5132.839837
153.516787,-1702.473667,-9474.636058,-2987.772442
153.517109,-2072.576638,-9400.615463,-1608.800546
153.517430,-2812.782580,-9548.656652,-842.705048
153.517752,-4145.153275,-9622.677246,306.438199
153.518074,-4515.256246,-9474.636058,1991.848295
153.518396,-3404.947333,-10140.821405,2528.115143
153.518718,-1110.308913,-9696.697840,3294.210641
153.519040,1406.391290,-7920.203579,3983.696590
153.519362,3552.988522,-5847.626942,4290.134789
153.519684,5181.441594,-4663.297435,3983.696590
153.520006,5181.441594,-4441.235652,2834.553343
153.520328,3330.926739,-5181.441594,1685.410096
153.520650,1702.473667,-5921.647536,0.000000
153.520972,518.144159,-6957.935855,-2604.724693
153.521293,-444.123565,-8290.306550,-4979.620737
153.521615,-1776.494261,-9326.594869,-5822.325785
153.521937,-2812.782580,-10214.842000,-4979.620737
153.522259,-3404.947333,-10881.027347,-5669.106685
153.522581,-2886.803174,-12435.459826,-6971.469032
153.522903,-2442.679609,-13841.851115,-6741.640382
153.523225,-3108.864956,-13249.686362,-4366.744339
153.523547,-3034.844362,-11843.295072,-3064.381992
153.523869,-2072.576638,-10881.027347,-1991.848295
153.524191,-1702.473667,-10066.800811,-842.705048
153.524513,-2590.720797,-9400.615463,229.828649
153.524835,-3256.906145,-8660.409521,1302.362347
153.525157,-2886.803174,-8734.430116,1532.190996
153.525478,-2220.617826,-8882.471304,1532.190996
153.525800,-1184.329507,-8438.347739,2451.505594
153.526122,-296.082377,-7402.059420,2834.553343
153.526444,1480.411884,-7105.977043,1915.238745
153.526766,2960.823768,-6957.935855,229.828649
153.527088,2738.761985,-7105.977043,-1532.190996
153.527410,2738.761985,-8586.388927,-3064.381992
153.527732,2220.617826,-10214.842000,-4749.792088
153.528054,1332.370696,-11917.315666,-5975.544884
153.528376,1184.329507,-13101.645173,-6128.763984
153.528698,1702.473667,-13471.748144,-5439.278036
153.529020,2146.597232,-13471.748144,-6205.373534
153.529341,2442.679609,-12435.459826,-6128.763984
153.529663,2664.741391,-11029.068536,-4596.572988
153.529985,2294.638420,-9030.512492,-2911.162892
153.530307,962.267725,-7698.141797,-2604.724693
153.530629,-666.185348,-8068.244768,-995.924147
153.530951,-3108.864956,-9030.512492,995.924147
153.531273,-4811.338623,-9030.512492,2221.676944
153.531595,-5033.400406,-9252.574275,2451.505594
153.531917,-3701.029710,-9104.533087,2987.772442
153.532239,-1924.535449,-8882.471304,3447.429741
153.532561,0.000000,-7476.080014,4060.306139
153.532883,2072.576638,-6661.853478,3753.867940
153.533205,3552.988522,-5995.668130,2528.115143
153.533526,3627.009116,-5773.606348,1838.629195
153.533848,2220.617826,-5699.585753,459.657299
153.534170,1258.350101,-7254.018232,-1762.019645
153.534492,370.102971,-8364.327145,-3830.477490
153.534814,0.000000,-9474.636058,-5286.058936
153.535136,-814.226536,-10066.800811,-5439.278036
153.535458,-740.205942,-10362.883188,-5515.887586
153.535780,-592.164754,-10584.944971,-5515.887586
153.536102,-518.144159,-11103.089130,-5898.935335
153.536424,-888.247130,-11029.068536,-4903.011187
153.536746,-2368.659014,-10807.006753,-3447.429741
153.537068,-3775.050304,-10658.965565,-1838.629195
153.537389,-4737.318029,-10140.821405,-766.095498
153.537711,-5551.544565,-10362.883188,-383.047749
153.538033,-6069.688724,-10362.883188,612.876398
153.538355,-5847.626942,-10140.821405,1225.752797
153.538677,-4441.235652,-9770.718434,1378.971896
153.538999,-1924.535449,-9474.636058,2451.505594
153.539321,0.000000,-8956.491898,2528.115143
153.539643,1998.556043,-8290.306550,2068.457845
153.539965,3552.988522,-7476.080014,1072.533697
153.540287,4663.297435,-7624.121203,0.000000
153.540609,4737.318029,-7920.203579,-1225.752797
153.540931,4293.194464,-9104.533087,-2911.162892
153.541253,3775.050304,-10140.821405,-4673.182538
153.541574,2590.720797,-11029.068536,-5515.887586
153.541896,1332.370696,-11769.274478,-5822.325785
153.542218,740.205942,-11325.150913,-5898.935335
153.542540,666.185348,-10881.027347,-5898.935335
153.542862,-370.102971,-11251.130318,-5592.497135
153.543184,-1998.556043,-10732.986159,-4060.306139
153.543506,-3849.070898,-10066.800811,-2528.115143
153.543828,-5255.462188,-10066.800811,-1991.848295
153.544150,-5699.585753,-10214.842000,-383.047749
153.544472,-6217.729913,-9992.780217,0.000000
153.544794,-5625.565159,-9326.594869,1455.581446
153.545116,-3849.070898,-8956.491898,2528.115143
153.545437,-518.144159,-8956.491898,2987.772442
153.545759,1924.535449,-7994.224174,3830.477490
153.546081,4219.173869,-6735.874072,4060.306139
153.546403,5329.482782,-6513.812290,3524.039291
153.546725,6365.771101,-6143.709319,2374.896044
153.547047,5181.441594,-5403.503377,842.705048
153.547369,3775.050304,-5329.482782,-383.047749
153.547691,1628.453072,-5921.647536,-3370.820191
153.548013,518.144159,-8142.265362,-5515.887586
153.548335,-962.267725,-9844.739029,-6128.763984
153.548657,-2072.576638,-11399.171507,-5592.497135
153.548979,-2146.597232,-12435.459826,-4979.620737
153.549301,-1406.391290,-12805.562797,-5669.106685
153.549622,-1480.411884,-11991.336260,-5056.230287
153.549944,-2368.659014,-11473.192101,-3753.867940
153.550266,-3256.906145,-10362.883188,-2757.943793
153.550588,-3849.070898,-10140.821405,-2145.067394
153.550910,-4515.256246,-9844.739029,-536.266849
153.551232,-4737.318029,-9400.615463,1072.533697
153.551554,-4515.256246,-8882.471304,995.924147
153.551876,-3108.864956,-9178.553681,1225.752797
153.552198,-1702.473667,-9400.615463,2068.457845
153.552520,-1184.329507,-8438.347739,2987.772442
153.552842,370.102971,-7402.059420,1838.629195
153.553164,1850.514855,-7179.997637,536.266849
153.553485,2812.782580,-7179.997637,-995.924147
153.553807,2516.700203,-7550.100608,-2145.067394
153.554129,2220.617826,-9400.615463,-3294.210641
153.554451,2368.659014,-11251.130318,-4903.011187
153.554773,2294.638420,-12213.398043,-5822.325785
153.555095,2146.597232,-13027.624579,-5592.497135
153.555417,2368.659014,-12805.562797,-4903.011187
153.555739,3108.864956,-11769.274478,-4903.011187
153.556061,3552.988522,-9992.780217,-5132.839837
153.556383,3182.885551,-8882.471304,-4060.306139
153.556705,2146.597232,-8142.265362,-2528.115143
153.557027,-296.082377,-8142.265362,-1762.019645
153.557349,-2368.659014,-9326.594869,-689.485948
153.557670,-4145.153275,-10066.800811,383.047749
153.557992,-5181.441594,-10066.800811,1762.019645
153.558314,-4663.297435,-9844.739029,1762.019645
153.558636,-3256.906145,-9622.677246,2604.724693
153.558958,-1998.556043,-8882.471304,3370.820191
153.559280,0.000000,-7920.203579,3524.039291
153.559602,1850.514855,-6809.894666,2451.505594
153.559924,2812.782580,-5403.503377,1838.629195
153.560246,2812.782580,-5847.626942,689.485948
153.560568,2442.679609,-6883.915261,-229.828649
153.560890,1480.411884,-7328.038826,-1915.238745
153.561212,370.102971,-8068.244768,-4443.353888
153.561533,-222.061783,-9548.656652,-5439.278036
153.561855,-1110.308913,-10732.986159,-5515.887586
153.562177,-888.247130,-10732.986159,-5975.544884
153.562499,148.041188,-10510.924376,-5898.935335
153.562821,888.247130,-10807.006753,-5056.230287
153.563143,592.164754,-10881.027347,-4290.134789
153.563465,-1258.350101,-10066.800811,-3447.429741
153.563787,-3182.885551,-10362.883188,-2221.676944
153.564109,-4515.256246,-10807.006753,-1608.800546
153.564431,-5773.606348,-11177.109724,-766.095498
153.564753,-6587.832884,-10807.006753,612.876398
153.565075,-5995.668130,-10362.883188,1838.629195
153.565397,-4219.173869,-10214.842000,1455.581446
153.565718,-1776.494261,-9622.677246,1915.238745
153.566040,148.041188,-8882.471304,2451.505594
153.566362,1998.556043,-7698.141797,1762.019645
153.566684,3775.050304,-7179.997637,612.876398
153.567006,4737.318029,-7402.059420,-229.828649
153.567328,4589.276840,-7772.162391,-1608.800546
153.567650,3775.050304,-8734.430116,-3064.381992
153.567972,2442.679609,-10066.800811,-4673.182538
153.568294,814.226536,-10955.047942,-5286.058936
153.568616,74.020594,-11621.233289,-5822.325785
153.568938,0.000000,-11843.295072,-5898.935335
153.569260,296.082377,-11325.150913,-5515.887586
153.569581,-148.041188,-10658.965565,-4673.182538
153.569903,-1776.494261,-9400.615463,-3370.820191
153.570225,-2368.659014,-8438.347739,-2528.115143
153.570547,-3923.091493,-8956.491898,-2145.067394
153.570869,-5107.421000,-9622.677246,-919.314598
153.571191,-5995.668130,-10214.842000,842.705048
153.571513,-5847.626942,-10066.800811,2451.505594
153.571835,-2960.823768,-10436.903782,3064.381992
153.572157,74.020594,-9474.636058,3830.477490
153.572479,2368.659014,-7698.141797,3983.696590
153.572801,3997.112087,-5699.585753,4213.525239
153.573123,5255.462188,-4737.318029,3370.820191
153.573445,5477.523971,-4737.318029,2298.286494
153.573766,3849.070898,-4737.318029,1838.629195
153.574088,1850.514855,-5699.585753,-383.047749
153.574410,74.020594,-7402.059420,-3064.381992
153.574732,-888.247130,-9178.553681,-5515.887586
153.575054,-2294.638420,-10288.862594,-6358.592633
153.575376,-2960.823768,-10807.006753,-5286.058936
153.575698,-3256.906145,-11695.253884,-5439.278036
153.576020,-2738.761985,-12953.603985,-6358.592633
153.576342,-2294.638420,-13027.624579,-6128.763984
153.576664,-2368.659014,-12435.459826,-4826.401637
153.576986,-1850.514855,-11177.109724,-3370.820191
153.577308,-1184.329507,-10436.903782,-1915.238745
153.577629,-1406.391290,-10362.883188,-306.438199
153.577951,-2146.597232,-10214.842000,1149.143247
153.578273,-2368.659014,-10066.800811,1608.800546
153.578595,-1554.432478,-10066.800811,1302.362347
153.578917,-1332.370696,-9326.594869,1991.848295
153.579239,-296.082377,-8068.244768,2681.334243
153.579561,1036.288319,-6587.832884,2451.505594
153.579883,2664.741391,-5995.668130,995.924147
153.580205,3627.009116,-6291.750507,-229.828649
153.580527,3923.091493,-7254.018232,-1532.190996
153.580849,2960.823768,-9030.512492,-2987.772442
153.581171,1554.432478,-10658.965565,-4136.915689
153.581493,370.102971,-12361.439231,-5669.106685
153.581814,0.000000,-13471.748144,-6128.763984
153.582136,148.041188,-13175.665768,-5975.544884
153.582458,1110.308913,-11843.295072,-6205.373534
153.582780,2220.617826,-11325.150913,-5898.935335
153.583102,2442.679609,-10362.883188,-3907.087040
153.583424,1406.391290,-8512.368333,-2374.896044
153.583746,148.041188,-7624.121203,-1532.190996
153.584068,-1332.370696,-8438.347739,-995.924147
153.584390,-2960.823768,-9548.656652,689.485948
153.584712,-4737.318029,-9252.574275,2298.286494
153.585034,-4663.297435,-9178.553681,2681.334243
153.585356,-2664.741391,-9474.636058,3677.258390
153.585677,-666.185348,-8512.368333,3907.087040
153.585999,1332.370696,-6809.894666,3370.820191
153.586321,2738.761985,-5995.668130,3140.991542
153.586643,3997.112087,-5551.544565,2451.505594
153.586965,3775.050304,-5625.565159,1455.581446
153.587287,2220.617826,-6291.750507,76.609550
153.587609,888.247130,-7550.100608,-1378.971896
153.587931,222.061783,-9178.553681,-4749.792088
153.588253,-740.205942,-10436.903782,-5898.935335
153.588575,-1406.391290,-11103.089130,-5822.325785
153.588897,-1258.350101,-11177.109724,-4979.620737
153.589219,-962.267725,-10955.047942,-5898.935335
153.589541,-592.164754,-11473.192101,-5515.887586
153.589862,-1554.432478,-11325.150913,-4826.401637
153.590184,-3330.926739,-10658.965565,-3600.648841
153.590506,-5033.400406,-10510.924376,-2604.724693
153.590828,-6069.688724,-10732.986159,-1455.581446
153.591150,-6883.915261,-10732.986159,-383.047749
153.591472,-6883.915261,-10584.944971,459.657299
153.591794,-5921.647536,-10214.842000,995.924147
153.592116,-3552.988522,-10214.842000,1685.410096
153.592438,-1850.514855,-9104.533087,2604.724693
153.592760,0.000000,-7994.224174,3524.039291
153.593082,1702.473667,-7550.100608,2298.286494
153.593404,3627.009116,-7105.977043,612.876398
153.593725,4367.215058,-7179.997637,-689.485948
153.594047,4589.276840,-7328.038826,-1532.190996
153.594369,4737.318029,-8512.368333,-2834.553343
153.594691,4219.173869,-9696.697840,-4136.915689
153.595013,2886.803174,-11177.109724,-5592.497135
153.595335,1480.411884,-11695.253884,-5669.106685
153.595657,222.061783,-11325.150913,-5745.716235
153.595979,-740.205942,-11177.109724,-6052.154434
153.596301,-1924.535449,-11547.212695,-5286.058936
153.596623,-3034.844362,-10584.944971,-4443.353888
153.596945,-4145.153275,-10214.842000,-2757.943793
153.597267,-4293.194464,-10436.903782,-1532.190996
153.597589,-4663.297435,-10066.800811,0.000000
153.597910,-4293.194464,-9326.594869,1455.581446
153.598232,-3404.947333,-8734.430116,1838.629195
153.598554,-1184.329507,-8586.388927,2604.724693
153.598876,1184.329507,-8438.347739,3217.601092
153.599198,2960.823768,-7328.038826,4213.525239
153.599520,4367.215058,-5847.626942,4903.011187
153.599842,5773.606348,-5329.482782,4290.134789
153.600164,5329.482782,-5329.482782,2757.943793
153.600486,3923.091493,-5181.441594,1455.581446
153.600808,2368.659014,-5477.523971,-842.705048
153.601130,1184.329507,-6883.915261,-4060.306139
153.601452,0.000000,-8512.368333,-6052.154434
153.601773,-1850.514855,-8734.430116,-5898.935335
153.602095,-2960.823768,-10807.006753,-5745.716235
153.602417,-2812.782580,-12805.562797,-6281.983084
153.602739,-2294.638420,-14285.974681,-7277.907231
153.603061,-2368.659014,-14730.098246,-5975.544884
153.603383,-2442.679609,-13841.851115,-3983.696590
153.603705,-2146.597232,-11917.315666,-2451.505594
153.604027,-1480.411884,-10066.800811,-2145.067394
153.604349,-1554.432478,-9770.718434,-766.095498
153.604671,-2516.700203,-9400.615463,995.924147
153.604993,-3627.009116,-8142.265362,1838.629195
153.605315,-2738.761985,-8142.265362,1455.581446
153.605637,-1406.391290,-8438.347739,1915.238745
153.605958,-592.164754,-7772.162391,2757.943793
153.606280,74.020594,-7105.977043,2604.724693
153.606602,1924.535449,-7328.038826,1608.800546
153.606924,3108.864956,-7328.038826,-612.876398
153.607246,3182.885551,-7550.100608,-1838.629195
153.607568,2220.617826,-8956.491898,-3064.381992
153.607890,1258.350101,-11251.130318,-4903.011187
153.608212,888.247130,-12583.501014,-5898.935335
153.608534,740.205942,-13249.686362,-6818.249932
153.608856,1110.308913,-13545.768739,-5822.325785
153.609178,1924.535449,-13175.665768,-5515.887586
153.609500,2072.576638,-11695.253884,-5515.887586
153.609821,1480.411884,-9622.677246,-4213.525239
153.610143,962.267725,-7772.162391,-2221.676944
153.610465,0.000000,-7624.121203,-1608.800546
153.610787,-2294.638420,-8438.347739,-689.485948
153.611109,-4737.318029,-9178.553681,1685.410096
153.611431,-5699.585753,-9030.512492,2911.162892
153.611753,-4515.256246,-8882.471304,2528.115143
153.612075,-2072.576638,-9474.636058,2451.505594
153.612397,-962.267725,-8660.409521,4060.306139
153.612719,296.082377,-6809.894666,4443.353888
153.613041,2072.576638,-6439.791695,3677.258390
153.613363,3256.906145,-6069.688724,2451.505594
153.613684,2960.823768,-5551.544565,536.266849
153.614006,1480.411884,-5329.482782,-1302.362347
153.614328,1184.329507,-7105.977043,-2451.505594
153.614650,888.247130,-9030.512492,-4136.915689
153.614972,296.082377,-9918.759623,-5439.278036
153.615294,-222.061783,-10362.883188,-4903.011187
153.615616,-1258.350101,-10436.903782,-4596.572988
153.615938,-1110.308913,-10807.006753,-6052.154434
153.616260,-1406.391290,-11177.109724,-6971.469032
153.616582,-1924.535449,-11177.109724,-5669.106685
153.616903,-2960.823768,-11251.130318,-3370.820191
153.617225,-3997.112087,-10955.047942,-1915.238745
153.617547,-4515.256246,-10807.006753,-689.485948
153.617869,-5329.482782,-10732.986159,0.000000
153.618191,-5107.421000,-10510.924376,842.705048
153.618513,-4219.173869,-10140.821405,1302.362347
153.618835,-2664.741391,-9696.697840,1685.410096
153.619157,-1184.329507,-8586.388927,2681.334243
153.619479,814.226536,-8364.327145,2834.553343
153.619801,2664.741391,-7846.182985,2145.067394
153.620122,4071.132681,-7179.997637,76.609550
153.620444,4737.318029,-7179.997637,-1149.143247
153.620766,5255.462188,-7920.203579,-2757.943793
153.621088,5033.400406,-9252.574275,-3677.258390
153.621410,3923.091493,-10510.924376,-4749.792088
153.621732,2146.597232,-11473.192101,-5362.668486
153.622054,592.164754,-11621.233289,-5515.887586
153.622376,-370.102971,-11991.336260,-6435.202183
153.622698,-814.226536,-12065.356855,-6818.249932
153.623020,-1924.535449,-11325.150913,-5898.935335
153.623341,-2960.823768,-10584.944971,-4290.134789
153.623663,-3404.947333,-10066.800811,-2374.896044
153.623985,-3849.070898,-9844.739029,-1149.143247
153.624307,-4663.297435,-9548.656652,306.438199
153.624629,-5033.400406,-9548.656652,1225.752797
153.624951,-4515.256246,-9696.697840,2451.505594
153.625273,-2516.700203,-9252.574275,3140.991542
153.625595,148.041188,-8438.347739,3677.258390
153.625917,2442.679609,-6809.894666,4136.915689
153.626239,3849.070898,-5329.482782,4519.963438
153.626560,5033.400406,-5033.400406,3524.039291
153.626882,5477.523971,-5255.462188,2145.067394
153.627204,4219.173869,-5255.462188,995.924147
153.627526,2294.638420,-5847.626942,-612.876398
153.627848,1406.391290,-7772.162391,-3447.429741
153.628170,-148.041188,-9326.594869,-5056.230287
153.628492,-2294.638420,-10140.821405,-5515.887586
153.628814,-3108.864956,-11325.150913,-5209.449386
153.629136,-2812.782580,-12139.377449,-4903.011187
153.629458,-2294.638420,-12731.542202,-6435.202183
153.629779,-2738.761985,-12361.439231,-5898.935335
153.630101,-2664.741391,-12139.377449,-3677.258390
153.630423,-2294.638420,-10807.006753,-2145.067394
153.630745,-2294.638420,-9992.780217,-1762.019645
153.631067,-2516.700203,-9770.718434,-383.047749
153.631389,-3330.926739,-9918.759623,1225.752797
153.631711,-3552.988522,-9474.636058,1378.971896
153.632033,-2886.803174,-9252.574275,1302.362347
153.632355,-1776.494261,-8882.471304,2374.896044
153.632677,-518.144159,-7550.100608,2451.505594
153.632998,444.123565,-6735.874072,1685.410096
153.633320,2368.659014,-6735.874072,766.095498
153.633642,3256.906145,-6661.853478,-459.657299
153.633964,3256.906145,-7624.121203,-2068.457845
153.634286,2516.700203,-9400.615463,-3064.381992
153.634608,2146.597232,-10214.842000,-4903.011187
153.634930,1406.391290,-12065.356855,-6052.154434
153.635252,1184.329507,-13175.665768,-6281.983084
153.635574,1332.370696,-13027.624579,-5669.106685
153.635896,1702.473667,-11769.274478,-6128.763984
153.636217,1850.514855,-10658.965565,-5592.497135
153.636539,1850.514855,-10214.842000,-3907.087040
153.636861,518.144159,-8882.471304,-2681.334243
153.637183,-740.205942,-8216.285956,-2068.457845
153.637505,-2072.576638,-8808.450710,-766.095498
153.637827,-3627.009116,-9252.574275,1225.752797
153.638149,-4737.318029,-8882.471304,2068.457845
153.638471,-4515.256246,-9104.533087,2221.676944
153.638793,-2738.761985,-9400.615463,3217.601092
153.639115,-1332.370696,-8216.285956,3524.039291
153.639436,296.082377,-7105.977043,3600.648841
153.639758,2368.659014,-6069.688724,3370.820191
153.640080,2960.823768,-5477.523971,1838.629195
153.640402,2886.803174,-5699.585753,459.657299
153.640724,2442.679609,-6513.812290,-919.314598
153.641046,1554.432478,-8068.244768,-2604.724693
153.641368,592.164754,-9696.697840,-4596.572988
153.641690,-592.164754,-9992.780217,-4903.011187
153.642012,-1406.391290,-10955.047942,-4903.011187
153.642334,-1332.370696,-10807.006753,-5515.887586
153.642655,-666.185348,-10732.986159,-6128.763984
153.642977,-740.205942,-10881.027347,-5975.544884
153.643299,-1776.494261,-10732.986159,-4366.744339
153.643621,-2960.823768,-10140.821405,-2528.115143
153.643943,-4367.215058,-10436.903782,-1915.238745
153.644265,-5403.503377,-10658.965565,-1302.362347
153.644587,-6143.709319,-11103.089130,-306.438199
153.644909,-6439.791695,-11029.068536,383.047749
153.645231,-6069.688724,-10807.006753,842.705048
153.645553,-3849.070898,-10658.965565,2298.286494
153.645874,-1702.473667,-9474.636058,2834.553343
153.646196,1110.308913,-8290.306550,2911.162892
153.646518,3627.009116,-7476.080014,1608.800546
153.646840,4959.379811,-6587.832884,689.485948
153.647162,5255.462188,-6883.915261,-306.438199
153.647484,4959.379811,-7846.182985,-1302.362347
153.647806,4663.297435,-9400.615463,-2834.553343
153.648128,3404.947333,-11029.068536,-4596.572988
153.648450,2294.638420,-11769.274478,-5209.449386
153.648772,962.267725,-11621.233289,-5056.230287
153.649093,740.205942,-11399.171507,-5592.497135
153.649415,518.144159,-10955.047942,-5592.497135
153.649737,-666.185348,-10214.842000,-4366.744339
153.650059,-2368.659014,-9622.677246,-2987.772442
153.650381,-4071.132681,-9252.574275,-2374.896044
153.650703,-4885.359217,-9918.759623,-1685.410096
153.651025,-5551.544565,-10140.821405,-536.266849
153.651347,-5995.668130,-9918.759623,1072.533697
153.651669,-4589.276840,-9622.677246,2834.553343
153.651991,-2072.576638,-9178.553681,3830.477490
153.652312,888.247130,-7994.224174,3217.601092
153.652634,3182.885551,-6661.853478,3830.477490
153.652956,4885.359217,-6069.688724,3907.087040
153.653278,5773.606348,-5329.482782,3064.381992
153.653600,5329.482782,-5181.441594,1838.629195
153.653922,3552.988522,-5107.421000,0.000000
153.654244,2146.597232,-6587.832884,-1685.410096
153.654566,370.102971,-7772.162391,-4366.744339
153.654888,-962.267725,-9252.574275,-5822.325785
153.655210,-2294.638420,-9918.759623,-4979.620737
153.655531,-2368.659014,-10955.047942,-5822.325785
153.655853,-2146.597232,-12213.398043,-6281.983084
153.656175,-1776.494261,-12731.542202,-6281.983084
153.656497,-2146.597232,-12953.603985,-4903.011187
153.656819,-2368.659014,-12361.439231,-3370.820191
153.657141,-2590.720797,-11177.109724,-2528.115143
153.657463,-2886.803174,-10732.986159,-1991.848295
153.657785,-3478.967927,-10140.821405,0.000000
153.658107,-4145.153275,-9178.553681,842.705048
153.658429,-3404.947333,-8586.388927,766.095498
153.658750,-2294.638420,-8586.388927,689.485948
153.659072,-1332.370696,-8438.347739,2145.067394
153.659394,-1332.370696,-7550.100608,2528.115143
153.659716,222.061783,-7476.080014,1532.190996
153.660038,1998.556043,-7402.059420,153.219100
153.660360,2590.720797,-7254.018232,-919.314598
153.660682,2368.659014,-8364.327145,-1991.848295
153.661004,1702.473667,-9770.718434,-3064.381992
153.661326,1776.494261,-11029.068536,-4826.401637
153.661647,1406.391290,-11917.315666,-6128.763984
153.661969,1332.370696,-12953.603985,-6435.202183
153.662291,1776.494261,-12657.521608,-5822.325785
153.662613,2738.761985,-11325.150913,-6128.763984
153.662935,2960.823768,-10584.944971,-5056.230287
153.663257,2960.823768,-10362.883188,-3294.210641
153.663579,1332.370696,-9030.512492,-2145.067394
153.663901,-666.185348,-8734.430116,-1149.143247
153.664223,-2294.638420,-9030.512492,306.438199
153.664545,-3849.070898,-9474.636058,1532.190996
153.664866,-4515.256246,-8808.450710,2145.067394
153.665188,-3552.988522,-8512.368333,2681.334243
153.665510,-1850.514855,-8438.347739,3294.210641
153.665832,-222.061783,-7920.203579,3983.696590
153.666154,1258.350101,-7105.977043,4366.744339
153.666476,2664.741391,-6661.853478,2987.772442
153.666798,3108.864956,-5921.647536,1762.019645
153.667120,2664.741391,-5921.647536,842.705048
153.667442,1554.432478,-6365.771101,-1225.752797
153.667764,296.082377,-7105.977043,-3294.210641
153.668085,296.082377,-8586.388927,-4979.620737
153.668407,-222.061783,-9992.780217,-5822.325785
153.668729,-962.267725,-10584.944971,-5439.278036
153.669051,-962.267725,-11251.130318,-5592.497135
153.669373,-592.164754,-11177.109724,-5822.325785
153.669695,-592.164754,-11843.295072,-5515.887586
153.670017,-1998.556043,-11695.253884,-4596.572988
153.670339,-3849.070898,-11251.130318,-3447.429741
153.670661,-5033.400406,-11029.068536,-2451.505594
153.670983,-5699.585753,-10881.027347,-1072.533697
153.671304,-5995.668130,-10732.986159,0.000000
153.671626,-6069.688724,-10362.883188,1225.752797
153.671948,-4663.297435,-10066.800811,1991.848295
153.672270,-2590.720797,-9622.677246,2374.896044
153.672592,-740.205942,-8734.430116,2987.772442
153.672914,1702.473667,-7624.121203,1838.629195
153.673236,2960.823768,-7476.080014,1302.362347
153.673558,4367.215058,-7105.977043,0.000000
153.673880,4589.276840,-7402.059420,-995.924147
153.674202,4219.173869,-8438.347739,-1915.238745
153.674523,3923.091493,-9178.553681,-3064.381992
153.674845,3256.906145,-10510.924376,-5286.058936
153.675167,1628.453072,-11621.233289,-6052.154434
153.675489,444.123565,-11769.274478,-6052.154434
153.675811,-592.164754,-11103.089130,-5975.544884
153.676133,-1406.391290,-10658.965565,-5975.544884
153.676455,-1850.514855,-10881.027347,-4673.182538
153.676777,-3701.029710,-10510.924376,-4136.915689
153.677099,-4885.359217,-10288.862594,-2374.896044
153.677421,-5255.462188,-9992.780217,-766.095498
153.677742,-5107.421000,-9178.553681,995.924147
153.678064,-4515.256246,-8216.285956,1762.019645
153.678386,-2738.761985,-8438.347739,2681.334243
153.678708,-814.226536,-8364.327145,3524.039291
153.679030,1258.350101,-7698.141797,4290.134789
153.679352,3552.988522,-6957.935855,4673.182538
153.679674,5255.462188,-5921.647536,4290.134789
153.679996,6735.874072,-5625.565159,3447.429741
153.680318,6143.709319,-5329.482782,1838.629195
153.680640,4589.276840,-5921.647536,689.485948
153.680961,3108.864956,-6809.894666,-1685.410096
153.681283,1480.411884,-7402.059420,-4596.572988
153.681605,-592.164754,-8586.388927,-5822.325785
153.681927,-2368.659014,-10658.965565,-5745.716235
153.682249,-3330.926739,-11917.315666,-5822.325785
153.682571,-3182.885551,-13027.624579,-6665.030833
153.682893,-2812.782580,-13545.768739,-6511.811733
153.683215,-2516.700203,-13397.727550,-4903.011187
153.683537,-2812.782580,-11917.315666,-3370.820191
153.683859,-2516.700203,-10510.924376,-2911.162892
153.684180,-2072.576638,-9918.759623,-1915.238745
153.684502,-2368.659014,-9696.697840,-306.438199
153.684824,-2812.782580,-8956.491898,1072.533697
153.685146,-2886.803174,-9030.512492,1072.533697
153.685468,-1850.514855,-9474.636058,1608.800546
153.685790,-888.247130,-9326.594869,2221.676944
153.686112,148.041188,-8216.285956,1608.800546
153.686434,2146.597232,-7698.141797,766.095498
153.686756,3404.947333,-7402.059420,306.438199
153.687078,3330.926739,-7846.182985,-995.924147
153.687399,2886.803174,-8956.491898,-1838.629195
153.687721,2664.741391,-9918.759623,-3907.087040
153.688043,2072.576638,-11399.171507,-6052.154434
153.688365,1554.432478,-12805.562797,-6128.763984
153.688687,1258.350101,-12805.562797,-5439.278036
153.689009,1258.350101,-11843.295072,-5515.887586
153.689331,2220.617826,-11103.089130,-5592.497135
153.689653,2368.659014,-11029.068536,-4519.963438
153.689975,1110.308913,-9474.636058,-2834.553343
153.690297,-518.144159,-7994.224174,-2221.676944
153.690618,-1554.432478,-7994.224174,-995.924147
153.690940,-2812.782580,-8734.430116,-229.828649
153.691262,-4663.297435,-8660.409521,995.924147
153.691584,-5403.503377,-8882.471304,2221.676944
153.691906,-4811.338623,-9326.594869,3294.210641
153.692228,-4071.132681,-9548.656652,3907.087040
153.692550,-2442.679609,-8438.347739,3830.477490
153.692872,-148.041188,-6809.894666,2987.772442
153.693194,1776.494261,-5329.482782,2374.896044
153.693516,2368.659014,-4737.318029,2145.067394
153.693837,2368.659014,-4959.379811,766.095498
153.694159,1924.535449,-5995.668130,-1225.752797
153.694481,1850.514855,-7402.059420,-3370.820191
153.694803,1036.288319,-9622.677246,-4749.792088
153.695125,-148.041188,-11029.068536,-4443.353888
153.695447,-740.205942,-10288.862594,-4596.572988
153.695769,-518.144159,-10066.800811,-5286.058936
153.696091,222.061783,-10807.006753,-6281.983084
153.696413,-370.102971,-10955.047942,-5515.887586
153.696735,-1924.535449,-10584.944971,-4290.134789
153.697056,-4145.153275,-10066.800811,-2451.505594
153.697378,-4959.379811,-10584.944971,-2068.457845
153.697700,-5403.503377,-11103.089130,-995.924147
153.698022,-6217.729913,-10955.047942,76.609550
153.698344,-6069.688724,-10584.944971,1225.752797
153.698666,-4441.235652,-10288.862594,1608.800546
153.698988,-2738.761985,-9548.656652,1532.190996
153.699310,-962.267725,-8808.450710,2528.115143
153.699632,814.226536,-7624.121203,2528.115143
153.699954,2886.803174,-7402.059420,1225.752797
153.700275,4589.276840,-7328.038826,0.000000
153.700597,5107.421000,-7698.141797,-919.314598
153.700919,5403.503377,-8586.388927,-2681.334243
153.701241,4737.318029,-9770.718434,-4060.306139
153.701563,2960.823768,-11103.089130,-4519.963438
153.701885,1480.411884,-11547.212695,-5515.887586
153.702207,444.123565,-11843.295072,-6971.469032
153.702529,296.082377,-11843.295072,-6205.373534
153.702851,-444.123565,-11473.192101,-5669.106685
153.703173,-1850.514855,-10436.903782,-4443.353888
153.703494,-2812.782580,-9622.677246,-2834.553343
153.703816,-3701.029710,-9622.677246,-1915.238745
153.704138,-4811.338623,-9474.636058,-766.095498
153.704460,-5107.421000,-10066.800811,229.828649
153.704782,-5551.544565,-9992.780217,1838.629195
153.705104,-4219.173869,-10140.821405,3064.381992
153.705426,-1628.453072,-9622.677246,3217.601092
153.705748,888.247130,-8068.244768,3907.087040
153.706070,3775.050304,-6587.832884,3907.087040
153.706392,5995.668130,-5625.565159,2911.162892
153.706713,7179.997637,-5181.441594,2221.676944
153.707035,6217.729913,-5255.462188,1532.190996
153.707357,4367.215058,-6069.688724,536.266849
153.707679,2442.679609,-7179.997637,-2145.067394
153.708001,148.041188,-8586.388927,-5132.839837
153.708323,-1850.514855,-9770.718434,-6435.202183
153.708645,-3330.926739,-11103.089130,-6358.592633
153.708967,-3627.009116,-11769.274478,-5362.668486
153.709289,-3404.947333,-11251.130318,-5592.497135
153.709611,-2368.659014,-11695.253884,-5439.278036
153.709932,-1924.535449,-11769.274478,-4213.525239
153.710254,-2738.761985,-10881.027347,-2604.724693
153.710576,-3256.906145,-10436.903782,-1685.410096
153.710898,-3256.906145,-9918.759623,-995.924147
153.711220,-3627.009116,-9548.656652,383.047749
153.711542,-3849.070898,-8808.450710,612.876398
153.711864,-3182.885551,-9030.512492,842.705048
153.712186,-2146.597232,-9474.636058,2068.457845
153.712508,-962.267725,-9030.512492,2528.115143
153.712829,74.020594,-7994.224174,2451.505594
153.713151,2294.638420,-7328.038826,1225.752797
153.713473,3182.885551,-6809.894666,-153.219100
153.713795,2960.823768,-7031.956449,-1225.752797
153.714117,2738.761985,-8512.368333,-2068.457845
153.714439,1998.556043,-9474.636058,-3753.867940
153.714760,1480.411884,-10807.006753,-4979.620737
153.715082,962.267725,-12583.501014,-5515.887586
153.715404,814.226536,-13175.665768,-5209.449386
153.715726,1258.350101,-12139.377449,-5362.668486
153.716048,2072.576638,-10732.986159,-5592.497135
153.716370,2220.617826,-9844.739029,-4673.182538
153.716691,1036.288319,-9326.594869,-3140.991542
153.717013,-1110.308913,-8290.306550,-1991.848295
153.717335,-2664.741391,-8660.409521,-1685.410096
153.717657,-4145.153275,-9696.697840,-766.095498
153.717979,-4885.359217,-10066.800811,383.047749
153.718300,-5551.544565,-10214.842000,2451.505594
153.718622,-4589.276840,-10066.800811,3677.258390
153.718944,-2516.700203,-9400.615463,4060.306139
153.719266,-148.041188,-7994.224174,3064.381992
153.719588,2442.679609,-6513.812290,2757.943793
153.719910,3552.988522,-5403.503377,2068.457845
153.720231,3701.029710,-6069.688724,1838.629195
153.720553,3552.988522,-6661.853478,1149.143247
153.720875,2812.782580,-6957.935855,-1149.143247
153.721197,1998.556043,-7772.162391,-3753.867940
153.721519,666.185348,-9400.615463,-5056.230287
153.721840,74.020594,-10658.965565,-5209.449386
153.722162,-148.041188,-10436.903782,-5439.278036
153.722484,444.123565,-10362.883188,-5209.449386
153.722806,1332.370696,-10955.047942,-4903.011187
153.723128,0.000000,-10436.903782,-3753.867940
153.723450,-1628.453072,-10584.944971,-3370.820191
153.723771,-4367.215058,-10584.944971,-2068.457845
153.724093,-5625.565159,-11029.068536,-1302.362347
153.724415,-6735.874072,-11029.068536,-766.095498
153.724737,-7328.038826,-10288.862594,459.657299
153.725059,-6439.791695,-9770.718434,1225.752797
153.725380,-4737.318029,-9770.718434,1608.800546
153.725702,-2886.803174,-9474.636058,1915.238745
153.726024,-888.247130,-8808.450710,2451.505594
153.726346,1258.350101,-7920.203579,1685.410096
153.726668,3478.967927,-7254.018232,459.657299
153.726990,4441.235652,-7105.977043,-766.095498
153.727311,4663.297435,-7772.162391,-1991.848295
153.727633,4145.153275,-9104.533087,-3217.601092
153.727955,3330.926739,-10362.883188,-4519.963438
153.728277,2294.638420,-11621.233289,-4903.011187
153.728599,1702.473667,-12583.501014,-5745.716235
153.728921,1628.453072,-12361.439231,-6128.763984
153.729242,1332.370696,-11103.089130,-5975.544884
153.729564,1036.288319,-9992.780217,-5362.668486
153.729886,-666.185348,-9474.636058,-3907.087040
153.730208,-2368.659014,-9992.780217,-2528.115143
153.730530,-4737.318029,-9696.697840,-1685.410096
153.730851,-5477.523971,-10066.800811,-612.876398
153.731173,-5699.585753,-10140.821405,842.705048
153.731495,-4885.359217,-9622.677246,2221.676944
153.731817,-2812.782580,-9178.553681,2757.943793
153.732139,-444.123565,-8216.285956,3677.258390
153.732461,1924.535449,-7328.038826,3830.477490
153.732782,4071.132681,-6661.853478,3524.039291
153.733104,5181.441594,-5921.647536,2987.772442
153.733426,4959.379811,-5181.441594,2681.334243
153.733748,3256.906145,-5773.606348,919.314598
153.734070,1702.473667,-7031.956449,-383.047749
153.734391,74.020594,-7328.038826,-3140.991542
153.734713,-888.247130,-8142.265362,-5439.278036
153.735035,-1998.556043,-9104.533087,-6128.763984
153.735357,-2442.679609,-9844.739029,-5898.935335
153.735679,-3552.988522,-10362.883188,-5286.058936
153.736001,-2960.823768,-11251.130318,-5515.887586
153.736322,-2812.782580,-12361.439231,-4979.620737
153.736644,-3108.864956,-12805.562797,-3907.087040
153.736966,-3034.844362,-11843.295072,-2911.162892
153.737288,-2294.638420,-10584.944971,-1991.848295
153.737610,-1702.473667,-10288.862594,-612.876398
153.737931,-1702.473667,-9548.656652,1149.143247
153.738253,-2146.597232,-8882.471304,1991.848295
153.738575,-1850.514855,-8956.491898,2221.676944
153.738897,-962.267725,-8364.327145,1838.629195
153.739219,-592.164754,-8438.347739,2068.457845
153.739541,518.144159,-7994.224174,1762.019645
153.739862,2294.638420,-7550.100608,1072.533697
153.740184,3256.906145,-7772.162391,459.657299
153.740506,3627.009116,-8660.409521,0.000000
153.740828,3182.885551,-9104.533087,-2068.457845
153.741150,2812.782580,-10362.883188,-4290.134789
153.741472,1850.514855,-11399.171507,-5822.325785
153.741793,962.267725,-12361.439231,-6358.592633
153.742115,370.102971,-11991.336260,-6205.373534
153.742437,1036.288319,-11325.150913,-6281.983084
153.742759,1480.411884,-11473.192101,-5745.716235
153.743081,1554.432478,-11621.233289,-4673.182538
153.743402,518.144159,-10436.903782,-3294.210641
153.743724,-814.226536,-9252.574275,-2221.676944
153.744046,-1480.411884,-8586.388927,-1378.971896
153.744368,-2294.638420,-9178.553681,-459.657299
153.744690,-3775.050304,-9252.574275,1225.752797
153.745012,-4737.318029,-9252.574275,2681.334243
153.745333,-3775.050304,-9326.594869,3677.258390
153.745655,-1776.494261,-8882.471304,2911.162892
153.745977,1110.308913,-8068.244768,3140.991542
153.746299,3256.906145,-6883.915261,3140.991542
153.746621,4293.194464,-5773.606348,2911.162892
153.746942,4441.235652,-5699.585753,2451.505594
153.747264,3330.926739,-6069.688724,842.705048
153.747586,2146.597232,-5699.585753,-1762.019645
153.747908,370.102971,-7179.997637,-4519.963438
153.748230,-592.164754,-9474.636058,-5822.325785
153.748552,-1480.411884,-10436.903782,-5822.325785
153.748873,-1628.453072,-10362.883188,-5822.325785
153.749195,-962.267725,-10584.944971,-5515.887586
153.749517,-592.164754,-11843.295072,-5362.668486
153.749839,-2146.597232,-11843.295072,-5209.449386
153.750161,-4219.173869,-11029.068536,-4443.353888
153.750482,-5329.482782,-11103.089130,-3064.381992
153.750804,-5995.668130,-10584.944971,-2068.457845
153.751126,-7105.977043,-10436.903782,-766.095498
153.751448,-6735.874072,-10732.986159,536.266849
153.751770,-5995.668130,-10436.903782,1455.581446
153.752092,-3997.112087,-10436.903782,1762.019645
153.752413,-2220.617826,-9548.656652,2451.505594
153.752735,0.000000,-8216.285956,3677.258390
153.753057,1924.535449,-6957.935855,1915.238745
153.753379,3775.050304,-6735.874072,612.876398
153.753701,4811.338623,-6809.894666,-229.828649
153.754023,4959.379811,-7698.141797,-1225.752797
153.754344,4515.256246,-9326.594869,-2374.896044
153.754666,3552.988522,-10881.027347,-3217.601092
153.754988,2442.679609,-12361.439231,-5209.449386
153.755310,2072.576638,-12287.418637,-6435.202183
153.755632,1406.391290,-11547.212695,-6511.811733
153.755953,444.123565,-10066.800811,-5822.325785
153.756275,-1184.329507,-9252.574275,-4979.620737
153.756597,-2886.803174,-9622.677246,-4290.134789
153.756919,-4441.235652,-10066.800811,-3294.210641
153.757241,-5329.482782,-10732.986159,-1991.848295
153.757563,-6143.709319,-10436.903782,-459.657299
153.757884,-5921.647536,-9992.780217,1762.019645
153.758206,-4663.297435,-8808.450710,2221.676944
153.758528,-2516.700203,-8438.347739,2528.115143
153.758850,74.020594,-7994.224174,3600.648841
153.759172,2072.576638,-6883.915261,4443.353888
153.759493,4145.153275,-5773.606348,4213.525239
153.759815,5921.647536,-5329.482782,3677.258390
153.760137,6513.812290,-5477.523971,2604.724693
153.760459,5403.503377,-5921.647536,1991.848295
153.760781,3849.070898,-6291.750507,-229.828649
153.761103,2368.659014,-6587.832884,-3294.210641
153.761424,888.247130,-7476.080014,-5439.278036
153.761746,-888.247130,-9326.594869,-6588.421283
153.762068,-2516.700203,-10955.047942,-5209.449386
153.762390,-2886.803174,-11917.315666,-5056.230287
153.762712,-2590.720797,-12435.459826,-5898.935335
153.763033,-1924.535449,-12879.583391,-5132.839837
153.763355,-2294.638420,-12583.501014,-3830.477490
153.763677,-2738.761985,-11547.212695,-2451.505594
153.763999,-2664.741391,-10436.903782,-1685.410096
153.764321,-2368.659014,-10066.800811,-383.047749
153.764643,-2664.741391,-9622.677246,306.438199
153.764964,-2294.638420,-9400.615463,612.876398
153.765286,-2146.597232,-9326.594869,1149.143247
153.765608,-1850.514855,-9474.636058,2068.457845
153.765930,-962.267725,-8882.471304,2451.505594
153.766252,666.185348,-8068.244768,1225.752797
153.766574,2368.659014,-7179.997637,0.000000
153.766895,2960.823768,-7105.977043,-536.266849
153.767217,2960.823768,-8438.347739,-1608.800546
153.767539,2442.679609,-9696.697840,-2757.943793
153.767861,2368.659014,-10732.986159,-4596.572988
153.768183,1554.432478,-11843.295072,-6205.373534
153.768504,666.185348,-13027.624579,-6128.763984
153.768826,740.205942,-13101.645173,-5745.716235
153.769148,1258.350101,-12065.356855,-5975.544884
153.769470,2072.576638,-11251.130318,-5745.716235
153.769792,2294.638420,-10658.965565,-3983.696590
153.770114,814.226536,-8438.347739,-2451.505594
153.770435,-962.267725,-7624.121203,-1915.238745
153.770757,-2220.617826,-8438.347739,-1225.752797
153.771079,-3701.029710,-9474.636058,0.000000
153.771401,-5329.482782,-9770.718434,1685.410096
153.771723,-5625.565159,-9326.594869,2987.772442
153.772044,-4071.132681,-9844.739029,3447.429741
153.772366,-2146.597232,-9400.615463,3753.867940
153.772688,-222.061783,-7624.121203,3830.477490
153.773010,1332.370696,-5847.626942,2911.162892
153.773332,2664.741391,-4663.297435,2374.896044
153.773654,2664.741391,-4145.153275,1838.629195
153.773975,2368.659014,-5403.503377,536.266849
153.774297,1776.494261,-6661.853478,-1762.019645
153.774619,1184.329507,-8142.265362,-3524.039291
153.774941,222.061783,-9696.697840,-4366.744339
153.775263,-740.205942,-10436.903782,-4519.963438
153.775584,-814.226536,-9844.739029,-4749.792088
153.775906,-666.185348,-9622.677246,-5975.544884
153.776228,-962.267725,-10362.883188,-5975.544884
153.776550,-2072.576638,-11325.150913,-4979.620737
153.776872,-3849.070898,-10881.027347,-3524.039291
153.777194,-4811.338623,-10881.027347,-2374.896044
153.777515,-5181.441594,-11251.130318,-1685.410096
153.777837,-5255.462188,-11325.150913,-689.485948
153.778159,-5477.523971,-10658.965565,766.095498
153.778481,-4885.359217,-9622.677246,1762.019645
153.778803,-3108.864956,-9622.677246,2298.286494
153.779124,-592.164754,-9474.636058,2068.457845
153.779446,444.123565,-8882.471304,2604.724693
153.779768,2072.576638,-7846.182985,2298.286494
153.780090,3997.112087,-7179.997637,842.705048
153.780412,5033.400406,-7105.977043,-229.828649
153.780734,5551.544565,-7698.141797,-2068.457845
153.781055,5329.482782,-8882.471304,-2911.162892
153.781377,3997.112087,-10436.903782,-4366.744339
153.781699,2368.659014,-11843.295072,-5439.278036
153.782021,666.185348,-12213.398043,-6435.202183
153.782343,74.020594,-11843.295072,-6818.249932
153.782665,-222.061783,-11991.336260,-6894.859482
153.782986,-1184.329507,-11695.253884,-6358.592633
153.783308,-2516.700203,-11251.130318,-4903.011187
153.783630,-3775.050304,-10584.944971,-3294.210641
153.783952,-4663.297435,-10214.842000,-1685.410096
153.784274,-4737.318029,-10436.903782,-766.095498
153.784595,-5033.400406,-9696.697840,1072.533697
153.784917,-4145.153275,-9030.512492,2298.286494
153.785239,-1998.556043,-8586.388927,2911.162892
153.785561,518.144159,-8438.347739,3447.429741
153.785883,2220.617826,-7105.977043,4366.744339
153.786205,3627.009116,-5773.606348,4673.182538
153.786526,5107.421000,-5107.421000,3830.477490
153.786848,5477.523971,-4959.379811,2374.896044
153.787170,4293.194464,-4737.318029,1455.581446
153.787492,2590.720797,-5403.503377,-306.438199
153.787814,888.247130,-6957.935855,-3140.991542
153.788135,-222.061783,-8808.450710,-5132.839837
153.788457,-1850.514855,-9622.677246,-5898.935335
153.788779,-3182.885551,-10584.944971,-5132.839837
153.789101,-3256.906145,-11621.233289,-5362.668486
153.789423,-2886.803174,-12139.377449,-6128.763984
153.789745,-3034.844362,-12509.480420,-5745.716235
153.790066,-3108.864956,-12287.418637,-3677.258390
153.790388,-2960.823768,-10881.027347,-2451.505594
153.790710,-2960.823768,-10288.862594,-1838.629195
153.791032,-2886.803174,-9918.759623,0.000000
153.791354,-3627.009116,-9548.656652,1685.410096
153.791675,-3552.988522,-8734.430116,1838.629195
153.791997,-2738.761985,-8660.409521,1608.800546
153.792319,-1850.514855,-8734.430116,2681.334243
153.792641,-592.164754,-8068.244768,2987.772442
153.792963,370.102971,-7105.977043,2145.067394
153.793285,2442.679609,-7476.080014,1455.581446
153.793606,3404.947333,-7550.100608,0.000000
153.793928,3478.967927,-8586.388927,-1378.971896
153.794250,3108.864956,-9992.780217,-2757.943793
153.794572,2886.803174,-10288.862594,-5132.839837
153.794894,1998.556043,-11991.336260,-6205.373534
153.795216,1480.411884,-12805.562797,-6281.983084
153.795537,1480.411884,-12953.603985,-5975.544884
153.795859,1776.494261,-12139.377449,-6511.811733
153.796181,2590.720797,-11843.295072,-6665.030833
153.796503,2146.597232,-11029.068536,-4519.963438
153.796825,962.267725,-9770.718434,-2528.115143
153.797146,-814.226536,-9104.533087,-1915.238745
153.797468,-2294.638420,-9104.533087,-919.314598
153.797790,-3775.050304,-9474.636058,612.876398
153.798112,-4737.318029,-9252.574275,1991.848295
153.798434,-4515.256246,-8290.306550,2451.505594
153.798756,-2664.741391,-8068.244768,2834.553343
153.799077,-740.205942,-7994.224174,3907.087040
153.799399,814.226536,-7105.977043,3830.477490
153.799721,2294.638420,-6291.750507,3217.601092
153.800043,3034.844362,-6143.709319,2451.505594
153.800365,2886.803174,-6291.750507,1455.581446
153.800686,1776.494261,-6661.853478,0.000000
153.801008,1110.308913,-6883.915261,-2528.115143
153.801330,1110.308913,-7624.121203,-4903.011187
153.801652,222.061783,-9104.533087,-6205.373534
153.801974,0.000000,-9696.697840,-6052.154434
153.802296,-370.102971,-10066.800811,-5975.544884
153.802617,-222.061783,-10732.986159,-6588.421283
153.802939,0.000000,-11917.315666,-6052.154434
153.803261,-1258.350101,-11547.212695,-4903.011187
153.803583,-2886.803174,-11621.233289,-3600.648841
153.803905,-4441.235652,-11177.109724,-2681.334243
153.804226,-5477.523971,-11103.089130,-1532.190996
153.804548,-6291.750507,-10584.944971,-459.657299
153.804870,-6439.791695,-9844.739029,766.095498
153.805192,-5329.482782,-9104.533087,1608.800546
153.805514,-3182.885551,-9030.512492,2145.067394
153.805836,-1480.411884,-8734.430116,2451.505594
153.806157,74.020594,-8290.306550,3217.601092
153.806479,2072.576638,-7846.182985,2451.505594
153.806801,3775.050304,-7772.162391,0.000000
153.807123,4589.276840,-7624.121203,-1302.362347
153.807445,4071.132681,-7772.162391,-2145.067394
153.807767,3701.029710,-9178.553681,-2987.772442
153.808088,3108.864956,-10955.047942,-4979.620737
153.808410,2220.617826,-12065.356855,-6205.373534
153.808732,1258.350101,-12731.542202,-6435.202183
153.809054,0.000000,-12065.356855,-5822.325785
153.809376,-666.185348,-12287.418637,-6128.763984
153.809697,-1628.453072,-11695.253884,-5898.935335
153.810019,-3034.844362,-11029.068536,-4749.792088
153.810341,-4441.235652,-10214.842000,-3064.381992
153.810663,-5329.482782,-10362.883188,-1225.752797
153.810985,-5921.647536,-9918.759623,76.609550
153.811307,-5625.565159,-8956.491898,1762.019645
153.811628,-3775.050304,-8882.471304,2987.772442
153.811950,-1332.370696,-8142.265362,3983.696590
153.812272,444.123565,-7402.059420,5209.449386
153.812594,2738.761985,-6439.791695,5745.716235
153.812916,4663.297435,-5625.565159,4903.011187
153.813237,6069.688724,-4885.359217,3140.991542
153.813559,6143.709319,-4737.318029,2451.505594
153.813881,4959.379811,-5107.421000,1378.971896
153.814203,3552.988522,-6587.832884,-842.705048
153.814525,2294.638420,-7550.100608,-3524.039291
153.814847,444.123565,-8734.430116,-5362.668486
153.815168,-1480.411884,-10436.903782,-5209.449386
153.815490,-3256.906145,-11769.274478,-5056.230287
153.815812,-3404.947333,-12139.377449,-5975.544884
153.816134,-3256.906145,-11917.315666,-6511.811733
153.816456,-3108.864956,-11917.315666,-4979.620737
153.816777,-3404.947333,-11177.109724,-2911.162892
153.817099,-3330.926739,-10140.821405,-1991.848295
153.817421,-3034.844362,-9844.739029,-612.876398
153.817743,-2738.761985,-9844.739029,229.828649
153.818065,-2960.823768,-9474.636058,995.924147
153.818386,-3256.906145,-8882.471304,1762.019645
153.818708,-2442.679609,-8364.327145,1915.238745
153.819030,-814.226536,-8512.368333,2451.505594
153.819352,370.102971,-8068.244768,1072.533697
153.819674,1924.535449,-7476.080014,689.485948
153.819995,2960.823768,-7846.182985,0.000000
153.820317,3404.947333,-9474.636058,-612.876398
153.820639,3182.885551,-10584.944971,-1378.971896
153.820961,2812.782580,-10288.862594,-3983.696590
153.821283,2590.720797,-11029.068536,-5745.716235
153.821604,2516.700203,-12657.521608,-6435.202183
153.821926,1554.432478,-12435.459826,-6052.154434
153.822248,1480.411884,-10955.047942,-6052.154434
153.822570,2294.638420,-10658.965565,-6511.811733
153.822892,2812.782580,-11621.233289,-5439.278036
153.823213,1776.494261,-10955.047942,-4213.525239
153.823535,0.000000,-9548.656652,-2528.115143
153.823857,-962.267725,-9030.512492,-1685.410096
153.824179,-1480.411884,-9548.656652,-2068.457845
153.824501,-2886.803174,-9474.636058,153.219100
153.824823,-4737.318029,-8808.450710,1838.629195
153.825144,-4589.276840,-8586.388927,2451.505594
153.825466,-3108.864956,-8808.450710,2681.334243
153.825788,-1998.556043,-8364.327145,3140.991542
153.826110,222.061783,-7550.100608,3140.991542
153.826432,1628.453072,-6069.688724,2757.943793
153.826753,2812.782580,-5847.626942,2451.505594
153.827075,2590.720797,-5995.668130,1685.410096
153.827397,1924.535449,-5403.503377,-919.314598
153.827719,1110.308913,-5995.668130,-2987.772442
153.828041,370.102971,-8068.244768,-5209.449386
153.828362,-518.144159,-9474.636058,-5132.839837
153.828684,-1036.288319,-9918.759623,-5209.449386
153.829006,-740.205942,-10066.800811,-5592.497135
153.829328,148.041188,-10510.924376,-5745.716235
153.829650,74.020594,-11769.274478,-5286.058936
153.829971,-1554.432478,-11325.150913,-4213.525239
