#time,accel_x,accel_y,accel_z
349.612793,-444.123565,-9252.574275,-1378.971896
349.613115,-148.041188,-9400.615463,-1455.581446
349.613437,0.000000,-9326.594869,-1608.800546
349.613759,0.000000,-9326.594869,-1762.019645
349.614081,-296.082377,-9252.574275,-1608.800546
349.614402,-296.082377,-9474.636058,-1378.971896
349.614724,-148.041188,-9104.533087,-1532.190996
349.615046,-370.102971,-9474.636058,-1302.362347
349.615368,-222.061783,-9548.656652,-1532.190996
349.615690,-74.020594,-9474.636058,-1685.410096
349.616011,-148.041188,-9178.553681,-1838.629195
349.616333,0.000000,-9178.553681,-1762.019645
349.616655,0.000000,-9474.636058,-1915.238745
349.616977,-148.041188,-9474.636058,-1608.800546
349.617299,0.000000,-9548.656652,-1378.971896
349.617621,-296.082377,-9622.677246,-1685.410096
349.617942,0.000000,-9326.594869,-1532.190996
349.618264,0.000000,-9326.594869,-1915.238745
349.618586,-296.082377,-9400.615463,-1762.019645
349.618908,0.000000,-9252.574275,-1455.581446
349.619230,0.000000,-9178.553681,-1915.238745
349.619551,-370.102971,-9030.512492,-1915.238745
349.619873,0.000000,-9474.636058,-1532.190996
349.620195,-444.123565,-9622.677246,-1532.190996
349.620517,-444.123565,-9474.636058,-1608.800546
349.620839,-296.082377,-9252.574275,-1838.629195
349.621160,-518.144159,-9326.594869,-1532.190996
349.621482,0.000000,-9474.636058,-1685.410096
349.621804,-370.102971,-9252.574275,-1455.581446
349.622126,-666.185348,-9474.636058,-1455.581446
349.622448,-888.247130,-9474.636058,-1455.581446
349.622769,-740.205942,-9548.656652,-1685.410096
349.623091,-222.061783,-9770.718434,-1455.581446
349.623413,-518.144159,-9104.533087,-1378.971896
349.623735,-814.226536,-9104.533087,-1455.581446
349.624057,-740.205942,-9178.553681,-1378.971896
349.624378,-740.205942,-9326.594869,-1225.752797
349.624700,-666.185348,-9400.615463,-1685.410096
349.625022,-518.144159,-9474.636058,-919.314598
349.625344,-814.226536,-9326.594869,-1378.971896
349.625666,-740.205942,-9474.636058,-1225.752797
349.625987,-592.164754,-9400.615463,-1378.971896
349.626309,-444.123565,-9474.636058,-1378.971896
349.626631,-592.164754,-9326.594869,-1225.752797
349.626953,-296.082377,-9326.594869,-1225.752797
349.627275,-518.144159,-9474.636058,-1225.752797
349.627596,-666.185348,-9326.594869,-995.924147
349.627918,-370.102971,-9252.574275,-1455.581446
349.628240,-370.102971,-9178.553681,-1532.190996
349.628562,-444.123565,-8882.471304,-612.876398
349.628884,-222.061783,-9178.553681,-1225.752797
349.629205,-222.061783,-9252.574275,-1225.752797
349.629527,-222.061783,-9400.615463,-1455.581446
349.629849,-296.082377,-9400.615463,-1149.143247
349.630171,-296.082377,-9326.594869,-1149.143247
349.630493,-148.041188,-9474.636058,-1532.190996
349.630814,-148.041188,-9326.594869,-1455.581446
349.631136,-296.082377,-9104.533087,-1532.190996
349.631458,0.000000,-9104.533087,-1455.581446
349.631780,0.000000,-8808.450710,-689.485948
349.632102,-296.082377,-9178.553681,-1915.238745
349.632423,0.000000,-9474.636058,-1302.362347
349.632745,-148.041188,-9548.656652,-1455.581446
349.633067,-148.041188,-9474.636058,-1302.362347
349.633389,-222.061783,-9252.574275,-1302.362347
349.633711,148.041188,-8956.491898,-1685.410096
349.634033,1036.288319,-9548.656652,-1915.238745
349.634354,1628.453072,-9622.677246,-1378.971896
349.634676,1406.391290,-9770.718434,-689.485948
349.634998,888.247130,-9326.594869,-536.266849
349.635320,740.205942,-9104.533087,-995.924147
349.635642,0.000000,-9104.533087,-1915.238745
349.635963,-888.247130,-9474.636058,-1991.848295
349.636285,-1406.391290,-9104.533087,-1685.410096
349.636607,-1110.308913,-8882.471304,-1991.848295
349.636929,296.082377,-9474.636058,-1838.629195
349.637251,296.082377,-9918.759623,-1455.581446
349.637572,-222.061783,-9918.759623,-1149.143247
349.637894,0.000000,-9400.615463,-1532.190996
349.638216,1184.329507,-9918.759623,-2298.286494
349.638538,1776.494261,-10732.986159,-2221.676944
349.638860,1332.370696,-9918.759623,-766.095498
349.639181,1258.350101,-9104.533087,-536.266849
349.639503,2368.659014,-9030.512492,-995.924147
349.639825,3552.988522,-9622.677246,-1532.190996
349.640147,3478.967927,-9252.574275,-612.876398
349.640469,2516.700203,-8808.450710,0.000000
349.640790,2664.741391,-8142.265362,-383.047749
349.641112,3108.864956,-9104.533087,-1149.143247
349.641434,2442.679609,-9622.677246,-1072.533697
349.641756,2294.638420,-8734.430116,-995.924147
349.642078,2664.741391,-8068.244768,-1915.238745
349.642399,3552.988522,-8660.409521,-2298.286494
349.642721,4145.153275,-10436.903782,-1838.629195
349.643043,3552.988522,-10362.883188,-1532.190996
349.643365,3552.988522,-9918.759623,-1608.800546
349.643687,4145.153275,-10584.944971,-1762.019645
349.644008,4811.338623,-10658.965565,-2451.505594
349.644330,4145.153275,-9918.759623,-2451.505594
349.644652,3552.988522,-9326.594869,-1915.238745
349.644974,3404.947333,-9104.533087,-1149.143247
349.645296,3627.009116,-8586.388927,-1302.362347
349.645617,4441.235652,-8438.347739,-1762.019645
349.645939,4811.338623,-8364.327145,-842.705048
349.646261,5255.462188,-8808.450710,-1072.533697
349.646583,5847.626942,-8364.327145,-1072.533697
349.646905,6143.709319,-8882.471304,-1225.752797
349.647226,5921.647536,-8882.471304,-1225.752797
349.647548,4367.215058,-9548.656652,-1302.362347
349.647870,2664.741391,-10436.903782,-1762.019645
349.648192,888.247130,-11399.171507,-1685.410096
349.648514,0.000000,-12287.418637,-1302.362347
349.648835,-814.226536,-12731.542202,-612.876398
349.649157,-1110.308913,-12731.542202,229.828649
349.649479,-518.144159,-11621.233289,1302.362347
349.649801,296.082377,-10584.944971,842.705048
349.650123,962.267725,-9400.615463,1378.971896
349.650445,370.102971,-7994.224174,1685.410096
349.650766,-592.164754,-6217.729913,1225.752797
349.651088,-1110.308913,-4737.318029,-1072.533697
349.651410,0.000000,-4367.215058,-1838.629195
349.651732,1554.432478,-4663.297435,-3064.381992
349.652054,3182.885551,-4959.379811,-3907.087040
349.652375,4885.359217,-6217.729913,-4366.744339
349.652697,6587.832884,-8364.327145,-4519.963438
349.653019,7031.956449,-11769.274478,-3447.429741
349.653341,6365.771101,-13989.892304,-3600.648841
349.653663,5329.482782,-15174.221811,-2911.162892
349.653984,4885.359217,-14804.118840,-1991.848295
349.654306,3849.070898,-13471.748144,-612.876398
349.654628,2960.823768,-11843.295072,229.828649
349.654950,1554.432478,-10288.862594,2451.505594
349.655272,962.267725,-8068.244768,3753.867940
349.655593,888.247130,-5699.585753,2911.162892
349.655915,592.164754,-4515.256246,2451.505594
349.656237,0.000000,-4071.132681,2834.553343
349.656559,-370.102971,-4367.215058,1378.971896
349.656881,370.102971,-5995.668130,-612.876398
349.657202,962.267725,-7476.080014,-1762.019645
349.657524,1184.329507,-8882.471304,-3140.991542
349.657846,888.247130,-9844.739029,-4673.182538
349.658168,962.267725,-13101.645173,-5822.325785
349.658490,666.185348,-15840.407159,-5286.058936
349.658811,370.102971,-17690.922014,-5515.887586
349.659133,222.061783,-16728.654289,-5362.668486
349.659455,1036.288319,-14063.912898,-3907.087040
349.659777,2886.803174,-11103.089130,-3677.258390
349.660099,4515.256246,-9400.615463,-2528.115143
349.660420,5921.647536,-7846.182985,0.000000
349.660742,6587.832884,-7254.018232,1991.848295
349.661064,7105.977043,-6883.915261,3294.210641
349.661386,7920.203579,-5403.503377,3830.477490
349.661708,8660.409521,-4145.153275,2221.676944
349.662029,8438.347739,-4293.194464,1378.971896
349.662351,6513.812290,-5403.503377,2374.896044
349.662673,4145.153275,-5329.482782,2451.505594
349.662995,3256.906145,-6883.915261,-1225.752797
349.663317,2368.659014,-10881.027347,-4673.182538
349.663638,962.267725,-11695.253884,-4903.011187
349.663960,-1332.370696,-11843.295072,-4903.011187
349.664282,-2368.659014,-14656.077652,-4213.525239
349.664604,-2590.720797,-16802.674883,-3064.381992
349.664926,-3849.070898,-13471.748144,-4213.525239
349.665247,-2960.823768,-9844.739029,-5515.887586
349.665569,-222.061783,-9622.677246,-4443.353888
349.665891,1628.453072,-9252.574275,-3294.210641
349.666213,3256.906145,-7994.224174,-1991.848295
349.666535,6069.688724,-7105.977043,919.314598
349.666857,8438.347739,-7994.224174,1915.238745
349.667178,8808.450710,-8808.450710,1608.800546
349.667500,7179.997637,-8364.327145,2145.067394
349.667822,4885.359217,-7550.100608,1991.848295
349.668144,3404.947333,-7476.080014,766.095498
349.668466,2220.617826,-8364.327145,1149.143247
349.668787,-370.102971,-8586.388927,76.609550
349.669109,-2072.576638,-9030.512492,0.000000
349.669431,-2294.638420,-10066.800811,-306.438199
349.669753,-592.164754,-11695.253884,-1608.800546
349.670075,0.000000,-11473.192101,-2757.943793
349.670396,148.041188,-10436.903782,-2298.286494
349.670718,888.247130,-9548.656652,-1378.971896
349.671040,2738.761985,-8956.491898,-2374.896044
349.671362,3478.967927,-8586.388927,-4213.525239
349.671684,3552.988522,-8660.409521,-3907.087040
349.672005,2368.659014,-8364.327145,-2298.286494
349.672327,1258.350101,-8734.430116,-1072.533697
349.672649,0.000000,-9104.533087,-1378.971896
349.672971,-962.267725,-8734.430116,-1378.971896
349.673293,-2072.576638,-7772.162391,-1838.629195
349.673614,-2368.659014,-7254.018232,-1991.848295
349.673936,-2368.659014,-9030.512492,-2221.676944
349.674258,-2368.659014,-10658.965565,-1378.971896
349.674580,-1998.556043,-10510.924376,0.000000
349.674902,-962.267725,-10362.883188,995.924147
349.675223,74.020594,-10288.862594,-919.314598
349.675545,1258.350101,-11177.109724,-1915.238745
349.675867,2072.576638,-11029.068536,-1762.019645
349.676189,1776.494261,-11843.295072,-536.266849
349.676511,2220.617826,-11547.212695,-383.047749
349.676832,3775.050304,-10955.047942,-1685.410096
349.677154,5477.523971,-11917.315666,-2604.724693
349.677476,5699.585753,-11251.130318,-1991.848295
349.677798,4515.256246,-9326.594869,-459.657299
349.678120,2368.659014,-7476.080014,0.000000
349.678441,1554.432478,-6661.853478,76.609550
349.678763,888.247130,-5403.503377,-919.314598
349.679085,0.000000,-4737.318029,-3753.867940
349.679407,-1036.288319,-6069.688724,-2911.162892
349.679729,-2516.700203,-8142.265362,153.219100
349.680050,-4367.215058,-8364.327145,995.924147
349.680372,-5699.585753,-7846.182985,-1072.533697
349.680673,-5995.668130,-7994.224174,-3600.648841
349.680995,-6513.812290,-9474.636058,-5745.716235
349.681317,-6143.709319,-12139.377449,-6358.592633
349.681639,-5033.400406,-12879.583391,-4519.963438
349.681960,-2590.720797,-11991.336260,-2145.067394
349.682282,666.185348,-11917.315666,-995.924147
349.682604,3330.926739,-11621.233289,-1225.752797
349.682926,4663.297435,-10140.821405,-2145.067394
349.683247,4811.338623,-8882.471304,-2528.115143
349.683569,5329.482782,-9474.636058,-1915.238745
349.683891,4737.318029,-10436.903782,-383.047749
349.684213,2738.761985,-10510.924376,2145.067394
349.684534,814.226536,-9178.553681,2681.334243
349.684856,518.144159,-8216.285956,1378.971896
349.685178,962.267725,-7846.182985,-459.657299
349.685500,1184.329507,-7550.100608,-1149.143247
349.685821,740.205942,-7105.977043,-842.705048
349.686143,296.082377,-6513.812290,229.828649
349.686465,148.041188,-7846.182985,0.000000
349.686787,0.000000,-9474.636058,-1455.581446
349.687108,-1702.473667,-9400.615463,-3447.429741
349.687430,-4589.276840,-9622.677246,-4060.306139
349.687752,-6883.915261,-10732.986159,-2834.553343
349.688074,-8290.306550,-11621.233289,-3140.991542
349.688395,-8882.471304,-10510.924376,-5056.230287
349.688717,-7846.182985,-9844.739029,-5745.716235
349.689039,-5551.544565,-9474.636058,-4903.011187
349.689361,-2738.761985,-10066.800811,-3524.039291
349.689682,-1554.432478,-9030.512492,-2374.896044
349.690004,0.000000,-9400.615463,-842.705048
349.690326,1110.308913,-10066.800811,842.705048
349.690648,1924.535449,-9474.636058,1149.143247
349.690969,2072.576638,-8660.409521,153.219100
349.691291,2516.700203,-9326.594869,0.000000
349.691613,2664.741391,-9770.718434,1532.190996
349.691935,2368.659014,-8660.409521,2068.457845
349.692256,2368.659014,-7846.182985,1915.238745
349.692578,3923.091493,-7402.059420,1915.238745
349.692900,4441.235652,-8586.388927,383.047749
349.693222,3701.029710,-7994.224174,-766.095498
349.693543,2294.638420,-7550.100608,0.000000
349.693865,1480.411884,-8216.285956,-612.876398
349.694187,592.164754,-8956.491898,-1838.629195
349.694509,-1406.391290,-8512.368333,-2757.943793
349.694830,-3701.029710,-9326.594869,-2681.334243
349.695152,-4737.318029,-10288.862594,-3064.381992
349.695474,-4885.359217,-11621.233289,-3983.696590
349.695796,-5551.544565,-9474.636058,-3983.696590
349.696117,-5033.400406,-8142.265362,-2834.553343
349.696439,-3404.947333,-9622.677246,-3600.648841
349.696761,-1406.391290,-10881.027347,-4290.134789
349.697083,-592.164754,-10066.800811,-2757.943793
349.697404,222.061783,-9696.697840,-1378.971896
349.697726,1924.535449,-9696.697840,459.657299
349.698048,3330.926739,-9178.553681,-536.266849
349.698370,3108.864956,-9474.636058,-612.876398
349.698691,2368.659014,-10658.965565,919.314598
349.699013,2220.617826,-9844.739029,2145.067394
349.699335,2960.823768,-8660.409521,459.657299
349.699657,5625.565159,-9844.739029,-919.314598
349.699978,6809.894666,-10807.006753,-842.705048
349.700300,5921.647536,-9104.533087,229.828649
349.700622,5107.421000,-7698.141797,1072.533697
349.700944,4663.297435,-8290.306550,0.000000
349.701265,4293.194464,-9474.636058,-1915.238745
349.701587,1998.556043,-8808.450710,-3370.820191
349.701909,-962.267725,-8882.471304,-3140.991542
349.702231,-3330.926739,-9622.677246,-2451.505594
349.702552,-4589.276840,-9474.636058,-1608.800546
349.702874,-6513.812290,-8660.409521,-2911.162892
349.703196,-7698.141797,-8290.306550,-4673.182538
349.703518,-8068.244768,-8364.327145,-5439.278036
349.703839,-7624.121203,-9992.780217,-5975.544884
349.704161,-6439.791695,-11103.089130,-4749.792088
349.704483,-4367.215058,-10436.903782,-2221.676944
349.704805,-2146.597232,-9696.697840,-1302.362347
349.705126,148.041188,-10658.965565,-1762.019645
349.705448,370.102971,-11103.089130,-536.266849
349.705770,148.041188,-9178.553681,0.000000
349.706092,444.123565,-8660.409521,-1072.533697
349.706413,1702.473667,-11103.089130,-919.314598
349.706735,1924.535449,-11843.295072,-229.828649
349.707057,1258.350101,-10732.986159,995.924147
349.707379,1924.535449,-8808.450710,2528.115143
349.707700,3404.947333,-7624.121203,1072.533697
349.708022,4441.235652,-7624.121203,-1225.752797
349.708344,3849.070898,-7031.956449,-1225.752797
349.708666,1036.288319,-6661.853478,153.219100
349.708987,-740.205942,-7402.059420,76.609550
349.709309,-2072.576638,-8364.327145,-995.924147
349.709631,-4589.276840,-9104.533087,-2451.505594
349.709953,-7550.100608,-10066.800811,-2298.286494
349.710274,-8882.471304,-10288.862594,-1225.752797
349.710596,-8290.306550,-9770.718434,-2451.505594
349.710918,-7105.977043,-9400.615463,-4443.353888
349.711240,-5625.565159,-8808.450710,-3600.648841
349.711561,-5255.462188,-8734.430116,-2374.896044
349.711883,-4293.194464,-8808.450710,-1991.848295
349.712205,-2590.720797,-8364.327145,-2451.505594
349.712527,-222.061783,-9474.636058,-3140.991542
349.712848,1258.350101,-11473.192101,-1915.238745
349.713170,1702.473667,-11991.336260,995.924147
349.713492,2368.659014,-10732.986159,2757.943793
349.713814,3849.070898,-9030.512492,2298.286494
349.714135,5847.626942,-8512.368333,766.095498
349.714457,6291.750507,-8512.368333,-383.047749
349.714779,4959.379811,-7402.059420,229.828649
349.715101,4737.318029,-7179.997637,2145.067394
349.715422,5255.462188,-6957.935855,2528.115143
349.715744,5699.585753,-7624.121203,306.438199
349.716066,4885.359217,-8660.409521,-995.924147
349.716388,3775.050304,-9622.677246,-1455.581446
349.716709,2812.782580,-9992.780217,-919.314598
349.717031,1480.411884,-10955.047942,-1378.971896
349.717353,-592.164754,-10510.924376,-1762.019645
349.717675,-3478.967927,-9178.553681,-3830.477490
349.717996,-5477.523971,-8216.285956,-5592.497135
349.718318,-5847.626942,-10214.842000,-6741.640382
349.718640,-4737.318029,-12287.418637,-6205.373534
349.718962,-3404.947333,-12583.501014,-5132.839837
349.719283,-1850.514855,-12509.480420,-3370.820191
349.719605,0.000000,-11991.336260,-1225.752797
349.719927,1184.329507,-10584.944971,-919.314598
349.720248,1554.432478,-8586.388927,-1762.019645
349.720570,814.226536,-8142.265362,-2068.457845
349.720892,-814.226536,-9252.574275,0.000000
349.721214,-1332.370696,-9326.594869,1532.190996
349.721535,0.000000,-8438.347739,1302.362347
349.721857,3552.988522,-9622.677246,-612.876398
349.722179,6661.853478,-10362.883188,-612.876398
349.722501,7031.956449,-9474.636058,995.924147
349.722822,5033.400406,-7402.059420,2757.943793
349.723144,4145.153275,-7550.100608,1455.581446
349.723466,3478.967927,-7772.162391,-1378.971896
349.723788,1776.494261,-7846.182985,-4213.525239
349.724109,-1406.391290,-8808.450710,-4596.572988
349.724431,-3552.988522,-10510.924376,-2374.896044
349.724753,-5847.626942,-9992.780217,-689.485948
349.725075,-7254.018232,-9252.574275,-1378.971896
349.725396,-7550.100608,-9104.533087,-3140.991542
349.725718,-7476.080014,-10140.821405,-4749.792088
349.726040,-7994.224174,-9252.574275,-4903.011187
349.726362,-8364.327145,-7550.100608,-2987.772442
349.726683,-7179.997637,-6513.812290,-1302.362347
349.727005,-5181.441594,-7698.141797,-1302.362347
349.727327,-4145.153275,-9326.594869,-1991.848295
349.727649,-3034.844362,-10214.842000,-1685.410096
349.727970,-1850.514855,-10955.047942,-536.266849
349.728292,444.123565,-10288.862594,612.876398
349.728614,2368.659014,-9474.636058,536.266849
349.728936,3108.864956,-8438.347739,383.047749
349.729257,2812.782580,-8512.368333,-536.266849
349.729579,1258.350101,-8956.491898,-383.047749
349.729901,888.247130,-9474.636058,-689.485948
349.730223,2294.638420,-9770.718434,-766.095498
349.730544,3923.091493,-11029.068536,-842.705048
349.730866,4145.153275,-10362.883188,459.657299
349.731188,3849.070898,-9252.574275,1762.019645
349.731510,2886.803174,-7994.224174,459.657299
349.731831,592.164754,-7402.059420,-1302.362347
349.732153,-2368.659014,-8142.265362,-2451.505594
349.732475,-4885.359217,-9474.636058,-2757.943793
349.732797,-4959.379811,-11621.233289,-3294.210641
349.733118,-4663.297435,-10955.047942,-2221.676944
349.733440,-3552.988522,-9400.615463,-1455.581446
349.733762,-2368.659014,-8956.491898,-2068.457845
349.734084,-962.267725,-9622.677246,-3524.039291
349.734405,-666.185348,-9770.718434,-3294.210641
349.734727,-814.226536,-10584.944971,-2604.724693
349.735049,-592.164754,-10807.006753,-1608.800546
349.735371,-296.082377,-11103.089130,-995.924147
349.735692,0.000000,-10510.924376,-919.314598
349.736014,148.041188,-9770.718434,-306.438199
349.736336,1110.308913,-9400.615463,536.266849
349.736658,2738.761985,-8586.388927,306.438199
349.736979,4219.173869,-7994.224174,612.876398
349.737301,6217.729913,-7920.203579,919.314598
349.737623,7772.162391,-8290.306550,612.876398
349.737945,9030.512492,-8290.306550,766.095498
349.738266,7994.224174,-7846.182985,842.705048
349.738588,5847.626942,-8068.244768,766.095498
349.738910,3256.906145,-8290.306550,459.657299
349.739232,1036.288319,-9030.512492,-1532.190996
349.739553,-592.164754,-9622.677246,-3217.601092
349.739875,-2072.576638,-9844.739029,-2298.286494
349.740197,-3330.926739,-9400.615463,-1915.238745
349.740519,-4071.132681,-8882.471304,-2604.724693
349.740840,-4737.318029,-8882.471304,-3677.258390
349.741162,-5921.647536,-9178.553681,-3983.696590
349.741484,-6365.771101,-10732.986159,-3983.696590
349.741806,-6291.750507,-12657.521608,-4290.134789
349.742127,-5107.421000,-11991.336260,-4136.915689
349.742449,-3701.029710,-11251.130318,-3370.820191
349.742771,-2220.617826,-11325.150913,-1455.581446
349.743093,-1258.350101,-10214.842000,-536.266849
349.743414,-1036.288319,-8586.388927,-1149.143247
349.743736,0.000000,-8512.368333,-2374.896044
349.744058,1406.391290,-10288.862594,-2757.943793
349.744380,962.267725,-10881.027347,-1302.362347
349.744701,0.000000,-9622.677246,1532.190996
349.745023,1480.411884,-6883.915261,2604.724693
349.745345,3701.029710,-8068.244768,-766.095498
349.745667,4589.276840,-8364.327145,-2757.943793
349.745988,3330.926739,-7328.038826,-1149.143247
349.746310,666.185348,-6883.915261,0.000000
349.746632,-1702.473667,-8512.368333,76.609550
349.746954,-4367.215058,-9178.553681,-1302.362347
349.747275,-7328.038826,-8882.471304,-3600.648841
349.747597,-8586.388927,-10066.800811,-4903.011187
349.747919,-7772.162391,-12065.356855,-3907.087040
349.748241,-6661.853478,-11991.336260,-3294.210641
349.748562,-6143.709319,-9474.636058,-1608.800546
349.748884,-4515.256246,-7994.224174,-766.095498
349.749206,-2960.823768,-9030.512492,-2374.896044
349.749528,-1998.556043,-9770.718434,-3830.477490
349.749849,-1480.411884,-8364.327145,-2604.724693
349.750171,-666.185348,-9326.594869,-689.485948
349.750493,0.000000,-11251.130318,1608.800546
349.750815,1110.308913,-10881.027347,3064.381992
349.751136,1850.514855,-7846.182985,1685.410096
349.751458,4219.173869,-6809.894666,-153.219100
349.751780,5995.668130,-8586.388927,0.000000
349.752102,5329.482782,-8142.265362,0.000000
349.752423,3627.009116,-7105.977043,1915.238745
349.752745,3701.029710,-6587.832884,2451.505594
349.753067,4885.359217,-7550.100608,-153.219100
349.753389,5181.441594,-8956.491898,-2374.896044
349.753710,3404.947333,-9622.677246,-2298.286494
349.754032,1332.370696,-10214.842000,-766.095498
349.754354,-370.102971,-11325.150913,-383.047749
349.754676,-2146.597232,-11029.068536,-1378.971896
349.754997,-3330.926739,-9178.553681,-4366.744339
349.755319,-4071.132681,-8808.450710,-6741.640382
349.755641,-2516.700203,-10658.965565,-6358.592633
349.755963,-1628.453072,-12435.459826,-4749.792088
349.756284,-666.185348,-11843.295072,-2911.162892
349.756606,740.205942,-11399.171507,-766.095498
349.756928,2368.659014,-11621.233289,0.000000
349.757250,2664.741391,-9844.739029,-2221.676944
349.757571,1628.453072,-8512.368333,-2604.724693
349.757893,222.061783,-9178.553681,-1378.971896
349.758215,-1480.411884,-9400.615463,1149.143247
349.758537,-1628.453072,-8586.388927,1532.190996
349.758858,592.164754,-7920.203579,0.000000
349.759180,4589.276840,-9474.636058,-1532.190996
349.759502,6587.832884,-10807.006753,-1762.019645
349.759823,5847.626942,-9548.656652,689.485948
349.760145,4071.132681,-7772.162391,2987.772442
349.760467,3182.885551,-7550.100608,1532.190996
349.760789,3256.906145,-8216.285956,-2987.772442
349.761110,888.247130,-8290.306550,-5745.716235
349.761432,-2442.679609,-9104.533087,-4903.011187
349.761754,-5551.544565,-10140.821405,-1762.019645
349.762076,-7031.956449,-10066.800811,0.000000
349.762397,-6365.771101,-9474.636058,-1762.019645
349.762719,-6439.791695,-9474.636058,-4826.401637
349.763041,-6957.935855,-8660.409521,-4519.963438
349.763363,-8068.244768,-8142.265362,-3524.039291
349.763684,-7772.162391,-7920.203579,-3064.381992
349.764006,-5255.462188,-8364.327145,-2911.162892
349.764328,-2960.823768,-9030.512492,-3294.210641
349.764650,-1850.514855,-11399.171507,-2604.724693
349.764971,-814.226536,-12065.356855,-306.438199
349.765293,0.000000,-10214.842000,0.000000
349.765615,1480.411884,-8512.368333,-459.657299
349.765937,2368.659014,-9696.697840,-383.047749
349.766258,2442.679609,-10288.862594,-842.705048
349.766580,962.267725,-8290.306550,-842.705048
349.766902,444.123565,-6883.915261,153.219100
349.767224,1776.494261,-7105.977043,0.000000
349.767545,3478.967927,-8956.491898,-1838.629195
349.767867,3478.967927,-9770.718434,-1302.362347
349.768189,2516.700203,-8808.450710,76.609550
349.768511,1184.329507,-7994.224174,459.657299
349.768832,-518.144159,-8216.285956,-612.876398
349.769154,-3478.967927,-8216.285956,-2604.724693
349.769476,-5625.565159,-9918.759623,-4673.182538
349.769798,-7550.100608,-11991.336260,-4443.353888
349.770119,-8290.306550,-11621.233289,-2681.334243
349.770441,-7698.141797,-9474.636058,-3370.820191
349.770763,-4071.132681,-10732.986159,-4136.915689
349.771085,0.000000,-11843.295072,-4366.744339
349.771406,962.267725,-10955.047942,-3447.429741
349.771728,1332.370696,-10436.903782,-1455.581446
349.772050,2368.659014,-9844.739029,536.266849
349.772372,3034.844362,-9326.594869,0.000000
349.772693,2368.659014,-8734.430116,-919.314598
349.773015,1554.432478,-9770.718434,842.705048
349.773337,2516.700203,-8734.430116,1225.752797
349.773659,4145.153275,-8438.347739,-229.828649
349.773980,5773.606348,-8660.409521,383.047749
349.774302,6217.729913,-7994.224174,2834.553343
349.774624,5995.668130,-6365.771101,2451.505594
349.774946,5181.441594,-6069.688724,536.266849
349.775267,4737.318029,-6809.894666,-689.485948
349.775589,3182.885551,-7624.121203,-2145.067394
349.775911,814.226536,-8956.491898,-2221.676944
349.776233,-1480.411884,-10436.903782,-1991.848295
349.776554,-2516.700203,-11621.233289,-1302.362347
349.776876,-3182.885551,-10658.965565,-2221.676944
349.777198,-3775.050304,-9400.615463,-4213.525239
349.777520,-4219.173869,-9178.553681,-4979.620737
349.777841,-4811.338623,-9474.636058,-4060.306139
349.778163,-4663.297435,-10362.883188,-3447.429741
349.778485,-3478.967927,-10140.821405,-2987.772442
349.778807,-1702.473667,-10066.800811,-2604.724693
349.779128,-370.102971,-10214.842000,-1991.848295
349.779450,-444.123565,-10066.800811,-995.924147
349.779772,-1110.308913,-9252.574275,459.657299
349.780094,-1332.370696,-9474.636058,-536.266849
349.780415,-1184.329507,-9548.656652,-153.219100
349.780737,-1258.350101,-8956.491898,-383.047749
349.781059,0.000000,-8734.430116,-1455.581446
349.781381,2294.638420,-9474.636058,-1762.019645
349.781702,3923.091493,-10362.883188,-1455.581446
349.782024,4219.173869,-10066.800811,-229.828649
349.782346,4441.235652,-9548.656652,0.000000
349.782668,4515.256246,-9548.656652,-1378.971896
349.782989,4145.153275,-9622.677246,-3524.039291
349.783311,1776.494261,-9918.759623,-2987.772442
349.783633,-1036.288319,-10436.903782,-2145.067394
349.783955,-3552.988522,-9474.636058,-995.924147
349.784277,-5995.668130,-8882.471304,-1302.362347
349.784599,-7254.018232,-8660.409521,-2451.505594
349.784921,-7550.100608,-8068.244768,-2681.334243
349.785243,-7031.956449,-7550.100608,-3294.210641
349.785565,-5921.647536,-8956.491898,-3140.991542
349.785886,-4959.379811,-9030.512492,-1302.362347
349.786208,-4737.318029,-7624.121203,-383.047749
349.786530,-3997.112087,-8142.265362,-1149.143247
349.786852,-2738.761985,-10066.800811,-2451.505594
349.787174,-2590.720797,-11325.150913,-2987.772442
349.787496,-2442.679609,-11325.150913,-2221.676944
349.787818,-1332.370696,-10732.986159,-306.438199
349.788140,814.226536,-10214.842000,229.828649
349.788462,3330.926739,-9104.533087,-689.485948
349.788784,4441.235652,-8216.285956,-1072.533697
349.789106,4663.297435,-8216.285956,-919.314598
349.789427,5181.441594,-8660.409521,0.000000
349.789749,5699.585753,-8142.265362,0.000000
349.790071,5551.544565,-7179.997637,0.000000
349.790393,4959.379811,-7698.141797,536.266849
349.790715,4071.132681,-7920.203579,0.000000
349.791037,1998.556043,-8882.471304,-842.705048
349.791359,-222.061783,-8956.491898,-766.095498
349.791681,-1924.535449,-8660.409521,-689.485948
349.792003,-3552.988522,-9030.512492,-2374.896044
349.792325,-4367.215058,-9992.780217,-2604.724693
349.792647,-4663.297435,-9696.697840,-2681.334243
349.792969,-3997.112087,-9696.697840,-3447.429741
349.793290,-2590.720797,-10140.821405,-4366.744339
349.793612,-888.247130,-10955.047942,-3217.601092
349.793934,-222.061783,-10881.027347,-2451.505594
349.794256,148.041188,-11547.212695,-2068.457845
349.794578,518.144159,-11843.295072,-1378.971896
349.794900,0.000000,-11547.212695,-1149.143247
349.795222,-518.144159,-10584.944971,-1762.019645
349.795544,-518.144159,-8956.491898,-2145.067394
349.795866,888.247130,-9252.574275,-1762.019645
349.796188,2516.700203,-8808.450710,-766.095498
349.796510,3849.070898,-7920.203579,0.000000
349.796832,5107.421000,-7402.059420,536.266849
349.797153,5551.544565,-7550.100608,612.876398
349.797475,5625.565159,-8290.306550,0.000000
349.797797,4219.173869,-8216.285956,-919.314598
349.798119,2146.597232,-8660.409521,-1762.019645
349.798441,-222.061783,-10436.903782,-1455.581446
349.798763,-2664.741391,-11029.068536,-1302.362347
349.799085,-4589.276840,-10214.842000,-2068.457845
349.799407,-5329.482782,-9474.636058,-2987.772442
349.799729,-5625.565159,-9770.718434,-3830.477490
349.800051,-5403.503377,-9622.677246,-3830.477490
349.800373,-5329.482782,-9178.553681,-3217.601092
349.800694,-4811.338623,-9252.574275,-2298.286494
349.801016,-3997.112087,-9474.636058,-2068.457845
349.801338,-2886.803174,-9474.636058,-2221.676944
349.801660,-2516.700203,-9918.759623,-2604.724693
349.801982,-2146.597232,-9992.780217,-1225.752797
349.802304,-1702.473667,-9918.759623,612.876398
349.802626,-1998.556043,-8734.430116,689.485948
349.802948,-444.123565,-7994.224174,-383.047749
349.803270,666.185348,-7994.224174,-1149.143247
349.803592,1554.432478,-8290.306550,-995.924147
349.803914,2220.617826,-8142.265362,-229.828649
349.804236,2294.638420,-8364.327145,0.000000
349.804557,2368.659014,-8808.450710,0.000000
349.804879,2886.803174,-9326.594869,-842.705048
349.805201,2590.720797,-9474.636058,-2145.067394
349.805523,2072.576638,-9844.739029,-2451.505594
349.805845,666.185348,-10362.883188,-1378.971896
349.806167,-1184.329507,-10214.842000,-842.705048
349.806489,-2590.720797,-10140.821405,-1225.752797
349.806811,-3775.050304,-9770.718434,-3064.381992
349.807133,-4737.318029,-10584.944971,-3830.477490
349.807455,-5181.441594,-9178.553681,-3830.477490
349.807777,-4885.359217,-8882.471304,-3677.258390
349.808099,-2664.741391,-9474.636058,-2757.943793
349.808420,-666.185348,-9992.780217,-1991.848295
349.808742,592.164754,-10362.883188,-1608.800546
349.809064,962.267725,-10362.883188,-536.266849
349.809386,1258.350101,-9992.780217,-536.266849
349.809708,1258.350101,-9844.739029,-919.314598
349.810030,1036.288319,-9474.636058,-536.266849
349.810352,370.102971,-9178.553681,76.609550
349.810674,814.226536,-8956.491898,-536.266849
349.810996,2368.659014,-8882.471304,-1532.190996
349.811318,4145.153275,-8660.409521,-995.924147
349.811640,5181.441594,-8660.409521,306.438199
349.811962,5625.565159,-8364.327145,536.266849
349.812283,5255.462188,-8068.244768,0.000000
349.812605,4293.194464,-8068.244768,-383.047749
349.812927,2812.782580,-8068.244768,-1378.971896
349.813249,444.123565,-8216.285956,-2604.724693
349.813571,-1628.453072,-8734.430116,-2911.162892
349.813893,-3330.926739,-9622.677246,-2221.676944
349.814215,-4589.276840,-9548.656652,-2298.286494
349.814537,-4367.215058,-9770.718434,-3140.991542
349.814859,-3775.050304,-10658.965565,-3370.820191
349.815181,-3108.864956,-11251.130318,-2911.162892
349.815503,-2368.659014,-10732.986159,-2911.162892
349.815824,-1850.514855,-10140.821405,-2298.286494
349.816146,-1184.329507,-9474.636058,-1149.143247
349.816468,-1036.288319,-9400.615463,-1072.533697
349.816790,-1036.288319,-9474.636058,-1302.362347
349.817112,-1628.453072,-10288.862594,-919.314598
349.817434,-1702.473667,-10732.986159,0.000000
349.817756,-1036.288319,-10140.821405,76.609550
349.818078,0.000000,-9622.677246,-383.047749
349.818400,1110.308913,-9104.533087,-383.047749
349.818722,1998.556043,-7994.224174,-459.657299
349.819044,2072.576638,-7328.038826,-919.314598
349.819366,1850.514855,-7179.997637,-919.314598
349.819687,1776.494261,-7846.182985,-919.314598
349.820009,1184.329507,-9252.574275,-1762.019645
349.820331,296.082377,-9770.718434,-1532.190996
349.820653,-1332.370696,-9548.656652,-919.314598
349.820975,-3108.864956,-9548.656652,-1225.752797
349.821297,-4367.215058,-9548.656652,-2068.457845
349.821619,-6069.688724,-9548.656652,-2987.772442
349.821941,-7476.080014,-9252.574275,-4290.134789
349.822263,-7624.121203,-9252.574275,-4290.134789
349.822585,-6735.874072,-10140.821405,-3983.696590
349.822907,-4663.297435,-10584.944971,-2528.115143
349.823229,-1776.494261,-10436.903782,-1608.800546
349.823550,0.000000,-10288.862594,-1532.190996
349.823872,1406.391290,-10881.027347,-536.266849
349.824194,1850.514855,-10066.800811,1072.533697
349.824516,1110.308913,-8882.471304,383.047749
349.824838,1258.350101,-8068.244768,-306.438199
349.825160,1776.494261,-8216.285956,-766.095498
349.825482,1850.514855,-8512.368333,-536.266849
349.825804,2590.720797,-8660.409521,0.000000
349.826126,4441.235652,-8364.327145,612.876398
349.826448,5847.626942,-8438.347739,459.657299
349.826770,6513.812290,-7994.224174,0.000000
349.827092,5995.668130,-7920.203579,-689.485948
349.827413,4811.338623,-8364.327145,-995.924147
349.827735,2516.700203,-8364.327145,-1608.800546
349.828057,0.000000,-9326.594869,-2757.943793
349.828379,-2368.659014,-10288.862594,-3064.381992
349.828701,-4219.173869,-10732.986159,-3447.429741
349.829023,-5255.462188,-10955.047942,-3753.867940
349.829345,-5107.421000,-11399.171507,-4060.306139
349.829667,-4071.132681,-11473.192101,-3370.820191
349.829989,-3330.926739,-11029.068536,-2221.676944
349.830311,-2664.741391,-9178.553681,-1302.362347
349.830633,-2368.659014,-7772.162391,-1225.752797
349.830954,-666.185348,-7994.224174,-2451.505594
349.831276,0.000000,-9252.574275,-2681.334243
349.831598,0.000000,-9400.615463,-689.485948
349.831920,592.164754,-10362.883188,842.705048
349.832242,1850.514855,-11177.109724,689.485948
349.832564,2886.803174,-10510.924376,919.314598
349.832886,3034.844362,-9252.574275,0.000000
349.833208,3182.885551,-9030.512492,-1225.752797
349.833530,3552.988522,-8882.471304,-1532.190996
349.833852,3849.070898,-8808.450710,-612.876398
349.834174,3923.091493,-7698.141797,-383.047749
349.834496,4293.194464,-7920.203579,-1225.752797
349.834817,3997.112087,-9252.574275,-1915.238745
349.835139,1998.556043,-10362.883188,-383.047749
349.835461,-1258.350101,-9548.656652,-612.876398
349.835783,-3849.070898,-9104.533087,-1072.533697
349.836105,-5107.421000,-9474.636058,-1762.019645
349.836427,-6513.812290,-9400.615463,-2911.162892
349.836749,-7402.059420,-8142.265362,-3830.477490
349.837071,-7328.038826,-7254.018232,-3524.039291
349.837393,-6587.832884,-8438.347739,-2451.505594
349.837715,-5181.441594,-9622.677246,-2298.286494
349.838037,-4441.235652,-10066.800811,-2298.286494
349.838359,-3182.885551,-10214.842000,-2068.457845
349.838680,-1924.535449,-10362.883188,-1378.971896
349.839002,-1480.411884,-9844.739029,-995.924147
349.839324,-1628.453072,-9400.615463,-1378.971896
349.839646,-1776.494261,-8808.450710,-612.876398
349.839968,-1332.370696,-9030.512492,-383.047749
349.840290,-592.164754,-9400.615463,-1838.629195
349.840612,962.267725,-10362.883188,-1915.238745
349.840934,2368.659014,-9622.677246,-459.657299
349.841256,3552.988522,-9474.636058,153.219100
349.841578,4367.215058,-8660.409521,76.609550
349.841900,4811.338623,-7698.141797,-612.876398
349.842222,3997.112087,-7402.059420,-306.438199
349.842543,2886.803174,-8068.244768,-1685.410096
349.842865,888.247130,-8660.409521,-1991.848295
349.843187,-1036.288319,-9770.718434,-1608.800546
349.843509,-2960.823768,-10658.965565,-1608.800546
349.843831,-4367.215058,-10732.986159,-2451.505594
349.844153,-5033.400406,-9918.759623,-3140.991542
349.844475,-4959.379811,-10732.986159,-3830.477490
349.844797,-4441.235652,-11325.150913,-4213.525239
349.845119,-3108.864956,-10658.965565,-2834.553343
349.845441,-1554.432478,-9770.718434,-1991.848295
349.845763,0.000000,-9770.718434,-2681.334243
349.846084,888.247130,-10214.842000,-1455.581446
349.846406,962.267725,-9696.697840,-612.876398
349.846728,148.041188,-9770.718434,0.000000
349.847050,74.020594,-9548.656652,0.000000
349.847372,814.226536,-9178.553681,-689.485948
349.847694,1850.514855,-9252.574275,-306.438199
349.848016,2516.700203,-8808.450710,459.657299
349.848338,3552.988522,-7698.141797,1149.143247
349.848660,5033.400406,-7550.100608,229.828649
349.848982,6513.812290,-7254.018232,-612.876398
349.849304,6957.935855,-8068.244768,-536.266849
349.849626,5181.441594,-8290.306550,-842.705048
349.849947,3849.070898,-9104.533087,-1149.143247
349.850269,1628.453072,-10584.944971,-1532.190996
349.850591,-740.205942,-11251.130318,-1762.019645
349.850913,-2960.823768,-10807.006753,-1838.629195
349.851235,-4219.173869,-9104.533087,-2298.286494
349.851557,-4219.173869,-9400.615463,-3677.258390
349.851879,-3478.967927,-9474.636058,-3447.429741
349.852201,-3404.947333,-9030.512492,-2681.334243
349.852523,-3330.926739,-8438.347739,-1532.190996
349.852845,-2368.659014,-9474.636058,-1072.533697
349.853167,-1776.494261,-10362.883188,-1455.581446
349.853489,-1924.535449,-10658.965565,-1838.629195
349.853810,-1850.514855,-10584.944971,-1149.143247
349.854132,-2294.638420,-10658.965565,-153.219100
349.854454,-1554.432478,-9992.780217,-459.657299
349.854776,-962.267725,-8734.430116,-459.657299
349.855098,370.102971,-8660.409521,-1225.752797
349.855420,1332.370696,-8956.491898,-1838.629195
349.855742,1480.411884,-9030.512492,-1072.533697
349.856064,1554.432478,-8660.409521,-306.438199
349.856386,1924.535449,-7920.203579,-383.047749
349.856708,2590.720797,-8586.388927,-1991.848295
349.857030,2368.659014,-9548.656652,-2451.505594
349.857351,1332.370696,-9770.718434,-2298.286494
349.857673,148.041188,-10066.800811,-1991.848295
349.857995,-1554.432478,-9770.718434,-1455.581446
349.858317,-3034.844362,-9770.718434,-1225.752797
349.858639,-4737.318029,-9030.512492,-2221.676944
349.858961,-5255.462188,-8586.388927,-3370.820191
349.859283,-4885.359217,-8808.450710,-3830.477490
349.859605,-4441.235652,-9400.615463,-2911.162892
349.859927,-4219.173869,-8068.244768,-2068.457845
349.860249,-3330.926739,-9030.512492,-766.095498
349.860571,-2220.617826,-9844.739029,-1378.971896
349.860893,-962.267725,-11103.089130,-2221.676944
349.861214,-592.164754,-11251.130318,-1149.143247
349.861536,-592.164754,-10436.903782,-766.095498
349.861858,-296.082377,-9400.615463,76.609550
349.862180,222.061783,-8882.471304,0.000000
349.862502,1036.288319,-8956.491898,-1455.581446
349.862824,1998.556043,-9474.636058,-2068.457845
349.863146,2960.823768,-9696.697840,-1225.752797
349.863468,3627.009116,-8734.430116,0.000000
349.863790,3701.029710,-8512.368333,536.266849
349.864112,3775.050304,-8068.244768,-383.047749
349.864434,3849.070898,-8586.388927,-1532.190996
349.864756,3182.885551,-8808.450710,-1608.800546
349.865077,1332.370696,-8808.450710,-1915.238745
349.865399,-222.061783,-8956.491898,-995.924147
349.865721,-2146.597232,-9622.677246,-689.485948
349.866043,-3182.885551,-10288.862594,-1838.629195
349.866365,-3552.988522,-10658.965565,-2987.772442
349.866687,-3552.988522,-9992.780217,-2221.676944
349.867009,-3256.906145,-9992.780217,-2451.505594
349.867331,-2368.659014,-9400.615463,-1838.629195
349.867653,-1628.453072,-8956.491898,-1762.019645
349.867975,-666.185348,-9252.574275,-2298.286494
349.868297,222.061783,-10436.903782,-1915.238745
349.868619,888.247130,-11621.233289,-1149.143247
349.868940,592.164754,-11769.274478,-842.705048
349.869262,814.226536,-10732.986159,-153.219100
349.869584,1110.308913,-10066.800811,842.705048
349.869906,1702.473667,-9252.574275,229.828649
349.870228,1776.494261,-8216.285956,-306.438199
349.870550,2516.700203,-7254.018232,-612.876398
349.870872,3478.967927,-6735.874072,-766.095498
349.871194,3849.070898,-7328.038826,-383.047749
349.871516,3849.070898,-7994.224174,-153.219100
349.871838,3701.029710,-7994.224174,0.000000
349.872160,2590.720797,-8808.450710,-1225.752797
349.872481,740.205942,-9918.759623,-1455.581446
349.872803,-1628.453072,-10066.800811,-1072.533697
349.873125,-3627.009116,-9400.615463,-1685.410096
349.873447,-4515.256246,-9252.574275,-2451.505594
349.873769,-4441.235652,-9252.574275,-2911.162892
349.874091,-4367.215058,-9844.739029,-3140.991542
349.874413,-4293.194464,-9918.759623,-2987.772442
349.874735,-4441.235652,-9622.677246,-1838.629195
349.875057,-4367.215058,-9326.594869,-1532.190996
349.875379,-3849.070898,-9326.594869,-2528.115143
349.875701,-3182.885551,-10066.800811,-3600.648841
349.876023,-2368.659014,-10362.883188,-2451.505594
349.876344,-1850.514855,-10732.986159,-1302.362347
349.876666,-1480.411884,-10436.903782,459.657299
349.876988,-814.226536,-9252.574275,459.657299
349.877310,370.102971,-8660.409521,-995.924147
349.877632,1554.432478,-8660.409521,-1608.800546
349.877954,2072.576638,-8364.327145,-1455.581446
349.878276,2812.782580,-8586.388927,-842.705048
349.878598,3701.029710,-8290.306550,-229.828649
349.878920,4589.276840,-8364.327145,-1149.143247
349.879242,4737.318029,-9326.594869,-1685.410096
349.879564,3775.050304,-9696.697840,-1455.581446
349.879886,2368.659014,-8956.491898,-1838.629195
349.880207,518.144159,-8660.409521,-2451.505594
349.880529,-1702.473667,-9252.574275,-1149.143247
349.880851,-3627.009116,-9326.594869,-2221.676944
349.881173,-4959.379811,-9548.656652,-3600.648841
349.881495,-5033.400406,-10214.842000,-4213.525239
349.881817,-4737.318029,-10362.883188,-3217.601092
349.882139,-4515.256246,-9770.718434,-2221.676944
349.882461,-3404.947333,-9400.615463,-1915.238745
349.882783,-2072.576638,-9770.718434,-2528.115143
349.883105,-370.102971,-10807.006753,-2987.772442
349.883427,0.000000,-10584.944971,-1991.848295
349.883748,-518.144159,-10362.883188,-919.314598
349.884070,-296.082377,-9770.718434,-306.438199
349.884392,444.123565,-9622.677246,-536.266849
349.884714,1332.370696,-9622.677246,-995.924147
349.885036,2072.576638,-9326.594869,-1225.752797
349.885358,3404.947333,-8956.491898,-383.047749
349.885680,4959.379811,-8734.430116,-383.047749
349.886002,6069.688724,-7994.224174,919.314598
349.886324,6587.832884,-7772.162391,76.609550
349.886646,6143.709319,-8216.285956,-842.705048
349.886968,4441.235652,-9104.533087,-995.924147
349.887290,1776.494261,-9474.636058,-536.266849
349.887611,-1332.370696,-8808.450710,-306.438199
349.887933,-3256.906145,-8660.409521,-689.485948
349.888255,-3849.070898,-9844.739029,-2757.943793
349.888577,-4589.276840,-9696.697840,-2987.772442
349.888899,-4515.256246,-9178.553681,-1915.238745
349.889221,-3923.091493,-8956.491898,-1455.581446
349.889543,-2442.679609,-8882.471304,-1838.629195
349.889865,-1924.535449,-9252.574275,-1991.848295
349.890187,-2220.617826,-9474.636058,-1991.848295
349.890509,-2368.659014,-10362.883188,-1532.190996
349.890831,-2294.638420,-10066.800811,-612.876398
349.891152,-1998.556043,-10732.986159,-842.705048
349.891474,-2220.617826,-10066.800811,-153.219100
349.891796,-2220.617826,-9474.636058,383.047749
349.892118,-1332.370696,-8216.285956,0.000000
349.892440,222.061783,-8290.306550,-1302.362347
349.892762,1850.514855,-8142.265362,-1685.410096
349.893084,2368.659014,-8660.409521,-766.095498
349.893406,2812.782580,-8956.491898,459.657299
349.893728,3182.885551,-8734.430116,-229.828649
349.894050,3923.091493,-9474.636058,-1991.848295
349.894372,3478.967927,-9992.780217,-2298.286494
349.894693,1924.535449,-10658.965565,-1378.971896
349.895015,-962.267725,-9548.656652,-842.705048
349.895337,-2516.700203,-9326.594869,-995.924147
349.895659,-3330.926739,-9178.553681,-2374.896044
349.895981,-4071.132681,-9474.636058,-3524.039291
349.896303,-4589.276840,-9474.636058,-3907.087040
349.896625,-4737.318029,-9474.636058,-2604.724693
349.896947,-4293.194464,-9178.553681,-2451.505594
349.897269,-3701.029710,-9104.533087,-2068.457845
349.897591,-3404.947333,-9400.615463,-2374.896044
349.897913,-3404.947333,-9696.697840,-2604.724693
349.898234,-2960.823768,-10066.800811,-3064.381992
349.898556,-2590.720797,-11029.068536,-2298.286494
349.898878,-1998.556043,-11177.109724,-383.047749
349.899200,-1184.329507,-9696.697840,76.609550
349.899522,222.061783,-8586.388927,-1149.143247
349.899844,1998.556043,-8734.430116,-1532.190996
349.900166,3701.029710,-8882.471304,-1149.143247
349.900488,4071.132681,-8808.450710,-459.657299
349.900810,4589.276840,-8216.285956,76.609550
349.901132,5255.462188,-7698.141797,0.000000
349.901454,5921.647536,-8068.244768,-919.314598
349.901775,5255.462188,-8586.388927,-1762.019645
349.902097,3775.050304,-8808.450710,-1685.410096
349.902419,1776.494261,-8808.450710,-1225.752797
349.902741,0.000000,-9400.615463,-1225.752797
349.903063,-1924.535449,-9474.636058,-1072.533697
349.903385,-3330.926739,-9770.718434,-2987.772442
349.903707,-4145.153275,-9844.739029,-3600.648841
349.904029,-3849.070898,-10066.800811,-3600.648841
349.904351,-2960.823768,-10140.821405,-3064.381992
349.904673,-1924.535449,-9696.697840,-2221.676944
349.904995,-1258.350101,-9104.533087,-1302.362347
349.905316,-666.185348,-9992.780217,-1762.019645
349.905638,0.000000,-11103.089130,-1762.019645
349.905960,148.041188,-11399.171507,-1685.410096
349.906282,-814.226536,-10584.944971,-689.485948
349.906604,-1406.391290,-9918.759623,612.876398
349.906926,-814.226536,-8734.430116,612.876398
349.907248,592.164754,-8216.285956,-1302.362347
349.907570,2442.679609,-8068.244768,-2221.676944
349.907892,3404.947333,-8660.409521,-1302.362347
349.908214,4071.132681,-8882.471304,229.828649
349.908536,4145.153275,-8882.471304,689.485948
349.908857,3701.029710,-9548.656652,-306.438199
349.909179,3256.906145,-10214.842000,-1072.533697
349.909501,1258.350101,-10066.800811,-1915.238745
349.909823,-1406.391290,-9770.718434,-1915.238745
349.910145,-3330.926739,-9474.636058,-1302.362347
349.910467,-4515.256246,-8660.409521,-1532.190996
349.910789,-5107.421000,-8956.491898,-2374.896044
349.911111,-4515.256246,-9178.553681,-2987.772442
349.911433,-4071.132681,-9918.759623,-2834.553343
349.911755,-3775.050304,-9104.533087,-1225.752797
349.912077,-3701.029710,-8660.409521,-766.095498
349.912398,-3182.885551,-8512.368333,-995.924147
349.912720,-2442.679609,-9252.574275,-1608.800546
349.913042,-2368.659014,-9548.656652,-2298.286494
349.913364,-2294.638420,-10288.862594,-1532.190996
349.913686,-2220.617826,-9844.739029,0.000000
349.914008,-1480.411884,-9548.656652,306.438199
349.914330,-592.164754,-9326.594869,-383.047749
349.914652,74.020594,-9548.656652,-995.924147
349.914974,740.205942,-9252.574275,-536.266849
349.915296,1776.494261,-8734.430116,-842.705048
349.915618,2516.700203,-7402.059420,-995.924147
349.915939,3478.967927,-7772.162391,-919.314598
349.916261,3478.967927,-8142.265362,-1225.752797
349.916583,2590.720797,-9030.512492,-612.876398
349.916905,1702.473667,-9104.533087,-1225.752797
349.917227,370.102971,-8956.491898,-1915.238745
349.917549,-1554.432478,-8956.491898,-1378.971896
349.917871,-2960.823768,-8956.491898,-1991.848295
349.918193,-3627.009116,-9252.574275,-3217.601092
349.918515,-2738.761985,-9696.697840,-3830.477490
349.918837,-2072.576638,-10510.924376,-4060.306139
349.919159,-1776.494261,-9622.677246,-2221.676944
349.919480,-962.267725,-9548.656652,-1838.629195
349.919802,-666.185348,-9992.780217,-2528.115143
349.920124,-518.144159,-10362.883188,-2221.676944
349.920446,-1110.308913,-9252.574275,-2451.505594
349.920768,-1184.329507,-9104.533087,-2681.334243
349.921090,-370.102971,-10066.800811,-2374.896044
349.921412,0.000000,-10658.965565,-1762.019645
349.921734,518.144159,-10510.924376,-1302.362347
349.922056,1628.453072,-10362.883188,-536.266849
349.922378,3775.050304,-9770.718434,-459.657299
349.922700,3701.029710,-9696.697840,-1302.362347
349.923021,3775.050304,-8364.327145,-612.876398
349.923343,3997.112087,-7105.977043,-766.095498
349.923665,4589.276840,-7328.038826,-1838.629195
349.923987,4145.153275,-8512.368333,-1915.238745
349.924309,3330.926739,-9400.615463,-1762.019645
349.924631,1184.329507,-9622.677246,-1072.533697
349.924953,-444.123565,-10658.965565,-766.095498
349.925275,-1628.453072,-11177.109724,-1149.143247
349.925597,-2516.700203,-10214.842000,-2451.505594
349.925919,-3256.906145,-8882.471304,-2757.943793
349.926241,-3849.070898,-8956.491898,-2604.724693
349.926562,-3923.091493,-8586.388927,-1685.410096
349.926884,-3701.029710,-8068.244768,-1991.848295
349.927206,-2738.761985,-8586.388927,-2298.286494
349.927528,-2368.659014,-9770.718434,-2145.067394
349.927850,-2072.576638,-10955.047942,-1149.143247
349.928172,-3330.926739,-11029.068536,0.000000
349.928494,-3701.029710,-10214.842000,383.047749
349.928816,-3256.906145,-9252.574275,-383.047749
349.929138,-2664.741391,-8068.244768,-1302.362347
349.929460,-2072.576638,-8216.285956,-1378.971896
349.929782,-666.185348,-8290.306550,-612.876398
349.930103,1110.308913,-8512.368333,0.000000
349.930425,2664.741391,-8438.347739,612.876398
349.930747,3849.070898,-9252.574275,76.609550
349.931069,4367.215058,-9696.697840,-842.705048
349.931391,3701.029710,-9252.574275,-1608.800546
349.931713,1776.494261,-8956.491898,-842.705048
349.932035,-592.164754,-8882.471304,-689.485948
349.932357,-2664.741391,-8660.409521,-1072.533697
349.932679,-3997.112087,-8660.409521,-1608.800546
349.933001,-4589.276840,-9696.697840,-2757.943793
349.933323,-4737.318029,-9992.780217,-1762.019645
349.933644,-4293.194464,-9622.677246,-1455.581446
349.933966,-3256.906145,-9474.636058,-1225.752797
349.934288,-2294.638420,-9474.636058,-919.314598
349.934610,-1924.535449,-8586.388927,-1072.533697
349.934932,-2738.761985,-8734.430116,-1991.848295
349.935254,-2886.803174,-8882.471304,-2221.676944
349.935576,-2368.659014,-10436.903782,-1991.848295
349.935898,-1776.494261,-10436.903782,-1532.190996
349.936220,-1110.308913,-10732.986159,-689.485948
349.936542,148.041188,-10510.924376,-995.924147
349.936864,1406.391290,-10066.800811,-1072.533697
349.937185,2664.741391,-9326.594869,-1762.019645
349.937507,3256.906145,-8882.471304,-1455.581446
349.937829,4071.132681,-8216.285956,-1072.533697
349.938151,4737.318029,-7772.162391,-1225.752797
349.938473,4737.318029,-8290.306550,-1532.190996
349.938795,4737.318029,-9252.574275,-1455.581446
349.939117,4145.153275,-9474.636058,-1685.410096
349.939439,2738.761985,-9474.636058,-1302.362347
349.939761,740.205942,-9474.636058,-689.485948
349.940083,-888.247130,-9178.553681,-1762.019645
349.940405,-1924.535449,-9252.574275,-3140.991542
349.940726,-2294.638420,-9696.697840,-3830.477490
349.941048,-2368.659014,-9844.739029,-3140.991542
349.941370,-1628.453072,-9400.615463,-2604.724693
349.941692,-814.226536,-9548.656652,-2298.286494
349.942014,-518.144159,-10362.883188,-2068.457845
349.942336,-666.185348,-10214.842000,-2221.676944
349.942658,-1184.329507,-10140.821405,-2528.115143
349.942980,-1850.514855,-11029.068536,-2834.553343
349.943302,-2146.597232,-11399.171507,-2145.067394
349.943624,-2516.700203,-10140.821405,-1225.752797
349.943946,-2220.617826,-9252.574275,-1762.019645
349.944267,-740.205942,-8956.491898,-1685.410096
349.944589,518.144159,-8438.347739,-1225.752797
349.944911,1332.370696,-8142.265362,-766.095498
349.945233,2664.741391,-7624.121203,-536.266849
349.945555,3701.029710,-7550.100608,-1378.971896
349.945877,4071.132681,-9252.574275,-2145.067394
349.946199,3034.844362,-10732.986159,-1378.971896
349.946521,592.164754,-10584.944971,-612.876398
349.946843,-1036.288319,-9622.677246,-995.924147
349.947165,-2516.700203,-9622.677246,-1072.533697
349.947487,-3256.906145,-9474.636058,-2145.067394
349.947808,-4367.215058,-8956.491898,-2604.724693
349.948130,-4811.338623,-8364.327145,-2068.457845
349.948452,-4589.276840,-8364.327145,-1378.971896
349.948774,-3182.885551,-9104.533087,-995.924147
349.949096,-3108.864956,-9474.636058,-1455.581446
349.949418,-3108.864956,-9622.677246,-1838.629195
349.949740,-3034.844362,-9770.718434,-919.314598
349.950062,-2886.803174,-9474.636058,-1149.143247
349.950384,-2368.659014,-10584.944971,-1149.143247
349.950706,-2294.638420,-10214.842000,-459.657299
349.951028,-1998.556043,-9252.574275,153.219100
349.951349,-814.226536,-8734.430116,0.000000
349.951671,740.205942,-9104.533087,-842.705048
349.951993,1406.391290,-9178.553681,-612.876398
349.952315,1406.391290,-8586.388927,0.000000
349.952637,1776.494261,-8216.285956,612.876398
349.952959,3182.885551,-8364.327145,-536.266849
349.953281,3849.070898,-8586.388927,-2145.067394
349.953603,3330.926739,-9178.553681,-2068.457845
349.953925,1776.494261,-9474.636058,76.609550
349.954247,148.041188,-9400.615463,0.000000
349.954569,-1184.329507,-9178.553681,-1225.752797
349.954890,-1850.514855,-9104.533087,-2528.115143
349.955212,-2072.576638,-9326.594869,-4060.306139
349.955534,-2220.617826,-9326.594869,-3217.601092
349.955856,-1924.535449,-9992.780217,-2451.505594
349.956178,-1110.308913,-9770.718434,-1149.143247
349.956500,0.000000,-9770.718434,-1685.410096
349.956822,1036.288319,-9992.780217,-2528.115143
349.957144,1702.473667,-10214.842000,-2987.772442
349.957466,1332.370696,-10140.821405,-2604.724693
349.957788,666.185348,-10140.821405,-1838.629195
349.958110,74.020594,-10140.821405,-1149.143247
349.958431,-518.144159,-10362.883188,-842.705048
349.958753,-444.123565,-10066.800811,-1685.410096
349.959075,-148.041188,-8734.430116,-1915.238745
349.959397,1924.535449,-8882.471304,-2451.505594
349.959719,2886.803174,-8808.450710,-1532.190996
349.960041,3478.967927,-8512.368333,-995.924147
349.960363,3849.070898,-8364.327145,-766.095498
349.960685,4219.173869,-8808.450710,-2528.115143
349.961007,3182.885551,-9622.677246,-2757.943793
349.961329,1628.453072,-10436.903782,-2604.724693
349.961651,-222.061783,-10584.944971,-1915.238745
349.961972,-1924.535449,-10066.800811,-1685.410096
349.962294,-2590.720797,-9844.739029,-1225.752797
349.962616,-3552.988522,-8956.491898,-2451.505594
349.962938,-3404.947333,-8956.491898,-2834.553343
349.963260,-3404.947333,-8438.347739,-3064.381992
349.963582,-2442.679609,-8586.388927,-2604.724693
349.963904,-1776.494261,-9104.533087,-1532.190996
349.964226,-444.123565,-9474.636058,-995.924147
349.964548,-222.061783,-9696.697840,-1608.800546
349.964870,0.000000,-9548.656652,-995.924147
349.965192,-888.247130,-9844.739029,-689.485948
349.965513,-2146.597232,-9474.636058,-842.705048
349.965835,-2886.803174,-9548.656652,-459.657299
349.966157,-2220.617826,-9548.656652,-1378.971896
349.966479,-1554.432478,-9548.656652,-1685.410096
349.966801,-1110.308913,-8956.491898,-612.876398
349.967123,-518.144159,-8586.388927,0.000000
349.967445,370.102971,-7994.224174,-536.266849
349.967767,1332.370696,-8142.265362,-1455.581446
349.968089,1554.432478,-8586.388927,-1915.238745
349.968411,518.144159,-8956.491898,-1225.752797
349.968733,-1036.288319,-9252.574275,-689.485948
349.969054,-2960.823768,-9844.739029,-995.924147
349.969376,-4367.215058,-9474.636058,-919.314598
349.969698,-5107.421000,-9104.533087,-1915.238745
349.970020,-5107.421000,-9252.574275,-2298.286494
349.970342,-4367.215058,-9474.636058,-1991.848295
349.970664,-3256.906145,-9400.615463,-1762.019645
349.970986,-2072.576638,-9104.533087,-995.924147
349.971308,-740.205942,-9474.636058,-612.876398
349.971630,740.205942,-9844.739029,-1532.190996
349.971952,814.226536,-10362.883188,-1685.410096
349.972274,148.041188,-9844.739029,-612.876398
349.972595,-444.123565,-9918.759623,0.000000
349.972917,-666.185348,-9770.718434,0.000000
349.973239,-592.164754,-9844.739029,-995.924147
349.973561,74.020594,-9992.780217,-1608.800546
349.973883,962.267725,-9474.636058,-1149.143247
349.974205,1776.494261,-9104.533087,-689.485948
349.974527,2072.576638,-8142.265362,306.438199
349.974849,3034.844362,-7476.080014,-306.438199
349.975171,4219.173869,-7994.224174,-1915.238745
349.975493,4145.153275,-8956.491898,-2298.286494
349.975815,3034.844362,-8956.491898,-1608.800546
349.976136,1924.535449,-8438.347739,-766.095498
349.976458,1258.350101,-10214.842000,-1378.971896
349.976780,-222.061783,-10881.027347,-1685.410096
349.977102,-1406.391290,-10807.006753,-2221.676944
349.977424,-2072.576638,-9918.759623,-3064.381992
349.977746,-1406.391290,-9548.656652,-3140.991542
349.978068,0.000000,-9696.697840,-2451.505594
349.978390,74.020594,-9252.574275,-1608.800546
349.978712,814.226536,-8956.491898,-1838.629195
349.979034,1258.350101,-9326.594869,-2068.457845
349.979356,1332.370696,-9474.636058,-1991.848295
349.979677,1036.288319,-9326.594869,-1455.581446
349.979999,296.082377,-9992.780217,-1378.971896
349.980321,-370.102971,-10140.821405,-1225.752797
349.980643,-518.144159,-10288.862594,-1149.143247
349.980965,-518.144159,-9770.718434,-1149.143247
349.981287,-74.020594,-9104.533087,-1225.752797
349.981609,222.061783,-7846.182985,-1149.143247
349.981931,888.247130,-8290.306550,-1685.410096
349.982253,1258.350101,-7920.203579,-1915.238745
349.982575,1628.453072,-8586.388927,-1685.410096
349.982897,2516.700203,-9400.615463,-2528.115143
349.983218,2368.659014,-10362.883188,-3600.648841
349.983540,592.164754,-10510.924376,-2068.457845
349.983862,-1776.494261,-10510.924376,-536.266849
349.984184,-4145.153275,-9770.718434,-919.314598
349.984506,-5329.482782,-9326.594869,-2757.943793
349.984827,-5551.544565,-8734.430116,-3753.867940
349.985149,-5181.441594,-8364.327145,-3907.087040
349.985471,-4737.318029,-8586.388927,-2757.943793
349.985793,-3552.988522,-8660.409521,-1072.533697
349.986115,-2294.638420,-8882.471304,0.000000
349.986436,-1184.329507,-9770.718434,-1225.752797
349.986758,-740.205942,-10066.800811,-1532.190996
349.987080,-1776.494261,-10288.862594,-1838.629195
349.987402,-2516.700203,-11029.068536,-1072.533697
349.987724,-2664.741391,-10288.862594,-229.828649
349.988045,-2220.617826,-9326.594869,-153.219100
349.988367,-962.267725,-8956.491898,-612.876398
349.988689,0.000000,-9326.594869,-153.219100
349.989011,888.247130,-9252.574275,-612.876398
349.989333,1480.411884,-9178.553681,-459.657299
349.989654,2146.597232,-8808.450710,153.219100
349.989976,2220.617826,-7994.224174,0.000000
349.990298,1850.514855,-7105.977043,-1302.362347
349.990620,1406.391290,-7772.162391,-2374.896044
349.990941,888.247130,-8660.409521,-2451.505594
349.991263,-740.205942,-9178.553681,-1302.362347
349.991585,-2516.700203,-9622.677246,-229.828649
349.991907,-2886.803174,-9474.636058,0.000000
349.992229,-3108.864956,-9178.553681,-1608.800546
349.992550,-2294.638420,-9770.718434,-2757.943793
349.992872,-2146.597232,-9474.636058,-2757.943793
349.993194,-1332.370696,-8734.430116,-1838.629195
349.993516,-592.164754,-8438.347739,-383.047749
349.993838,592.164754,-9178.553681,-1378.971896
349.994159,1776.494261,-9844.739029,-1532.190996
349.994481,1628.453072,-10140.821405,-1455.581446
349.994803,1036.288319,-11103.089130,-459.657299
349.995125,888.247130,-10807.006753,536.266849
349.995447,888.247130,-9918.759623,-306.438199
349.995768,888.247130,-9474.636058,-842.705048
349.996090,814.226536,-9104.533087,-459.657299
349.996412,1110.308913,-7698.141797,-689.485948
349.996734,2220.617826,-7698.141797,-1762.019645
349.997056,3182.885551,-8364.327145,-2068.457845
349.997377,3701.029710,-8956.491898,-612.876398
349.997699,3404.947333,-9622.677246,-612.876398
349.998021,3256.906145,-10140.821405,-1378.971896
349.998343,2664.741391,-10362.883188,-1838.629195
349.998665,1406.391290,-10066.800811,-2221.676944
349.998986,-148.041188,-9548.656652,-2145.067394
349.999308,-1850.514855,-9326.594869,-1991.848295
349.999630,-2738.761985,-8808.450710,-2451.505594
349.999952,-2590.720797,-8956.491898,-2681.334243
350.000274,-2516.700203,-9326.594869,-2757.943793
350.000595,-1998.556043,-10066.800811,-2757.943793
350.000917,-1480.411884,-9992.780217,-1915.238745
350.001239,-1036.288319,-9770.718434,-995.924147
350.001561,-1258.350101,-9400.615463,-1302.362347
350.001883,-1110.308913,-9252.574275,-1608.800546
350.002204,-1480.411884,-9622.677246,-1991.848295
350.002526,-2368.659014,-9474.636058,-1915.238745
350.002848,-2442.679609,-9474.636058,-1302.362347
350.003170,-1702.473667,-9548.656652,-1532.190996
350.003492,-592.164754,-10584.944971,-1838.629195
350.003813,370.102971,-10066.800811,-1532.190996
350.004135,740.205942,-9400.615463,-612.876398
350.004457,1258.350101,-8364.327145,-1225.752797
350.004779,1406.391290,-7772.162391,-1915.238745
350.005101,814.226536,-8142.265362,-2451.505594
350.005422,-148.041188,-8586.388927,-1915.238745
350.005744,-1702.473667,-8364.327145,-1608.800546
350.006066,-2368.659014,-8734.430116,-1685.410096
350.006388,-3330.926739,-9770.718434,-2221.676944
350.006709,-4589.276840,-9622.677246,-1685.410096
350.007031,-5403.503377,-8660.409521,-1838.629195
350.007353,-5107.421000,-8364.327145,-2528.115143
350.007675,-4145.153275,-9844.739029,-2834.553343
350.007997,-2738.761985,-11029.068536,-2757.943793
350.008318,-2368.659014,-10584.944971,-1838.629195
350.008640,-740.205942,-10214.842000,-842.705048
350.008962,888.247130,-10288.862594,-229.828649
350.009284,1850.514855,-10066.800811,-536.266849
350.009606,1036.288319,-10066.800811,-229.828649
350.009927,74.020594,-9252.574275,306.438199
350.010249,0.000000,-9252.574275,229.828649
350.010571,740.205942,-8882.471304,-459.657299
350.010893,962.267725,-8512.368333,0.000000
350.011215,962.267725,-7402.059420,536.266849
350.011536,1036.288319,-7550.100608,536.266849
350.011858,1480.411884,-7105.977043,-306.438199
350.012180,2516.700203,-7476.080014,-1762.019645
350.012502,2368.659014,-8586.388927,-2451.505594
350.012824,2072.576638,-9178.553681,-1685.410096
350.013145,1110.308913,-9696.697840,-995.924147
350.013467,0.000000,-10510.924376,-2145.067394
350.013789,-962.267725,-10584.944971,-1915.238745
350.014111,-1702.473667,-10362.883188,-2987.772442
350.014433,-1998.556043,-10140.821405,-3830.477490
350.014754,-1480.411884,-10658.965565,-2757.943793
350.015076,-740.205942,-10658.965565,-919.314598
350.015398,-518.144159,-9622.677246,383.047749
350.015720,-296.082377,-8364.327145,536.266849
350.016042,962.267725,-8216.285956,-766.095498
350.016363,2590.720797,-8734.430116,-1915.238745
350.016685,2294.638420,-9178.553681,-1991.848295
350.017007,1480.411884,-9918.759623,76.609550
350.017329,888.247130,-10288.862594,2221.676944
350.017651,666.185348,-9918.759623,1455.581446
350.017972,592.164754,-9030.512492,-1072.533697
350.018294,148.041188,-9548.656652,-1685.410096
350.018616,-518.144159,-8882.471304,-1762.019645
350.018938,-666.185348,-8216.285956,-1915.238745
350.019260,592.164754,-7994.224174,-1532.190996
350.019581,2738.761985,-8512.368333,-1608.800546
350.019903,2812.782580,-9474.636058,-2834.553343
350.020225,2220.617826,-10214.842000,-2451.505594
350.020547,148.041188,-10140.821405,-1685.410096
350.020869,-1554.432478,-10214.842000,-1838.629195
350.021190,-3849.070898,-9770.718434,-2451.505594
350.021512,-4885.359217,-9030.512492,-3294.210641
350.021834,-5329.482782,-8438.347739,-3140.991542
350.022156,-4145.153275,-8438.347739,-3217.601092
350.022477,-3182.885551,-8808.450710,-2451.505594
350.022799,-2442.679609,-9400.615463,-1225.752797
350.023121,-1702.473667,-9844.739029,-1149.143247
350.023443,-518.144159,-10732.986159,-1608.800546
350.023765,0.000000,-11251.130318,-2221.676944
350.024086,0.000000,-10362.883188,-1455.581446
350.024408,-444.123565,-9696.697840,-153.219100
350.024730,-1184.329507,-9400.615463,0.000000
350.025052,-962.267725,-9696.697840,-459.657299
350.025374,-962.267725,-10362.883188,-842.705048
350.025695,296.082377,-10362.883188,-1378.971896
350.026017,2072.576638,-9696.697840,-1225.752797
350.026339,2886.803174,-9104.533087,-153.219100
350.026661,2590.720797,-7772.162391,689.485948
350.026983,1924.535449,-7105.977043,0.000000
350.027304,1480.411884,-7476.080014,-1685.410096
350.027626,518.144159,-7550.100608,-3140.991542
350.027948,-370.102971,-8142.265362,-3370.820191
350.028270,-1850.514855,-9696.697840,-2298.286494
350.028592,-2812.782580,-10510.924376,-459.657299
350.028913,-4515.256246,-10362.883188,-1225.752797
350.029235,-4737.318029,-9400.615463,-2681.334243
350.029557,-4589.276840,-9178.553681,-3830.477490
350.029879,-4367.215058,-9104.533087,-4290.134789
350.030201,-3404.947333,-9400.615463,-3524.039291
350.030522,-2368.659014,-9400.615463,-1532.190996
350.030844,222.061783,-10436.903782,-689.485948
350.031166,2146.597232,-10955.047942,-383.047749
350.031488,2664.741391,-10584.944971,229.828649
350.031810,1628.453072,-9548.656652,-536.266849
350.032131,888.247130,-9104.533087,536.266849
350.032453,962.267725,-8512.368333,306.438199
350.032775,1184.329507,-8290.306550,0.000000
350.033097,1776.494261,-8660.409521,0.000000
350.033419,2738.761985,-8586.388927,76.609550
350.033740,3404.947333,-9104.533087,0.000000
350.034062,4515.256246,-9696.697840,-536.266849
350.034384,4737.318029,-9104.533087,-459.657299
350.034706,4367.215058,-8216.285956,-1762.019645
350.035028,3108.864956,-8882.471304,-2604.724693
350.035349,1110.308913,-9178.553681,-2298.286494
350.035671,-1702.473667,-9030.512492,-2681.334243
350.035993,-3997.112087,-9770.718434,-2834.553343
350.036315,-5107.421000,-10362.883188,-3064.381992
350.036637,-5625.565159,-10584.944971,-3217.601092
350.036958,-5255.462188,-10436.903782,-2757.943793
350.037280,-4589.276840,-9622.677246,-2145.067394
350.037602,-3182.885551,-9474.636058,-2374.896044
350.037924,-1998.556043,-8808.450710,-1991.848295
350.038245,-1258.350101,-8808.450710,-1991.848295
350.038567,-592.164754,-8882.471304,-2068.457845
350.038889,-370.102971,-9030.512492,-306.438199
350.039211,-666.185348,-10362.883188,0.000000
350.039533,-1110.308913,-10436.903782,459.657299
350.039854,-444.123565,-9770.718434,536.266849
350.040176,518.144159,-9918.759623,-995.924147
350.040498,1924.535449,-10436.903782,-1532.190996
350.040820,2220.617826,-9030.512492,-383.047749
350.041142,2442.679609,-8142.265362,0.000000
350.041463,2590.720797,-7624.121203,-306.438199
350.041785,2664.741391,-7772.162391,-1302.362347
350.042107,1850.514855,-8216.285956,-2451.505594
350.042429,666.185348,-8512.368333,-2681.334243
350.042751,74.020594,-9400.615463,-1762.019645
350.043072,-1036.288319,-10140.821405,-1532.190996
350.043394,-2368.659014,-10362.883188,-1225.752797
350.043716,-4441.235652,-9844.739029,-1685.410096
350.044038,-5699.585753,-8290.306550,-2374.896044
350.044360,-5403.503377,-7550.100608,-3370.820191
350.044681,-4737.318029,-8438.347739,-3677.258390
350.045003,-4071.132681,-9178.553681,-2987.772442
350.045325,-3182.885551,-9918.759623,-1378.971896
350.045647,-1406.391290,-10807.006753,-383.047749
350.045969,370.102971,-11103.089130,-612.876398
350.046290,888.247130,-11251.130318,-612.876398
350.046612,296.082377,-10362.883188,-383.047749
350.046934,222.061783,-9474.636058,0.000000
350.047256,518.144159,-8882.471304,0.000000
350.047578,1110.308913,-8956.491898,0.000000
350.047899,2220.617826,-9030.512492,-459.657299
350.048221,2960.823768,-8660.409521,0.000000
350.048543,3775.050304,-9104.533087,306.438199
350.048865,4367.215058,-8882.471304,459.657299
350.049187,4219.173869,-8438.347739,0.000000
350.049508,3997.112087,-8142.265362,-1685.410096
350.049830,3478.967927,-8882.471304,-2604.724693
350.050152,2146.597232,-9326.594869,-2987.772442
350.050474,-222.061783,-9622.677246,-2757.943793
350.050796,-2516.700203,-9474.636058,-2068.457845
350.051117,-3256.906145,-10140.821405,-2068.457845
350.051439,-3923.091493,-10066.800811,-3983.696590
350.051761,-3256.906145,-10955.047942,-4366.744339
350.052083,-3034.844362,-10955.047942,-3370.820191
350.052405,-2590.720797,-10066.800811,-1685.410096
350.052726,-1406.391290,-8734.430116,-766.095498
350.053048,0.000000,-8882.471304,-1072.533697
350.053370,592.164754,-8734.430116,-2681.334243
350.053692,1110.308913,-9252.574275,-2145.067394
350.054013,888.247130,-10214.842000,-1225.752797
350.054335,222.061783,-10881.027347,229.828649
350.054657,-148.041188,-10214.842000,2298.286494
350.054979,518.144159,-9326.594869,1532.190996
350.055301,1406.391290,-9178.553681,-842.705048
350.055622,1998.556043,-8734.430116,-1608.800546
350.055944,1554.432478,-7772.162391,-919.314598
350.056266,1480.411884,-6661.853478,-459.657299
350.056588,1924.535449,-6809.894666,-383.047749
350.056910,2368.659014,-7624.121203,-1532.190996
350.057231,1554.432478,-8882.471304,-2374.896044
350.057553,-444.123565,-9992.780217,-1991.848295
350.057875,-2664.741391,-11177.109724,-1532.190996
350.058197,-3108.864956,-11325.150913,-1685.410096
350.058519,-4515.256246,-10288.862594,-2221.676944
350.058840,-5477.523971,-8882.471304,-3294.210641
350.059162,-5329.482782,-7698.141797,-3524.039291
350.059484,-4959.379811,-8068.244768,-4213.525239
350.059806,-4219.173869,-10362.883188,-3753.867940
350.060128,-3849.070898,-11103.089130,-1991.848295
350.060449,-2442.679609,-10732.986159,0.000000
350.060771,-1258.350101,-10658.965565,0.000000
350.061093,-222.061783,-10362.883188,-919.314598
350.061415,0.000000,-9696.697840,-612.876398
350.061737,-222.061783,-8956.491898,-766.095498
350.062058,-444.123565,-9030.512492,0.000000
350.062380,0.000000,-8956.491898,459.657299
350.062702,962.267725,-9326.594869,76.609550
350.063024,2072.576638,-9104.533087,229.828649
350.063346,2590.720797,-8808.450710,229.828649
350.063667,3478.967927,-8290.306550,-459.657299
350.063989,4367.215058,-7994.224174,-1685.410096
350.064311,4071.132681,-7994.224174,-1991.848295
350.064633,2812.782580,-7920.203579,-1225.752797
350.064955,1480.411884,-7994.224174,-1762.019645
350.065276,-370.102971,-9844.739029,-2451.505594
350.065598,-2442.679609,-10955.047942,-2528.115143
350.065920,-4071.132681,-11029.068536,-2604.724693
350.066242,-4959.379811,-9992.780217,-2834.553343
350.066564,-4219.173869,-9844.739029,-2757.943793
350.066885,-3627.009116,-10214.842000,-3064.381992
350.067207,-3330.926739,-9252.574275,-3064.381992
350.067529,-2516.700203,-8438.347739,-2221.676944
350.067851,-666.185348,-8956.491898,-1991.848295
350.068173,1480.411884,-9548.656652,-2221.676944
350.068494,2590.720797,-10214.842000,-2145.067394
350.068816,2590.720797,-10881.027347,0.000000
350.069138,2738.761985,-11325.150913,919.314598
350.069460,2812.782580,-10066.800811,1302.362347
350.069782,3034.844362,-9178.553681,536.266849
350.070103,3182.885551,-9178.553681,-229.828649
350.070425,3404.947333,-8438.347739,-229.828649
350.070747,3034.844362,-7846.182985,536.266849
350.071069,3775.050304,-7550.100608,0.000000
350.071390,5107.421000,-7994.224174,-536.266849
350.071712,5403.503377,-7846.182985,-842.705048
350.072034,3923.091493,-8586.388927,-1608.800546
350.072356,1036.288319,-9770.718434,-995.924147
350.072678,-1332.370696,-10658.965565,-1072.533697
350.072999,-3478.967927,-9844.739029,-2145.067394
350.073321,-5107.421000,-9252.574275,-3907.087040
350.073643,-6069.688724,-8660.409521,-4136.915689
350.073965,-5995.668130,-9252.574275,-4366.744339
350.074287,-5477.523971,-9622.677246,-3370.820191
350.074608,-4737.318029,-10584.944971,-2911.162892
350.074930,-4071.132681,-11103.089130,-2374.896044
350.075252,-3256.906145,-11177.109724,-766.095498
350.075574,-2368.659014,-10288.862594,-1378.971896
350.075896,-1480.411884,-9474.636058,-2298.286494
350.076217,-592.164754,-9548.656652,-2068.457845
350.076539,-1036.288319,-10066.800811,-383.047749
350.076861,-1998.556043,-9178.553681,919.314598
350.077183,-1406.391290,-8438.347739,1378.971896
350.077505,518.144159,-8512.368333,-153.219100
350.077826,2590.720797,-9178.553681,-1608.800546
350.078148,3404.947333,-9252.574275,-1532.190996
350.078470,2812.782580,-8290.306550,689.485948
350.078792,2812.782580,-7550.100608,1378.971896
350.079114,2960.823768,-7624.121203,-995.924147
350.079435,2664.741391,-9104.533087,-3370.820191
350.079757,1702.473667,-9918.759623,-3600.648841
350.080079,-1258.350101,-10362.883188,-2604.724693
350.080401,-3775.050304,-9992.780217,-459.657299
350.080723,-4811.338623,-9104.533087,-229.828649
350.081044,-5033.400406,-7328.038826,-2911.162892
350.081366,-4959.379811,-8438.347739,-5439.278036
350.081688,-5181.441594,-9252.574275,-4826.401637
350.082010,-6217.729913,-9030.512492,-2451.505594
350.082332,-5773.606348,-8290.306550,-1685.410096
350.082653,-3182.885551,-9474.636058,-2374.896044
350.082975,-1480.411884,-11473.192101,-3294.210641
350.083297,-1332.370696,-11473.192101,-2451.505594
350.083619,-1850.514855,-10436.903782,-766.095498
350.083940,-814.226536,-9918.759623,459.657299
350.084262,1480.411884,-8438.347739,-383.047749
350.084584,2368.659014,-7994.224174,-1378.971896
350.084905,3034.844362,-8882.471304,-1149.143247
350.085227,3627.009116,-9622.677246,-383.047749
350.085549,4811.338623,-10066.800811,536.266849
350.085871,6587.832884,-9918.759623,1149.143247
350.086192,7328.038826,-8586.388927,842.705048
350.086514,7624.121203,-8216.285956,-1072.533697
350.086836,7105.977043,-9030.512492,-1915.238745
350.087157,4885.359217,-9474.636058,-766.095498
350.087479,1850.514855,-8512.368333,-459.657299
350.087801,-296.082377,-7772.162391,-1608.800546
350.088123,-2294.638420,-9326.594869,-3064.381992
350.088444,-4441.235652,-11177.109724,-3447.429741
350.088766,-5773.606348,-11177.109724,-3217.601092
350.089088,-5181.441594,-10510.924376,-2604.724693
350.089409,-3404.947333,-11251.130318,-3294.210641
350.089731,-2294.638420,-11103.089130,-2451.505594
350.090053,-2072.576638,-9548.656652,-1378.971896
350.090375,-1998.556043,-8364.327145,-995.924147
350.090696,-1406.391290,-8956.491898,-1455.581446
350.091018,-370.102971,-9474.636058,-2374.896044
350.091340,-222.061783,-9696.697840,-1455.581446
350.091662,-888.247130,-10066.800811,919.314598
350.091983,-518.144159,-9992.780217,1608.800546
350.092305,814.226536,-9252.574275,612.876398
350.092627,2072.576638,-8364.327145,-153.219100
350.092948,2516.700203,-8068.244768,-459.657299
350.093270,2886.803174,-7846.182985,-689.485948
350.093592,3627.009116,-7772.162391,-1072.533697
350.093914,4219.173869,-8586.388927,-1225.752797
350.094235,3849.070898,-9548.656652,-766.095498
350.094557,2590.720797,-9474.636058,-153.219100
350.094879,0.000000,-10436.903782,-842.705048
350.095200,-2516.700203,-10807.006753,-1225.752797
350.095522,-4441.235652,-10362.883188,-1225.752797
350.095844,-5181.441594,-8956.491898,-2374.896044
350.096166,-5181.441594,-7846.182985,-3524.039291
350.096487,-5181.441594,-8068.244768,-2298.286494
350.096809,-5699.585753,-7624.121203,-1532.190996
350.097131,-5921.647536,-7105.977043,-1685.410096
350.097452,-5181.441594,-8142.265362,-2604.724693
350.097774,-3997.112087,-10510.924376,-3524.039291
350.098096,-3330.926739,-10881.027347,-2221.676944
350.098418,-3627.009116,-10510.924376,-1302.362347
350.098739,-2960.823768,-10436.903782,0.000000
350.099061,-1850.514855,-9770.718434,-459.657299
350.099383,-666.185348,-8808.450710,-2298.286494
350.099705,-148.041188,-8438.347739,-3677.258390
350.100026,444.123565,-9178.553681,-2068.457845
350.100348,1628.453072,-9770.718434,-1149.143247
350.100670,2960.823768,-9696.697840,-612.876398
350.100991,4589.276840,-9400.615463,0.000000
350.101313,5551.544565,-8734.430116,-612.876398
350.101635,5255.462188,-9104.533087,-1838.629195
350.101957,3923.091493,-8808.450710,-1762.019645
350.102278,2368.659014,-9400.615463,-1302.362347
350.102600,1036.288319,-9104.533087,-1378.971896
350.102922,-592.164754,-9252.574275,-1685.410096
350.103243,-2146.597232,-9252.574275,-2145.067394
350.103565,-2812.782580,-9474.636058,-2987.772442
350.103887,-3701.029710,-9696.697840,-2757.943793
350.104209,-3849.070898,-9992.780217,-2987.772442
350.104530,-3256.906145,-9400.615463,-2604.724693
350.104852,-2146.597232,-9326.594869,-2757.943793
350.105174,-888.247130,-10214.842000,-4290.134789
350.105495,148.041188,-10955.047942,-2834.553343
350.105817,592.164754,-10436.903782,-2374.896044
350.106139,518.144159,-10658.965565,-1685.410096
350.106461,444.123565,-10732.986159,-306.438199
350.106782,592.164754,-9622.677246,383.047749
350.107104,1332.370696,-9474.636058,-612.876398
350.107426,2072.576638,-9252.574275,-919.314598
350.107748,2368.659014,-8068.244768,0.000000
350.108069,2664.741391,-6661.853478,612.876398
350.108391,3552.988522,-5995.668130,153.219100
350.108713,4885.359217,-6809.894666,-995.924147
350.109034,5033.400406,-8068.244768,-1225.752797
350.109356,3701.029710,-9326.594869,-919.314598
350.109678,1702.473667,-10362.883188,0.000000
350.110000,0.000000,-9992.780217,76.609550
350.110321,-1406.391290,-9696.697840,-1991.848295
350.110643,-2146.597232,-9622.677246,-3830.477490
350.110965,-3404.947333,-10214.842000,-4443.353888
350.111286,-4515.256246,-9918.759623,-3524.039291
350.111608,-5329.482782,-9844.739029,-2298.286494
350.111930,-4885.359217,-9622.677246,-1762.019645
350.112252,-3701.029710,-10436.903782,-2911.162892
350.112573,-2960.823768,-11029.068536,-3217.601092
350.112895,-2812.782580,-11029.068536,-2451.505594
350.113217,-2886.803174,-10658.965565,-766.095498
350.113539,-2886.803174,-9992.780217,919.314598
350.113860,-2664.741391,-9104.533087,995.924147
350.114182,-2812.782580,-8290.306550,0.000000
350.114504,-2368.659014,-9326.594869,-919.314598
350.114825,-1850.514855,-9474.636058,-306.438199
350.115147,-888.247130,-8438.347739,1149.143247
350.115469,740.205942,-6809.894666,689.485948
350.115791,3108.864956,-7105.977043,0.000000
350.116112,5773.606348,-8734.430116,-1685.410096
350.116434,5699.585753,-10436.903782,-1915.238745
350.116756,3997.112087,-10658.965565,-459.657299
350.117077,1258.350101,-10066.800811,842.705048
350.117399,-888.247130,-9252.574275,306.438199
350.117721,-3182.885551,-9252.574275,-1149.143247
350.118043,-5033.400406,-8216.285956,-3140.991542
350.118364,-6069.688724,-8216.285956,-3677.258390
350.118686,-5255.462188,-8216.285956,-2757.943793
350.119008,-4145.153275,-9400.615463,-1915.238745
350.119329,-2220.617826,-9548.656652,-1225.752797
350.119651,-1702.473667,-9622.677246,-1378.971896
350.119973,-2220.617826,-9844.739029,-1378.971896
350.120295,-3108.864956,-9474.636058,-1838.629195
350.120616,-3701.029710,-8734.430116,-2451.505594
350.120938,-3478.967927,-8734.430116,-3140.991542
350.121260,-2368.659014,-9474.636058,-2221.676944
350.121582,-666.185348,-10214.842000,-1225.752797
350.121903,1480.411884,-10436.903782,-459.657299
350.122225,3849.070898,-10288.862594,536.266849
350.122547,5847.626942,-9474.636058,-383.047749
350.122868,6365.771101,-8734.430116,-1532.190996
350.123190,6143.709319,-8808.450710,-1225.752797
350.123512,5699.585753,-8216.285956,-459.657299
350.123834,5181.441594,-7105.977043,-1225.752797
350.124155,5107.421000,-7105.977043,-2604.724693
350.124477,4145.153275,-9918.759623,-2451.505594
350.124799,1776.494261,-11251.130318,-1225.752797
350.125120,-1110.308913,-10510.924376,-612.876398
350.125442,-2072.576638,-10214.842000,-1762.019645
350.125764,-1850.514855,-10214.842000,-3524.039291
350.126086,-1924.535449,-10510.924376,-4290.134789
350.126407,-3108.864956,-9326.594869,-4290.134789
350.126729,-3478.967927,-8438.347739,-2221.676944
350.127051,-2664.741391,-8956.491898,-2145.067394
350.127372,-1480.411884,-9770.718434,-4136.915689
350.127694,0.000000,-10807.006753,-4443.353888
350.128016,592.164754,-11843.295072,-2604.724693
350.128338,592.164754,-12065.356855,-919.314598
350.128659,444.123565,-10658.965565,689.485948
350.128981,370.102971,-8808.450710,0.000000
350.129303,74.020594,-8216.285956,-1838.629195
350.129625,-222.061783,-9030.512492,-1455.581446
350.129946,-888.247130,-8586.388927,-919.314598
350.130268,-222.061783,-7698.141797,-383.047749
350.130590,1850.514855,-7772.162391,229.828649
350.130911,3330.926739,-7920.203579,536.266849
350.131233,3923.091493,-8216.285956,306.438199
350.131555,2738.761985,-8290.306550,-919.314598
350.131877,666.185348,-9770.718434,-842.705048
350.132198,-1480.411884,-9696.697840,-383.047749
350.132520,-3552.988522,-9104.533087,-919.314598
350.132842,-5329.482782,-9326.594869,-2145.067394
350.133163,-5773.606348,-9992.780217,-2068.457845
350.133485,-5625.565159,-9548.656652,-1608.800546
350.133807,-4663.297435,-9252.574275,-2374.896044
350.134129,-3330.926739,-9622.677246,-2145.067394
350.134450,-2442.679609,-9844.739029,-842.705048
350.134772,-3256.906145,-9548.656652,-306.438199
350.135094,-3627.009116,-9030.512492,-766.095498
350.135415,-4071.132681,-9030.512492,-1072.533697
350.135737,-4441.235652,-9326.594869,-1455.581446
350.136059,-4663.297435,-9252.574275,-612.876398
350.136381,-4441.235652,-9030.512492,0.000000
350.136702,-2368.659014,-9178.553681,-306.438199
350.137024,0.000000,-8808.450710,-842.705048
350.137346,1628.453072,-8956.491898,0.000000
350.137668,2368.659014,-8882.471304,612.876398
350.137989,3034.844362,-8364.327145,-536.266849
350.138311,3849.070898,-7846.182985,-1991.848295
350.138633,4515.256246,-9104.533087,-2451.505594
350.138954,3775.050304,-9474.636058,-1991.848295
350.139276,2664.741391,-10140.821405,-1685.410096
350.139598,1406.391290,-10362.883188,-995.924147
350.139920,148.041188,-10658.965565,-536.266849
350.140241,-666.185348,-9992.780217,-1608.800546
350.140563,-1850.514855,-9104.533087,-2681.334243
350.140885,-2294.638420,-9030.512492,-3064.381992
350.141206,-2368.659014,-9326.594869,-2451.505594
350.141528,-1776.494261,-8512.368333,-1838.629195
350.141850,-1924.535449,-8734.430116,-2068.457845
350.142172,-1184.329507,-9178.553681,-1532.190996
350.142493,-962.267725,-9474.636058,-1532.190996
350.142815,-1184.329507,-10066.800811,-2068.457845
350.143137,-962.267725,-10510.924376,-2068.457845
350.143459,74.020594,-11547.212695,-1608.800546
350.143780,962.267725,-9992.780217,-1991.848295
350.144102,1480.411884,-9622.677246,-1608.800546
350.144424,2368.659014,-9474.636058,-689.485948
350.144745,2812.782580,-8808.450710,-1532.190996
350.145067,3552.988522,-8438.347739,-2528.115143
350.145389,3849.070898,-8882.471304,-1532.190996
350.145711,4515.256246,-8364.327145,-1149.143247
350.146032,4663.297435,-9104.533087,-1608.800546
350.146354,4071.132681,-9326.594869,-1149.143247
350.146676,3108.864956,-9030.512492,-612.876398
350.146997,1406.391290,-8290.306550,-1915.238745
350.147319,-740.205942,-8660.409521,-2528.115143
350.147641,-2368.659014,-9178.553681,-2604.724693
350.147963,-3108.864956,-9474.636058,-2374.896044
350.148284,-3034.844362,-9696.697840,-2298.286494
350.148606,-2886.803174,-10510.924376,-1838.629195
350.148928,-2886.803174,-10436.903782,-1225.752797
350.149249,-2368.659014,-9844.739029,-2221.676944
350.149571,-1628.453072,-9696.697840,-2451.505594
350.149893,-888.247130,-9918.759623,-2374.896044
350.150215,-888.247130,-10436.903782,-1915.238745
350.150536,-2072.576638,-10436.903782,-1149.143247
350.150858,-3108.864956,-10288.862594,0.000000
350.151180,-3182.885551,-9696.697840,-612.876398
350.151502,-3108.864956,-9252.574275,-1532.190996
350.151823,-2812.782580,-9030.512492,-2068.457845
350.152145,-2294.638420,-8512.368333,-612.876398
350.152467,-1110.308913,-7772.162391,-536.266849
350.152788,814.226536,-7624.121203,-766.095498
350.153110,2368.659014,-8364.327145,-1378.971896
350.153432,3256.906145,-8956.491898,-2221.676944
350.153754,2516.700203,-9770.718434,-1072.533697
350.154075,1110.308913,-11103.089130,-612.876398
350.154397,-1036.288319,-10362.883188,0.000000
350.154719,-3108.864956,-9104.533087,-153.219100
350.155040,-4441.235652,-8734.430116,-1915.238745
350.155362,-4367.215058,-8364.327145,-2834.553343
350.155684,-3775.050304,-8216.285956,-2681.334243
350.156006,-3108.864956,-8734.430116,-1915.238745
350.156327,-1924.535449,-9326.594869,-459.657299
350.156649,-592.164754,-9252.574275,-536.266849
350.156971,-296.082377,-9104.533087,-1915.238745
350.157292,-740.205942,-10066.800811,-1225.752797
350.157614,-1998.556043,-10288.862594,-1225.752797
350.157936,-3108.864956,-9696.697840,-1302.362347
350.158258,-3256.906145,-9548.656652,-919.314598
350.158579,-2664.741391,-9030.512492,-1378.971896
350.158901,-1184.329507,-8734.430116,-1532.190996
350.159223,296.082377,-8882.471304,-1455.581446
350.159545,1702.473667,-8734.430116,-1149.143247
350.159866,2738.761985,-8512.368333,-919.314598
350.160188,3182.885551,-8882.471304,-995.924147
350.160510,3552.988522,-9696.697840,-1608.800546
350.160831,3034.844362,-10288.862594,-2298.286494
350.161153,2590.720797,-9918.759623,-2604.724693
350.161475,2072.576638,-10288.862594,-2374.896044
350.161797,1776.494261,-10214.842000,-1532.190996
350.162118,1258.350101,-9844.739029,-1455.581446
350.162440,1036.288319,-9474.636058,-2221.676944
350.162762,296.082377,-9548.656652,-2221.676944
350.163083,0.000000,-9252.574275,-2604.724693
350.163405,74.020594,-9400.615463,-2834.553343
350.163727,444.123565,-9474.636058,-2451.505594
350.164049,1036.288319,-9918.759623,-842.705048
350.164370,1406.391290,-9992.780217,-1608.800546
350.164692,2072.576638,-10066.800811,-1532.190996
350.165014,2072.576638,-10436.903782,-1225.752797
350.165336,1184.329507,-10658.965565,-612.876398
350.165657,-148.041188,-9696.697840,0.000000
350.165979,-1184.329507,-9104.533087,0.000000
350.166301,-1258.350101,-8882.471304,-919.314598
350.166622,-888.247130,-8364.327145,-1378.971896
350.166944,-740.205942,-7624.121203,-1225.752797
350.167266,0.000000,-6883.915261,-919.314598
350.167588,1258.350101,-7476.080014,-689.485948
350.167909,2220.617826,-8956.491898,-2145.067394
350.168231,1480.411884,-9770.718434,-2451.505594
350.168553,74.020594,-9770.718434,-1378.971896
350.168874,-1184.329507,-10288.862594,-1378.971896
350.169196,-2220.617826,-9474.636058,-1838.629195
350.169518,-2812.782580,-9770.718434,-3140.991542
350.169840,-3627.009116,-9622.677246,-2757.943793
350.170161,-3701.029710,-10140.821405,-2068.457845
350.170483,-3108.864956,-9548.656652,-1608.800546
350.170805,-2294.638420,-9992.780217,-1072.533697
350.171126,-1998.556043,-9252.574275,-919.314598
350.171448,-1702.473667,-9030.512492,-459.657299
350.171770,-2072.576638,-8808.450710,-1378.971896
350.172092,-2368.659014,-8956.491898,-919.314598
350.172413,-2664.741391,-9326.594869,-153.219100
350.172735,-3108.864956,-9918.759623,383.047749
350.173057,-2960.823768,-10066.800811,536.266849
350.173379,-2516.700203,-9622.677246,459.657299
350.173700,-1628.453072,-8808.450710,-1149.143247
350.174022,0.000000,-8660.409521,-1838.629195
350.174344,1184.329507,-9030.512492,-1532.190996
350.174665,1554.432478,-8808.450710,-1685.410096
350.174987,1776.494261,-8512.368333,-1302.362347
350.175309,1998.556043,-8660.409521,-1838.629195
350.175631,1406.391290,-9696.697840,-2451.505594
350.175952,222.061783,-9918.759623,-2451.505594
350.176274,-1258.350101,-9326.594869,-2221.676944
350.176596,-2442.679609,-9104.533087,-1915.238745
350.176917,-2886.803174,-9030.512492,-995.924147
350.177239,-2960.823768,-8586.388927,-2451.505594
350.177561,-2220.617826,-9252.574275,-3677.258390
350.177883,-888.247130,-10510.924376,-2604.724693
350.178204,-296.082377,-10732.986159,-612.876398
350.178526,-592.164754,-9770.718434,306.438199
350.178848,74.020594,-9178.553681,0.000000
350.179169,1332.370696,-8290.306550,-995.924147
350.179491,2146.597232,-8290.306550,-2298.286494
350.179813,1850.514855,-8956.491898,-2451.505594
350.180135,2146.597232,-10807.006753,-536.266849
350.180456,2368.659014,-10807.006753,0.000000
350.180778,2886.803174,-10658.965565,0.000000
350.181100,3182.885551,-10362.883188,612.876398
350.181422,3034.844362,-9474.636058,-383.047749
350.181743,2664.741391,-8068.244768,-2528.115143
350.182065,3034.844362,-8734.430116,-2834.553343
350.182387,2812.782580,-8734.430116,-1225.752797
350.182708,2590.720797,-7772.162391,-689.485948
350.183030,2960.823768,-7476.080014,-842.705048
350.183352,2368.659014,-8216.285956,-2221.676944
350.183674,1110.308913,-9548.656652,-2374.896044
350.183995,-1554.432478,-9474.636058,-2911.162892
350.184317,-3330.926739,-9844.739029,-2681.334243
350.184639,-3923.091493,-9844.739029,-2451.505594
350.184960,-4515.256246,-9918.759623,-2834.553343
350.185282,-4293.194464,-10214.842000,-3370.820191
350.185604,-4219.173869,-10362.883188,-3064.381992
350.185926,-3256.906145,-10288.862594,-2528.115143
350.186247,-1776.494261,-10658.965565,-1991.848295
350.186569,-1036.288319,-10214.842000,-1225.752797
350.186891,-666.185348,-10288.862594,-995.924147
350.187212,-666.185348,-10288.862594,-1072.533697
350.187534,-1258.350101,-10658.965565,-766.095498
350.187856,-2442.679609,-9844.739029,229.828649
350.188178,-2590.720797,-8364.327145,229.828649
350.188499,-2072.576638,-7402.059420,-842.705048
350.188821,-370.102971,-8142.265362,-919.314598
350.189143,814.226536,-8586.388927,-383.047749
350.189464,1776.494261,-8660.409521,0.000000
350.189786,2738.761985,-8956.491898,-383.047749
350.190108,3256.906145,-9548.656652,-1838.629195
350.190430,1998.556043,-9770.718434,-1762.019645
350.190751,-740.205942,-9252.574275,-1149.143247
350.191073,-3701.029710,-9178.553681,-1378.971896
350.191395,-5699.585753,-9400.615463,-2528.115143
350.191716,-7179.997637,-9400.615463,-2681.334243
350.192038,-8734.430116,-8512.368333,-3294.210641
350.192360,-9474.636058,-8438.347739,-2451.505594
350.192682,-8882.471304,-8808.450710,-1685.410096
350.193003,-7846.182985,-9030.512492,-2068.457845
350.193325,-6513.812290,-8734.430116,-1991.848295
350.193647,-5033.400406,-8364.327145,-1455.581446
350.193968,-3849.070898,-8142.265362,-1378.971896
350.194290,-2442.679609,-8882.471304,-1378.971896
350.194612,-1258.350101,-9622.677246,-1225.752797
350.194934,-296.082377,-10732.986159,-842.705048
350.195255,222.061783,-11177.109724,-76.609550
350.195577,-222.061783,-10881.027347,229.828649
350.195899,-518.144159,-9252.574275,306.438199
350.196220,-296.082377,-8068.244768,-766.095498
350.196542,0.000000,-8216.285956,-2145.067394
350.196864,-148.041188,-8586.388927,-1608.800546
350.197186,-666.185348,-8512.368333,-766.095498
350.197507,-1036.288319,-9474.636058,-536.266849
350.197829,-740.205942,-9178.553681,-842.705048
350.198151,-518.144159,-8808.450710,-1838.629195
350.198472,-666.185348,-9030.512492,-2604.724693
350.198794,-1702.473667,-8808.450710,-2451.505594
350.199116,-2442.679609,-9474.636058,-3064.381992
350.199438,-3701.029710,-10807.006753,-2604.724693
350.199759,-3997.112087,-11251.130318,-2451.505594
350.200081,-5403.503377,-10140.821405,-2451.505594
350.200403,-5773.606348,-9474.636058,-2528.115143
350.200724,-5551.544565,-9326.594869,-3064.381992
350.201046,-5551.544565,-8808.450710,-3370.820191
350.201368,-4885.359217,-9400.615463,-2451.505594
350.201690,-3849.070898,-10362.883188,-1149.143247
350.202011,-2442.679609,-9918.759623,0.000000
350.202333,-888.247130,-8808.450710,-842.705048
350.202655,1332.370696,-8438.347739,-1225.752797
350.202976,2590.720797,-8290.306550,-1225.752797
350.203298,1998.556043,-7846.182985,-1302.362347
350.203620,1036.288319,-8512.368333,-1685.410096
350.203942,-444.123565,-10066.800811,-1149.143247
350.204263,-2294.638420,-11473.192101,-1225.752797
350.204585,-4959.379811,-11695.253884,-2068.457845
350.204907,-7105.977043,-11177.109724,-1608.800546
350.205228,-8364.327145,-10436.903782,-1762.019645
350.205550,-8660.409521,-9178.553681,-1915.238745
350.205872,-8142.265362,-7105.977043,-2298.286494
350.206194,-7698.141797,-5551.544565,-2987.772442
350.206515,-6069.688724,-7031.956449,-3600.648841
350.206837,-4885.359217,-9252.574275,-2528.115143
350.207159,-4145.153275,-10732.986159,-1532.190996
350.207480,-2738.761985,-11251.130318,-612.876398
350.207802,-1332.370696,-11325.150913,-1149.143247
350.208124,0.000000,-10436.903782,-1915.238745
350.208445,370.102971,-8734.430116,-1378.971896
350.208767,-592.164754,-6735.874072,-1225.752797
350.209089,-2072.576638,-5625.565159,-1378.971896
350.209411,-3701.029710,-5551.544565,-2681.334243
350.209732,-6143.709319,-7550.100608,-2757.943793
350.210054,-8290.306550,-10214.842000,-2221.676944
350.210376,-9696.697840,-11991.336260,-1378.971896
350.210697,-9770.718434,-12879.583391,-459.657299
350.211019,-9104.533087,-12583.501014,0.000000
350.211341,-8586.388927,-10881.027347,-919.314598
350.211663,-7031.956449,-8956.491898,-1991.848295
350.211984,-4663.297435,-7328.038826,-2451.505594
350.212306,-2072.576638,-5921.647536,-2374.896044
350.212628,222.061783,-5107.421000,-2451.505594
350.212949,1998.556043,-5995.668130,-1838.629195
350.213271,2368.659014,-8882.471304,-2298.286494
350.213593,1924.535449,-11843.295072,-1608.800546
350.213915,1406.391290,-13693.809927,-995.924147
350.214236,296.082377,-13545.768739,-536.266849
350.214558,-370.102971,-12139.377449,-229.828649
350.214880,-1110.308913,-10955.047942,-536.266849
350.215201,-1998.556043,-10066.800811,-459.657299
350.215523,-4219.173869,-9030.512492,0.000000
350.215845,-6069.688724,-8068.244768,0.000000
350.216167,-7402.059420,-6957.935855,-536.266849
350.216488,-6809.894666,-7179.997637,-1225.752797
350.216810,-5995.668130,-8142.265362,-3217.601092
350.217132,-4811.338623,-9326.594869,-3524.039291
350.217453,-3849.070898,-9548.656652,-2374.896044
350.217775,-3330.926739,-9104.533087,-1378.971896
350.218097,-2886.803174,-8586.388927,-1225.752797
350.218419,-2960.823768,-8586.388927,-3524.039291
350.218740,-3182.885551,-9770.718434,-4749.792088
350.219062,-3182.885551,-12287.418637,-4673.182538
350.219384,-3182.885551,-14730.098246,-2451.505594
350.219705,-2516.700203,-14952.160028,2374.896044
350.220027,-1184.329507,-12287.418637,4366.744339
350.220349,666.185348,-9770.718434,3830.477490
350.220671,2664.741391,-8512.368333,1915.238745
350.220992,2886.803174,-7846.182985,1149.143247
350.221314,1110.308913,-7254.018232,2834.553343
350.221636,-222.061783,-5921.647536,5822.325785
350.221957,-2368.659014,-4145.153275,6971.469032
350.222279,-4441.235652,-3182.885551,4136.915689
350.222601,-5551.544565,-3330.926739,-536.266849
350.222923,-6883.915261,-3478.967927,-3983.696590
350.223244,-6957.935855,-4737.318029,-4826.401637
350.223566,-7031.956449,-7105.977043,-4749.792088
350.223888,-5847.626942,-10955.047942,-4596.572988
350.224209,-5403.503377,-14359.995275,-4673.182538
350.224531,-6069.688724,-16284.530724,-5286.058936
350.224853,-6217.729913,-18061.024985,-5745.716235
350.225175,-5403.503377,-17838.963202,-4136.915689
350.225496,-4219.173869,-14582.057057,-3064.381992
350.225818,-3701.029710,-11103.089130,76.609550
350.226140,-3108.864956,-8216.285956,2911.162892
350.226461,-2738.761985,-5551.544565,3753.867940
350.226783,-2072.576638,-2812.782580,2298.286494
350.227105,-1332.370696,-2664.741391,842.705048
350.227427,-1998.556043,-5699.585753,2451.505594
350.227748,-2812.782580,-7920.203579,4519.963438
350.228070,-2368.659014,-10140.821405,2757.943793
350.228392,666.185348,-11843.295072,-306.438199
350.228713,3108.864956,-9696.697840,-1915.238745
350.229035,3404.947333,-8512.368333,-2145.067394
350.229357,2072.576638,-11325.150913,-2068.457845
350.229679,1036.288319,-15988.448347,-2374.896044
350.230000,1554.432478,-16432.571912,-3370.820191
350.230322,1776.494261,-16506.592507,-4136.915689
350.230644,2812.782580,-17024.736666,-1685.410096
350.230965,2368.659014,-14582.057057,689.485948
350.231287,0.000000,-10214.842000,2145.067394
350.231609,-1184.329507,-6217.729913,4213.525239
350.231931,-296.082377,-3701.029710,4673.182538
350.232252,-296.082377,-1850.514855,995.924147
350.232574,-592.164754,-370.102971,76.609550
350.232896,74.020594,-370.102971,2145.067394
350.233217,1776.494261,-3330.926739,2528.115143
350.233539,1702.473667,-7105.977043,2987.772442
350.233861,962.267725,-9474.636058,2068.457845
350.234182,296.082377,-11621.233289,-2374.896044
350.234504,592.164754,-13619.789333,-5592.497135
350.234826,148.041188,-13471.748144,-4673.182538
350.235148,-1480.411884,-13767.830521,-2374.896044
350.235469,-2812.782580,-15026.180623,0.000000
350.235791,-2960.823768,-15840.407159,1532.190996
350.236113,-3330.926739,-14434.015869,536.266849
350.236434,-3182.885551,-12657.521608,1072.533697
350.236756,-3034.844362,-11547.212695,3983.696590
350.237078,-3849.070898,-9030.512492,7277.907231
350.237400,-3923.091493,-6661.853478,8197.221829
350.237721,-2590.720797,-5107.421000,6818.249932
350.238043,-1850.514855,-5699.585753,5056.230287
350.238365,-2146.597232,-6957.935855,4979.620737
350.238686,-1332.370696,-7624.121203,4903.011187
350.239008,2368.659014,-7105.977043,3524.039291
350.239330,5329.482782,-5773.606348,1685.410096
350.239652,6439.791695,-3108.864956,1302.362347
350.239973,5847.626942,-4589.276840,-842.705048
350.240295,3775.050304,-10436.903782,-4290.134789
350.240617,-74.020594,-14211.954086,-3753.867940
350.240938,-5181.441594,-16802.674883,-2528.115143
350.241260,-10066.800811,-19467.416275,-536.266849
350.241582,-12805.562797,-19615.457463,1225.752797
350.241904,-13471.748144,-15248.242405,1455.581446
350.242225,-11473.192101,-10584.944971,1532.190996
350.242547,-7476.080014,-10140.821405,2451.505594
350.242869,-6587.832884,-10140.821405,5975.544884
350.243190,-5847.626942,-7550.100608,9652.803275
350.243512,-3775.050304,-2664.741391,12717.185267
350.243834,592.164754,1480.411884,10495.508323
350.244156,5255.462188,0.000000,3600.648841
350.244477,9918.759623,-2220.617826,612.876398
350.244799,11103.089130,-2960.823768,842.705048
350.245121,9104.533087,-6069.688724,3524.039291
350.245442,6809.894666,-14508.036463,7507.735880
350.245764,3552.988522,-20799.786970,5515.887586
350.246086,-962.267725,-19689.478057,-2987.772442
350.246408,-3701.029710,-17098.757260,-5439.278036
350.246729,-3701.029710,-16506.592507,-2451.505594
350.247051,-3404.947333,-12287.418637,153.219100
350.247373,-3627.009116,-4071.132681,1149.143247
350.247694,-2886.803174,-2442.679609,2528.115143
350.248016,-2146.597232,-7179.997637,3983.696590
350.248338,-3256.906145,-8660.409521,3140.991542
350.248660,-5921.647536,-7031.956449,1532.190996
350.248981,-4367.215058,-7402.059420,3830.477490
350.249303,444.123565,-8290.306550,5439.278036
350.249625,4145.153275,-8364.327145,5209.449386
350.249946,4293.194464,-4663.297435,5975.544884
350.250268,7105.977043,-1998.556043,3447.429741
350.250590,9696.697840,-6661.853478,-4826.401637
350.250912,8882.471304,-10140.821405,-6511.811733
350.251233,2516.700203,-8956.491898,-2451.505594
350.251555,-2368.659014,-13101.645173,-766.095498
350.251877,-4367.215058,-20503.704593,-1915.238745
350.252198,-5551.544565,-21317.931130,-4290.134789
350.252520,-6439.791695,-16876.695478,-7124.688131
350.252842,-4441.235652,-13323.706956,-5515.887586
350.253164,-592.164754,-12583.501014,-229.828649
350.253485,-518.144159,-9104.533087,2221.676944
350.253807,296.082377,-5107.421000,2987.772442
350.254129,2664.741391,-3849.070898,2298.286494
350.254450,3849.070898,-5847.626942,536.266849
350.254772,3701.029710,-7179.997637,1762.019645
350.255094,3108.864956,-7550.100608,1455.581446
350.255416,3478.967927,-9696.697840,1762.019645
350.255737,5255.462188,-10658.965565,2681.334243
350.256059,3478.967927,-11029.068536,1762.019645
350.256381,-2960.823768,-10658.965565,153.219100
350.256702,-7846.182985,-9252.574275,383.047749
350.257024,-10955.047942,-7328.038826,-2911.162892
350.257346,-11103.089130,-8808.450710,-8963.317327
350.257668,-11029.068536,-11399.171507,-8886.707777
350.257989,-10140.821405,-12805.562797,-4213.525239
350.258311,-8586.388927,-12953.603985,-1991.848295
350.258633,-5477.523971,-14137.933492,-306.438199
350.258954,-2590.720797,-14804.118840,1072.533697
350.259276,-1554.432478,-12213.398043,1685.410096
350.259598,592.164754,-7105.977043,2374.896044
350.259920,3775.050304,-814.226536,995.924147
350.260241,8512.368333,1776.494261,383.047749
350.260563,11621.233289,222.061783,2068.457845
350.260885,10066.800811,-3627.009116,5056.230287
350.261206,7105.977043,-7402.059420,7507.735880
350.261528,2960.823768,-10732.986159,6588.421283
350.261850,-740.205942,-13323.706956,2451.505594
350.262171,-3552.988522,-12731.542202,-1378.971896
350.262493,-4071.132681,-9696.697840,-4060.306139
350.262815,-3330.926739,-8512.368333,-4213.525239
350.263137,-2368.659014,-9252.574275,-1608.800546
350.263458,-3108.864956,-10510.924376,1685.410096
350.263780,-3997.112087,-10807.006753,1225.752797
350.264102,-3923.091493,-11177.109724,-1915.238745
350.264423,-2960.823768,-12731.542202,-4519.963438
350.264745,-1258.350101,-12361.439231,-3753.867940
350.265067,74.020594,-10140.821405,76.609550
350.265389,740.205942,-8808.450710,2374.896044
350.265710,296.082377,-8438.347739,3830.477490
350.266032,-962.267725,-8142.265362,3140.991542
350.266354,-1406.391290,-8660.409521,76.609550
350.266675,518.144159,-9104.533087,-2374.896044
350.266997,3182.885551,-9030.512492,-2681.334243
350.267319,5255.462188,-9400.615463,0.000000
350.267641,5699.585753,-10510.924376,3064.381992
350.267962,3923.091493,-11843.295072,3294.210641
350.268284,962.267725,-12361.439231,-612.876398
350.268606,-2294.638420,-12879.583391,-4366.744339
350.268927,-3997.112087,-12953.603985,-4903.011187
350.269249,-4811.338623,-10955.047942,-3830.477490
350.269571,-4145.153275,-9252.574275,-1991.848295
350.269893,-1702.473667,-8734.430116,76.609550
350.270214,0.000000,-8956.491898,306.438199
350.270536,74.020594,-9918.759623,0.000000
350.270858,-518.144159,-10807.006753,-766.095498
350.271179,-962.267725,-10955.047942,0.000000
350.271501,-370.102971,-9030.512492,1378.971896
350.271823,444.123565,-6069.688724,2145.067394
350.272145,1554.432478,-4441.235652,612.876398
350.272466,3034.844362,-5033.400406,-842.705048
350.272788,2886.803174,-6883.915261,-2068.457845
350.273110,518.144159,-9104.533087,-1302.362347
350.273431,-2072.576638,-9770.718434,0.000000
350.273753,-4293.194464,-11251.130318,1302.362347
350.274075,-4589.276840,-10140.821405,-995.924147
350.274397,-3256.906145,-8512.368333,-3217.601092
350.274718,-1850.514855,-7179.997637,-4749.792088
350.275040,-814.226536,-7254.018232,-3600.648841
350.275362,-740.205942,-7328.038826,-1225.752797
350.275683,-666.185348,-8438.347739,-459.657299
350.276005,-444.123565,-8808.450710,-1838.629195
350.276327,74.020594,-9400.615463,-2987.772442
350.276649,-148.041188,-8956.491898,-3907.087040
350.276970,-1332.370696,-8068.244768,-3140.991542
350.277292,-1258.350101,-8734.430116,-1762.019645
350.277614,-1850.514855,-10955.047942,-1838.629195
350.277935,-2072.576638,-12139.377449,-1149.143247
350.278257,-2072.576638,-12139.377449,-1225.752797
350.278579,-1036.288319,-11547.212695,-1762.019645
350.278901,518.144159,-9400.615463,-995.924147
350.279222,2368.659014,-7846.182985,-1685.410096
350.279544,2738.761985,-7772.162391,-2374.896044
350.279866,2146.597232,-9252.574275,-1991.848295
350.280187,444.123565,-10140.821405,-1838.629195
350.280509,-814.226536,-10658.965565,-2221.676944
350.280831,-1406.391290,-11029.068536,-2374.896044
350.281153,-1554.432478,-10510.924376,-2451.505594
350.281474,-962.267725,-9770.718434,-2528.115143
350.281796,370.102971,-9696.697840,-2451.505594
350.282118,1850.514855,-9770.718434,-2451.505594
350.282439,1924.535449,-9548.656652,-2451.505594
350.282761,1628.453072,-8586.388927,-2298.286494
350.283083,740.205942,-9178.553681,-2374.896044
350.283405,0.000000,-9400.615463,-2451.505594
350.283726,-962.267725,-8734.430116,-2834.553343
350.284048,-1184.329507,-8586.388927,-3830.477490
350.284370,-1776.494261,-8586.388927,-3753.867940
350.284691,-2294.638420,-9178.553681,-2451.505594
350.285013,-3404.947333,-10066.800811,-1685.410096
350.285335,-3849.070898,-10732.986159,-612.876398
350.285657,-2516.700203,-10807.006753,-536.266849
350.285978,-740.205942,-9474.636058,-842.705048
350.286300,1258.350101,-8068.244768,-919.314598
350.286622,2738.761985,-7328.038826,-459.657299
350.286944,3478.967927,-7476.080014,-995.924147
350.287265,3701.029710,-8882.471304,0.000000
350.287587,3256.906145,-9918.759623,689.485948
350.287909,1998.556043,-8734.430116,153.219100
350.288231,740.205942,-7994.224174,-612.876398
350.288553,-148.041188,-8808.450710,-1225.752797
350.288874,-1036.288319,-9104.533087,-1455.581446
350.289196,-1850.514855,-9474.636058,-766.095498
350.289518,-1850.514855,-9178.553681,-459.657299
350.289840,-1628.453072,-9178.553681,-1072.533697
350.290161,-1036.288319,-8438.347739,-1915.238745
350.290483,-1480.411884,-9178.553681,-2834.553343
350.290805,-1406.391290,-9918.759623,-3064.381992
350.291127,-2072.576638,-10955.047942,-3294.210641
350.291448,-2886.803174,-11325.150913,-2681.334243
350.291770,-3775.050304,-11177.109724,-1915.238745
350.292092,-4515.256246,-10214.842000,-1762.019645
350.292414,-4367.215058,-10732.986159,-2068.457845
350.292736,-2960.823768,-11029.068536,-1149.143247
350.293057,-1850.514855,-10807.006753,-383.047749
350.293379,222.061783,-10362.883188,612.876398
350.293701,1628.453072,-9622.677246,1762.019645
350.294023,2442.679609,-8586.388927,1991.848295
350.294344,2442.679609,-7402.059420,1378.971896
350.294666,3627.009116,-7624.121203,-153.219100
350.294988,3552.988522,-8142.265362,-1378.971896
350.295310,2664.741391,-9474.636058,-689.485948
350.295632,1110.308913,-9104.533087,1225.752797
350.295953,-592.164754,-9030.512492,1302.362347
350.296275,-814.226536,-9622.677246,-306.438199
350.296597,-592.164754,-10881.027347,-1149.143247
350.296919,-1110.308913,-10362.883188,-2068.457845
350.297240,-1258.350101,-9474.636058,-1378.971896
350.297562,-518.144159,-8586.388927,229.828649
350.297884,296.082377,-7476.080014,306.438199
350.298206,1184.329507,-6217.729913,-1378.971896
350.298527,1110.308913,-7105.977043,-2757.943793
350.298849,-222.061783,-8734.430116,-1762.019645
350.299171,-2368.659014,-9696.697840,-536.266849
350.299493,-4071.132681,-9696.697840,536.266849
350.299815,-4145.153275,-10510.924376,919.314598
350.300136,-3182.885551,-9622.677246,383.047749
350.300458,-1332.370696,-8216.285956,-995.924147
350.300780,296.082377,-8068.244768,-1685.410096
350.301102,1480.411884,-8808.450710,-689.485948
350.301423,1998.556043,-9474.636058,536.266849
350.301745,1480.411884,-9918.759623,383.047749
350.302067,1406.391290,-9844.739029,229.828649
350.302389,1850.514855,-8512.368333,-1072.533697
350.302710,2664.741391,-7846.182985,-3907.087040
350.303032,2960.823768,-8882.471304,-4826.401637
350.303354,2072.576638,-10288.862594,-2757.943793
350.303676,1184.329507,-11399.171507,-612.876398
350.303998,74.020594,-11917.315666,0.000000
350.304319,0.000000,-11695.253884,-1149.143247
350.304641,0.000000,-9992.780217,-2604.724693
350.304963,0.000000,-7550.100608,-4596.572988
350.305285,-592.164754,-7328.038826,-5209.449386
350.305606,-1258.350101,-8216.285956,-3064.381992
350.305928,-2368.659014,-9030.512492,-2221.676944
350.306250,-3256.906145,-9474.636058,-2757.943793
350.306572,-3478.967927,-10732.986159,-3600.648841
350.306894,-3108.864956,-10584.944971,-4749.792088
350.307215,-3182.885551,-10658.965565,-4366.744339
350.307537,-2516.700203,-9474.636058,-3294.210641
350.307859,-1258.350101,-9326.594869,-2221.676944
350.308181,518.144159,-9918.759623,-2604.724693
350.308502,1554.432478,-10955.047942,-3370.820191
350.308824,1110.308913,-11547.212695,-3677.258390
350.309146,1480.411884,-11399.171507,-2604.724693
350.309468,1406.391290,-10362.883188,-1685.410096
350.309789,962.267725,-8068.244768,-1991.848295
350.310111,1036.288319,-6883.915261,-2757.943793
350.310433,0.000000,-5551.544565,-3907.087040
350.310755,-2294.638420,-7105.977043,-4366.744339
350.311077,-4219.173869,-9548.656652,-3217.601092
350.311398,-4959.379811,-10807.006753,-1378.971896
350.311720,-3478.967927,-10955.047942,-1762.019645
350.312042,-296.082377,-10658.965565,-1991.848295
350.312364,1998.556043,-8734.430116,-3064.381992
350.312685,2738.761985,-8216.285956,-3907.087040
350.313007,1998.556043,-8660.409521,-2987.772442
350.313329,666.185348,-9918.759623,-1762.019645
350.313651,148.041188,-9770.718434,-1378.971896
350.313972,-592.164754,-9474.636058,-2834.553343
350.314294,-666.185348,-9030.512492,-2451.505594
350.314616,-666.185348,-9548.656652,-1378.971896
350.314938,-222.061783,-10288.862594,0.000000
350.315260,148.041188,-11251.130318,1302.362347
350.315581,222.061783,-11325.150913,2451.505594
350.315903,518.144159,-10436.903782,2374.896044
350.316225,592.164754,-7698.141797,1838.629195
350.316547,1184.329507,-5921.647536,0.000000
350.316868,1776.494261,-5477.523971,-766.095498
350.317190,1554.432478,-6069.688724,-459.657299
350.317512,888.247130,-7994.224174,0.000000
350.317834,-592.164754,-10510.924376,0.000000
350.318156,-1850.514855,-11843.295072,0.000000
350.318477,-2590.720797,-12731.542202,-995.924147
350.318799,-2368.659014,-12213.398043,-1149.143247
350.319121,-962.267725,-10214.842000,-842.705048
350.319443,370.102971,-7920.203579,-995.924147
350.319764,1628.453072,-6365.771101,-1455.581446
350.320086,2072.576638,-7179.997637,-1072.533697
350.320408,1628.453072,-8808.450710,-306.438199
350.320730,370.102971,-10658.965565,0.000000
350.321051,-296.082377,-10807.006753,689.485948
350.321373,-666.185348,-10362.883188,1149.143247
350.321695,-592.164754,-8734.430116,842.705048
350.322017,-666.185348,-8290.306550,383.047749
350.322339,0.000000,-8290.306550,536.266849
350.322660,0.000000,-8882.471304,995.924147
350.322982,296.082377,-10288.862594,612.876398
350.323304,740.205942,-11399.171507,1532.190996
350.323626,1480.411884,-10955.047942,1762.019645
350.323947,1776.494261,-9918.759623,383.047749
350.324269,2960.823768,-9474.636058,-1991.848295
350.324591,2738.761985,-8956.491898,-2834.553343
350.324913,1258.350101,-9696.697840,-3064.381992
350.325235,-1258.350101,-9400.615463,-2068.457845
350.325556,-4219.173869,-9622.677246,-1762.019645
350.325878,-5403.503377,-11177.109724,-2757.943793
350.326200,-5033.400406,-11991.336260,-2451.505594
350.326522,-5033.400406,-10214.842000,-3294.210641
350.326843,-3849.070898,-8290.306550,-3140.991542
350.327165,-2664.741391,-7254.018232,-2298.286494
350.327487,-1628.453072,-6143.709319,-2681.334243
350.327809,-1184.329507,-6217.729913,-4213.525239
350.328130,-1702.473667,-8142.265362,-4443.353888
350.328452,-1998.556043,-9622.677246,-3524.039291
350.328774,-2442.679609,-10658.965565,-3677.258390
350.329096,-2072.576638,-11177.109724,-2757.943793
350.329418,-962.267725,-11843.295072,-2298.286494
350.329739,0.000000,-11029.068536,-2068.457845
350.330061,1184.329507,-10288.862594,-1838.629195
350.330383,2812.782580,-10436.903782,-1302.362347
350.330705,4219.173869,-10288.862594,-1072.533697
350.331026,4959.379811,-9400.615463,-995.924147
350.331348,4811.338623,-8956.491898,-536.266849
350.331670,4737.318029,-8142.265362,0.000000
350.331992,4071.132681,-7031.956449,-1149.143247
350.332313,2516.700203,-6291.750507,-2298.286494
350.332635,370.102971,-6365.771101,-2451.505594
350.332957,-1924.535449,-7920.203579,-2068.457845
350.333279,-3775.050304,-9178.553681,-1991.848295
350.333601,-4145.153275,-10362.883188,-2374.896044
350.333922,-3182.885551,-10214.842000,-3447.429741
350.334244,-1850.514855,-8956.491898,-4366.744339
350.334566,-222.061783,-7624.121203,-4290.134789
350.334888,0.000000,-8660.409521,-4826.401637
350.335209,-740.205942,-10436.903782,-4443.353888
350.335531,-2220.617826,-12065.356855,-3064.381992
350.335853,-3256.906145,-11917.315666,-2374.896044
350.336175,-3404.947333,-11251.130318,-2068.457845
350.336497,-2220.617826,-9104.533087,-2298.286494
350.336818,-1406.391290,-7994.224174,-1915.238745
350.337140,0.000000,-7550.100608,-153.219100
350.337462,1406.391290,-8364.327145,919.314598
350.337784,2960.823768,-9548.656652,2145.067394
350.338105,3404.947333,-9696.697840,2145.067394
350.338427,3404.947333,-8956.491898,2451.505594
350.338749,4293.194464,-8438.347739,919.314598
350.339071,4811.338623,-8586.388927,-689.485948
350.339392,4885.359217,-9696.697840,-1991.848295
350.339714,3478.967927,-10214.842000,-1072.533697
350.340036,1110.308913,-9844.739029,383.047749
350.340358,-1480.411884,-10140.821405,-153.219100
350.340680,-2516.700203,-11029.068536,-1532.190996
350.341001,-3849.070898,-10732.986159,-2604.724693
350.341323,-4515.256246,-9474.636058,-3140.991542
350.341645,-4071.132681,-9178.553681,-3370.820191
350.341967,-2960.823768,-9548.656652,-1915.238745
350.342288,-3404.947333,-8734.430116,-1378.971896
350.342610,-3330.926739,-8660.409521,-1608.800546
350.342932,-3701.029710,-9326.594869,-1762.019645
350.343254,-3182.885551,-9252.574275,-2451.505594
350.343576,-3256.906145,-8956.491898,-3140.991542
350.343897,-3108.864956,-8216.285956,-1532.190996
350.344219,-2072.576638,-8956.491898,0.000000
350.344541,-740.205942,-9474.636058,689.485948
350.344863,518.144159,-10584.944971,1149.143247
350.345184,1702.473667,-10288.862594,0.000000
350.345506,3404.947333,-10584.944971,-842.705048
350.345828,4367.215058,-10584.944971,-842.705048
350.346150,3923.091493,-10584.944971,0.000000
350.346471,2886.803174,-10066.800811,1532.190996
350.346793,1332.370696,-9030.512492,919.314598
350.347115,74.020594,-8142.265362,-919.314598
350.347437,-1554.432478,-7179.997637,-2221.676944
350.347759,-3182.885551,-6957.935855,-2451.505594
350.348080,-4293.194464,-7624.121203,-2068.457845
350.348402,-4071.132681,-9326.594869,-1149.143247
350.348724,-2886.803174,-10214.842000,-1378.971896
350.349046,-2368.659014,-9548.656652,-2068.457845
350.349367,-1776.494261,-8364.327145,-2528.115143
350.349689,-1628.453072,-8660.409521,-3217.601092
350.350011,-1924.535449,-9030.512492,-3524.039291
350.350333,-1776.494261,-9474.636058,-3907.087040
350.350654,-1924.535449,-9770.718434,-3064.381992
350.350976,-1998.556043,-9992.780217,-2145.067394
350.351298,-1850.514855,-9622.677246,-1532.190996
350.351620,-1776.494261,-10066.800811,-1149.143247
350.351942,-1036.288319,-10436.903782,-459.657299
350.352263,74.020594,-11325.150913,-306.438199
350.352585,1036.288319,-10140.821405,306.438199
350.352907,2442.679609,-9252.574275,1532.190996
350.353229,4071.132681,-7846.182985,2145.067394
350.353550,5403.503377,-6587.832884,842.705048
350.353872,5625.565159,-6069.688724,-153.219100
350.354194,5181.441594,-8142.265362,-766.095498
350.354516,4219.173869,-10140.821405,-689.485948
350.354838,2442.679609,-10436.903782,0.000000
350.355159,370.102971,-10436.903782,-919.314598
350.355481,-1406.391290,-10214.842000,-1302.362347
350.355803,-1702.473667,-10732.986159,-1915.238745
350.356125,-2072.576638,-9326.594869,-3600.648841
350.356446,-1998.556043,-8512.368333,-4903.011187
350.356768,-1776.494261,-8216.285956,-3753.867940
350.357090,-1924.535449,-8956.491898,-2834.553343
350.357412,-2220.617826,-9844.739029,-2604.724693
350.357733,-3182.885551,-11547.212695,-2911.162892
350.358055,-4293.194464,-11769.274478,-2528.115143
350.358377,-5329.482782,-10658.965565,-2451.505594
350.358699,-4441.235652,-8068.244768,-2451.505594
350.359021,-2738.761985,-7698.141797,-2221.676944
350.359342,-888.247130,-7698.141797,-1072.533697
350.359664,444.123565,-8290.306550,0.000000
350.359986,2220.617826,-9548.656652,919.314598
350.360308,3923.091493,-11399.171507,842.705048
350.360629,4663.297435,-11769.274478,536.266849
350.360951,3627.009116,-10510.924376,383.047749
350.361273,3256.906145,-8512.368333,536.266849
350.361595,2516.700203,-7476.080014,-612.876398
350.361916,814.226536,-6957.935855,-1762.019645
350.362238,-1554.432478,-6587.832884,-2528.115143
350.362560,-3404.947333,-7698.141797,-3524.039291
350.362882,-4811.338623,-9844.739029,-2987.772442
350.363204,-5329.482782,-11695.253884,-2374.896044
350.363525,-5255.462188,-11769.274478,-2451.505594
350.363847,-4663.297435,-9918.759623,-2834.553343
350.364169,-3034.844362,-8290.306550,-4060.306139
350.364491,-2220.617826,-8068.244768,-5056.230287
350.364812,-2442.679609,-7698.141797,-5132.839837
350.365134,-3627.009116,-7994.224174,-4136.915689
350.365456,-3404.947333,-9104.533087,-3677.258390
350.365778,-2368.659014,-9992.780217,-4213.525239
350.366100,-1258.350101,-10807.006753,-3140.991542
350.366421,-1184.329507,-11029.068536,-1762.019645
350.366743,-444.123565,-9992.780217,0.000000
350.367065,888.247130,-9844.739029,-383.047749
350.367387,2442.679609,-10140.821405,-1072.533697
350.367708,4219.173869,-9918.759623,-842.705048
350.368030,4663.297435,-9622.677246,-459.657299
350.368352,4441.235652,-9918.759623,536.266849
350.368674,3775.050304,-10066.800811,995.924147
350.368995,2886.803174,-9770.718434,612.876398
350.369317,2146.597232,-8808.450710,-842.705048
350.369639,814.226536,-7772.162391,-2068.457845
350.369961,-592.164754,-8364.327145,-2451.505594
350.370283,-2220.617826,-9622.677246,-1915.238745
350.370604,-2664.741391,-11177.109724,-1225.752797
350.370926,-2146.597232,-11251.130318,-1378.971896
350.371248,-592.164754,-10510.924376,-2221.676944
350.371570,0.000000,-9400.615463,-2834.553343
350.371891,74.020594,-8734.430116,-3524.039291
350.372213,-444.123565,-8438.347739,-3217.601092
350.372535,-1628.453072,-9104.533087,-2068.457845
350.372857,-2516.700203,-9696.697840,-1915.238745
350.373179,-3997.112087,-9548.656652,-1608.800546
350.373500,-4737.318029,-9400.615463,-1302.362347
350.373822,-4959.379811,-9474.636058,-919.314598
350.374144,-3404.947333,-8956.491898,-306.438199
350.374466,-1258.350101,-7994.224174,1302.362347
350.374787,1184.329507,-7920.203579,1762.019645
350.375109,2516.700203,-8808.450710,1378.971896
350.375431,2368.659014,-9326.594869,2068.457845
350.375753,1776.494261,-9252.574275,2911.162892
350.376074,1702.473667,-8290.306550,2757.943793
350.376396,2960.823768,-6439.791695,306.438199
350.376718,3997.112087,-6883.915261,-1608.800546
350.377040,4515.256246,-8216.285956,-1838.629195
350.377362,3627.009116,-9178.553681,-153.219100
350.377683,2220.617826,-10140.821405,1072.533697
350.378005,814.226536,-11325.150913,1608.800546
350.378327,-592.164754,-10584.944971,76.609550
350.378649,-1480.411884,-8956.491898,-2145.067394
350.378970,-1850.514855,-7105.977043,-3983.696590
350.379292,-1850.514855,-7402.059420,-3600.648841
350.379614,-1998.556043,-7994.224174,-2221.676944
350.379936,-2664.741391,-8586.388927,-1991.848295
350.380257,-3552.988522,-10362.883188,-2068.457845
350.380579,-4515.256246,-12139.377449,-2221.676944
350.380901,-4885.359217,-12509.480420,-3217.601092
350.381223,-5033.400406,-11843.295072,-3600.648841
350.381545,-3775.050304,-10140.821405,-2298.286494
350.381866,-2146.597232,-9400.615463,-1915.238745
350.382188,0.000000,-9844.739029,-1991.848295
350.382510,888.247130,-11029.068536,-1991.848295
350.382832,1776.494261,-11917.315666,-1608.800546
350.383153,1924.535449,-12435.459826,-1378.971896
350.383475,1480.411884,-11621.233289,-459.657299
350.383797,1332.370696,-9844.739029,0.000000
350.384119,1036.288319,-7550.100608,-1378.971896
350.384441,518.144159,-5847.626942,-2911.162892
350.384762,-1110.308913,-5995.668130,-3677.258390
350.385084,-2960.823768,-8512.368333,-3600.648841
350.385406,-4071.132681,-10955.047942,-1991.848295
350.385728,-3849.070898,-11917.315666,-995.924147
350.386050,-1998.556043,-10510.924376,-1532.190996
350.386371,148.041188,-7698.141797,-2987.772442
350.386693,1628.453072,-6217.729913,-4366.744339
350.387015,1554.432478,-6217.729913,-4366.744339
350.387337,370.102971,-7920.203579,-3677.258390
350.387659,-962.267725,-9400.615463,-2681.334243
350.387981,-1924.535449,-10584.944971,-2374.896044
350.388302,-1554.432478,-10436.903782,-2298.286494
350.388624,-1332.370696,-10140.821405,-2298.286494
350.388946,0.000000,-9178.553681,-1685.410096
350.389268,1554.432478,-8660.409521,-689.485948
350.389590,2590.720797,-8808.450710,-229.828649
350.389912,2368.659014,-9252.574275,1149.143247
350.390233,2220.617826,-8956.491898,229.828649
350.390555,1924.535449,-8586.388927,76.609550
350.390877,1924.535449,-8068.244768,-459.657299
350.391199,2368.659014,-7624.121203,-919.314598
350.391521,2220.617826,-7772.162391,-1532.190996
350.391842,1850.514855,-9030.512492,-1608.800546
350.392164,814.226536,-10362.883188,-1302.362347
350.392486,-518.144159,-11325.150913,-1072.533697
350.392808,-1406.391290,-11325.150913,-1762.019645
350.393130,-1110.308913,-11177.109724,-2528.115143
350.393452,-666.185348,-9918.759623,-2911.162892
350.393773,-740.205942,-8438.347739,-4136.915689
350.394095,-814.226536,-8142.265362,-3370.820191
350.394417,-1184.329507,-9400.615463,-2911.162892
350.394739,-1628.453072,-10584.944971,-2834.553343
350.395061,-2738.761985,-10807.006753,-2757.943793
350.395383,-3701.029710,-10807.006753,-2451.505594
350.395704,-3330.926739,-9622.677246,-1378.971896
350.396026,-2738.761985,-8956.491898,-1378.971896
350.396348,-1628.453072,-8438.347739,-1225.752797
350.396670,-592.164754,-9178.553681,-766.095498
350.396992,592.164754,-10584.944971,-612.876398
350.397314,1036.288319,-12065.356855,612.876398
350.397635,1776.494261,-11695.253884,1608.800546
350.397957,3034.844362,-10807.006753,919.314598
350.398279,4515.256246,-9326.594869,-153.219100
350.398601,4811.338623,-7772.162391,76.609550
350.398923,3923.091493,-6513.812290,0.000000
350.399245,1628.453072,-6217.729913,-689.485948
350.399566,-1258.350101,-8586.388927,-842.705048
350.399888,-3330.926739,-10510.924376,-459.657299
350.400210,-4737.318029,-11029.068536,-1378.971896
350.400532,-4737.318029,-11029.068536,-1608.800546
350.400854,-4219.173869,-9474.636058,-1072.533697
350.401176,-2220.617826,-6291.750507,-1532.190996
350.401497,-888.247130,-4737.318029,-3370.820191
350.401819,-666.185348,-5773.606348,-4213.525239
350.402141,-1998.556043,-8882.471304,-3064.381992
350.402463,-3849.070898,-10658.965565,-2681.334243
