#time,accel_x,accel_y,accel_z
375.968257,-148.041188,-8586.388927,-1762.019645
375.968580,-222.061783,-8956.491898,-1608.800546
375.968903,-444.123565,-9474.636058,-1532.190996
375.969225,-592.164754,-9844.739029,-1608.800546
375.969548,-148.041188,-9844.739029,-1532.190996
375.969870,-962.267725,-9548.656652,-1991.848295
375.970193,-518.144159,-9400.615463,-1762.019645
375.970516,-444.123565,-9104.533087,-1532.190996
375.970838,0.000000,-8882.471304,-1302.362347
375.971161,-444.123565,-8586.388927,-1072.533697
375.971484,-518.144159,-9030.512492,-459.657299
375.971806,-666.185348,-9474.636058,-1302.362347
375.972129,-592.164754,-9696.697840,-1225.752797
375.972451,-740.205942,-9770.718434,-1302.362347
375.972774,-740.205942,-9474.636058,-1455.581446
375.973097,-370.102971,-9030.512492,-1532.190996
375.973419,-148.041188,-8808.450710,-1302.362347
375.973742,-222.061783,-8660.409521,-1455.581446
375.974065,-370.102971,-9400.615463,-1378.971896
375.974387,-740.205942,-9548.656652,-1378.971896
375.974710,-666.185348,-9696.697840,-919.314598
375.975032,-592.164754,-10066.800811,-1685.410096
375.975355,-518.144159,-9474.636058,-1302.362347
375.975678,-296.082377,-9178.553681,-1378.971896
375.976000,-148.041188,-8956.491898,-1378.971896
375.976323,0.000000,-8660.409521,-1302.362347
375.976646,-296.082377,-8660.409521,-919.314598
375.976968,-444.123565,-9474.636058,-1532.190996
375.977291,-592.164754,-9548.656652,-1532.190996
375.977613,-740.205942,-9474.636058,-1532.190996
375.977936,-666.185348,-9400.615463,-1378.971896
375.978259,-370.102971,-9400.615463,-1302.362347
375.978581,0.000000,-8956.491898,-1378.971896
375.978904,-148.041188,-9104.533087,-1455.581446
375.979227,-296.082377,-9326.594869,-1532.190996
375.979549,-592.164754,-9400.615463,-1762.019645
375.979872,-740.205942,-9474.636058,-1991.848295
375.980194,0.000000,-9844.739029,-1762.019645
375.980517,-296.082377,-9474.636058,-1762.019645
375.980840,-296.082377,-9252.574275,-1685.410096
375.981162,0.000000,-9178.553681,-1838.629195
375.981485,-370.102971,-9400.615463,-1378.971896
375.981808,-222.061783,-9178.553681,-2221.676944
375.982130,-740.205942,-9400.615463,-1915.238745
375.982453,-592.164754,-9474.636058,-2145.067394
375.982775,-592.164754,-9622.677246,-1915.238745
375.983098,-518.144159,-9474.636058,-1838.629195
375.983421,-222.061783,-9252.574275,-2068.457845
375.983743,-444.123565,-8956.491898,-1455.581446
375.984066,-296.082377,-9252.574275,-1991.848295
375.984389,-444.123565,-9178.553681,-1762.019645
375.984711,-370.102971,-9548.656652,-1838.629195
375.985034,0.000000,-9474.636058,-1455.581446
375.985356,-296.082377,-9474.636058,-1608.800546
375.985679,-296.082377,-9622.677246,-1762.019645
375.986002,-222.061783,-9474.636058,-1608.800546
375.986324,222.061783,-9252.574275,-1608.800546
375.986647,1480.411884,-9474.636058,-2145.067394
375.986970,2664.741391,-9622.677246,-1685.410096
375.987292,2516.700203,-9326.594869,-919.314598
375.987615,1776.494261,-8586.388927,-459.657299
375.987937,814.226536,-8734.430116,-1532.190996
375.988260,-444.123565,-9400.615463,-2528.115143
375.988583,-1998.556043,-9400.615463,-2374.896044
375.988905,-3849.070898,-9252.574275,-2221.676944
375.989228,-4589.276840,-9474.636058,-2681.334243
375.989551,-3330.926739,-9474.636058,-3140.991542
375.989873,-962.267725,-10362.883188,-2987.772442
375.990196,1628.453072,-11029.068536,-1838.629195
375.990518,2664.741391,-10362.883188,306.438199
375.990841,2294.638420,-9030.512492,229.828649
375.991164,2220.617826,-8512.368333,-689.485948
375.991486,2664.741391,-9252.574275,-1991.848295
375.991809,2812.782580,-9844.739029,-2145.067394
375.992132,1554.432478,-8734.430116,-1072.533697
375.992454,0.000000,-7179.997637,383.047749
375.992777,444.123565,-7254.018232,-842.705048
375.993099,1998.556043,-9178.553681,-2681.334243
375.993422,1554.432478,-10436.903782,-1762.019645
375.993745,-222.061783,-9474.636058,459.657299
375.994067,-1184.329507,-8734.430116,-766.095498
375.994390,-222.061783,-9474.636058,-3524.039291
375.994713,444.123565,-9474.636058,-2834.553343
375.995035,296.082377,-10362.883188,-1149.143247
375.995358,444.123565,-10807.006753,-766.095498
375.995680,1924.535449,-9548.656652,-1685.410096
375.996003,3330.926739,-9474.636058,-1838.629195
375.996326,4293.194464,-10732.986159,-612.876398
375.996648,4145.153275,-11103.089130,0.000000
375.996971,3034.844362,-9326.594869,-842.705048
375.997294,2368.659014,-7031.956449,-612.876398
375.997616,2516.700203,-7846.182985,-1225.752797
375.997939,2368.659014,-8290.306550,-1532.190996
375.998261,1258.350101,-7254.018232,-1838.629195
375.998584,1258.350101,-8364.327145,-1149.143247
375.998907,1702.473667,-10584.944971,0.000000
375.999229,2886.803174,-10807.006753,-459.657299
375.999552,2812.782580,-9622.677246,-1915.238745
375.999875,2368.659014,-10066.800811,-1991.848295
376.000197,3034.844362,-10214.842000,-995.924147
376.000520,3404.947333,-9326.594869,-1455.581446
376.000842,3330.926739,-8586.388927,-2298.286494
376.001165,3256.906145,-9178.553681,-2145.067394
376.001488,3182.885551,-9696.697840,-1149.143247
376.001810,3034.844362,-9326.594869,-995.924147
376.002133,2664.741391,-9696.697840,-1532.190996
376.002456,2590.720797,-9622.677246,-1685.410096
376.002778,1480.411884,-8734.430116,-919.314598
376.003101,814.226536,-7698.141797,-1149.143247
376.003423,74.020594,-7772.162391,-2374.896044
376.003746,-444.123565,-8660.409521,-2298.286494
376.004069,-666.185348,-9548.656652,-1532.190996
376.004391,-1036.288319,-9844.739029,-1225.752797
376.004714,-444.123565,-11621.233289,-1532.190996
376.005037,0.000000,-12435.459826,-1378.971896
376.005359,666.185348,-11991.336260,-766.095498
376.005682,1332.370696,-10955.047942,-689.485948
376.006004,1628.453072,-9104.533087,-1149.143247
376.006327,2072.576638,-7994.224174,-1302.362347
376.006650,1776.494261,-7328.038826,-919.314598
376.006972,1406.391290,-7550.100608,-536.266849
376.007295,962.267725,-7920.203579,-1302.362347
376.007618,1406.391290,-8290.306550,-2298.286494
376.007940,1184.329507,-8438.347739,-1225.752797
376.008263,1480.411884,-8586.388927,-1072.533697
376.008585,1850.514855,-8068.244768,-2145.067394
376.008908,1924.535449,-7550.100608,-2604.724693
376.009231,2146.597232,-8734.430116,-2221.676944
376.009553,1850.514855,-9474.636058,-2221.676944
376.009876,1406.391290,-10066.800811,-2681.334243
376.010199,814.226536,-11103.089130,-2528.115143
376.010521,888.247130,-12213.398043,-1838.629195
376.010844,1036.288319,-12657.521608,-1225.752797
376.011166,1406.391290,-11399.171507,-995.924147
376.011489,1998.556043,-10214.842000,-995.924147
376.011812,1850.514855,-9104.533087,-229.828649
376.012134,1850.514855,-8216.285956,0.000000
376.012457,1924.535449,-7698.141797,0.000000
376.012780,2368.659014,-7550.100608,-536.266849
376.013102,3701.029710,-7476.080014,-2068.457845
376.013425,5477.523971,-7846.182985,-2221.676944
376.013747,6217.729913,-8364.327145,-1685.410096
376.014070,5847.626942,-8882.471304,-1149.143247
376.014393,5551.544565,-10140.821405,-1455.581446
376.014715,4367.215058,-11251.130318,-1991.848295
376.015038,2960.823768,-12361.439231,-2757.943793
376.015361,1554.432478,-13101.645173,-2451.505594
376.015683,592.164754,-12657.521608,-1608.800546
376.016006,370.102971,-10955.047942,-842.705048
376.016328,518.144159,-9178.553681,153.219100
376.016651,814.226536,-8068.244768,689.485948
376.016974,518.144159,-6661.853478,612.876398
376.017296,296.082377,-5477.523971,76.609550
376.017619,0.000000,-4885.359217,76.609550
376.017941,0.000000,-4959.379811,306.438199
376.018264,74.020594,-6143.709319,-612.876398
376.018587,148.041188,-7105.977043,-1608.800546
376.018909,444.123565,-9178.553681,-2298.286494
376.019232,296.082377,-10732.986159,-2374.896044
376.019555,74.020594,-11917.315666,-2298.286494
376.019877,-666.185348,-12583.501014,-2834.553343
376.020200,-1850.514855,-12879.583391,-3370.820191
376.020522,-3034.844362,-12657.521608,-3447.429741
376.020845,-3923.091493,-12509.480420,-3370.820191
376.021168,-4515.256246,-11917.315666,-3217.601092
376.021490,-5033.400406,-11695.253884,-1991.848295
376.021813,-4293.194464,-10807.006753,-459.657299
376.022136,-3478.967927,-10436.903782,76.609550
376.022458,-2072.576638,-9474.636058,383.047749
376.022781,-370.102971,-8438.347739,612.876398
376.023103,1110.308913,-7105.977043,459.657299
376.023426,2220.617826,-4885.359217,766.095498
376.023749,4145.153275,-4071.132681,536.266849
376.024071,5699.585753,-4367.215058,-1685.410096
376.024394,7105.977043,-6217.729913,-3600.648841
376.024717,7179.997637,-8586.388927,-3217.601092
376.025039,5625.565159,-10214.842000,-3064.381992
376.025362,3404.947333,-12065.356855,-2298.286494
376.025684,1184.329507,-14211.954086,-2451.505594
376.026007,-1184.329507,-14359.995275,-2451.505594
376.026330,-4589.276840,-12435.459826,-2834.553343
376.026652,-6735.874072,-10288.862594,-3447.429741
376.026975,-8586.388927,-9474.636058,-4903.011187
376.027298,-7994.224174,-9474.636058,-2911.162892
376.027620,-7179.997637,-6661.853478,-995.924147
376.027943,-6587.832884,-4811.338623,-1991.848295
376.028265,-3849.070898,-7994.224174,-2451.505594
376.028588,592.164754,-10288.862594,-1685.410096
376.028911,3108.864956,-10436.903782,-2451.505594
376.029233,5181.441594,-10732.986159,-2528.115143
376.029556,8142.265362,-10955.047942,-612.876398
376.029879,11251.130318,-10140.821405,-842.705048
376.030201,12287.418637,-7402.059420,-153.219100
376.030524,10881.027347,-4737.318029,842.705048
376.030846,9474.636058,-6291.750507,-2987.772442
376.031169,8068.244768,-11843.295072,-4366.744339
376.031492,6143.709319,-13693.809927,0.000000
376.031814,1184.329507,-11843.295072,1532.190996
376.032137,-3478.967927,-11547.212695,1072.533697
376.032460,-5847.626942,-10140.821405,1532.190996
376.032782,-6587.832884,-6883.915261,536.266849
376.033105,-8364.327145,-4737.318029,-3524.039291
376.033427,-10436.903782,-6069.688724,-2834.553343
376.033750,-11029.068536,-7402.059420,153.219100
376.034073,-10140.821405,-5699.585753,-1149.143247
376.034395,-7920.203579,-9104.533087,-4596.572988
376.034718,-4737.318029,-13027.624579,-5056.230287
376.035041,-2368.659014,-13693.809927,-4979.620737
376.035363,0.000000,-14434.015869,-4979.620737
376.035686,1998.556043,-13471.748144,-2451.505594
376.036008,4885.359217,-11695.253884,-995.924147
376.036331,7550.100608,-7105.977043,-2298.286494
376.036653,8364.327145,-6069.688724,-3830.477490
376.036976,8216.285956,-6957.935855,-2604.724693
376.037298,8068.244768,-9770.718434,-1149.143247
376.037620,5255.462188,-10214.842000,2987.772442
376.037943,1184.329507,-10066.800811,6281.983084
376.038265,-2368.659014,-9474.636058,4826.401637
376.038588,-4145.153275,-6883.915261,842.705048
376.038910,-4959.379811,-5625.565159,0.000000
376.039233,-5403.503377,-6217.729913,-229.828649
376.039555,-6217.729913,-7105.977043,-1072.533697
376.039878,-5625.565159,-7920.203579,-536.266849
376.040200,-4145.153275,-8142.265362,-766.095498
376.040523,-3775.050304,-10066.800811,-3294.210641
376.040845,-2738.761985,-15174.221811,-6128.763984
376.041168,-518.144159,-15692.365970,-7048.078582
376.041490,518.144159,-13767.830521,-7201.297681
376.041813,1480.411884,-12731.542202,-5132.839837
376.042135,3108.864956,-10955.047942,-2221.676944
376.042458,4515.256246,-8364.327145,-2834.553343
376.042780,3923.091493,-4959.379811,-3217.601092
376.043103,3552.988522,-6143.709319,-2604.724693
376.043425,2368.659014,-10066.800811,-766.095498
376.043748,518.144159,-11103.089130,2987.772442
376.044070,-3182.885551,-8216.285956,6741.640382
376.044393,-5033.400406,-6809.894666,3983.696590
376.044715,-4145.153275,-6809.894666,842.705048
376.045038,-3256.906145,-5551.544565,-306.438199
376.045360,-4219.173869,-4811.338623,229.828649
376.045683,-4885.359217,-6069.688724,995.924147
376.046005,-3849.070898,-7920.203579,-306.438199
376.046328,-1184.329507,-11843.295072,-2221.676944
376.046650,814.226536,-14137.933492,-4826.401637
376.046973,1850.514855,-14508.036463,-6818.249932
376.047295,2368.659014,-13397.727550,-6205.373534
376.047618,3478.967927,-11103.089130,-3447.429741
376.047940,4145.153275,-9696.697840,-3447.429741
376.048263,4293.194464,-9474.636058,-5209.449386
376.048585,4145.153275,-9030.512492,-5362.668486
376.048908,2960.823768,-8364.327145,-4366.744339
376.049230,1480.411884,-9548.656652,-1762.019645
376.049553,-444.123565,-10510.924376,1608.800546
376.049875,-1924.535449,-8808.450710,3524.039291
376.050197,-3552.988522,-6809.894666,1302.362347
376.050520,-4663.297435,-6661.853478,-536.266849
376.050842,-5403.503377,-6291.750507,0.000000
376.051165,-6439.791695,-4515.256246,-1532.190996
376.051487,-5255.462188,-5181.441594,-2145.067394
376.051810,-2146.597232,-8808.450710,-1838.629195
376.052132,1850.514855,-11399.171507,-2604.724693
376.052455,3849.070898,-13397.727550,-3983.696590
376.052777,5033.400406,-15248.242405,-3370.820191
376.053100,5699.585753,-14952.160028,-1762.019645
376.053422,7031.956449,-11843.295072,-2374.896044
376.053745,6809.894666,-8882.471304,-4290.134789
376.054067,4737.318029,-7920.203579,-4826.401637
376.054390,3552.988522,-9474.636058,-4060.306139
376.054712,2886.803174,-9770.718434,-1991.848295
376.055035,296.082377,-9326.594869,306.438199
376.055357,-2812.782580,-10362.883188,2145.067394
376.055680,-5699.585753,-9474.636058,3677.258390
376.056002,-7550.100608,-7031.956449,2604.724693
376.056325,-8364.327145,-5477.523971,229.828649
376.056647,-9622.677246,-6143.709319,-1455.581446
376.056970,-9252.574275,-6217.729913,-919.314598
376.057292,-7994.224174,-6069.688724,0.000000
376.057615,-6587.832884,-5477.523971,-995.924147
376.057937,-4293.194464,-10436.903782,-2681.334243
376.058260,222.061783,-14508.036463,-3600.648841
376.058582,1998.556043,-15248.242405,-4136.915689
376.058905,2368.659014,-13915.871710,-2987.772442
376.059227,3997.112087,-11769.274478,-612.876398
376.059550,6735.874072,-9178.553681,-3064.381992
376.059872,8956.491898,-8586.388927,-5056.230287
376.060195,8216.285956,-7402.059420,-2528.115143
376.060517,5921.647536,-6069.688724,-766.095498
376.060840,3404.947333,-8142.265362,1225.752797
376.061162,1258.350101,-10436.903782,4673.182538
376.061485,-1554.432478,-9474.636058,3907.087040
376.061807,-4219.173869,-7402.059420,76.609550
376.062130,-5107.421000,-6217.729913,0.000000
376.062452,-5773.606348,-6291.750507,-766.095498
376.062774,-6291.750507,-6661.853478,-1685.410096
376.063097,-6439.791695,-6143.709319,459.657299
376.063419,-5995.668130,-5107.421000,-766.095498
376.063742,-5107.421000,-9326.594869,-4979.620737
376.064064,-1480.411884,-15840.407159,-6741.640382
376.064387,740.205942,-17098.757260,-6971.469032
376.064709,2072.576638,-16358.551318,-5898.935335
376.065032,4071.132681,-15248.242405,-2221.676944
376.065354,6513.812290,-11917.315666,0.000000
376.065677,8216.285956,-7031.956449,-2911.162892
376.065999,7846.182985,-4737.318029,-6435.202183
376.066322,7550.100608,-7846.182985,-4366.744339
376.066644,6143.709319,-10362.883188,-919.314598
376.066967,2664.741391,-9622.677246,3983.696590
376.067289,-1554.432478,-9252.574275,5745.716235
376.067612,-3923.091493,-8734.430116,4213.525239
376.067934,-3627.009116,-6883.915261,689.485948
376.068257,-3849.070898,-4737.318029,-1455.581446
376.068579,-6587.832884,-5329.482782,-919.314598
376.068902,-7772.162391,-6439.791695,842.705048
376.069224,-6365.771101,-7328.038826,229.828649
376.069547,-5033.400406,-8216.285956,-2987.772442
376.069869,-3627.009116,-12509.480420,-6128.763984
376.070192,-1702.473667,-15026.180623,-6971.469032
376.070514,-518.144159,-15396.283594,-7048.078582
376.070837,148.041188,-15100.201217,-4673.182538
376.071159,1554.432478,-12953.603985,-2451.505594
376.071482,3701.029710,-9844.739029,-2987.772442
376.071804,4737.318029,-5847.626942,-4826.401637
376.072127,4885.359217,-4737.318029,-4366.744339
376.072449,4441.235652,-7254.018232,-2451.505594
376.072772,3478.967927,-9770.718434,1302.362347
376.073094,1258.350101,-9178.553681,5515.887586
376.073417,-2072.576638,-8290.306550,6052.154434
376.073739,-3404.947333,-5847.626942,2987.772442
376.074062,-3849.070898,-3775.050304,-229.828649
376.074384,-4959.379811,-3108.864956,-1302.362347
376.074707,-6439.791695,-5329.482782,-536.266849
376.075029,-6661.853478,-7698.141797,153.219100
376.075352,-5107.421000,-9474.636058,-153.219100
376.075674,-2886.803174,-11029.068536,-3294.210641
376.075996,-1110.308913,-14508.036463,-6281.983084
376.076319,1332.370696,-16802.674883,-7201.297681
376.076641,2886.803174,-15840.407159,-5898.935335
376.076964,3256.906145,-14063.912898,-4443.353888
376.077286,3701.029710,-12287.418637,-3217.601092
376.077609,4367.215058,-10288.862594,-2604.724693
376.077931,3997.112087,-7179.997637,-4749.792088
376.078254,2664.741391,-6513.812290,-4443.353888
376.078576,1332.370696,-9252.574275,-1225.752797
376.078899,-444.123565,-10288.862594,2834.553343
376.079221,-3108.864956,-8956.491898,5132.839837
376.079544,-4811.338623,-8216.285956,4213.525239
376.079866,-4811.338623,-7105.977043,1455.581446
376.080189,-4219.173869,-5329.482782,-689.485948
376.080511,-5107.421000,-4145.153275,-919.314598
376.080834,-6069.688724,-5033.400406,1302.362347
376.081156,-5625.565159,-7328.038826,153.219100
376.081479,-3552.988522,-9844.739029,-1685.410096
376.081801,-1702.473667,-11547.212695,-3753.867940
376.082124,-222.061783,-12657.521608,-5822.325785
376.082446,962.267725,-13175.665768,-5209.449386
376.082769,3034.844362,-12805.562797,-3753.867940
376.083091,4071.132681,-10955.047942,-2757.943793
376.083414,5181.441594,-9918.759623,-3907.087040
376.083736,5403.503377,-9474.636058,-4290.134789
376.084059,4663.297435,-9030.512492,-3217.601092
376.084381,3034.844362,-8438.347739,-919.314598
376.084704,888.247130,-9178.553681,1455.581446
376.085026,-1406.391290,-8512.368333,3294.210641
376.085349,-3034.844362,-6365.771101,2987.772442
376.085671,-3701.029710,-5403.503377,383.047749
376.085994,-4071.132681,-6809.894666,-2145.067394
376.086316,-4293.194464,-6735.874072,76.609550
376.086639,-4589.276840,-4959.379811,536.266849
376.086961,-3849.070898,-5625.565159,-1225.752797
376.087284,-962.267725,-10584.944971,-2374.896044
376.087606,2072.576638,-13545.768739,-3447.429741
376.087929,3330.926739,-14137.933492,-5286.058936
376.088251,3775.050304,-15322.262999,-4903.011187
376.088573,4811.338623,-15322.262999,-2604.724693
376.088896,6217.729913,-12361.439231,-1915.238745
376.089218,6143.709319,-8364.327145,-2834.553343
376.089541,5033.400406,-7698.141797,-4979.620737
376.089863,3552.988522,-10214.842000,-4903.011187
376.090186,2368.659014,-10881.027347,-2528.115143
376.090508,-1258.350101,-9474.636058,1532.190996
376.090831,-4959.379811,-9030.512492,2681.334243
376.091153,-6587.832884,-8438.347739,2145.067394
376.091476,-6883.915261,-5181.441594,689.485948
376.091798,-7698.141797,-4071.132681,-1378.971896
376.092121,-8586.388927,-5625.565159,-1685.410096
376.092443,-8660.409521,-7698.141797,-1302.362347
376.092766,-6661.853478,-8956.491898,-306.438199
376.093088,-4663.297435,-8512.368333,-1225.752797
376.093411,-2886.803174,-11029.068536,-4290.134789
376.093733,-296.082377,-15248.242405,-4979.620737
376.094056,1776.494261,-13915.871710,-3830.477490
376.094378,2960.823768,-10658.965565,-3217.601092
376.094701,5033.400406,-9400.615463,-3830.477490
376.095023,7550.100608,-10066.800811,-4519.963438
376.095346,8734.430116,-10658.965565,-3524.039291
376.095668,7550.100608,-8068.244768,-1915.238745
376.095991,4441.235652,-7994.224174,0.000000
376.096313,1628.453072,-10584.944971,2145.067394
376.096636,-592.164754,-10362.883188,3524.039291
376.096958,-3849.070898,-6439.791695,2068.457845
376.097281,-6365.771101,-4589.276840,-612.876398
376.097603,-6661.853478,-5255.462188,-1378.971896
376.097926,-6217.729913,-6735.874072,-1608.800546
376.098248,-5181.441594,-7476.080014,536.266849
376.098571,-4589.276840,-5699.585753,-153.219100
376.098893,-3997.112087,-8068.244768,-2374.896044
376.099216,-1258.350101,-13471.748144,-3753.867940
376.099538,1110.308913,-14730.098246,-4903.011187
376.099861,1258.350101,-14359.995275,-6281.983084
376.100183,1184.329507,-13989.892304,-4903.011187
376.100506,3627.009116,-12139.377449,-229.828649
376.100828,6217.729913,-8586.388927,-1532.190996
376.101150,7105.977043,-7031.956449,-5592.497135
376.101473,6439.791695,-9474.636058,-3830.477490
376.101795,5477.523971,-10510.924376,-612.876398
376.102118,2220.617826,-8956.491898,2221.676944
376.102440,-2294.638420,-8586.388927,3524.039291
376.102763,-5477.523971,-7772.162391,2451.505594
376.103085,-5995.668130,-5477.523971,0.000000
376.103408,-6661.853478,-4663.297435,-995.924147
376.103730,-7846.182985,-5477.523971,0.000000
376.104053,-7550.100608,-7994.224174,-1685.410096
376.104375,-5107.421000,-9622.677246,-1532.190996
376.104698,-3182.885551,-10436.903782,76.609550
376.105020,-2738.761985,-9918.759623,-1915.238745
376.105343,-2294.638420,-14063.912898,-5669.106685
376.105665,592.164754,-15544.324782,-5745.716235
376.105988,1184.329507,-12805.562797,-4903.011187
376.106310,1554.432478,-10658.965565,-2834.553343
376.106633,3627.009116,-9474.636058,-1915.238745
376.106955,6587.832884,-9696.697840,-4060.306139
376.107278,8364.327145,-9696.697840,-3600.648841
376.107600,7031.956449,-8512.368333,-536.266849
376.107923,3552.988522,-8142.265362,2298.286494
376.108245,518.144159,-9770.718434,3753.867940
376.108568,-1850.514855,-7846.182985,4596.572988
376.108890,-4737.318029,-4589.276840,689.485948
376.109213,-6439.791695,-2960.823768,-2528.115143
376.109535,-6069.688724,-4071.132681,-1378.971896
376.109858,-5847.626942,-7179.997637,-995.924147
376.110180,-4441.235652,-9770.718434,153.219100
376.110503,-3552.988522,-9992.780217,536.266849
376.110825,-2812.782580,-9992.780217,-2221.676944
376.111148,-1332.370696,-13101.645173,-4826.401637
376.111470,962.267725,-14804.118840,-6435.202183
376.111793,1850.514855,-12657.521608,-7354.516781
376.112115,2072.576638,-11399.171507,-4366.744339
376.112438,4293.194464,-11325.150913,-612.876398
376.112760,6809.894666,-10510.924376,0.000000
376.113083,7179.997637,-8512.368333,-4136.915689
376.113405,6587.832884,-10066.800811,-3830.477490
376.113728,5625.565159,-10658.965565,766.095498
376.114050,2738.761985,-9400.615463,2451.505594
376.114372,-1628.453072,-6883.915261,3600.648841
376.114695,-5107.421000,-5033.400406,3447.429741
376.115017,-6513.812290,-4293.194464,459.657299
376.115340,-6217.729913,-4663.297435,-1532.190996
376.115662,-7624.121203,-6069.688724,-1608.800546
376.115985,-7254.018232,-9622.677246,-1762.019645
376.116307,-4885.359217,-11621.233289,-842.705048
376.116630,-1998.556043,-12139.377449,-153.219100
376.116952,-962.267725,-10288.862594,-1838.629195
376.117275,-1110.308913,-11399.171507,-5975.544884
376.117597,-962.267725,-12805.562797,-7124.688131
376.117920,0.000000,-11029.068536,-4903.011187
376.118242,1332.370696,-9252.574275,-4136.915689
376.118565,3330.926739,-9992.780217,-5132.839837
376.118887,6069.688724,-12287.418637,-3524.039291
376.119210,7402.059420,-11029.068536,-1455.581446
376.119532,5403.503377,-8586.388927,306.438199
376.119855,2146.597232,-9030.512492,2145.067394
376.120177,-444.123565,-8438.347739,3294.210641
376.120500,-3108.864956,-5033.400406,1685.410096
376.120822,-5847.626942,-2886.803174,-995.924147
376.121145,-7105.977043,-4293.194464,-1455.581446
376.121467,-5847.626942,-6587.832884,-1072.533697
376.121790,-3997.112087,-8808.450710,-1532.190996
376.122112,-2072.576638,-10436.903782,536.266849
376.122435,-1258.350101,-10436.903782,842.705048
376.122757,-518.144159,-11621.233289,-1838.629195
376.123080,296.082377,-13471.748144,-4290.134789
376.123402,1110.308913,-12953.603985,-6358.592633
376.123725,1628.453072,-10955.047942,-6971.469032
376.124047,3256.906145,-9918.759623,-3600.648841
376.124370,4885.359217,-9622.677246,-842.705048
376.124692,6661.853478,-10955.047942,-2911.162892
376.125015,7031.956449,-11843.295072,-3600.648841
376.125337,5625.565159,-10584.944971,-612.876398
376.125660,2368.659014,-9474.636058,1302.362347
376.125982,-1332.370696,-8808.450710,1608.800546
376.126305,-4811.338623,-5847.626942,1685.410096
376.126627,-7179.997637,-3923.091493,-383.047749
376.126949,-8216.285956,-5181.441594,-995.924147
376.127272,-7846.182985,-7476.080014,-536.266849
376.127594,-6809.894666,-9770.718434,-1685.410096
376.127917,-4663.297435,-10140.821405,-612.876398
376.128239,-2368.659014,-10288.862594,1149.143247
376.128562,-1184.329507,-9770.718434,-1072.533697
376.128884,296.082377,-11695.253884,-3677.258390
376.129207,1036.288319,-11621.233289,-4596.572988
376.129529,518.144159,-10362.883188,-4826.401637
376.129852,2294.638420,-9622.677246,-3064.381992
376.130174,4145.153275,-9844.739029,-3294.210641
376.130497,6217.729913,-11473.192101,-3830.477490
376.130819,7624.121203,-12139.377449,-1915.238745
376.131142,7105.977043,-10288.862594,153.219100
376.131464,4367.215058,-9178.553681,1225.752797
376.131787,592.164754,-8660.409521,2221.676944
376.132109,-2960.823768,-5847.626942,2451.505594
376.132432,-6439.791695,-3404.947333,-1149.143247
376.132754,-7994.224174,-4145.153275,-2451.505594
376.133077,-7328.038826,-6291.750507,-1532.190996
376.133399,-6439.791695,-8882.471304,-2221.676944
376.133722,-4071.132681,-10732.986159,-383.047749
376.134044,-2812.782580,-10658.965565,1762.019645
376.134367,-2146.597232,-10214.842000,-1608.800546
376.134689,-592.164754,-12509.480420,-3830.477490
376.135012,666.185348,-12953.603985,-6281.983084
376.135334,1332.370696,-10881.027347,-7507.735880
376.135656,2516.700203,-10955.047942,-4749.792088
376.135979,5181.441594,-10584.944971,459.657299
376.136301,7328.038826,-9696.697840,-842.705048
376.136624,8586.388927,-10955.047942,-4366.744339
376.136946,8364.327145,-11991.336260,-2145.067394
376.137268,5995.668130,-10066.800811,1302.362347
376.137591,1554.432478,-8142.265362,1532.190996
376.137913,-2664.741391,-6069.688724,2757.943793
376.138235,-5625.565159,-4737.318029,1762.019645
376.138558,-7328.038826,-4441.235652,-995.924147
376.138880,-8142.265362,-5921.647536,-1532.190996
376.139203,-8068.244768,-8512.368333,-1455.581446
376.139525,-6513.812290,-11621.233289,-1991.848295
376.139847,-3256.906145,-11843.295072,306.438199
376.140170,-1924.535449,-10955.047942,689.485948
376.140492,-1702.473667,-9252.574275,-2374.896044
376.140814,-1036.288319,-10807.006753,-5286.058936
376.141137,0.000000,-10658.965565,-6128.763984
376.141459,740.205942,-9992.780217,-5898.935335
376.141781,2442.679609,-9474.636058,-3753.867940
376.142104,5255.462188,-11103.089130,-3140.991542
376.142426,8216.285956,-12657.521608,-1991.848295
376.142749,9178.553681,-11325.150913,-306.438199
376.143071,7105.977043,-9474.636058,1302.362347
376.143393,3478.967927,-8290.306550,1915.238745
376.143716,-666.185348,-7254.018232,2451.505594
376.144038,-4589.276840,-4145.153275,1149.143247
376.144360,-7846.182985,-2886.803174,-1685.410096
376.144683,-8660.409521,-4367.215058,-2451.505594
376.145005,-7550.100608,-7105.977043,-2068.457845
376.145328,-5551.544565,-10955.047942,-1915.238745
376.145650,-3849.070898,-11621.233289,919.314598
376.145972,-3034.844362,-10881.027347,306.438199
376.146295,-2590.720797,-11251.130318,-2834.553343
376.146617,-740.205942,-13175.665768,-4903.011187
376.146939,740.205942,-11399.171507,-7507.735880
376.147262,1406.391290,-10881.027347,-8044.002729
376.147584,2960.823768,-11843.295072,-3524.039291
376.147907,4811.338623,-11325.150913,459.657299
376.148229,6661.853478,-9474.636058,-1378.971896
376.148551,7105.977043,-9326.594869,-2987.772442
376.148874,7105.977043,-11695.253884,-2068.457845
376.149196,5033.400406,-11029.068536,919.314598
376.149518,814.226536,-7402.059420,2604.724693
376.149841,-3923.091493,-4811.338623,3294.210641
376.150163,-6439.791695,-4885.359217,1838.629195
376.150486,-6513.812290,-5625.565159,-383.047749
376.150808,-6809.894666,-6957.935855,-2451.505594
376.151130,-7254.018232,-9474.636058,-2145.067394
376.151453,-6069.688724,-10881.027347,153.219100
376.151775,-3552.988522,-10584.944971,1072.533697
376.152097,-1924.535449,-9548.656652,-1072.533697
376.152420,-1332.370696,-10066.800811,-4519.963438
376.152742,-518.144159,-11177.109724,-7354.516781
376.153065,888.247130,-11917.315666,-7124.688131
376.153387,2294.638420,-12139.377449,-4443.353888
376.153709,3701.029710,-11325.150913,-1838.629195
376.154032,5477.523971,-10658.965565,-1149.143247
376.154354,7254.018232,-9474.636058,-995.924147
376.154676,7402.059420,-8512.368333,-1225.752797
376.154999,6587.832884,-9178.553681,-842.705048
376.155321,3627.009116,-8364.327145,1378.971896
376.155643,74.020594,-6069.688724,3983.696590
376.155966,-3182.885551,-4885.359217,3447.429741
376.156288,-3478.967927,-5625.565159,459.657299
376.156611,-2812.782580,-6661.853478,-1838.629195
376.156933,-3182.885551,-7550.100608,-766.095498
376.157255,-3849.070898,-8438.347739,2068.457845
376.157578,-3627.009116,-9030.512492,919.314598
376.157900,-2442.679609,-10362.883188,-1915.238745
376.158222,-814.226536,-12361.439231,-4213.525239
376.158545,296.082377,-12805.562797,-6818.249932
376.158867,1258.350101,-12879.583391,-7890.783629
376.159190,1702.473667,-12805.562797,-3983.696590
376.159512,3182.885551,-11547.212695,-383.047749
376.159834,4071.132681,-10584.944971,-1685.410096
376.160157,4441.235652,-9992.780217,-4596.572988
376.160479,3478.967927,-9400.615463,-3907.087040
376.160801,1554.432478,-8364.327145,-1915.238745
376.161124,-1332.370696,-7550.100608,689.485948
376.161446,-4515.256246,-7476.080014,2681.334243
376.161769,-6883.915261,-6661.853478,2681.334243
376.162091,-7846.182985,-6217.729913,383.047749
376.162413,-8586.388927,-6809.894666,-766.095498
376.162736,-8068.244768,-9104.533087,-1378.971896
376.163058,-7105.977043,-8956.491898,-1302.362347
376.163380,-4737.318029,-8882.471304,-689.485948
376.163703,-2960.823768,-8438.347739,-612.876398
376.164025,-1480.411884,-9770.718434,-2911.162892
376.164348,-518.144159,-12805.562797,-5286.058936
376.164670,814.226536,-12583.501014,-4826.401637
376.164992,2072.576638,-11769.274478,-4749.792088
376.165315,4219.173869,-11695.253884,-5669.106685
376.165637,6439.791695,-12657.521608,-3217.601092
376.165959,7328.038826,-11029.068536,-919.314598
376.166282,5995.668130,-7624.121203,-536.266849
376.166604,3404.947333,-6957.935855,-612.876398
376.166927,1036.288319,-7994.224174,153.219100
376.167249,-1702.473667,-7105.977043,995.924147
376.167571,-5477.523971,-4959.379811,1149.143247
376.167894,-7254.018232,-5107.421000,153.219100
376.168216,-7105.977043,-7328.038826,-995.924147
376.168538,-5255.462188,-8068.244768,-1532.190996
376.168861,-3701.029710,-8438.347739,0.000000
376.169183,-3404.947333,-6883.915261,-766.095498
376.169506,-1924.535449,-10066.800811,-2987.772442
376.169828,1406.391290,-12805.562797,-4136.915689
376.170150,3404.947333,-13101.645173,-5209.449386
376.170473,3923.091493,-13767.830521,-5669.106685
376.170795,4811.338623,-13323.706956,-3447.429741
376.171117,7550.100608,-11991.336260,-1762.019645
376.171440,8512.368333,-10362.883188,-919.314598
376.171762,7994.224174,-9030.512492,-2451.505594
376.172084,6735.874072,-9474.636058,-2145.067394
376.172407,5107.421000,-9400.615463,-153.219100
376.172729,2664.741391,-6883.915261,2604.724693
376.173052,-962.267725,-7105.977043,2911.162892
376.173374,-4441.235652,-6365.771101,2145.067394
376.173696,-6217.729913,-6143.709319,1455.581446
376.174019,-7179.997637,-5995.668130,229.828649
376.174341,-8364.327145,-7994.224174,-689.485948
376.174663,-8364.327145,-9178.553681,-1838.629195
376.174986,-7105.977043,-10214.842000,-1762.019645
376.175308,-5477.523971,-9474.636058,-2298.286494
376.175631,-3552.988522,-11547.212695,-3830.477490
376.175953,-1998.556043,-13249.686362,-5515.887586
376.176275,0.000000,-13767.830521,-6128.763984
376.176598,0.000000,-12805.562797,-4213.525239
376.176920,1480.411884,-11325.150913,-1915.238745
376.177242,4441.235652,-9400.615463,-3677.258390
376.177565,6143.709319,-9104.533087,-4443.353888
376.177887,7179.997637,-9030.512492,-919.314598
376.178210,5773.606348,-7254.018232,1608.800546
376.178532,2368.659014,-7179.997637,2987.772442
376.178854,0.000000,-7772.162391,4136.915689
376.179177,-2590.720797,-6439.791695,3140.991542
376.179499,-5033.400406,-3923.091493,0.000000
376.179821,-6143.709319,-3775.050304,-1838.629195
376.180144,-6957.935855,-6439.791695,-306.438199
376.180466,-6217.729913,-9622.677246,-306.438199
376.180789,-5033.400406,-10658.965565,-919.314598
376.181111,-4441.235652,-10584.944971,-2298.286494
376.181433,-3701.029710,-11251.130318,-4366.744339
376.181756,-1406.391290,-14656.077652,-5745.716235
376.182078,1036.288319,-15174.221811,-6128.763984
376.182400,2072.576638,-12583.501014,-6052.154434
376.182723,3108.864956,-11325.150913,-4060.306139
376.183045,6069.688724,-10362.883188,-995.924147
376.183368,7550.100608,-8734.430116,-2911.162892
376.183690,7105.977043,-8142.265362,-4136.915689
376.184012,5403.503377,-9252.574275,-1685.410096
376.184335,3256.906145,-8512.368333,2068.457845
376.184657,74.020594,-7476.080014,2911.162892
376.184979,-2960.823768,-6957.935855,2681.334243
376.185302,-5773.606348,-5625.565159,1608.800546
376.185624,-7179.997637,-4737.318029,0.000000
376.185946,-7550.100608,-5699.585753,-1302.362347
376.186269,-8512.368333,-8290.306550,-2298.286494
376.186591,-7624.121203,-9622.677246,-1532.190996
376.186914,-5255.462188,-10362.883188,-2757.943793
376.187236,-3627.009116,-11251.130318,-3294.210641
376.187558,-1332.370696,-13619.789333,-4979.620737
376.187881,666.185348,-14508.036463,-6741.640382
376.188203,1924.535449,-14804.118840,-6511.811733
376.188525,2812.782580,-14137.933492,-3830.477490
376.188848,4811.338623,-11177.109724,-1149.143247
376.189170,7624.121203,-8068.244768,-2987.772442
376.189493,9252.574275,-7402.059420,-3524.039291
376.189815,9474.636058,-8142.265362,-995.924147
376.190137,7624.121203,-7920.203579,1915.238745
376.190460,3997.112087,-7402.059420,3983.696590
376.190782,888.247130,-7402.059420,4826.401637
376.191104,-2368.659014,-6365.771101,2834.553343
376.191427,-4885.359217,-4441.235652,-229.828649
376.191749,-6291.750507,-4219.173869,-995.924147
376.192072,-7031.956449,-7402.059420,-995.924147
376.192394,-6587.832884,-9622.677246,-306.438199
376.192716,-5107.421000,-9844.739029,-306.438199
376.193039,-4589.276840,-9104.533087,-2757.943793
376.193361,-2368.659014,-12879.583391,-5209.449386
376.193683,370.102971,-15840.407159,-6588.421283
376.194006,1332.370696,-15248.242405,-7048.078582
376.194328,1628.453072,-13989.892304,-5439.278036
376.194651,2368.659014,-12879.583391,-1838.629195
376.194973,4145.153275,-9622.677246,-459.657299
376.195295,5181.441594,-6439.791695,-2145.067394
376.195618,5181.441594,-5773.606348,-3830.477490
376.195940,5477.523971,-9918.759623,-2068.457845
376.196262,4219.173869,-9918.759623,3140.991542
376.196585,222.061783,-6809.894666,6741.640382
376.196907,-3849.070898,-6439.791695,5439.278036
376.197230,-5995.668130,-5699.585753,2604.724693
376.197552,-6069.688724,-4737.318029,-536.266849
376.197874,-8142.265362,-4367.215058,-2221.676944
376.198197,-9178.553681,-7031.956449,-1225.752797
376.198519,-8142.265362,-9622.677246,-1685.410096
376.198841,-5181.441594,-11621.233289,-2221.676944
376.199164,-2960.823768,-12287.418637,-2604.724693
376.199486,-2664.741391,-13175.665768,-4903.011187
376.199808,-1850.514855,-14137.933492,-6358.592633
376.200131,0.000000,-13471.748144,-5286.058936
376.200453,1036.288319,-11547.212695,-4060.306139
376.200776,2368.659014,-9696.697840,-4903.011187
376.201098,4293.194464,-9918.759623,-5209.449386
376.201420,5995.668130,-10362.883188,-2911.162892
376.201743,5921.647536,-8586.388927,-766.095498
376.202065,3775.050304,-7698.141797,1072.533697
376.202387,1332.370696,-9104.533087,3140.991542
376.202710,-1184.329507,-7698.141797,4290.134789
376.203032,-3849.070898,-5033.400406,1762.019645
376.203355,-5403.503377,-4293.194464,-1072.533697
376.203677,-6069.688724,-5033.400406,-1685.410096
376.203999,-5625.565159,-7179.997637,-1149.143247
376.204322,-4071.132681,-8438.347739,536.266849
376.204644,-2516.700203,-8956.491898,-919.314598
376.204966,-1110.308913,-11325.150913,-3830.477490
376.205289,1554.432478,-14508.036463,-4366.744339
376.205611,3552.988522,-15322.262999,-4673.182538
376.205934,4219.173869,-13323.706956,-7124.688131
376.206256,3997.112087,-12361.439231,-5439.278036
376.206578,5033.400406,-10066.800811,-1838.629195
376.206901,6069.688724,-8512.368333,-2757.943793
376.207223,5847.626942,-8068.244768,-4903.011187
376.207545,4589.276840,-10066.800811,-3064.381992
376.207868,3034.844362,-10955.047942,-229.828649
376.208190,740.205942,-9844.739029,2221.676944
376.208513,-2368.659014,-7698.141797,3600.648841
376.208835,-5625.565159,-5625.565159,2145.067394
376.209157,-6513.812290,-3701.029710,153.219100
376.209480,-6513.812290,-4589.276840,-1072.533697
376.209802,-7846.182985,-6809.894666,-995.924147
376.210124,-7254.018232,-8216.285956,-306.438199
376.210447,-5477.523971,-9252.574275,-995.924147
376.210769,-3108.864956,-10214.842000,-1455.581446
376.211092,-296.082377,-13175.665768,-3294.210641
376.211414,1850.514855,-13989.892304,-5286.058936
376.211736,2368.659014,-13397.727550,-5286.058936
376.212059,3404.947333,-11177.109724,-2451.505594
376.212381,4589.276840,-9622.677246,-2911.162892
376.212703,5921.647536,-9400.615463,-5975.544884
376.213026,7105.977043,-10140.821405,-4136.915689
376.213348,6069.688724,-9400.615463,-919.314598
376.213671,3330.926739,-9104.533087,459.657299
376.213993,1110.308913,-9992.780217,2374.896044
376.214315,-1332.370696,-7994.224174,4060.306139
376.214638,-4515.256246,-5107.421000,1762.019645
376.214960,-6513.812290,-5329.482782,-919.314598
376.215282,-6661.853478,-5921.647536,-1302.362347
376.215605,-6439.791695,-7105.977043,-2145.067394
376.215927,-5699.585753,-8290.306550,383.047749
376.216249,-4515.256246,-8512.368333,1149.143247
376.216572,-3775.050304,-9622.677246,-1685.410096
376.216894,-1110.308913,-12435.459826,-3907.087040
376.217217,814.226536,-13767.830521,-5669.106685
376.217539,1702.473667,-13101.645173,-6588.421283
376.217861,1776.494261,-11917.315666,-4136.915689
376.218184,3997.112087,-9844.739029,0.000000
376.218506,5921.647536,-9104.533087,-1762.019645
376.218828,6661.853478,-9400.615463,-4903.011187
376.219151,6365.771101,-11251.130318,-3064.381992
376.219473,4737.318029,-10066.800811,459.657299
376.219796,1850.514855,-8734.430116,2374.896044
376.220118,-1702.473667,-7698.141797,4290.134789
376.220440,-4589.276840,-5625.565159,2757.943793
376.220763,-6291.750507,-4219.173869,-536.266849
376.221085,-7476.080014,-4811.338623,-1225.752797
376.221407,-9178.553681,-7402.059420,-612.876398
376.221730,-9104.533087,-9474.636058,-919.314598
376.222052,-7254.018232,-9770.718434,-995.924147
376.222375,-5329.482782,-9178.553681,-1915.238745
376.222697,-3775.050304,-10955.047942,-4673.182538
376.223019,-666.185348,-12953.603985,-6741.640382
376.223342,1480.411884,-13027.624579,-6818.249932
376.223664,2516.700203,-13101.645173,-5439.278036
376.223986,3627.009116,-12583.501014,-3447.429741
376.224309,5107.421000,-11621.233289,-2528.115143
376.224631,6513.812290,-9844.739029,-2298.286494
376.224954,6809.894666,-7772.162391,-2681.334243
376.225276,6217.729913,-8660.409521,-1915.238745
376.225598,5255.462188,-9548.656652,1149.143247
376.225921,2664.741391,-7920.203579,4136.915689
376.226243,-888.247130,-6217.729913,3983.696590
376.226565,-2516.700203,-5921.647536,2528.115143
376.226888,-3330.926739,-5551.544565,-306.438199
376.227210,-4515.256246,-4811.338623,-1685.410096
376.227533,-6143.709319,-6143.709319,-229.828649
376.227855,-6661.853478,-8364.327145,-459.657299
376.228177,-5255.462188,-10658.965565,-2221.676944
376.228500,-3182.885551,-11769.274478,-4290.134789
376.228822,-740.205942,-12805.562797,-6511.811733
376.229144,370.102971,-14508.036463,-7967.393179
376.229467,2220.617826,-14878.139434,-6588.421283
376.229789,3256.906145,-13915.871710,-3447.429741
376.230111,4071.132681,-12805.562797,-2681.334243
376.230434,4441.235652,-10955.047942,-3524.039291
376.230756,3849.070898,-9178.553681,-3294.210641
376.231079,2738.761985,-7105.977043,-1762.019645
376.231401,1776.494261,-6883.915261,76.609550
376.231723,1628.453072,-8068.244768,2298.286494
376.232046,74.020594,-7550.100608,4060.306139
376.232368,-1628.453072,-5847.626942,3677.258390
376.232690,-3034.844362,-5773.606348,2911.162892
376.233013,-3552.988522,-6661.853478,1991.848295
376.233335,-3775.050304,-6439.791695,919.314598
376.233658,-3997.112087,-6069.688724,-536.266849
376.233980,-4293.194464,-7105.977043,-1455.581446
376.234302,-3404.947333,-10066.800811,-2757.943793
376.234625,-1554.432478,-12805.562797,-4366.744339
376.234947,0.000000,-13989.892304,-4519.963438
376.235269,444.123565,-14211.954086,-4903.011187
376.235592,1628.453072,-13989.892304,-4443.353888
376.235914,2368.659014,-12287.418637,-3217.601092
376.236236,2738.761985,-10140.821405,-2987.772442
376.236559,2516.700203,-8586.388927,-3140.991542
376.236881,2738.761985,-7476.080014,-3294.210641
376.237203,2442.679609,-6957.935855,-1455.581446
376.237525,1110.308913,-7328.038826,1072.533697
376.237848,-592.164754,-8142.265362,3600.648841
376.238170,-2368.659014,-8290.306550,3294.210641
376.238492,-3182.885551,-7254.018232,1685.410096
376.238815,-3775.050304,-6439.791695,383.047749
376.239137,-4663.297435,-5995.668130,-459.657299
376.239459,-4441.235652,-6883.915261,-1455.581446
376.239781,-3034.844362,-7698.141797,-2068.457845
376.240104,-888.247130,-8660.409521,-2987.772442
376.240426,1628.453072,-11621.233289,-3983.696590
376.240748,2590.720797,-14137.933492,-4136.915689
376.241071,3849.070898,-15026.180623,-4060.306139
376.241393,4663.297435,-14285.974681,-3753.867940
376.241715,4589.276840,-12953.603985,-3600.648841
376.242037,4441.235652,-11251.130318,-2911.162892
376.242360,2886.803174,-8068.244768,-2834.553343
376.242682,1850.514855,-6809.894666,-2911.162892
376.243004,1036.288319,-7031.956449,-2145.067394
376.243327,0.000000,-7920.203579,0.000000
376.243649,-2294.638420,-8364.327145,1838.629195
376.243971,-5329.482782,-8660.409521,2451.505594
376.244293,-6809.894666,-8586.388927,1302.362347
376.244616,-7698.141797,-7772.162391,0.000000
376.244938,-7920.203579,-6735.874072,-1762.019645
376.245260,-7698.141797,-6365.771101,-2604.724693
376.245583,-5699.585753,-7772.162391,-3600.648841
376.245905,-3330.926739,-9622.677246,-4060.306139
376.246227,-962.267725,-11991.336260,-3600.648841
376.246549,1332.370696,-13989.892304,-3140.991542
376.246872,3256.906145,-14730.098246,-4060.306139
376.247194,4811.338623,-13693.809927,-3600.648841
376.247516,5773.606348,-10807.006753,-2221.676944
376.247839,5847.626942,-8808.450710,-2221.676944
376.248161,5403.503377,-7254.018232,-1991.848295
376.248483,4367.215058,-6439.791695,-1149.143247
376.248805,2886.803174,-5477.523971,0.000000
376.249128,1036.288319,-6735.874072,766.095498
376.249450,-444.123565,-9030.512492,1915.238745
376.249772,-2368.659014,-8808.450710,2451.505594
376.250095,-4737.318029,-7920.203579,1455.581446
376.250417,-6661.853478,-7105.977043,766.095498
376.250739,-7624.121203,-6661.853478,-766.095498
376.251061,-6661.853478,-7402.059420,-3294.210641
376.251384,-5625.565159,-8216.285956,-4443.353888
376.251706,-3034.844362,-10584.944971,-3907.087040
376.252028,-666.185348,-12805.562797,-4213.525239
376.252351,2220.617826,-14952.160028,-3830.477490
376.252673,4367.215058,-16210.510130,-2681.334243
376.252995,6365.771101,-14508.036463,-2528.115143
376.253318,7550.100608,-11917.315666,-3370.820191
376.253640,7476.080014,-8290.306550,-1302.362347
376.253962,6661.853478,-5625.565159,-766.095498
376.254284,5181.441594,-5403.503377,-1225.752797
376.254607,3775.050304,-7179.997637,306.438199
376.254929,2368.659014,-8364.327145,2681.334243
376.255251,-148.041188,-8438.347739,3370.820191
376.255574,-2442.679609,-8438.347739,3294.210641
376.255896,-4071.132681,-7402.059420,2757.943793
376.256218,-5551.544565,-6513.812290,459.657299
376.256540,-7328.038826,-5699.585753,-459.657299
376.256863,-9252.574275,-5847.626942,-1072.533697
376.257185,-9992.780217,-6883.915261,-3753.867940
376.257507,-8734.430116,-10288.862594,-6205.373534
376.257830,-5699.585753,-13915.871710,-6511.811733
376.258152,-3701.029710,-16210.510130,-5669.106685
376.258474,-1776.494261,-17320.819043,-4903.011187
376.258796,444.123565,-15692.365970,-3447.429741
376.259119,3034.844362,-12361.439231,-2528.115143
376.259441,5181.441594,-8364.327145,-2528.115143
376.259763,5403.503377,-5181.441594,-2911.162892
376.260086,5107.421000,-4811.338623,-2451.505594
376.260408,4441.235652,-5773.606348,-536.266849
376.260730,3997.112087,-6957.935855,2451.505594
376.261052,2664.741391,-8364.327145,4136.915689
376.261375,962.267725,-9252.574275,4213.525239
376.261697,-370.102971,-7846.182985,2911.162892
376.262019,-1184.329507,-7328.038826,76.609550
376.262342,-3108.864956,-6587.832884,0.000000
376.262664,-5107.421000,-5477.523971,1149.143247
376.262986,-6883.915261,-4885.359217,-2451.505594
376.263308,-5699.585753,-8216.285956,-5975.544884
376.263631,-3404.947333,-12213.398043,-7277.907231
376.263953,-1406.391290,-16062.468941,-6665.030833
376.264275,0.000000,-17912.983796,-5056.230287
376.264598,1998.556043,-17098.757260,-3830.477490
376.264920,4663.297435,-14730.098246,-4443.353888
376.265242,5847.626942,-11251.130318,-4213.525239
376.265564,5403.503377,-7994.224174,-3294.210641
376.265887,3775.050304,-5329.482782,-2451.505594
376.266209,2220.617826,-4737.318029,-1762.019645
376.266531,1480.411884,-5255.462188,612.876398
376.266854,888.247130,-8068.244768,2681.334243
376.267176,-296.082377,-9252.574275,3830.477490
376.267498,-2664.741391,-8142.265362,2987.772442
376.267821,-4219.173869,-6735.874072,1838.629195
376.268143,-4885.359217,-6143.709319,919.314598
376.268465,-5551.544565,-5181.441594,0.000000
376.268787,-6661.853478,-5625.565159,-2298.286494
376.269110,-6439.791695,-7698.141797,-4136.915689
376.269432,-4737.318029,-11473.192101,-5669.106685
376.269754,-2368.659014,-15100.201217,-5209.449386
376.270077,-370.102971,-17764.942608,-4443.353888
376.270399,962.267725,-17912.983796,-3447.429741
376.270721,2664.741391,-15174.221811,-3600.648841
376.271043,4441.235652,-11843.295072,-3830.477490
376.271366,5181.441594,-8660.409521,-3064.381992
376.271688,5329.482782,-5403.503377,-2604.724693
376.272010,4441.235652,-4367.215058,-2298.286494
376.272333,3330.926739,-4811.338623,229.828649
376.272655,2812.782580,-6809.894666,2604.724693
376.272977,1776.494261,-8808.450710,3217.601092
376.273299,-814.226536,-9474.636058,3217.601092
376.273622,-2664.741391,-8216.285956,2757.943793
376.273944,-3701.029710,-6883.915261,1685.410096
376.274266,-4515.256246,-5625.565159,-306.438199
376.274589,-5181.441594,-5551.544565,-1838.629195
376.274911,-4293.194464,-7031.956449,-3677.258390
376.275233,-2738.761985,-8956.491898,-5592.497135
376.275555,-148.041188,-13249.686362,-4903.011187
376.275878,1258.350101,-16358.551318,-3677.258390
376.276200,2146.597232,-17320.819043,-2604.724693
376.276522,2960.823768,-15914.427753,-2834.553343
376.276845,3849.070898,-12583.501014,-3140.991542
376.277167,3997.112087,-8956.491898,-2834.553343
376.277489,3627.009116,-5625.565159,-2604.724693
376.277811,3034.844362,-3923.091493,-2298.286494
376.278134,2368.659014,-4737.318029,-306.438199
376.278456,1628.453072,-6883.915261,1762.019645
376.278778,0.000000,-8660.409521,3294.210641
376.279101,-2738.761985,-9326.594869,2681.334243
376.279423,-4737.318029,-8512.368333,1608.800546
376.279745,-6365.771101,-7698.141797,229.828649
376.280067,-7920.203579,-6587.832884,-306.438199
376.280390,-9474.636058,-5773.606348,-536.266849
376.280712,-9178.553681,-6143.709319,-3677.258390
376.281034,-7328.038826,-8882.471304,-5745.716235
376.281357,-4515.256246,-12139.377449,-5515.887586
376.281679,-1776.494261,-14656.077652,-4903.011187
376.282001,-444.123565,-16284.530724,-3983.696590
376.282323,1480.411884,-15914.427753,-2681.334243
376.282646,3108.864956,-13101.645173,-2374.896044
376.282968,4441.235652,-8882.471304,-3447.429741
376.283290,4663.297435,-6291.750507,-4366.744339
376.283613,4589.276840,-5921.647536,-2987.772442
376.283935,3775.050304,-5699.585753,-1225.752797
376.284257,2442.679609,-6735.874072,1608.800546
376.284580,1184.329507,-8734.430116,3524.039291
376.284902,0.000000,-9696.697840,2911.162892
376.285224,-1702.473667,-8956.491898,1225.752797
376.285546,-3404.947333,-7476.080014,-459.657299
376.285869,-5403.503377,-6957.935855,-612.876398
376.286191,-6883.915261,-6809.894666,-306.438199
376.286513,-6587.832884,-6809.894666,-2987.772442
376.286836,-4885.359217,-8068.244768,-5515.887586
376.287158,-2368.659014,-11991.336260,-5745.716235
376.287480,0.000000,-14952.160028,-3983.696590
376.287802,1998.556043,-16432.571912,-3677.258390
376.288125,3701.029710,-16654.633695,-2987.772442
376.288447,5477.523971,-13841.851115,-2911.162892
376.288769,6513.812290,-10732.986159,-3677.258390
376.289092,7031.956449,-7624.121203,-2681.334243
376.289414,5551.544565,-5181.441594,-1685.410096
376.289736,4367.215058,-5551.544565,-1455.581446
376.290058,3627.009116,-7698.141797,383.047749
376.290381,2812.782580,-9622.677246,3677.258390
376.290703,1110.308913,-9104.533087,3907.087040
376.291025,-1406.391290,-8290.306550,2604.724693
376.291348,-3182.885551,-6883.915261,1838.629195
376.291670,-4959.379811,-5477.523971,919.314598
376.291992,-6143.709319,-5181.441594,766.095498
376.292314,-7476.080014,-5329.482782,-1149.143247
376.292637,-7328.038826,-7550.100608,-3907.087040
376.292959,-5329.482782,-11103.089130,-4826.401637
376.293281,-2664.741391,-14285.974681,-4673.182538
376.293604,-814.226536,-16284.530724,-3907.087040
376.293926,296.082377,-15766.386565,-2911.162892
376.294248,1554.432478,-13175.665768,-2451.505594
376.294570,2590.720797,-9844.739029,-2604.724693
376.294893,3478.967927,-7402.059420,-4060.306139
376.295215,3034.844362,-6217.729913,-4366.744339
376.295537,2368.659014,-6291.750507,-2757.943793
376.295860,2220.617826,-7105.977043,-153.219100
376.296182,1924.535449,-8068.244768,2834.553343
376.296504,1184.329507,-9770.718434,3294.210641
376.296826,296.082377,-9696.697840,2757.943793
376.297149,-1332.370696,-8068.244768,1532.190996
376.297471,-3330.926739,-6365.771101,76.609550
376.297793,-6069.688724,-5255.462188,689.485948
376.298116,-7105.977043,-5551.544565,-689.485948
376.298438,-6883.915261,-6809.894666,-3677.258390
376.298760,-4885.359217,-9474.636058,-5362.668486
376.299082,-2886.803174,-12657.521608,-4979.620737
376.299405,-518.144159,-14952.160028,-4290.134789
376.299727,1998.556043,-16580.613101,-4290.134789
376.300049,4441.235652,-15396.283594,-3447.429741
376.300372,6291.750507,-12583.501014,-3524.039291
376.300694,6661.853478,-9770.718434,-3370.820191
376.301016,5403.503377,-7105.977043,-2451.505594
376.301339,3256.906145,-5329.482782,-1838.629195
376.301661,1406.391290,-6143.709319,-1532.190996
376.301983,296.082377,-8586.388927,76.609550
376.302305,-740.205942,-9622.677246,2298.286494
376.302628,-2590.720797,-8068.244768,2681.334243
376.302950,-3997.112087,-7179.997637,1532.190996
376.303272,-5107.421000,-6291.750507,995.924147
376.303595,-6143.709319,-5773.606348,612.876398
376.303917,-8068.244768,-4663.297435,-1225.752797
376.304239,-9252.574275,-5699.585753,-3983.696590
376.304561,-7772.162391,-8660.409521,-5439.278036
376.304884,-5107.421000,-11917.315666,-6665.030833
376.305206,-2294.638420,-15100.201217,-5669.106685
376.305528,592.164754,-16728.654289,-4366.744339
376.305851,3330.926739,-16284.530724,-3753.867940
376.306173,6143.709319,-13545.768739,-3447.429741
376.306495,7550.100608,-10214.842000,-3677.258390
376.306817,7550.100608,-7698.141797,-2911.162892
376.307140,5995.668130,-5847.626942,-2298.286494
376.307462,4515.256246,-5107.421000,-1455.581446
376.307784,3256.906145,-6439.791695,1072.533697
376.308107,2368.659014,-8512.368333,2451.505594
376.308429,1110.308913,-9844.739029,3370.820191
376.308751,-1332.370696,-9326.594869,2987.772442
376.309073,-2812.782580,-8290.306550,2528.115143
376.309396,-4367.215058,-6809.894666,1608.800546
376.309718,-5625.565159,-5477.523971,-536.266849
376.310040,-5921.647536,-5255.462188,-2451.505594
376.310363,-5033.400406,-7698.141797,-4903.011187
376.310685,-2960.823768,-11325.150913,-5975.544884
376.311007,-740.205942,-15322.262999,-4826.401637
376.311329,740.205942,-17320.819043,-3217.601092
376.311652,2368.659014,-17024.736666,-3447.429741
376.311974,4441.235652,-14285.974681,-3983.696590
376.312296,5699.585753,-11325.150913,-3983.696590
376.312619,5033.400406,-8290.306550,-3064.381992
376.312941,3478.967927,-5625.565159,-1838.629195
376.313263,1850.514855,-4367.215058,0.000000
376.313585,1258.350101,-5625.565159,1149.143247
376.313908,444.123565,-7846.182985,2451.505594
376.314230,-962.267725,-9252.574275,3064.381992
376.314552,-3404.947333,-8808.450710,2911.162892
376.314875,-4589.276840,-7105.977043,2834.553343
376.315197,-5107.421000,-5847.626942,2681.334243
376.315519,-6513.812290,-4737.318029,153.219100
376.315842,-6809.894666,-6069.688724,-2374.896044
376.316164,-6735.874072,-7772.162391,-4519.963438
376.316486,-5107.421000,-10510.924376,-5209.449386
376.316808,-2664.741391,-13619.789333,-4366.744339
376.317131,0.000000,-16062.468941,-3830.477490
376.317453,1998.556043,-15840.407159,-3370.820191
376.317775,3330.926739,-13175.665768,-3064.381992
376.318098,4145.153275,-10658.965565,-2681.334243
376.318420,3404.947333,-7402.059420,-3064.381992
376.318742,2590.720797,-5551.544565,-2987.772442
376.319064,888.247130,-4811.338623,-2987.772442
376.319387,0.000000,-5625.565159,-842.705048
376.319709,-222.061783,-7994.224174,1149.143247
376.320031,-888.247130,-10140.821405,2757.943793
376.320354,-1850.514855,-9622.677246,2451.505594
376.320676,-3627.009116,-8734.430116,1302.362347
376.320998,-5255.462188,-7328.038826,536.266849
376.321320,-6587.832884,-5921.647536,-612.876398
376.321643,-7698.141797,-5551.544565,-3447.429741
376.321965,-6143.709319,-7846.182985,-5515.887586
376.322287,-3775.050304,-9992.780217,-6435.202183
376.322610,-592.164754,-13249.686362,-6052.154434
376.322932,2146.597232,-16654.633695,-4443.353888
376.323254,4441.235652,-17616.901420,-2145.067394
376.323576,6735.874072,-14878.139434,-2604.724693
376.323899,7772.162391,-11769.274478,-4290.134789
376.324221,7698.141797,-8660.409521,-3064.381992
376.324543,6291.750507,-5773.606348,-1838.629195
376.324866,4515.256246,-4293.194464,-1302.362347
376.325188,3034.844362,-4737.318029,0.000000
376.325510,2738.761985,-7846.182985,1225.752797
376.325832,1332.370696,-9696.697840,2145.067394
376.326155,-1036.288319,-9622.677246,2757.943793
376.326477,-3849.070898,-8956.491898,2451.505594
376.326799,-5477.523971,-7624.121203,1685.410096
376.327122,-6439.791695,-5477.523971,76.609550
376.327444,-7920.203579,-4737.318029,-3217.601092
376.327766,-8068.244768,-6365.771101,-5132.839837
376.328088,-6439.791695,-9474.636058,-6281.983084
376.328411,-3627.009116,-12879.583391,-5592.497135
376.328733,-814.226536,-16432.571912,-3600.648841
376.329055,1332.370696,-17838.963202,-2451.505594
376.329378,3330.926739,-15766.386565,-2911.162892
376.329700,5033.400406,-11917.315666,-3447.429741
376.330022,5477.523971,-8068.244768,-2221.676944
376.330344,5181.441594,-4737.318029,-2451.505594
376.330667,4515.256246,-3182.885551,-2451.505594
376.330989,3849.070898,-4441.235652,0.000000
376.331311,3108.864956,-7105.977043,2451.505594
376.331634,1628.453072,-9474.636058,3600.648841
376.331956,-148.041188,-10658.965565,3294.210641
376.332278,-1776.494261,-10436.903782,2528.115143
376.332601,-3701.029710,-9178.553681,1149.143247
376.332923,-5255.462188,-6439.791695,689.485948
376.333245,-6439.791695,-4885.359217,-1072.533697
376.333567,-6661.853478,-5403.503377,-4443.353888
376.333890,-4663.297435,-9252.574275,-5975.544884
376.334212,-3182.885551,-12213.398043,-5515.887586
376.334534,-962.267725,-15618.345376,-4366.744339
376.334857,888.247130,-18357.107362,-3524.039291
376.335179,3330.926739,-17690.922014,-2604.724693
376.335501,5033.400406,-13693.809927,-3217.601092
376.335823,5255.462188,-9326.594869,-2681.334243
376.336146,4441.235652,-5329.482782,-2451.505594
376.336468,2812.782580,-3627.009116,-2528.115143
376.336790,1998.556043,-4441.235652,-1455.581446
376.337113,962.267725,-7031.956449,536.266849
376.337435,-444.123565,-8808.450710,2987.772442
376.337757,-2146.597232,-9622.677246,3600.648841
376.338080,-3552.988522,-9252.574275,3370.820191
376.338402,-4663.297435,-7624.121203,995.924147
376.338724,-6217.729913,-5773.606348,153.219100
376.339047,-7994.224174,-4367.215058,0.000000
376.339369,-9030.512492,-4515.256246,-2374.896044
376.339691,-8956.491898,-7179.997637,-6128.763984
376.340014,-6217.729913,-11177.109724,-6665.030833
376.340336,-2738.761985,-14952.160028,-5898.935335
376.340658,-222.061783,-17764.942608,-4673.182538
376.340981,2590.720797,-17616.901420,-3140.991542
376.341303,5181.441594,-13915.871710,-2604.724693
376.341625,7105.977043,-9918.759623,-3524.039291
376.341948,7402.059420,-6513.812290,-2451.505594
376.342270,5921.647536,-4219.173869,-2374.896044
376.342592,4071.132681,-4219.173869,-1915.238745
376.342915,2664.741391,-5699.585753,0.000000
376.343237,2072.576638,-8512.368333,2374.896044
376.343559,444.123565,-9918.759623,3294.210641
376.343882,-962.267725,-10436.903782,2374.896044
376.344204,-2442.679609,-9178.553681,1608.800546
376.344526,-4589.276840,-6365.771101,1608.800546
376.344849,-6439.791695,-4737.318029,-612.876398
376.345171,-7920.203579,-4959.379811,-3677.258390
376.345493,-6809.894666,-7402.059420,-6665.030833
376.345815,-4885.359217,-10510.924376,-7967.393179
376.346138,-2220.617826,-14211.954086,-7124.688131
376.346460,518.144159,-17987.004391,-4979.620737
376.346782,3552.988522,-18949.272115,-3447.429741
376.347105,6439.791695,-15988.448347,-3524.039291
376.347427,8142.265362,-12213.398043,-3447.429741
376.347749,7402.059420,-8216.285956,-2145.067394
376.348072,5403.503377,-5699.585753,-1838.629195
376.348394,3330.926739,-3330.926739,-995.924147
376.348716,1776.494261,-3923.091493,-306.438199
376.349039,1110.308913,-7105.977043,1072.533697
376.349361,518.144159,-9474.636058,3140.991542
376.349683,-962.267725,-9474.636058,3753.867940
376.350006,-2368.659014,-9178.553681,3447.429741
376.350328,-3849.070898,-7698.141797,2451.505594
376.350650,-5403.503377,-5551.544565,612.876398
376.350973,-6661.853478,-4811.338623,-2451.505594
376.351295,-7105.977043,-6439.791695,-5132.839837
376.351617,-5847.626942,-9770.718434,-6435.202183
376.351940,-3478.967927,-13767.830521,-5975.544884
376.352262,-1110.308913,-16506.592507,-4443.353888
376.352584,1332.370696,-17838.963202,-2451.505594
376.352907,3256.906145,-15914.427753,-2068.457845
376.353229,4885.359217,-11769.274478,-2757.943793
376.353551,4589.276840,-7476.080014,-1915.238745
376.353874,3775.050304,-4515.256246,-2298.286494
376.354196,2664.741391,-3330.926739,-2221.676944
376.354518,1628.453072,-3552.988522,0.000000
376.354840,888.247130,-5625.565159,1685.410096
376.355163,518.144159,-8956.491898,2298.286494
376.355485,-148.041188,-11325.150913,3677.258390
376.355807,-1628.453072,-10584.944971,3370.820191
376.356130,-3478.967927,-8734.430116,1685.410096
376.356452,-5329.482782,-7031.956449,842.705048
376.356774,-7105.977043,-5255.462188,-383.047749
376.357097,-7254.018232,-5995.668130,-4903.011187
376.357419,-5921.647536,-8364.327145,-6741.640382
376.357741,-3552.988522,-11843.295072,-6128.763984
376.358064,-1184.329507,-15174.221811,-4903.011187
376.358386,888.247130,-17616.901420,-2987.772442
376.358708,3701.029710,-17542.880825,-2221.676944
376.359031,5847.626942,-14211.954086,-2604.724693
376.359353,6809.894666,-9474.636058,-2834.553343
376.359675,5847.626942,-5181.441594,-1915.238745
376.359998,4293.194464,-3108.864956,-1991.848295
376.360320,3034.844362,-4071.132681,-1149.143247
376.360642,1332.370696,-6217.729913,995.924147
376.360965,-148.041188,-8660.409521,2604.724693
376.361287,-1924.535449,-10066.800811,2681.334243
376.361609,-3108.864956,-9992.780217,2068.457845
376.361932,-4515.256246,-8364.327145,1378.971896
376.362254,-6217.729913,-6439.791695,995.924147
376.362576,-7402.059420,-5181.441594,-306.438199
376.362899,-8068.244768,-5033.400406,-4060.306139
376.363221,-6883.915261,-7550.100608,-7124.688131
376.363543,-4737.318029,-10807.006753,-6818.249932
376.363866,-2072.576638,-14211.954086,-5592.497135
376.364188,296.082377,-17320.819043,-4213.525239
376.364510,3108.864956,-17394.839637,-2681.334243
376.364832,5625.565159,-14434.015869,-3064.381992
376.365155,7179.997637,-10140.821405,-3370.820191
376.365477,7328.038826,-6513.812290,-1838.629195
376.365799,5995.668130,-3997.112087,-2221.676944
376.366122,4515.256246,-3552.988522,-2145.067394
376.366444,3034.844362,-5329.482782,-229.828649
376.366766,2294.638420,-8586.388927,1915.238745
376.367089,888.247130,-10658.965565,2681.334243
376.367411,-1406.391290,-10658.965565,2757.943793
376.367733,-3034.844362,-9992.780217,1762.019645
376.368056,-4811.338623,-8512.368333,842.705048
376.368378,-6809.894666,-5625.565159,-459.657299
376.368700,-7476.080014,-5329.482782,-3140.991542
376.369023,-7105.977043,-5995.668130,-5975.544884
376.369345,-4441.235652,-9992.780217,-7277.907231
376.369667,-2368.659014,-13989.892304,-6588.421283
376.369990,-222.061783,-17468.860231,-4290.134789
376.370312,2072.576638,-18801.230927,-2221.676944
376.370634,4959.379811,-15618.345376,-2528.115143
376.370957,6957.935855,-11917.315666,-3677.258390
376.371279,7105.977043,-8142.265362,-2221.676944
376.371601,5477.523971,-5403.503377,-1225.752797
376.371924,3849.070898,-4515.256246,-995.924147
376.372246,2442.679609,-5181.441594,306.438199
376.372568,740.205942,-6661.853478,2145.067394
376.372891,-814.226536,-8956.491898,2834.553343
376.373213,-2368.659014,-9474.636058,3064.381992
376.373535,-3034.844362,-9400.615463,2298.286494
376.373857,-4293.194464,-7698.141797,1072.533697
376.374180,-6217.729913,-5477.523971,2068.457845
376.374502,-7772.162391,-4885.359217,-229.828649
376.374824,-8956.491898,-5551.544565,-3753.867940
376.375147,-7624.121203,-9252.574275,-6052.154434
376.375469,-5181.441594,-12731.542202,-6511.811733
376.375791,-2664.741391,-15248.242405,-5898.935335
376.376114,0.000000,-16802.674883,-3447.429741
376.376436,1924.535449,-15322.262999,-1685.410096
376.376758,3849.070898,-11695.253884,-2528.115143
376.377081,4367.215058,-8364.327145,-3447.429741
376.377403,3404.947333,-5551.544565,-3447.429741
376.377725,2442.679609,-5477.523971,-2374.896044
376.378048,1258.350101,-5255.462188,-1149.143247
376.378370,1036.288319,-6883.915261,1532.190996
376.378692,1110.308913,-9104.533087,3140.991542
376.379015,1332.370696,-10362.883188,3677.258390
376.379337,962.267725,-10066.800811,2757.943793
376.379659,0.000000,-9104.533087,1532.190996
376.379982,-1776.494261,-7179.997637,2068.457845
376.380304,-4145.153275,-5107.421000,612.876398
376.380626,-6217.729913,-5551.544565,-2987.772442
376.380949,-6069.688724,-8290.306550,-5515.887586
376.381271,-3627.009116,-11029.068536,-7584.345430
376.381593,-592.164754,-14878.139434,-7124.688131
376.381916,2220.617826,-17172.777854,-3983.696590
376.382238,4959.379811,-16950.716072,-1532.190996
376.382560,6957.935855,-14211.954086,-2451.505594
376.382883,7476.080014,-10807.006753,-3753.867940
376.383205,5921.647536,-8364.327145,-2911.162892
376.383527,3330.926739,-5921.647536,-3447.429741
376.383849,1110.308913,-4441.235652,-2451.505594
376.384172,-444.123565,-5255.462188,153.219100
376.384494,-370.102971,-7846.182985,2298.286494
376.384816,-814.226536,-9622.677246,3217.601092
376.385139,-1850.514855,-9326.594869,2757.943793
376.385461,-2738.761985,-8438.347739,1608.800546
376.385783,-3627.009116,-7402.059420,1072.533697
376.386106,-5329.482782,-4885.359217,1762.019645
376.386428,-7698.141797,-4219.173869,-383.047749
376.386750,-8068.244768,-6809.894666,-4749.792088
376.387073,-6587.832884,-9474.636058,-6665.030833
376.387395,-3923.091493,-13397.727550,-7124.688131
376.387717,-1184.329507,-16062.468941,-4979.620737
376.388040,1850.514855,-16728.654289,-2298.286494
376.388362,4367.215058,-14730.098246,-1608.800546
376.388684,5995.668130,-11103.089130,-2451.505594
376.389007,5403.503377,-8068.244768,-2528.115143
376.389329,3404.947333,-5995.668130,-2834.553343
376.389651,1628.453072,-5033.400406,-3140.991542
376.389974,740.205942,-5255.462188,-995.924147
376.390296,296.082377,-7624.121203,842.705048
376.390618,0.000000,-10436.903782,2528.115143
376.390941,-666.185348,-11399.171507,3370.820191
376.391263,-1998.556043,-10288.862594,2604.724693
376.391585,-3330.926739,-8364.327145,1149.143247
376.391908,-4885.359217,-5995.668130,-153.219100
376.392230,-6513.812290,-4885.359217,-2757.943793
376.392552,-6439.791695,-6217.729913,-5209.449386
376.392874,-4663.297435,-8660.409521,-6435.202183
376.393197,-962.267725,-11917.315666,-5515.887586
376.393519,2294.638420,-16136.489536,-4366.744339
376.393841,4293.194464,-17690.922014,-2145.067394
376.394164,5625.565159,-16136.489536,-1455.581446
376.394486,5921.647536,-13175.665768,-2068.457845
376.394808,5551.544565,-9474.636058,-2374.896044
376.395131,3849.070898,-6069.688724,-2221.676944
376.395453,2442.679609,-3775.050304,-2987.772442
376.395775,1258.350101,-4367.215058,-1225.752797
376.396098,740.205942,-7105.977043,1838.629195
376.396420,-222.061783,-9178.553681,3447.429741
376.396742,-1258.350101,-10658.965565,3830.477490
376.397065,-2886.803174,-10362.883188,2451.505594
376.397387,-4071.132681,-8734.430116,842.705048
376.397709,-5921.647536,-5699.585753,689.485948
376.398032,-7328.038826,-4589.276840,-689.485948
376.398354,-8290.306550,-4811.338623,-3524.039291
376.398676,-6661.853478,-7772.162391,-5745.716235
376.398999,-3775.050304,-11399.171507,-6511.811733
376.399321,-666.185348,-14878.139434,-5286.058936
376.399643,1554.432478,-17764.942608,-3217.601092
376.399966,3775.050304,-16580.613101,-842.705048
376.400288,5181.441594,-12731.542202,-919.314598
376.400610,5699.585753,-8586.388927,-2145.067394
376.400933,4959.379811,-4811.338623,-1991.848295
376.401255,3997.112087,-2812.782580,-2834.553343
376.401577,2812.782580,-3478.967927,-2451.505594
376.401899,2516.700203,-6883.915261,1225.752797
376.402222,1332.370696,-9992.780217,3753.867940
376.402544,0.000000,-11251.130318,4060.306139
376.402866,-1184.329507,-11103.089130,2834.553343
376.403189,-2960.823768,-9622.677246,1225.752797
376.403511,-5033.400406,-7254.018232,1302.362347
376.403833,-7846.182985,-4885.359217,-842.705048
376.404156,-9400.615463,-5033.400406,-3677.258390
376.404478,-8290.306550,-7254.018232,-5975.544884
376.404800,-5181.441594,-10362.883188,-7048.078582
376.405123,-1480.411884,-13989.892304,-6588.421283
376.405445,1924.535449,-17024.736666,-4136.915689
376.405767,4663.297435,-17616.901420,-2221.676944
376.406090,6291.750507,-14508.036463,-1302.362347
376.406412,5699.585753,-10214.842000,-2145.067394
376.406734,4145.153275,-7105.977043,-2451.505594
376.407057,2146.597232,-4885.359217,-3677.258390
376.407379,518.144159,-4441.235652,-3907.087040
376.407701,0.000000,-6661.853478,-1685.410096
376.408024,0.000000,-9474.636058,2145.067394
376.408346,-592.164754,-10436.903782,4290.134789
376.408668,-740.205942,-9844.739029,2911.162892
376.408991,-1480.411884,-9030.512492,1072.533697
376.409313,-3552.988522,-8216.285956,-536.266849
376.409635,-6661.853478,-6661.853478,0.000000
376.409958,-9400.615463,-5847.626942,-1302.362347
376.410280,-9770.718434,-6661.853478,-4290.134789
376.410602,-7179.997637,-9030.512492,-6665.030833
376.410925,-3256.906145,-12879.583391,-6358.592633
376.411247,814.226536,-15100.201217,-4979.620737
376.411569,4441.235652,-15544.324782,-2834.553343
376.411891,6809.894666,-13619.789333,-1225.752797
376.412214,7994.224174,-10362.883188,-1302.362347
376.412536,7105.977043,-7698.141797,-1991.848295
376.412858,4737.318029,-5551.544565,-2451.505594
376.413181,2590.720797,-5033.400406,-3600.648841
376.413503,1702.473667,-6217.729913,-2528.115143
376.413825,2072.576638,-8512.368333,612.876398
376.414148,1776.494261,-9992.780217,3140.991542
376.414470,740.205942,-10955.047942,3677.258390
376.414792,0.000000,-10362.883188,2221.676944
376.415115,-1406.391290,-8438.347739,383.047749
376.415437,-3923.091493,-5995.668130,-612.876398
376.415759,-6661.853478,-4959.379811,-1838.629195
376.416082,-7031.956449,-7031.956449,-4136.915689
376.416404,-4811.338623,-9104.533087,-5439.278036
376.416726,-1628.453072,-11325.150913,-5745.716235
376.417049,1702.473667,-14804.118840,-4749.792088
376.417371,4515.256246,-16580.613101,-1915.238745
376.417693,5921.647536,-14211.954086,-383.047749
376.418016,5921.647536,-11325.150913,-1532.190996
376.418338,4959.379811,-9178.553681,-1608.800546
376.418660,2960.823768,-6587.832884,-2757.943793
376.418983,888.247130,-4663.297435,-3830.477490
376.419305,222.061783,-4959.379811,-2528.115143
376.419627,0.000000,-7994.224174,612.876398
376.419950,-370.102971,-10140.821405,2834.553343
376.420272,-1554.432478,-10955.047942,4060.306139
376.420594,-3182.885551,-10140.821405,3370.820191
376.420916,-4293.194464,-8290.306550,842.705048
376.421239,-5847.626942,-6439.791695,-536.266849
376.421561,-8068.244768,-5033.400406,-1455.581446
376.421883,-8956.491898,-5477.523971,-3140.991542
376.422206,-8290.306550,-7846.182985,-4596.572988
376.422528,-5625.565159,-10807.006753,-4903.011187
376.422850,-2442.679609,-13989.892304,-4749.792088
376.423173,666.185348,-15840.407159,-3753.867940
376.423495,2886.803174,-15100.201217,-2145.067394
376.423817,4589.276840,-11843.295072,-1225.752797
376.424140,5255.462188,-8364.327145,-1991.848295
376.424462,4737.318029,-5477.523971,-2757.943793
376.424784,3256.906145,-5107.421000,-2757.943793
376.425107,2294.638420,-5995.668130,-2834.553343
376.425429,1036.288319,-8142.265362,-689.485948
376.425751,222.061783,-11399.171507,2145.067394
376.426074,-296.082377,-12287.418637,3370.820191
376.426396,-1258.350101,-10881.027347,2068.457845
376.426718,-2220.617826,-8586.388927,0.000000
376.427041,-3775.050304,-7402.059420,-612.876398
376.427363,-6513.812290,-5033.400406,0.000000
376.427685,-8216.285956,-3775.050304,-2221.676944
376.428008,-7994.224174,-5329.482782,-5975.544884
376.428330,-5255.462188,-10066.800811,-6511.811733
376.428652,-1628.453072,-13989.892304,-5745.716235
376.428975,1924.535449,-16432.571912,-4673.182538
376.429297,4885.359217,-16580.613101,-2604.724693
376.429619,7698.141797,-14285.974681,-1302.362347
376.429942,8956.491898,-11325.150913,-1762.019645
376.430264,7402.059420,-7772.162391,-1608.800546
376.430586,4737.318029,-5107.421000,-2145.067394
376.430908,2738.761985,-5255.462188,-3830.477490
376.431231,1776.494261,-8068.244768,-1915.238745
376.431553,1332.370696,-9696.697840,2451.505594
376.431875,0.000000,-9770.718434,3677.258390
376.432198,-1036.288319,-9770.718434,3140.991542
376.432520,-1702.473667,-8660.409521,2145.067394
376.432842,-3034.844362,-6883.915261,153.219100
376.433165,-5625.565159,-4515.256246,-229.828649
376.433487,-8068.244768,-4515.256246,-1991.848295
376.433809,-8734.430116,-6809.894666,-4366.744339
376.434132,-7254.018232,-9844.739029,-5209.449386
376.434454,-4145.153275,-12953.603985,-5745.716235
376.434776,-888.247130,-15396.283594,-6128.763984
376.435099,1702.473667,-16284.530724,-3370.820191
376.435421,3775.050304,-14285.974681,-1455.581446
376.435743,4737.318029,-10362.883188,-1455.581446
376.436066,4589.276840,-7105.977043,-2834.553343
376.436388,3627.009116,-5477.523971,-4136.915689
376.436710,2220.617826,-5921.647536,-3907.087040
376.437033,1776.494261,-6957.935855,-1685.410096
376.437355,962.267725,-8512.368333,1302.362347
376.437677,444.123565,-11029.068536,3830.477490
376.438000,-222.061783,-11399.171507,4366.744339
376.438322,-592.164754,-8734.430116,3064.381992
376.438644,-1924.535449,-7476.080014,-612.876398
376.438967,-3849.070898,-6143.709319,-689.485948
376.439289,-5699.585753,-5625.565159,-459.657299
376.439611,-6661.853478,-5551.544565,-2528.115143
376.439934,-4885.359217,-8290.306550,-4673.182538
376.440256,-2664.741391,-11917.315666,-5286.058936
376.440579,740.205942,-15100.201217,-4979.620737
376.440901,2664.741391,-16358.551318,-3447.429741
376.441223,4515.256246,-15248.242405,-1378.971896
376.441546,5551.544565,-12213.398043,-1225.752797
376.441868,4737.318029,-9326.594869,-1915.238745
376.442190,3182.885551,-6143.709319,-2298.286494
376.442513,814.226536,-4589.276840,-3217.601092
376.442835,-444.123565,-5625.565159,-3064.381992
376.443158,-592.164754,-8216.285956,-229.828649
376.443480,-518.144159,-9548.656652,2911.162892
376.443802,-2072.576638,-10362.883188,4290.134789
376.444125,-2590.720797,-9252.574275,3447.429741
376.444447,-2960.823768,-7624.121203,1149.143247
376.444769,-4071.132681,-6143.709319,-919.314598
376.445092,-6069.688724,-5329.482782,-995.924147
376.445414,-8290.306550,-5403.503377,-1762.019645
376.445737,-7920.203579,-7476.080014,-3140.991542
376.446059,-5699.585753,-10362.883188,-4366.744339
376.446381,-2664.741391,-13767.830521,-5209.449386
376.446704,962.267725,-15396.283594,-4903.011187
376.447026,4663.297435,-14211.954086,-2987.772442
376.447348,7328.038826,-12435.459826,-2221.676944
376.447671,8142.265362,-9844.739029,-1838.629195
376.447993,7624.121203,-7179.997637,-1838.629195
376.448316,5773.606348,-5033.400406,-2834.553343
376.448638,3849.070898,-5551.544565,-3524.039291
376.448960,1702.473667,-8068.244768,-2221.676944
376.449283,222.061783,-11473.192101,383.047749
376.449605,-814.226536,-11843.295072,2451.505594
376.449927,-1702.473667,-11177.109724,1838.629195
376.450250,-2072.576638,-9696.697840,842.705048
376.450572,-3182.885551,-6661.853478,153.219100
376.450895,-4885.359217,-4959.379811,-1915.238745
376.451217,-6883.915261,-5033.400406,-2911.162892
376.451539,-6661.853478,-7846.182985,-4290.134789
376.451862,-4885.359217,-10658.965565,-5822.325785
376.452184,-1924.535449,-13323.706956,-5286.058936
376.452507,962.267725,-15840.407159,-4213.525239
376.452829,3552.988522,-14582.057057,-3370.820191
376.453151,5699.585753,-12361.439231,-3830.477490
376.453474,5847.626942,-10214.842000,-2528.115143
376.453796,4071.132681,-8586.388927,-1225.752797
376.454118,1998.556043,-7031.956449,-3140.991542
376.454441,-296.082377,-5847.626942,-4136.915689
376.454763,-444.123565,-7402.059420,-2757.943793
376.455086,296.082377,-9622.677246,0.000000
376.455408,370.102971,-10214.842000,2757.943793
376.455730,0.000000,-9696.697840,4290.134789
376.456053,-1036.288319,-8956.491898,3524.039291
376.456375,-2368.659014,-7920.203579,1762.019645
376.456697,-4737.318029,-5847.626942,0.000000
376.457020,-7550.100608,-4663.297435,-2068.457845
376.457342,-7994.224174,-6735.874072,-3140.991542
376.457665,-5551.544565,-9770.718434,-4213.525239
376.457987,-1998.556043,-12065.356855,-3753.867940
376.458309,814.226536,-14211.954086,-2987.772442
376.458632,2886.803174,-14952.160028,-1225.752797
376.458954,4737.318029,-12657.521608,-766.095498
376.459276,5181.441594,-9918.759623,-3064.381992
376.459599,3849.070898,-7402.059420,-2451.505594
376.459921,1776.494261,-5551.544565,-2068.457845
376.460244,444.123565,-4663.297435,-3064.381992
376.460566,74.020594,-6957.935855,-2145.067394
376.460888,518.144159,-9770.718434,919.314598
376.461211,74.020594,-11325.150913,2987.772442
376.461533,-518.144159,-11547.212695,3907.087040
376.461855,-814.226536,-10362.883188,3370.820191
376.462178,-1554.432478,-8734.430116,612.876398
376.462500,-2960.823768,-6513.812290,-383.047749
376.462823,-6217.729913,-4145.153275,919.314598
376.463145,-7846.182985,-4145.153275,-2451.505594
376.463467,-6587.832884,-7402.059420,-5669.106685
376.463790,-2368.659014,-11547.212695,-5822.325785
376.464112,1184.329507,-14434.015869,-4979.620737
376.464434,3849.070898,-16210.510130,-3753.867940
376.464757,5773.606348,-16284.530724,-1532.190996
376.465079,7105.977043,-13767.830521,-1685.410096
376.465402,6365.771101,-10288.862594,-3600.648841
376.465724,3701.029710,-7179.997637,-3983.696590
376.466046,1258.350101,-5033.400406,-3600.648841
376.466369,-148.041188,-4959.379811,-3830.477490
376.466691,-370.102971,-8290.306550,-1762.019645
376.467013,-148.041188,-10732.986159,2451.505594
376.467336,-148.041188,-11251.130318,3907.087040
376.467658,-740.205942,-9770.718434,2451.505594
376.467981,-1554.432478,-9252.574275,612.876398
376.468303,-4145.153275,-7105.977043,919.314598
376.468625,-6957.935855,-3923.091493,76.609550
376.468948,-9030.512492,-3330.926739,-2221.676944
376.469270,-9104.533087,-6291.750507,-4443.353888
376.469592,-6291.750507,-9474.636058,-6128.763984
376.469915,-2368.659014,-12805.562797,-5898.935335
376.470237,1332.370696,-15322.262999,-4366.744339
376.470560,4885.359217,-15692.365970,-2298.286494
376.470882,7031.956449,-13471.748144,-2068.457845
376.471204,7179.997637,-9770.718434,-2451.505594
376.471527,5181.441594,-6809.894666,-2681.334243
376.471849,2960.823768,-5033.400406,-4213.525239
376.472171,1628.453072,-5699.585753,-5286.058936
376.472494,962.267725,-8142.265362,-2604.724693
376.472816,370.102971,-10584.944971,1149.143247
376.473139,0.000000,-11843.295072,3753.867940
376.473461,-296.082377,-11843.295072,3907.087040
376.473783,-1110.308913,-10658.965565,1532.190996
376.474106,-2442.679609,-7698.141797,0.000000
376.474428,-4959.379811,-4737.318029,-536.266849
376.474751,-7550.100608,-3256.906145,-1915.238745
376.475073,-6661.853478,-5699.585753,-3600.648841
376.475395,-3849.070898,-9030.512492,-5822.325785
376.475718,0.000000,-12435.459826,-6588.421283
376.476040,2886.803174,-16654.633695,-4060.306139
376.476362,4737.318029,-17690.922014,-306.438199
376.476685,5773.606348,-14730.098246,-229.828649
376.477007,5477.523971,-11251.130318,-2834.553343
376.477330,4071.132681,-8290.306550,-3140.991542
376.477652,1702.473667,-5921.647536,-4290.134789
376.477974,0.000000,-5033.400406,-4749.792088
376.478297,0.000000,-7179.997637,-1915.238745
376.478619,0.000000,-9252.574275,1608.800546
376.478941,-740.205942,-11177.109724,3830.477490
376.479264,-1850.514855,-10955.047942,5286.058936
376.479586,-2664.741391,-8808.450710,3140.991542
376.479909,-2960.823768,-6883.915261,-766.095498
376.480231,-4441.235652,-4589.276840,-919.314598
376.480553,-6735.874072,-2960.823768,689.485948
376.480876,-7772.162391,-3182.885551,-1762.019645
376.481198,-6143.709319,-7550.100608,-3753.867940
376.481520,-2220.617826,-12287.418637,-4443.353888
376.481843,1110.308913,-14878.139434,-4136.915689
376.482165,2886.803174,-16728.654289,-3600.648841
376.482488,4071.132681,-15988.448347,-612.876398
376.482810,4811.338623,-12139.377449,0.000000
376.483132,4663.297435,-7624.121203,-1685.410096
376.483455,2960.823768,-3775.050304,-2987.772442
376.483777,1998.556043,-3256.906145,-4979.620737
376.484099,1554.432478,-6587.832884,-4290.134789
376.484422,888.247130,-10584.944971,1072.533697
376.484744,-666.185348,-12731.542202,4596.572988
376.485067,-1998.556043,-13027.624579,4673.182538
376.485389,-2294.638420,-10732.986159,2451.505594
376.485711,-2368.659014,-7772.162391,-1149.143247
376.486034,-4219.173869,-5847.626942,-1991.848295
376.486356,-6661.853478,-3775.050304,-306.438199
376.486678,-8142.265362,-3108.864956,-1608.800546
376.487001,-6883.915261,-5403.503377,-4979.620737
376.487323,-3182.885551,-10436.903782,-5975.544884
376.487646,518.144159,-15174.221811,-6205.373534
376.487968,3182.885551,-17542.880825,-4979.620737
376.488290,4737.318029,-16876.695478,-2298.286494
376.488613,5625.565159,-14211.954086,-1149.143247
376.488935,5847.626942,-10584.944971,-2604.724693
376.489257,3478.967927,-6217.729913,-3907.087040
376.489580,1110.308913,-4441.235652,-5745.716235
376.489902,296.082377,-6809.894666,-5439.278036
376.490225,296.082377,-10214.842000,-1225.752797
376.490547,-814.226536,-11325.150913,3370.820191
376.490869,-2146.597232,-11251.130318,5056.230287
376.491192,-2368.659014,-10362.883188,3217.601092
376.491514,-1998.556043,-8068.244768,-612.876398
376.491836,-3404.947333,-5403.503377,-1991.848295
376.492159,-6291.750507,-3627.009116,-229.828649
376.492481,-8512.368333,-4071.132681,0.000000
376.492804,-7698.141797,-6513.812290,-2757.943793
376.493126,-4293.194464,-10658.965565,-4979.620737
376.493448,-518.144159,-14211.954086,-5439.278036
376.493771,2516.700203,-16506.592507,-3983.696590
376.494093,4737.318029,-15544.324782,-1532.190996
376.494415,5995.668130,-11917.315666,-306.438199
376.494738,5995.668130,-8142.265362,-1378.971896
376.495060,5033.400406,-5625.565159,-2604.724693
376.495383,3034.844362,-4811.338623,-4443.353888
376.495705,2146.597232,-6365.771101,-4903.011187
376.496027,1184.329507,-9326.594869,-2068.457845
376.496350,888.247130,-11843.295072,2604.724693
376.496672,0.000000,-12731.542202,5515.887586
376.496994,-888.247130,-11473.192101,4673.182538
376.497317,-1332.370696,-9030.512492,459.657299
376.497639,-2738.761985,-6217.729913,-1225.752797
376.497962,-5255.462188,-3701.029710,-766.095498
376.498284,-6883.915261,-2960.823768,-1378.971896
376.498606,-5995.668130,-5773.606348,-3140.991542
376.498929,-2220.617826,-9548.656652,-3907.087040
376.499251,1554.432478,-13767.830521,-4903.011187
376.499574,3552.988522,-16728.654289,-3753.867940
376.499896,4885.359217,-17098.757260,-919.314598
376.500218,5699.585753,-14211.954086,-1378.971896
376.500541,5181.441594,-10066.800811,-2145.067394
376.500863,3923.091493,-6883.915261,-2145.067394
376.501185,1554.432478,-4885.359217,-4213.525239
376.501508,740.205942,-5699.585753,-5745.716235
376.501830,740.205942,-8734.430116,-2528.115143
376.502153,0.000000,-11325.150913,1762.019645
376.502475,-2220.617826,-12065.356855,4519.963438
376.502797,-3108.864956,-11547.212695,4749.792088
376.503120,-4219.173869,-9104.533087,1838.629195
376.503442,-4515.256246,-5403.503377,-1915.238745
376.503764,-5699.585753,-3775.050304,-2604.724693
376.504087,-7920.203579,-3627.009116,-995.924147
376.504409,-9104.533087,-4811.338623,-536.266849
376.504732,-7179.997637,-7476.080014,-2681.334243
376.505054,-3775.050304,-12361.439231,-4903.011187
376.505376,222.061783,-16210.510130,-5515.887586
376.505699,2812.782580,-16506.592507,-4290.134789
376.506021,3923.091493,-14137.933492,-2451.505594
376.506343,5403.503377,-10807.006753,-919.314598
376.506666,5995.668130,-7254.018232,-1455.581446
376.506988,4959.379811,-4293.194464,-3983.696590
376.507311,3849.070898,-4885.359217,-5209.449386
376.507633,2812.782580,-7772.162391,-3753.867940
376.507955,1036.288319,-11769.274478,306.438199
376.508278,-370.102971,-13989.892304,4290.134789
376.508600,-1924.535449,-12361.439231,5439.278036
376.508922,-2368.659014,-9104.533087,1991.848295
376.509245,-2072.576638,-5403.503377,-2221.676944
376.509567,-3701.029710,-4145.153275,-3524.039291
376.509890,-6661.853478,-3182.885551,-766.095498
376.510212,-8068.244768,-3923.091493,-766.095498
376.510534,-6439.791695,-6661.853478,-3753.867940
376.510857,-3034.844362,-11695.253884,-5515.887586
376.511179,592.164754,-15988.448347,-5745.716235
376.511501,2812.782580,-16654.633695,-5056.230287
376.511824,4515.256246,-15248.242405,-3447.429741
376.512146,6291.750507,-13397.727550,-1225.752797
376.512469,6439.791695,-9992.780217,-1685.410096
376.512791,4589.276840,-7105.977043,-3294.210641
376.513113,2072.576638,-5625.565159,-4979.620737
376.513436,592.164754,-8216.285956,-4673.182538
376.513758,1184.329507,-12287.418637,-1532.190996
376.514080,370.102971,-13027.624579,2911.162892
376.514403,-1628.453072,-10955.047942,4673.182538
376.514725,-2516.700203,-8438.347739,3907.087040
376.515048,-2220.617826,-6513.812290,919.314598
376.515370,-2664.741391,-4663.297435,-1762.019645
376.515692,-5329.482782,-3256.906145,-1838.629195
376.516015,-7698.141797,-3997.112087,-766.095498
376.516337,-7624.121203,-6957.935855,-919.314598
376.516659,-5477.523971,-10584.944971,-2681.334243
376.516982,-2368.659014,-14730.098246,-4519.963438
376.517304,0.000000,-16136.489536,-4903.011187
376.517627,1628.453072,-14582.057057,-3753.867940
376.517949,2960.823768,-11547.212695,-1455.581446
376.518271,4367.215058,-8660.409521,-1225.752797
376.518594,3923.091493,-6661.853478,-3140.991542
376.518916,3330.926739,-6513.812290,-4596.572988
376.519238,1998.556043,-7402.059420,-3983.696590
376.519561,814.226536,-9474.636058,-1225.752797
376.519883,148.041188,-11991.336260,1762.019645
376.520206,-962.267725,-11769.274478,4519.963438
376.520528,-1998.556043,-9918.759623,3907.087040
376.520850,-1776.494261,-7179.997637,1302.362347
376.521173,-2072.576638,-5921.647536,-1455.581446
376.521495,-3108.864956,-5033.400406,-1378.971896
376.521818,-4589.276840,-4367.215058,459.657299
376.522140,-4663.297435,-4589.276840,-536.266849
376.522462,-2442.679609,-8290.306550,-3140.991542
376.522785,888.247130,-13249.686362,-4060.306139
376.523107,3330.926739,-15026.180623,-4366.744339
376.523429,3849.070898,-14434.015869,-3600.648841
376.523752,5625.565159,-14211.954086,-1685.410096
376.524074,6143.709319,-11843.295072,-689.485948
376.524397,4589.276840,-8882.471304,-2145.067394
376.524719,1776.494261,-5995.668130,-3447.429741
376.525041,0.000000,-6069.688724,-4596.572988
376.525364,-888.247130,-8586.388927,-3677.258390
376.525686,-1554.432478,-11399.171507,-612.876398
376.526008,-2886.803174,-11399.171507,2528.115143
376.526331,-4367.215058,-10732.986159,2757.943793
376.526653,-4071.132681,-9400.615463,1685.410096
376.526976,-4219.173869,-7254.018232,-383.047749
376.527298,-5329.482782,-4811.338623,-2068.457845
376.527620,-7105.977043,-3775.050304,-1915.238745
376.527943,-7698.141797,-4811.338623,-1991.848295
376.528265,-6217.729913,-8734.430116,-3140.991542
376.528587,-2960.823768,-12213.398043,-4213.525239
376.528910,-222.061783,-14285.974681,-4826.401637
376.529232,2368.659014,-15174.221811,-4290.134789
376.529555,5329.482782,-13989.892304,-1991.848295
376.529877,7179.997637,-10732.986159,-1225.752797
376.530199,7402.059420,-7105.977043,-1685.410096
376.530522,5995.668130,-5551.544565,-2911.162892
376.530844,3997.112087,-5699.585753,-3753.867940
376.531166,2664.741391,-8142.265362,-3677.258390
376.531489,814.226536,-10732.986159,-1149.143247
376.531811,-666.185348,-12731.542202,1455.581446
376.532134,-1258.350101,-12879.583391,3217.601092
376.532456,-1998.556043,-12139.377449,2374.896044
376.532778,-2664.741391,-8882.471304,1149.143247
376.533101,-3997.112087,-4663.297435,-306.438199
376.533423,-5403.503377,-2368.659014,-2451.505594
376.533745,-5625.565159,-4737.318029,-2834.553343
376.534068,-4071.132681,-7624.121203,-3524.039291
376.534390,-2368.659014,-10658.965565,-4979.620737
376.534713,0.000000,-14730.098246,-3907.087040
376.535035,2664.741391,-17246.798449,-1455.581446
376.535357,5033.400406,-15026.180623,-1455.581446
376.535680,6069.688724,-11399.171507,-2451.505594
376.536002,5551.544565,-8364.327145,-2068.457845
376.536324,4145.153275,-6143.709319,-1608.800546
376.536647,2220.617826,-4885.359217,-3524.039291
376.536969,1184.329507,-6365.771101,-3064.381992
376.537292,666.185348,-9992.780217,-919.314598
376.537614,-296.082377,-12065.356855,1532.190996
376.537936,-1924.535449,-12583.501014,3447.429741
376.538259,-3552.988522,-10807.006753,4060.306139
376.538581,-3701.029710,-8216.285956,1149.143247
376.538904,-3478.967927,-6439.791695,-1915.238745
376.539226,-4219.173869,-4515.256246,-1532.190996
376.539549,-5625.565159,-3330.926739,-995.924147
376.539871,-6069.688724,-5551.544565,-2528.115143
376.540194,-3701.029710,-10288.862594,-2911.162892
376.540516,-740.205942,-13471.748144,-3217.601092
376.540839,962.267725,-14656.077652,-3524.039291
376.541161,2220.617826,-14804.118840,-2834.553343
376.541484,3256.906145,-12731.542202,-766.095498
376.541806,3627.009116,-8216.285956,-1378.971896
376.542129,3034.844362,-4219.173869,-2834.553343
376.542451,1406.391290,-3552.988522,-3600.648841
376.542774,1554.432478,-7328.038826,-5132.839837
376.543096,518.144159,-10584.944971,-2681.334243
376.543419,-1480.411884,-11917.315666,1685.410096
376.543741,-3256.906145,-12953.603985,3677.258390
376.544064,-3997.112087,-11991.336260,2604.724693
376.544386,-3627.009116,-8734.430116,-612.876398
376.544709,-4071.132681,-5329.482782,-3064.381992
376.545031,-5255.462188,-4737.318029,-3677.258390
376.545353,-5773.606348,-5329.482782,-1302.362347
376.545676,-5329.482782,-4811.338623,-1302.362347
376.545998,-2960.823768,-7328.038826,-3370.820191
376.546321,0.000000,-13027.624579,-4366.744339
376.546643,2664.741391,-16432.571912,-3370.820191
376.546966,4071.132681,-15100.201217,-3140.991542
376.547288,5255.462188,-12953.603985,-2681.334243
376.547611,6661.853478,-11547.212695,-1225.752797
376.547933,6809.894666,-8956.491898,-1762.019645
376.548256,4959.379811,-5773.606348,-2681.334243
376.548578,2590.720797,-4367.215058,-2757.943793
376.548901,1258.350101,-8142.265362,-3217.601092
376.549223,148.041188,-12731.542202,-919.314598
376.549546,-1554.432478,-13175.665768,3217.601092
376.549868,-4737.318029,-10807.006753,2987.772442
376.550191,-5181.441594,-8660.409521,995.924147
376.550513,-3478.967927,-7105.977043,-1225.752797
376.550836,-4219.173869,-4145.153275,-2374.896044
376.551158,-5995.668130,-2368.659014,-1225.752797
376.551481,-7105.977043,-3775.050304,-1762.019645
376.551803,-6069.688724,-8364.327145,-2911.162892
376.552126,-2960.823768,-13471.748144,-4213.525239
376.552448,-888.247130,-15026.180623,-4596.572988
376.552771,592.164754,-14359.995275,-4596.572988
376.553093,2886.803174,-13323.706956,-2451.505594
376.553416,5699.585753,-11251.130318,-1225.752797
376.553738,6513.812290,-7624.121203,-2068.457845
376.554061,5921.647536,-5329.482782,-2834.553343
376.554383,4663.297435,-4885.359217,-3140.991542
376.554706,3552.988522,-7402.059420,-2374.896044
376.555028,2664.741391,-11103.089130,-383.047749
376.555351,370.102971,-13101.645173,2528.115143
376.555673,-1406.391290,-12435.459826,3600.648841
376.555995,-1628.453072,-10658.965565,2757.943793
376.556318,-1628.453072,-7994.224174,919.314598
376.556640,-2442.679609,-5255.462188,-919.314598
376.556963,-4515.256246,-3108.864956,-1608.800546
376.557285,-5329.482782,-4367.215058,-2145.067394
376.557608,-3775.050304,-8216.285956,-3217.601092
376.557930,-1924.535449,-11843.295072,-3677.258390
376.558253,-370.102971,-14582.057057,-4749.792088
376.558575,148.041188,-15618.345376,-3447.429741
376.558898,1850.514855,-15766.386565,-2221.676944
376.559220,3330.926739,-12879.583391,-2221.676944
376.559543,3552.988522,-9474.636058,-3140.991542
376.559865,2516.700203,-6513.812290,-2987.772442
376.560188,1628.453072,-4811.338623,-2757.943793
376.560510,666.185348,-6439.791695,-2911.162892
376.560833,0.000000,-9252.574275,-1685.410096
376.561155,-1628.453072,-11473.192101,766.095498
376.561478,-3404.947333,-11399.171507,2681.334243
376.561800,-4441.235652,-10066.800811,3677.258390
376.562123,-3997.112087,-7624.121203,1302.362347
376.562445,-3330.926739,-5551.544565,-1532.190996
376.562768,-3775.050304,-4737.318029,-2068.457845
376.563090,-4293.194464,-4737.318029,-306.438199
376.563413,-3849.070898,-6513.812290,-536.266849
376.563735,-2960.823768,-9474.636058,-2834.553343
376.564058,-1184.329507,-13175.665768,-3064.381992
376.564380,740.205942,-14730.098246,-3677.258390
376.564703,2368.659014,-14137.933492,-3830.477490
376.565025,4071.132681,-11843.295072,-2221.676944
376.565348,5255.462188,-9178.553681,-1608.800546
376.565670,5477.523971,-6735.874072,-1762.019645
376.565993,3997.112087,-5033.400406,-2451.505594
376.566315,1998.556043,-5329.482782,-3064.381992
376.566638,222.061783,-8660.409521,-2834.553343
376.566960,-962.267725,-11917.315666,-766.095498
376.567282,-2738.761985,-13101.645173,995.924147
376.567605,-4663.297435,-11991.336260,1532.190996
376.567927,-4663.297435,-10066.800811,1378.971896
376.568250,-3849.070898,-7105.977043,-229.828649
376.568572,-4367.215058,-4071.132681,-3064.381992
376.568895,-3775.050304,-4219.173869,-4290.134789
376.569217,-3108.864956,-6661.853478,-3830.477490
376.569540,-888.247130,-9474.636058,-3370.820191
376.569862,1554.432478,-13323.706956,-3370.820191
376.570185,3182.885551,-15618.345376,-2681.334243
376.570507,4959.379811,-15322.262999,-2221.676944
376.570830,6439.791695,-12805.562797,-2145.067394
376.571152,7105.977043,-9844.739029,-1838.629195
376.571475,6365.771101,-7624.121203,-1378.971896
376.571797,4737.318029,-5773.606348,-1991.848295
376.572120,2664.741391,-5107.421000,-2068.457845
376.572442,1628.453072,-8364.327145,-1149.143247
376.572765,-148.041188,-11325.150913,0.000000
376.573087,-2886.803174,-11769.274478,1149.143247
376.573410,-4737.318029,-11103.089130,1915.238745
376.573732,-5847.626942,-9918.759623,1838.629195
376.574055,-6365.771101,-7624.121203,-153.219100
376.574377,-7105.977043,-4959.379811,-2221.676944
376.574700,-7550.100608,-4293.194464,-3294.210641
376.575022,-7105.977043,-6439.791695,-3753.867940
376.575345,-4959.379811,-9844.739029,-3830.477490
376.575667,-2294.638420,-12953.603985,-3753.867940
376.575990,-666.185348,-14508.036463,-3140.991542
376.576312,740.205942,-15100.201217,-2221.676944
376.576635,2664.741391,-13175.665768,-1532.190996
376.576957,4145.153275,-8956.491898,-1608.800546
376.577280,4959.379811,-5181.441594,-2374.896044
376.577602,5107.421000,-4441.235652,-2834.553343
376.577924,4885.359217,-6365.771101,-2374.896044
376.578247,3923.091493,-7994.224174,0.000000
376.578569,1406.391290,-9844.739029,1532.190996
376.578892,-370.102971,-12361.439231,2068.457845
376.579214,-1776.494261,-12509.480420,2451.505594
376.579537,-2738.761985,-9918.759623,306.438199
376.579859,-3775.050304,-7031.956449,-536.266849
376.580182,-4885.359217,-6513.812290,-1072.533697
376.580504,-5551.544565,-6661.853478,-1149.143247
376.580827,-5403.503377,-5847.626942,-1225.752797
376.581149,-4885.359217,-6291.750507,-3753.867940
376.581472,-3034.844362,-11103.089130,-5056.230287
376.581794,-296.082377,-15766.386565,-4290.134789
376.582117,1850.514855,-15840.407159,-3064.381992
376.582439,3182.885551,-13027.624579,-2298.286494
376.582762,4663.297435,-11251.130318,-1838.629195
376.583084,5847.626942,-9622.677246,-1608.800546
376.583407,4663.297435,-5625.565159,-1838.629195
376.583729,2590.720797,-3627.009116,-2451.505594
376.584052,1480.411884,-6661.853478,-2987.772442
376.584374,1332.370696,-11843.295072,-995.924147
376.584697,0.000000,-11917.315666,2451.505594
376.585019,-3108.864956,-10436.903782,2987.772442
376.585342,-4367.215058,-9474.636058,1762.019645
376.585664,-3923.091493,-7994.224174,536.266849
376.585987,-4367.215058,-3923.091493,-842.705048
376.586309,-5551.544565,-3849.070898,-2987.772442
376.586632,-6365.771101,-5625.565159,-1991.848295
376.586954,-5477.523971,-8438.347739,-2451.505594
376.587277,-3552.988522,-10732.986159,-3370.820191
376.587599,-1332.370696,-13471.748144,-3753.867940
376.587922,1480.411884,-15396.283594,-4213.525239
376.588244,3256.906145,-13915.871710,-3447.429741
376.588566,4663.297435,-11029.068536,-2604.724693
376.588889,5255.462188,-8882.471304,-1532.190996
376.589211,5329.482782,-6883.915261,-1762.019645
376.589534,4737.318029,-5255.462188,-4136.915689
376.589856,3478.967927,-6143.709319,-3370.820191
376.590179,2072.576638,-9696.697840,-1072.533697
376.590501,74.020594,-12657.521608,766.095498
376.590824,-2146.597232,-12213.398043,2757.943793
376.591146,-2812.782580,-10955.047942,1838.629195
376.591469,-2664.741391,-8882.471304,-153.219100
376.591791,-2886.803174,-6957.935855,-1915.238745
376.592114,-4219.173869,-4589.276840,-1608.800546
376.592436,-4737.318029,-4515.256246,-1838.629195
376.592759,-4219.173869,-6587.832884,-3064.381992
376.593081,-1924.535449,-10140.821405,-3064.381992
376.593404,148.041188,-12435.459826,-3983.696590
376.593726,1332.370696,-14804.118840,-4749.792088
376.594049,2886.803174,-16062.468941,-3064.381992
376.594371,4293.194464,-13619.789333,-1915.238745
376.594694,4811.338623,-10214.842000,-1762.019645
376.595016,4885.359217,-6661.853478,-2145.067394
376.595339,3849.070898,-5329.482782,-2757.943793
376.595661,2590.720797,-6957.935855,-3830.477490
376.595984,1480.411884,-9770.718434,-1302.362347
376.596306,-444.123565,-11177.109724,1685.410096
376.596629,-3552.988522,-11103.089130,3140.991542
376.596951,-4737.318029,-10288.862594,2221.676944
376.597274,-5033.400406,-7920.203579,842.705048
376.597596,-4737.318029,-5921.647536,-1072.533697
376.597919,-5255.462188,-5625.565159,-2145.067394
376.598241,-5847.626942,-5699.585753,0.000000
376.598564,-5995.668130,-6365.771101,-919.314598
376.598886,-4737.318029,-8734.430116,-1838.629195
376.599208,-2368.659014,-12583.501014,-3524.039291
376.599531,-592.164754,-14656.077652,-4136.915689
376.599853,888.247130,-14211.954086,-3830.477490
376.600176,2368.659014,-12065.356855,-2145.067394
376.600498,3997.112087,-9918.759623,-995.924147
376.600821,5181.441594,-7476.080014,-1532.190996
376.601143,4589.276840,-5107.421000,-3064.381992
376.601466,2738.761985,-5477.523971,-2681.334243
376.601788,1628.453072,-8734.430116,-1915.238745
376.602111,222.061783,-11621.233289,0.000000
376.602433,-1998.556043,-12065.356855,2221.676944
376.602756,-3627.009116,-11325.150913,2757.943793
376.603078,-3775.050304,-9548.656652,995.924147
376.603401,-3478.967927,-7476.080014,-1838.629195
376.603723,-3997.112087,-6291.750507,-1991.848295
376.604046,-5551.544565,-5181.441594,-766.095498
376.604368,-5551.544565,-5699.585753,-1838.629195
376.604691,-3997.112087,-7698.141797,-3524.039291
376.605013,-1332.370696,-11177.109724,-4136.915689
376.605336,370.102971,-13989.892304,-5209.449386
376.605658,2590.720797,-15100.201217,-4213.525239
376.605981,4811.338623,-13693.809927,-2451.505594
376.606303,6957.935855,-11547.212695,-1838.629195
376.606626,7476.080014,-9400.615463,-2221.676944
376.606948,6513.812290,-7402.059420,-1838.629195
376.607271,4589.276840,-6661.853478,-1455.581446
376.607593,2368.659014,-7476.080014,-1991.848295
376.607916,962.267725,-9474.636058,-536.266849
376.608238,-962.267725,-10140.821405,1685.410096
376.608561,-2590.720797,-9622.677246,2604.724693
376.608883,-3849.070898,-8586.388927,2068.457845
376.609206,-4441.235652,-8068.244768,383.047749
376.609528,-4811.338623,-6809.894666,-153.219100
376.609850,-6143.709319,-4811.338623,-1149.143247
376.610173,-6809.894666,-5329.482782,-1915.238745
376.610495,-6069.688724,-7772.162391,-2604.724693
376.610818,-4663.297435,-10658.965565,-3983.696590
376.611140,-2664.741391,-13693.809927,-4749.792088
376.611463,-518.144159,-14878.139434,-3983.696590
376.611785,2146.597232,-13397.727550,-3217.601092
376.612108,4589.276840,-10807.006753,-3447.429741
376.612430,5773.606348,-8808.450710,-2451.505594
376.612753,5403.503377,-7550.100608,-2221.676944
376.613075,4145.153275,-7105.977043,-3370.820191
376.613398,2738.761985,-7846.182985,-2681.334243
376.613720,1924.535449,-9030.512492,-919.314598
376.614043,444.123565,-10881.027347,383.047749
376.614365,-2072.576638,-11251.130318,2068.457845
376.614688,-3478.967927,-10140.821405,2528.115143
376.615010,-3923.091493,-8660.409521,536.266849
376.615333,-3478.967927,-6809.894666,-766.095498
376.615655,-4589.276840,-5921.647536,-1532.190996
376.615978,-4959.379811,-5921.647536,-2298.286494
376.616300,-4589.276840,-7031.956449,-3140.991542
376.616623,-2294.638420,-9622.677246,-3140.991542
376.616945,222.061783,-12583.501014,-3983.696590
376.617268,1850.514855,-14359.995275,-4366.744339
376.617590,3552.988522,-14211.954086,-2834.553343
376.617913,5551.544565,-12879.583391,-1838.629195
376.618235,7031.956449,-10807.006753,-2068.457845
376.618558,6439.791695,-9030.512492,-2145.067394
376.618880,4737.318029,-7402.059420,-2451.505594
376.619203,2072.576638,-6661.853478,-2298.286494
376.619525,666.185348,-8512.368333,-1455.581446
376.619848,-666.185348,-10436.903782,612.876398
376.620170,-3108.864956,-10214.842000,1455.581446
376.620492,-4663.297435,-9474.636058,1302.362347
376.620815,-5107.421000,-8438.347739,1149.143247
376.621137,-4885.359217,-7105.977043,459.657299
376.621460,-4811.338623,-5255.462188,-1149.143247
376.621782,-5477.523971,-4145.153275,-2298.286494
376.622105,-5033.400406,-6217.729913,-2681.334243
376.622427,-2886.803174,-9844.739029,-2374.896044
376.622750,-814.226536,-12953.603985,-2987.772442
376.623072,814.226536,-14508.036463,-3294.210641
376.623395,2442.679609,-13989.892304,-2528.115143
376.623717,4589.276840,-12213.398043,-2145.067394
376.624040,5921.647536,-9474.636058,-1762.019645
376.624362,6735.874072,-7402.059420,-1455.581446
376.624685,5773.606348,-5699.585753,-1991.848295
376.625007,4145.153275,-5921.647536,-2145.067394
376.625330,2368.659014,-7994.224174,-536.266849
376.625652,0.000000,-10288.862594,766.095498
376.625975,-2590.720797,-12139.377449,1225.752797
376.626297,-3849.070898,-12213.398043,1685.410096
376.626620,-5107.421000,-9844.739029,689.485948
376.626942,-5773.606348,-6883.915261,-766.095498
376.627265,-6587.832884,-5181.441594,-1378.971896
376.627587,-6883.915261,-5033.400406,-2374.896044
376.627910,-6809.894666,-6439.791695,-4596.572988
376.628232,-5107.421000,-8438.347739,-5209.449386
376.628555,-3108.864956,-11843.295072,-5056.230287
376.628877,-962.267725,-15026.180623,-4826.401637
376.629200,1332.370696,-16358.551318,-2757.943793
376.629522,3923.091493,-14508.036463,-2068.457845
376.629845,6143.709319,-11399.171507,-2528.115143
376.630167,7476.080014,-8586.388927,-2298.286494
376.630490,6809.894666,-5625.565159,-2068.457845
376.630812,4885.359217,-5255.462188,-2145.067394
376.631134,3034.844362,-7698.141797,-1378.971896
376.631457,1110.308913,-10140.821405,1455.581446
376.631779,-1998.556043,-10584.944971,2451.505594
376.632102,-4367.215058,-10140.821405,2451.505594
376.632424,-5551.544565,-8956.491898,1225.752797
376.632747,-5551.544565,-7846.182985,-229.828649
376.633069,-6439.791695,-5329.482782,-1225.752797
376.633392,-7402.059420,-4145.153275,-1302.362347
376.633714,-7846.182985,-5255.462188,-2681.334243
376.634037,-7328.038826,-7846.182985,-4749.792088
376.634359,-4959.379811,-11399.171507,-5515.887586
376.634682,-2220.617826,-14878.139434,-5362.668486
376.635004,0.000000,-16580.613101,-4903.011187
376.635327,3182.885551,-15322.262999,-2604.724693
376.635649,5995.668130,-11843.295072,-2374.896044
376.635972,8364.327145,-8734.430116,-2451.505594
376.636294,8290.306550,-6587.832884,-1915.238745
376.636617,6957.935855,-4737.318029,-1455.581446
376.636939,4885.359217,-5625.565159,-1608.800546
376.637262,3108.864956,-8586.388927,-229.828649
376.637584,1184.329507,-11325.150913,2374.896044
376.637907,-888.247130,-10732.986159,2681.334243
376.638229,-2368.659014,-9844.739029,1149.143247
376.638552,-3552.988522,-8512.368333,76.609550
376.638874,-3701.029710,-6661.853478,0.000000
376.639196,-4589.276840,-4293.194464,-1762.019645
376.639519,-4589.276840,-5403.503377,-2911.162892
376.639841,-4219.173869,-6957.935855,-4673.182538
376.640164,-1998.556043,-11769.274478,-5056.230287
376.640486,0.000000,-14952.160028,-5132.839837
376.640809,1628.453072,-16580.613101,-3753.867940
376.641131,3478.967927,-15988.448347,-2221.676944
376.641453,5699.585753,-12583.501014,-2145.067394
376.641776,6587.832884,-9696.697840,-1915.238745
376.642098,5921.647536,-7402.059420,-612.876398
376.642421,4293.194464,-5033.400406,-995.924147
376.642743,2590.720797,-4885.359217,-1915.238745
376.643066,1554.432478,-6587.832884,-229.828649
376.643388,74.020594,-9400.615463,1991.848295
376.643710,-2516.700203,-9844.739029,2987.772442
376.644033,-4441.235652,-9844.739029,2681.334243
376.644355,-5477.523971,-8882.471304,1455.581446
376.644678,-6069.688724,-7550.100608,-306.438199
376.645000,-7031.956449,-5921.647536,-383.047749
376.645323,-7476.080014,-5255.462188,-2681.334243
376.645645,-7624.121203,-6365.771101,-3907.087040
376.645967,-5699.585753,-10066.800811,-4366.744339
376.646290,-3552.988522,-12879.583391,-4290.134789
376.646612,-1480.411884,-14508.036463,-3677.258390
376.646935,370.102971,-14878.139434,-2987.772442
376.647257,2738.761985,-13323.706956,-2221.676944
376.647580,4737.318029,-10807.006753,-1991.848295
376.647902,5551.544565,-7698.141797,-1532.190996
376.648224,5033.400406,-5033.400406,-1072.533697
376.648547,4293.194464,-4367.215058,-1455.581446
376.648869,2812.782580,-6513.812290,-689.485948
376.649192,962.267725,-9030.512492,995.924147
376.649514,-1554.432478,-10955.047942,2298.286494
376.649837,-3108.864956,-11547.212695,2298.286494
376.650159,-3552.988522,-10807.006753,459.657299
376.650481,-4663.297435,-8586.388927,-766.095498
376.650804,-6217.729913,-6069.688724,-766.095498
376.651126,-6735.874072,-5551.544565,-1608.800546
376.651449,-6587.832884,-5329.482782,-4060.306139
376.651771,-4737.318029,-8438.347739,-5898.935335
376.652094,-2442.679609,-11843.295072,-5745.716235
376.652416,-370.102971,-14582.057057,-5056.230287
376.652738,2368.659014,-16580.613101,-3830.477490
376.653061,5255.462188,-15100.201217,-2604.724693
376.653383,7920.203579,-12583.501014,-2757.943793
376.653706,8808.450710,-9252.574275,-2757.943793
376.654028,8142.265362,-6809.894666,-1685.410096
376.654351,6291.750507,-5551.544565,-1225.752797
376.654673,4219.173869,-6143.709319,-1532.190996
376.654995,2220.617826,-8364.327145,153.219100
376.655318,0.000000,-10214.842000,2221.676944
376.655640,-1776.494261,-10881.027347,2451.505594
376.655963,-3849.070898,-9696.697840,1685.410096
376.656285,-4663.297435,-7772.162391,536.266849
376.656608,-4515.256246,-6217.729913,-383.047749
376.656930,-4145.153275,-4811.338623,-1991.848295
376.657252,-3775.050304,-5255.462188,-3064.381992
376.657575,-3849.070898,-7846.182985,-3524.039291
376.657897,-2220.617826,-11251.130318,-4136.915689
376.658220,0.000000,-14804.118840,-4366.744339
376.658542,1776.494261,-15988.448347,-3830.477490
376.658865,3478.967927,-14285.974681,-2911.162892
376.659187,4367.215058,-11103.089130,-2221.676944
376.659510,5403.503377,-8660.409521,-2145.067394
376.659832,4737.318029,-6587.832884,-1838.629195
376.660154,2368.659014,-4959.379811,-2298.286494
376.660477,370.102971,-5033.400406,-2604.724693
376.660799,-1480.411884,-7402.059420,0.000000
376.661122,-2886.803174,-10732.986159,919.314598
376.661444,-5107.421000,-11991.336260,1762.019645
376.661767,-5921.647536,-11177.109724,1532.190996
376.662089,-6143.709319,-8512.368333,459.657299
376.662411,-5847.626942,-6439.791695,-1378.971896
376.662734,-5477.523971,-5995.668130,-2834.553343
376.663056,-4959.379811,-6883.915261,-3447.429741
376.663379,-3701.029710,-8734.430116,-4366.744339
376.663701,-1554.432478,-11325.150913,-4596.572988
376.664024,740.205942,-14434.015869,-2834.553343
376.664346,3034.844362,-15840.407159,-2221.676944
376.664668,5033.400406,-13989.892304,-2298.286494
376.664991,6439.791695,-11695.253884,-1915.238745
376.665313,6291.750507,-9178.553681,-612.876398
376.665636,4811.338623,-6735.874072,-229.828649
376.665958,2220.617826,-4219.173869,-1149.143247
376.666281,-296.082377,-4589.276840,-1455.581446
376.666603,-1850.514855,-7476.080014,76.609550
376.666925,-2886.803174,-10066.800811,842.705048
376.667248,-4293.194464,-10732.986159,1532.190996
376.667570,-4737.318029,-10584.944971,1838.629195
376.667893,-4589.276840,-9844.739029,1455.581446
376.668215,-5329.482782,-7328.038826,153.219100
376.668538,-6883.915261,-4959.379811,-1685.410096
376.668860,-7624.121203,-4885.359217,-4673.182538
376.669182,-5773.606348,-8586.388927,-6128.763984
376.669505,-2812.782580,-10807.006753,-5362.668486
376.669827,-518.144159,-13545.768739,-4366.744339
376.670150,1554.432478,-15026.180623,-2145.067394
376.670472,4071.132681,-14804.118840,-536.266849
376.670795,6513.812290,-12065.356855,-1302.362347
376.671117,7254.018232,-7846.182985,-2451.505594
376.671439,6513.812290,-5329.482782,-2145.067394
376.671762,5255.462188,-4219.173869,-1685.410096
376.672084,3923.091493,-3923.091493,-1378.971896
376.672407,2294.638420,-6291.750507,612.876398
376.672729,962.267725,-10066.800811,1685.410096
376.673052,-1184.329507,-11843.295072,1608.800546
376.673374,-2368.659014,-12361.439231,1378.971896
376.673696,-3330.926739,-10584.944971,995.924147
376.674019,-3775.050304,-8290.306550,0.000000
376.674341,-4441.235652,-5995.668130,-2374.896044
376.674664,-4589.276840,-5033.400406,-4060.306139
376.674986,-4071.132681,-6735.874072,-6128.763984
376.675309,-2368.659014,-10732.986159,-6435.202183
376.675631,-370.102971,-14878.139434,-4826.401637
376.675953,1554.432478,-16728.654289,-2834.553343
376.676276,3330.926739,-16062.468941,-1225.752797
376.676598,5699.585753,-13767.830521,-2145.067394
376.676921,7402.059420,-10436.903782,-2987.772442
376.677243,7105.977043,-7105.977043,-2757.943793
376.677566,5033.400406,-4219.173869,-1149.143247
376.677888,2590.720797,-3108.864956,-383.047749
376.678210,962.267725,-5477.523971,-383.047749
376.678533,-1554.432478,-9326.594869,919.314598
376.678855,-3478.967927,-11843.295072,1991.848295
376.679178,-5255.462188,-12139.377449,1149.143247
376.679500,-5699.585753,-10436.903782,612.876398
376.679823,-5033.400406,-7476.080014,459.657299
376.680145,-5847.626942,-5181.441594,-919.314598
376.680467,-6291.750507,-4885.359217,-2221.676944
376.680790,-6513.812290,-6883.915261,-4060.306139
376.681112,-5995.668130,-9918.759623,-5592.497135
376.681435,-4219.173869,-13841.851115,-6052.154434
376.681757,-2516.700203,-16062.468941,-3907.087040
376.682080,-444.123565,-16580.613101,-1915.238745
376.682402,1850.514855,-13545.768739,-1685.410096
376.682724,4811.338623,-9326.594869,-2451.505594
376.683047,6365.771101,-5847.626942,-2451.505594
376.683369,5847.626942,-4219.173869,-1685.410096
376.683692,3997.112087,-3552.988522,-612.876398
376.684014,1924.535449,-4663.297435,536.266849
376.684337,740.205942,-8068.244768,1608.800546
376.684659,0.000000,-11547.212695,1685.410096
376.684981,-1184.329507,-12361.439231,1455.581446
376.685304,-2368.659014,-11177.109724,1608.800546
376.685626,-2664.741391,-9178.553681,1532.190996
376.685949,-3034.844362,-6217.729913,689.485948
376.686271,-4071.132681,-4293.194464,-1608.800546
376.686594,-5329.482782,-5033.400406,-4060.306139
376.686916,-4367.215058,-9326.594869,-5286.058936
376.687239,-2738.761985,-12361.439231,-5975.544884
376.687561,0.000000,-15766.386565,-5056.230287
376.687883,1998.556043,-17098.757260,-2298.286494
376.688206,4441.235652,-15026.180623,-995.924147
376.688528,6143.709319,-11843.295072,-1838.629195
376.688851,6587.832884,-8142.265362,-2681.334243
376.689173,5551.544565,-6069.688724,-2987.772442
376.689496,3256.906145,-4737.318029,-2451.505594
376.689818,1110.308913,-4885.359217,-1072.533697
376.690140,-296.082377,-7105.977043,1685.410096
376.690463,-1628.453072,-9696.697840,2451.505594
376.690785,-2738.761985,-11325.150913,2068.457845
376.691108,-4145.153275,-10510.924376,1072.533697
376.691430,-4737.318029,-8734.430116,612.876398
376.691753,-4959.379811,-6513.812290,0.000000
376.692075,-5255.462188,-5403.503377,-1378.971896
376.692397,-5181.441594,-6439.791695,-3447.429741
376.692720,-4811.338623,-8216.285956,-5132.839837
376.693042,-3108.864956,-11843.295072,-5286.058936
376.693365,-962.267725,-14952.160028,-4366.744339
376.693687,1406.391290,-16284.530724,-2528.115143
376.694010,2812.782580,-14878.139434,-1685.410096
376.694332,4737.318029,-11621.233289,-1532.190996
376.694654,6069.688724,-8734.430116,-1915.238745
376.694977,5995.668130,-6143.709319,-1915.238745
376.695299,4811.338623,-3701.029710,-1072.533697
376.695622,2220.617826,-3404.947333,-995.924147
376.695944,740.205942,-6069.688724,536.266849
376.696267,-370.102971,-9844.739029,1991.848295
376.696589,-2220.617826,-11769.274478,1762.019645
376.696911,-3701.029710,-11843.295072,919.314598
376.697234,-4219.173869,-10140.821405,383.047749
376.697556,-4367.215058,-7550.100608,-306.438199
376.697879,-4737.318029,-5551.544565,-2068.457845
376.698201,-5921.647536,-5551.544565,-3983.696590
376.698524,-5477.523971,-7772.162391,-5286.058936
376.698846,-3627.009116,-10510.924376,-5745.716235
376.699168,-1184.329507,-14063.912898,-6205.373534
376.699491,592.164754,-17024.736666,-3294.210641
376.699813,2368.659014,-16358.551318,-1225.752797
376.700136,4071.132681,-13175.665768,-1378.971896
376.700458,5995.668130,-9400.615463,-1838.629195
376.700781,6143.709319,-5995.668130,-1762.019645
376.701103,5107.421000,-4219.173869,-1915.238745
376.701425,3034.844362,-3108.864956,-1302.362347
376.701748,1036.288319,-4811.338623,459.657299
376.702070,0.000000,-9178.553681,2145.067394
376.702393,-1110.308913,-11991.336260,2451.505594
376.702715,-2590.720797,-11843.295072,1149.143247
376.703038,-3478.967927,-10955.047942,0.000000
376.703360,-3627.009116,-9178.553681,0.000000
376.703682,-4367.215058,-6365.771101,76.609550
376.704005,-5699.585753,-4071.132681,-2451.505594
376.704327,-6365.771101,-6217.729913,-4826.401637
376.704650,-5329.482782,-9770.718434,-5898.935335
376.704972,-3330.926739,-13101.645173,-5975.544884
376.705295,-1628.453072,-16062.468941,-4673.182538
376.705617,148.041188,-16728.654289,-2451.505594
376.705939,2664.741391,-13989.892304,-689.485948
376.706262,4515.256246,-9474.636058,-1762.019645
376.706584,5255.462188,-5773.606348,-2451.505594
376.706907,4663.297435,-3775.050304,-1915.238745
376.707229,2960.823768,-3034.844362,-2068.457845
376.707552,1184.329507,-4145.153275,-995.924147
376.707874,222.061783,-8438.347739,842.705048
376.708196,-592.164754,-11991.336260,2451.505594
376.708519,-1628.453072,-12731.542202,1915.238745
376.708841,-2442.679609,-11547.212695,536.266849
376.709164,-2886.803174,-9696.697840,306.438199
376.709486,-3256.906145,-7328.038826,0.000000
376.709809,-4959.379811,-4367.215058,-1762.019645
376.710131,-6291.750507,-4589.276840,-4136.915689
376.710453,-5181.441594,-8142.265362,-5132.839837
376.710776,-2664.741391,-11769.274478,-6128.763984
376.711098,-148.041188,-13989.892304,-4749.792088
376.711421,1924.535449,-16284.530724,-2451.505594
376.711743,4441.235652,-15396.283594,-383.047749
376.712066,7031.956449,-12509.480420,-612.876398
376.712388,7698.141797,-8068.244768,-2068.457845
376.712711,6587.832884,-6143.709319,-2374.896044
376.713033,4737.318029,-4811.338623,-2298.286494
376.713355,2516.700203,-4811.338623,-1685.410096
376.713678,370.102971,-6957.935855,229.828649
376.714000,-888.247130,-9844.739029,1302.362347
376.714323,-1702.473667,-12213.398043,1532.190996
376.714645,-3034.844362,-12065.356855,1072.533697
376.714968,-4441.235652,-9918.759623,689.485948
376.715290,-5181.441594,-7920.203579,-306.438199
376.715612,-6143.709319,-6143.709319,-1608.800546
376.715935,-6143.709319,-5995.668130,-2834.553343
376.716257,-6291.750507,-6661.853478,-4596.572988
376.716580,-4737.318029,-10510.924376,-4979.620737
376.716902,-2146.597232,-13915.871710,-3983.696590
376.717225,222.061783,-15174.221811,-2221.676944
376.717547,2220.617826,-14285.974681,-1608.800546
376.717869,4293.194464,-11325.150913,-1455.581446
376.718192,5551.544565,-9252.574275,-1532.190996
376.718514,5033.400406,-6069.688724,-1762.019645
376.718837,3627.009116,-3849.070898,-1991.848295
376.719159,2442.679609,-3849.070898,-2298.286494
376.719482,1554.432478,-6661.853478,-536.266849
376.719804,444.123565,-9474.636058,1302.362347
376.720126,-1332.370696,-11769.274478,1991.848295
376.720449,-2220.617826,-12583.501014,1532.190996
376.720771,-2590.720797,-11917.315666,229.828649
376.721094,-3330.926739,-9474.636058,-229.828649
376.721416,-4737.318029,-6143.709319,-612.876398
376.721739,-6217.729913,-4367.215058,-2681.334243
376.722061,-6439.791695,-5699.585753,-4366.744339
376.722383,-4737.318029,-8734.430116,-5515.887586
376.722706,-2072.576638,-12287.418637,-5898.935335
376.723028,814.226536,-15100.201217,-4366.744339
376.723351,2368.659014,-15988.448347,-459.657299
376.723673,4737.318029,-14878.139434,0.000000
376.723996,6217.729913,-11177.109724,-1532.190996
376.724318,6143.709319,-7179.997637,-2221.676944
376.724640,4367.215058,-4367.215058,-2987.772442
376.724963,2368.659014,-4071.132681,-2298.286494
376.725285,370.102971,-5329.482782,-919.314598
376.725608,-1036.288319,-7994.224174,1302.362347
376.725930,-2072.576638,-10732.986159,1532.190996
376.726253,-2590.720797,-12287.418637,842.705048
376.726575,-3330.926739,-11325.150913,1225.752797
376.726897,-3552.988522,-9844.739029,842.705048
376.727220,-4589.276840,-7328.038826,-229.828649
376.727542,-5699.585753,-5551.544565,-1532.190996
376.727865,-5995.668130,-5699.585753,-3447.429741
376.728187,-5403.503377,-7179.997637,-5286.058936
376.728510,-4071.132681,-11029.068536,-5745.716235
376.728832,-1184.329507,-14804.118840,-4136.915689
376.729154,814.226536,-15692.365970,-2451.505594
376.729477,2886.803174,-13693.809927,-1225.752797
376.729799,5181.441594,-10881.027347,-1532.190996
376.730122,6587.832884,-7772.162391,-1762.019645
376.730444,5625.565159,-5551.544565,-2528.115143
376.730767,3701.029710,-3997.112087,-2068.457845
376.731089,2220.617826,-4515.256246,-1455.581446
376.731411,740.205942,-7105.977043,-383.047749
376.731734,-444.123565,-10732.986159,1455.581446
376.732056,-1554.432478,-12731.542202,1762.019645
376.732379,-2664.741391,-11843.295072,689.485948
376.732701,-3108.864956,-9770.718434,459.657299
376.733024,-3849.070898,-6809.894666,-153.219100
376.733346,-4589.276840,-5033.400406,-1991.848295
376.733668,-5255.462188,-4811.338623,-3830.477490
376.733991,-4589.276840,-7624.121203,-5209.449386
376.734313,-2590.720797,-11029.068536,-5822.325785
376.734636,0.000000,-14582.057057,-4596.572988
376.734958,2294.638420,-16358.551318,-2451.505594
376.735281,4737.318029,-15618.345376,-1532.190996
376.735603,5847.626942,-12213.398043,-1532.190996
376.735925,6217.729913,-9326.594869,-1378.971896
376.736248,4737.318029,-6883.915261,-1762.019645
376.736570,2368.659014,-4589.276840,-2374.896044
376.736893,222.061783,-4071.132681,-2298.286494
376.737215,-666.185348,-5773.606348,229.828649
376.737538,-1480.411884,-9844.739029,1302.362347
376.737860,-2590.720797,-11473.192101,1532.190996
376.738177,-3330.926739,-11251.130318,1378.971896
376.738499,-3478.967927,-10807.006753,76.609550
376.738821,-4441.235652,-9770.718434,76.609550
376.739144,-5921.647536,-7328.038826,0.000000
376.739466,-7402.059420,-5033.400406,-2374.896044
376.739789,-7402.059420,-6513.812290,-5209.449386
376.740111,-4737.318029,-9992.780217,-5669.106685
376.740433,-1554.432478,-12361.439231,-5515.887586
376.740756,444.123565,-14359.995275,-3907.087040
376.741078,2664.741391,-14952.160028,-306.438199
376.741401,4811.338623,-13471.748144,766.095498
376.741723,6291.750507,-9844.739029,-1991.848295
376.742046,5551.544565,-6365.771101,-3140.991542
376.742368,4219.173869,-4737.318029,-1991.848295
376.742690,2738.761985,-3849.070898,-2068.457845
376.743013,1480.411884,-4737.318029,-536.266849
376.743335,1258.350101,-8364.327145,1455.581446
376.743658,518.144159,-11103.089130,1685.410096
376.743980,-296.082377,-12583.501014,919.314598
376.744302,-1554.432478,-11843.295072,536.266849
376.744625,-3108.864956,-9474.636058,1302.362347
376.744947,-4515.256246,-5995.668130,-612.876398
376.745270,-5329.482782,-5033.400406,-3447.429741
376.745592,-4515.256246,-6809.894666,-4366.744339
376.745914,-2738.761985,-8660.409521,-4979.620737
376.746237,-444.123565,-11917.315666,-5209.449386
376.746559,2220.617826,-14359.995275,-2604.724693
376.746882,4515.256246,-15618.345376,-383.047749
376.747204,6217.729913,-13989.892304,-1072.533697
376.747527,6735.874072,-10436.903782,-1915.238745
376.747849,5329.482782,-7624.121203,-1608.800546
376.748171,3775.050304,-5699.585753,-2451.505594
376.748494,1998.556043,-3478.967927,-3064.381992
376.748816,370.102971,-4589.276840,-1225.752797
376.749139,-518.144159,-8438.347739,459.657299
376.749461,-2368.659014,-10066.800811,1378.971896
376.749783,-3034.844362,-11843.295072,995.924147
376.750106,-3923.091493,-12509.480420,229.828649
376.750428,-5107.421000,-11325.150913,-153.219100
376.750751,-6809.894666,-8142.265362,-153.219100
376.751073,-9252.574275,-5329.482782,-1608.800546
376.751395,-8882.471304,-6069.688724,-4596.572988
376.751718,-6513.812290,-8808.450710,-6205.373534
376.752040,-3478.967927,-11029.068536,-6281.983084
376.752363,-740.205942,-13693.809927,-4596.572988
376.752685,1184.329507,-15248.242405,-1225.752797
376.753008,3552.988522,-15100.201217,612.876398
376.753330,4441.235652,-11325.150913,-1302.362347
376.753652,4145.153275,-7402.059420,-2757.943793
376.753975,2886.803174,-4293.194464,-2068.457845
376.754297,1702.473667,-2960.823768,-2528.115143
376.754620,1628.453072,-4441.235652,-2221.676944
376.754942,1036.288319,-7254.018232,689.485948
