#time,accel_x,accel_y,accel_z
404.090628,0.000000,-9178.553681,-1608.800546
404.090949,-148.041188,-9104.533087,-1072.533697
404.091271,-148.041188,-9474.636058,-1608.800546
404.091593,-296.082377,-9548.656652,-1762.019645
404.091914,-444.123565,-9918.759623,-1378.971896
404.092236,-444.123565,-9844.739029,-1378.971896
404.092557,-518.144159,-9474.636058,-1685.410096
404.092879,-592.164754,-9030.512492,-1455.581446
404.093200,0.000000,-9030.512492,-1762.019645
404.093522,0.000000,-9252.574275,-1838.629195
404.093843,-148.041188,-9326.594869,-1685.410096
404.094165,-296.082377,-9252.574275,-1838.629195
404.094487,-370.102971,-9548.656652,-1685.410096
404.094808,-148.041188,-9770.718434,-1991.848295
404.095130,-222.061783,-9622.677246,-1608.800546
404.095451,-370.102971,-9696.697840,-1455.581446
404.095773,-370.102971,-9474.636058,-1455.581446
404.096094,-222.061783,-9400.615463,-1532.190996
404.096416,0.000000,-8882.471304,-1532.190996
404.096737,0.000000,-8956.491898,-1685.410096
404.097059,0.000000,-9252.574275,-1608.800546
404.097380,-148.041188,-9474.636058,-1455.581446
404.097702,-370.102971,-9622.677246,-1455.581446
404.098024,-370.102971,-9844.739029,-1378.971896
404.098345,-296.082377,-9844.739029,-995.924147
404.098667,-148.041188,-9548.656652,-1378.971896
404.098988,0.000000,-9178.553681,-1455.581446
404.099310,0.000000,-8734.430116,-1532.190996
404.099631,0.000000,-8956.491898,-1072.533697
404.099953,222.061783,-8660.409521,-995.924147
404.100274,-222.061783,-9548.656652,-1378.971896
404.100596,-444.123565,-9770.718434,-1149.143247
404.100918,-740.205942,-9918.759623,-1149.143247
404.101239,-592.164754,-9548.656652,-1225.752797
404.101561,-518.144159,-9474.636058,-1149.143247
404.101882,-148.041188,-8956.491898,-1072.533697
404.102204,-222.061783,-8734.430116,-1225.752797
404.102525,-222.061783,-8956.491898,-1455.581446
404.102847,-592.164754,-9326.594869,-1302.362347
404.103168,-814.226536,-9400.615463,-1532.190996
404.103490,-962.267725,-9252.574275,-1072.533697
404.103812,-1110.308913,-9548.656652,-1149.143247
404.104133,-814.226536,-9548.656652,-1378.971896
404.104455,-592.164754,-9326.594869,-1072.533697
404.104776,-518.144159,-9178.553681,-1608.800546
404.105098,-518.144159,-9030.512492,-1302.362347
404.105419,-370.102971,-8882.471304,-1302.362347
404.105741,-370.102971,-9326.594869,-1378.971896
404.106062,-444.123565,-9474.636058,-1378.971896
404.106384,-592.164754,-9622.677246,-1149.143247
404.106705,-296.082377,-9474.636058,-612.876398
404.107027,-148.041188,-9474.636058,-1532.190996
404.107349,-444.123565,-9326.594869,-1378.971896
404.107670,-444.123565,-9104.533087,-1378.971896
404.107992,-222.061783,-9252.574275,-1455.581446
404.108313,0.000000,-8956.491898,-1915.238745
404.108635,-148.041188,-9030.512492,-1685.410096
404.108956,0.000000,-9474.636058,-1455.581446
404.109278,148.041188,-9548.656652,-1378.971896
404.109599,814.226536,-9844.739029,-1455.581446
404.109921,1036.288319,-10140.821405,-1378.971896
404.110243,1036.288319,-9844.739029,-842.705048
404.110564,592.164754,-9178.553681,-842.705048
404.110886,444.123565,-8882.471304,-1378.971896
404.111207,0.000000,-8956.491898,-1608.800546
404.111529,-740.205942,-8956.491898,-1838.629195
404.111850,-1332.370696,-8512.368333,-1532.190996
404.112172,-592.164754,-9326.594869,-2145.067394
404.112493,0.000000,-10140.821405,-1915.238745
404.112815,0.000000,-10732.986159,-1149.143247
404.113136,-222.061783,-9770.718434,-842.705048
404.113458,370.102971,-9104.533087,-1532.190996
404.113780,1850.514855,-9696.697840,-1608.800546
404.114101,2220.617826,-10214.842000,-1915.238745
404.114423,1628.453072,-9400.615463,-689.485948
404.114744,1776.494261,-8586.388927,-459.657299
404.115066,3182.885551,-9548.656652,-1302.362347
404.115387,3997.112087,-10140.821405,-766.095498
404.115709,3034.844362,-9178.553681,-383.047749
404.116030,2516.700203,-8512.368333,-229.828649
404.116352,3330.926739,-8216.285956,-842.705048
404.116674,3701.029710,-8734.430116,-1302.362347
404.116995,3478.967927,-9030.512492,-1225.752797
404.117317,3034.844362,-8142.265362,-1149.143247
404.117638,3552.988522,-8216.285956,-2145.067394
404.117960,4145.153275,-9918.759623,-2451.505594
404.118281,4145.153275,-10955.047942,-1915.238745
404.118603,3404.947333,-10436.903782,-1685.410096
404.118924,3627.009116,-9770.718434,-1838.629195
404.119246,4145.153275,-10436.903782,-1915.238745
404.119568,4441.235652,-10140.821405,-1991.848295
404.119889,3627.009116,-9252.574275,-2298.286494
404.120211,3256.906145,-8956.491898,-1532.190996
404.120532,3182.885551,-8808.450710,-1532.190996
404.120854,4071.132681,-8364.327145,-1149.143247
404.121175,4515.256246,-9030.512492,-2145.067394
404.121497,4663.297435,-9474.636058,-1149.143247
404.121818,4737.318029,-9548.656652,-612.876398
404.122140,5107.421000,-8660.409521,-919.314598
404.122461,5551.544565,-8660.409521,-1608.800546
404.122783,4515.256246,-8660.409521,-2298.286494
404.123105,3552.988522,-9918.759623,-2451.505594
404.123426,2072.576638,-10807.006753,-2451.505594
404.123748,962.267725,-12509.480420,-1378.971896
404.124069,296.082377,-12805.562797,-229.828649
404.124391,0.000000,-12509.480420,153.219100
404.124712,-148.041188,-12361.439231,612.876398
404.125034,148.041188,-11473.192101,919.314598
404.125355,370.102971,-10140.821405,1149.143247
404.125677,222.061783,-7994.224174,2068.457845
404.125999,0.000000,-6217.729913,1532.190996
404.126320,-222.061783,-5403.503377,536.266849
404.126642,0.000000,-4959.379811,-1455.581446
404.126963,740.205942,-5255.462188,-2451.505594
404.127285,2072.576638,-5625.565159,-2911.162892
404.127606,3849.070898,-5995.668130,-3370.820191
404.127928,5329.482782,-7179.997637,-4060.306139
404.128249,6513.812290,-9548.656652,-4366.744339
404.128571,5921.647536,-11843.295072,-3830.477490
404.128892,5255.462188,-13323.706956,-3524.039291
404.129214,4663.297435,-14285.974681,-2528.115143
404.129536,4737.318029,-14211.954086,-1378.971896
404.129857,3256.906145,-13545.768739,-153.219100
404.130179,1850.514855,-11621.233289,2298.286494
404.130500,740.205942,-9474.636058,3447.429741
404.130822,1258.350101,-6957.935855,2757.943793
404.131143,1258.350101,-4515.256246,2604.724693
404.131465,1406.391290,-4219.173869,3064.381992
404.131786,444.123565,-3552.988522,2298.286494
404.132108,666.185348,-5181.441594,689.485948
404.132430,1480.411884,-7031.956449,76.609550
404.132751,1924.535449,-7772.162391,-2145.067394
404.133073,1702.473667,-9548.656652,-4519.963438
404.133394,1850.514855,-12287.418637,-5745.716235
404.133716,1998.556043,-14211.954086,-5132.839837
404.134037,2220.617826,-15914.427753,-5056.230287
404.134359,1776.494261,-16876.695478,-5209.449386
404.134680,1702.473667,-15914.427753,-3294.210641
404.135002,2146.597232,-11843.295072,-2681.334243
404.135324,2664.741391,-9252.574275,-3600.648841
404.135645,4293.194464,-9326.594869,-2298.286494
404.135967,5107.421000,-9178.553681,612.876398
404.136288,5329.482782,-7254.018232,2681.334243
404.136610,6365.771101,-5551.544565,3370.820191
404.136931,8068.244768,-5255.462188,3217.601092
404.137253,8586.388927,-5255.462188,2068.457845
404.137574,6439.791695,-5033.400406,1532.190996
404.137896,3478.967927,-3775.050304,2757.943793
404.138217,3108.864956,-6069.688724,1072.533697
404.138539,1998.556043,-9696.697840,-4136.915689
404.138861,222.061783,-10955.047942,-4826.401637
404.139182,-1776.494261,-10955.047942,-3677.258390
404.139504,-2516.700203,-13989.892304,-3677.258390
404.139825,-2294.638420,-17172.777854,-3907.087040
404.140147,-3404.947333,-15100.201217,-4673.182538
404.140468,-3330.926739,-11177.109724,-5515.887586
404.140790,-888.247130,-10140.821405,-4290.134789
404.141111,1554.432478,-9992.780217,-3753.867940
404.141433,3627.009116,-8290.306550,-3600.648841
404.141755,5847.626942,-6809.894666,-1149.143247
404.142076,8216.285956,-8586.388927,995.924147
404.142398,8808.450710,-9844.739029,2604.724693
404.142719,7994.224174,-9030.512492,2911.162892
404.143041,6587.832884,-6587.832884,2068.457845
404.143362,5773.606348,-7624.121203,612.876398
404.143684,4219.173869,-8438.347739,459.657299
404.144005,1036.288319,-8068.244768,612.876398
404.144327,-1554.432478,-7328.038826,766.095498
404.144648,-2294.638420,-8586.388927,229.828649
404.144970,-1036.288319,-10658.965565,-919.314598
404.145292,-1332.370696,-10955.047942,-2757.943793
404.145613,-1628.453072,-10436.903782,-2451.505594
404.145935,-148.041188,-10288.862594,-995.924147
404.146256,2072.576638,-9548.656652,-1991.848295
404.146578,4145.153275,-9178.553681,-3983.696590
404.146899,4885.359217,-9178.553681,-4826.401637
404.147221,5107.421000,-8956.491898,-2374.896044
404.147542,4811.338623,-8956.491898,-1302.362347
404.147864,4441.235652,-9104.533087,-919.314598
404.148186,3404.947333,-8216.285956,-919.314598
404.148507,2590.720797,-7254.018232,-1225.752797
404.148829,2368.659014,-7328.038826,-1685.410096
404.149150,2442.679609,-8734.430116,-2451.505594
404.149472,1776.494261,-10436.903782,-1685.410096
404.149793,370.102971,-9548.656652,1838.629195
404.150115,-444.123565,-7846.182985,2451.505594
404.150436,518.144159,-9178.553681,-536.266849
404.150758,2368.659014,-11399.171507,-3294.210641
404.151080,3256.906145,-12657.521608,-3064.381992
404.151401,2664.741391,-12953.603985,-1302.362347
404.151723,3330.926739,-14063.912898,1072.533697
404.152044,4811.338623,-12953.603985,1302.362347
404.152366,5921.647536,-11177.109724,-689.485948
404.152687,6513.812290,-8142.265362,-1532.190996
404.153009,7105.977043,-7179.997637,-2221.676944
404.153330,7698.141797,-8660.409521,-2757.943793
404.153652,9178.553681,-9400.615463,-1225.752797
404.153973,9252.574275,-7254.018232,995.924147
404.154295,7846.182985,-6217.729913,1225.752797
404.154617,5551.544565,-6439.791695,536.266849
404.154938,2368.659014,-6069.688724,-306.438199
404.155260,-1850.514855,-4145.153275,-2681.334243
404.155581,-4145.153275,-5847.626942,-3524.039291
404.155903,-4145.153275,-10436.903782,-4213.525239
404.156224,-3108.864956,-12213.398043,-4903.011187
404.156546,-3108.864956,-12361.439231,-3677.258390
404.156867,-2960.823768,-12509.480420,-306.438199
404.157189,-2146.597232,-12805.562797,-1455.581446
404.157511,-2146.597232,-13841.851115,-3907.087040
404.157832,-1480.411884,-12139.377449,-4596.572988
404.158154,-222.061783,-11473.192101,-4366.744339
404.158476,1628.453072,-12213.398043,-3907.087040
404.158798,4071.132681,-12213.398043,-1225.752797
404.159119,5847.626942,-10807.006753,2298.286494
404.159441,7772.162391,-6883.915261,3294.210641
404.159763,9622.677246,-4885.359217,2221.676944
404.160084,10584.944971,-7179.997637,-612.876398
404.160406,8660.409521,-9104.533087,-842.705048
404.160728,6439.791695,-5921.647536,919.314598
404.161050,2368.659014,-4959.379811,2374.896044
404.161371,-814.226536,-6587.832884,612.876398
404.161693,-2738.761985,-6661.853478,-995.924147
404.162015,-5403.503377,-5921.647536,-3983.696590
404.162337,-6883.915261,-8216.285956,-5592.497135
404.162658,-8290.306550,-11991.336260,-3600.648841
404.162980,-8882.471304,-13027.624579,-1532.190996
404.163302,-8956.491898,-12805.562797,-2911.162892
404.163624,-7994.224174,-13767.830521,-4136.915689
404.163945,-8068.244768,-13249.686362,-3983.696590
404.164267,-8734.430116,-11177.109724,-2987.772442
404.164589,-6883.915261,-9992.780217,-2834.553343
404.164911,-2516.700203,-8586.388927,-2834.553343
404.165232,2072.576638,-8438.347739,-1608.800546
404.165554,4811.338623,-9104.533087,1455.581446
404.165876,7031.956449,-5773.606348,2681.334243
404.166198,8512.368333,-3108.864956,2451.505594
404.166519,8364.327145,-4515.256246,1762.019645
404.166841,6217.729913,-7105.977043,1608.800546
404.167163,3478.967927,-6587.832884,-229.828649
404.167485,2664.741391,-7550.100608,-1838.629195
404.167806,3108.864956,-10066.800811,-2068.457845
404.168128,2960.823768,-11251.130318,-1378.971896
404.168450,444.123565,-10362.883188,-1685.410096
404.168772,-1702.473667,-11843.295072,-1149.143247
404.169093,-4145.153275,-13767.830521,-1072.533697
404.169415,-5847.626942,-13545.768739,-3064.381992
404.169737,-7550.100608,-12065.356855,-4443.353888
404.170058,-6661.853478,-11769.274478,-3983.696590
404.170380,-4737.318029,-12065.356855,-3064.381992
404.170702,-2738.761985,-11177.109724,-995.924147
404.171024,-888.247130,-8808.450710,766.095498
404.171345,1258.350101,-7328.038826,0.000000
404.171667,3997.112087,-7031.956449,-1838.629195
404.171989,4293.194464,-6809.894666,-1225.752797
404.172311,2442.679609,-5255.462188,612.876398
404.172632,2072.576638,-3997.112087,-766.095498
404.172954,3034.844362,-5403.503377,-2604.724693
404.173276,3997.112087,-7846.182985,-4213.525239
404.173598,2516.700203,-8734.430116,-3064.381992
404.173919,1332.370696,-9622.677246,-2604.724693
404.174241,2220.617826,-12879.583391,-2145.067394
404.174563,1702.473667,-15174.221811,-1608.800546
404.174885,-1406.391290,-13915.871710,-2374.896044
404.175206,-3923.091493,-12509.480420,-1838.629195
404.175528,-3478.967927,-11399.171507,-2145.067394
404.175850,-1480.411884,-12435.459826,-2911.162892
404.176172,518.144159,-12213.398043,-1225.752797
404.176493,1036.288319,-9178.553681,3140.991542
404.176815,2368.659014,-7402.059420,4519.963438
404.177137,4071.132681,-6365.771101,2145.067394
404.177459,4515.256246,-4959.379811,0.000000
404.177780,3404.947333,-3330.926739,-842.705048
404.178102,592.164754,-3404.947333,-766.095498
404.178424,-1332.370696,-4515.256246,-459.657299
404.178746,-2812.782580,-6883.915261,-1915.238745
404.179067,-4293.194464,-9844.739029,-3753.867940
404.179389,-5403.503377,-10066.800811,-5132.839837
404.179711,-6587.832884,-9770.718434,-6281.983084
404.180032,-7624.121203,-12805.562797,-4366.744339
404.180354,-9030.512492,-14730.098246,-3064.381992
404.180676,-10362.883188,-13323.706956,-3677.258390
404.180998,-8882.471304,-12435.459826,-4749.792088
404.181319,-5181.441594,-13027.624579,-3447.429741
404.181641,-1628.453072,-11917.315666,-2451.505594
404.181963,222.061783,-9104.533087,-842.705048
404.182285,3552.988522,-7550.100608,1455.581446
404.182606,7402.059420,-7105.977043,2757.943793
404.182928,9252.574275,-7031.956449,1608.800546
404.183250,9030.512492,-5033.400406,1149.143247
404.183572,6809.894666,-4663.297435,1225.752797
404.183893,5551.544565,-6735.874072,612.876398
404.184215,4441.235652,-8216.285956,0.000000
404.184537,3330.926739,-8438.347739,-1762.019645
404.184859,2516.700203,-8956.491898,-3677.258390
404.185180,444.123565,-9474.636058,-3217.601092
404.185502,-2590.720797,-11103.089130,-2528.115143
404.185824,-6439.791695,-12213.398043,-2911.162892
404.186146,-8882.471304,-12879.583391,-4519.963438
404.186467,-9622.677246,-13249.686362,-6052.154434
404.186789,-8438.347739,-13397.727550,-5362.668486
404.187111,-6143.709319,-13619.789333,-2987.772442
404.187433,-3404.947333,-11695.253884,-1302.362347
404.187754,-518.144159,-10362.883188,76.609550
404.188076,1924.535449,-8808.450710,1455.581446
404.188398,3108.864956,-7994.224174,1455.581446
404.188720,3182.885551,-5403.503377,536.266849
404.189041,3256.906145,-4589.276840,-229.828649
404.189363,3108.864956,-4811.338623,153.219100
404.189685,2886.803174,-5921.647536,1225.752797
404.190006,2294.638420,-6735.874072,1378.971896
404.190328,2072.576638,-7846.182985,0.000000
404.190650,1776.494261,-7994.224174,-2451.505594
404.190972,740.205942,-8660.409521,-3140.991542
404.191293,-1184.329507,-11251.130318,-2451.505594
404.191615,-3775.050304,-13027.624579,-1302.362347
404.191937,-5477.523971,-12657.521608,-1685.410096
404.192259,-5107.421000,-12435.459826,-2298.286494
404.192580,-2072.576638,-13989.892304,-2911.162892
404.192902,296.082377,-13175.665768,-2374.896044
404.193224,1776.494261,-9918.759623,-689.485948
404.193546,3256.906145,-6883.915261,1225.752797
404.193867,4737.318029,-5773.606348,1302.362347
404.194189,4589.276840,-5847.626942,383.047749
404.194511,2590.720797,-5107.421000,-229.828649
404.194833,148.041188,-5107.421000,-459.657299
404.195154,-148.041188,-6513.812290,-612.876398
404.195476,0.000000,-7846.182985,-383.047749
404.195798,-518.144159,-8216.285956,-229.828649
404.196120,-1776.494261,-6735.874072,-1302.362347
404.196441,-2516.700203,-7328.038826,-3447.429741
404.196763,-4071.132681,-10362.883188,-4903.011187
404.197085,-7105.977043,-12583.501014,-4213.525239
404.197407,-9770.718434,-13175.665768,-3983.696590
404.197728,-8660.409521,-14434.015869,-4749.792088
404.198050,-4515.256246,-16728.654289,-4136.915689
404.198372,-296.082377,-15988.448347,-3753.867940
404.198694,3256.906145,-12731.542202,-1838.629195
404.199015,6809.894666,-9918.759623,0.000000
404.199337,9474.636058,-8438.347739,919.314598
404.199659,9474.636058,-7698.141797,995.924147
404.199981,6217.729913,-6069.688724,1608.800546
404.200302,2738.761985,-4589.276840,1225.752797
404.200624,1554.432478,-5107.421000,-306.438199
404.200946,1332.370696,-7994.224174,-1378.971896
404.201267,296.082377,-9474.636058,-689.485948
404.201589,-1184.329507,-9104.533087,0.000000
404.201911,-2294.638420,-7624.121203,-689.485948
404.202233,-3849.070898,-7550.100608,-2221.676944
404.202554,-6365.771101,-9474.636058,-4443.353888
404.202876,-9474.636058,-12139.377449,-5592.497135
404.203198,-11029.068536,-13915.871710,-4903.011187
404.203520,-9474.636058,-14878.139434,-3753.867940
404.203841,-5181.441594,-14952.160028,-2298.286494
404.204163,-962.267725,-13619.789333,-1149.143247
404.204485,2368.659014,-10732.986159,0.000000
404.204807,4737.318029,-7254.018232,612.876398
404.205128,5329.482782,-5107.421000,459.657299
404.205450,4515.256246,-3701.029710,0.000000
404.205772,1998.556043,-2886.803174,153.219100
404.206094,666.185348,-3775.050304,383.047749
404.206415,740.205942,-6069.688724,689.485948
404.206737,962.267725,-7328.038826,383.047749
404.207059,1110.308913,-8142.265362,536.266849
404.207381,296.082377,-7254.018232,536.266849
404.207702,-814.226536,-7698.141797,612.876398
404.208024,-3997.112087,-9252.574275,-1915.238745
404.208346,-7402.059420,-11843.295072,-3140.991542
404.208668,-9770.718434,-13693.809927,-3677.258390
404.208989,-9104.533087,-14359.995275,-4979.620737
404.209311,-4885.359217,-14359.995275,-5056.230287
404.209633,962.267725,-14359.995275,-3830.477490
404.209955,4737.318029,-12213.398043,-459.657299
404.210276,7105.977043,-8438.347739,1149.143247
404.210598,8216.285956,-5995.668130,842.705048
404.210920,8142.265362,-6143.709319,-1072.533697
404.211241,5255.462188,-6809.894666,-1991.848295
404.211563,962.267725,-5921.647536,-1915.238745
404.211885,-444.123565,-6291.750507,-766.095498
404.212207,0.000000,-8142.265362,-1072.533697
404.212528,222.061783,-9474.636058,-995.924147
404.212850,-1110.308913,-8808.450710,-1378.971896
404.213172,-2294.638420,-7550.100608,-842.705048
404.213494,-2886.803174,-8586.388927,-2987.772442
404.213815,-3997.112087,-11547.212695,-5209.449386
404.214137,-6513.812290,-14359.995275,-4903.011187
404.214459,-7179.997637,-14508.036463,-1991.848295
404.214781,-5625.565159,-13693.809927,-2374.896044
404.215102,-222.061783,-13693.809927,-4060.306139
404.215424,4071.132681,-13693.809927,-3907.087040
404.215746,5847.626942,-11621.233289,-1455.581446
404.216068,7031.956449,-9474.636058,1072.533697
404.216389,6735.874072,-7772.162391,1685.410096
404.216711,5329.482782,-6143.709319,1072.533697
404.217033,3182.885551,-4441.235652,0.000000
404.217355,1258.350101,-4071.132681,-1149.143247
404.217676,-370.102971,-5995.668130,-689.485948
404.217998,-1332.370696,-7846.182985,229.828649
404.218320,-2368.659014,-7994.224174,306.438199
404.218642,-3182.885551,-7920.203579,0.000000
404.218963,-4145.153275,-7994.224174,-1608.800546
404.219285,-5773.606348,-9918.759623,-3524.039291
404.219607,-7772.162391,-12805.562797,-3983.696590
404.219929,-9030.512492,-13989.892304,-2528.115143
404.220250,-7550.100608,-13841.851115,-1455.581446
404.220572,-3552.988522,-12657.521608,-2374.896044
404.220894,1332.370696,-11843.295072,-2604.724693
404.221215,4293.194464,-10066.800811,-1455.581446
404.221537,6365.771101,-7476.080014,383.047749
404.221859,6069.688724,-5847.626942,919.314598
404.222181,5255.462188,-4811.338623,1072.533697
404.222502,3330.926739,-4071.132681,459.657299
404.222824,1036.288319,-4515.256246,-459.657299
404.223146,0.000000,-6365.771101,-766.095498
404.223468,-296.082377,-7846.182985,76.609550
404.223789,-518.144159,-9104.533087,76.609550
404.224111,-1480.411884,-8290.306550,536.266849
404.224433,-2886.803174,-8734.430116,-919.314598
404.224755,-5255.462188,-10066.800811,-2987.772442
404.225076,-7846.182985,-12509.480420,-3983.696590
404.225398,-9548.656652,-13545.768739,-3677.258390
404.225720,-8364.327145,-13397.727550,-4290.134789
404.226042,-4293.194464,-13989.892304,-4443.353888
404.226363,222.061783,-14285.974681,-3447.429741
404.226685,3404.947333,-12287.418637,-1225.752797
404.227007,5699.585753,-9178.553681,153.219100
404.227329,7031.956449,-7698.141797,-842.705048
404.227650,6365.771101,-7476.080014,-2221.676944
404.227972,3330.926739,-7698.141797,-1378.971896
404.228294,1110.308913,-6365.771101,-1072.533697
404.228616,740.205942,-5995.668130,-1915.238745
404.228937,1554.432478,-7994.224174,-1532.190996
404.229259,888.247130,-9252.574275,766.095498
404.229581,-1110.308913,-7994.224174,1302.362347
404.229903,-2664.741391,-7550.100608,-306.438199
404.230224,-3108.864956,-9844.739029,-3064.381992
404.230546,-5033.400406,-12065.356855,-3217.601092
404.230868,-7920.203579,-12435.459826,-3140.991542
404.231189,-8068.244768,-11843.295072,-2374.896044
404.231511,-5107.421000,-12287.418637,-2451.505594
404.231833,-814.226536,-12361.439231,-2604.724693
404.232155,1776.494261,-11399.171507,-1455.581446
404.232476,3552.988522,-8660.409521,0.000000
404.232798,5699.585753,-6957.935855,-612.876398
404.233120,7105.977043,-6735.874072,-1378.971896
404.233442,6587.832884,-6365.771101,-689.485948
404.233763,4219.173869,-5403.503377,-919.314598
404.234085,2664.741391,-5625.565159,-919.314598
404.234407,2294.638420,-7328.038826,-1225.752797
404.234729,1110.308913,-8808.450710,-536.266849
404.235050,-740.205942,-7846.182985,0.000000
404.235372,-2146.597232,-8290.306550,229.828649
404.235694,-2960.823768,-10288.862594,-689.485948
404.236016,-5107.421000,-10807.006753,-1685.410096
404.236337,-7698.141797,-10288.862594,-3064.381992
404.236659,-7920.203579,-10510.924376,-3064.381992
404.236981,-6069.688724,-12213.398043,-3677.258390
404.237303,-2738.761985,-12361.439231,-3983.696590
404.237624,0.000000,-11325.150913,-2374.896044
404.237946,3182.885551,-10436.903782,-306.438199
404.238268,5995.668130,-9548.656652,-153.219100
404.238590,7105.977043,-9030.512492,-1762.019645
404.238911,5847.626942,-8364.327145,-1762.019645
404.239233,3923.091493,-7105.977043,-1608.800546
404.239555,3034.844362,-6439.791695,-2145.067394
404.239877,2442.679609,-7994.224174,-3140.991542
404.240198,962.267725,-9030.512492,-2374.896044
404.240520,-1036.288319,-9104.533087,-842.705048
404.240842,-3108.864956,-9104.533087,-995.924147
404.241163,-3701.029710,-10732.986159,-2374.896044
404.241485,-4737.318029,-11917.315666,-3140.991542
404.241807,-6883.915261,-11917.315666,-2604.724693
404.242129,-7846.182985,-10881.027347,-1991.848295
404.242450,-5773.606348,-11473.192101,-2681.334243
404.242772,-2442.679609,-12213.398043,-3140.991542
404.243094,370.102971,-12065.356855,-1762.019645
404.243416,2146.597232,-10362.883188,76.609550
404.243737,4145.153275,-9474.636058,536.266849
404.244059,5329.482782,-9844.739029,0.000000
404.244381,4811.338623,-9326.594869,-306.438199
404.244703,2368.659014,-6513.812290,0.000000
404.245024,962.267725,-4367.215058,-536.266849
404.245346,222.061783,-4737.318029,-2221.676944
404.245668,-740.205942,-6217.729913,-1915.238745
404.245990,-2294.638420,-7031.956449,-919.314598
404.246311,-2812.782580,-7550.100608,-766.095498
404.246633,-3552.988522,-9474.636058,-1838.629195
404.246955,-5107.421000,-11473.192101,-1532.190996
404.247277,-7772.162391,-11917.315666,-766.095498
404.247598,-9104.533087,-10807.006753,-1762.019645
404.247920,-7476.080014,-11177.109724,-3370.820191
404.248242,-4145.153275,-11843.295072,-3217.601092
404.248564,-518.144159,-10881.027347,-1455.581446
404.248885,2072.576638,-8290.306550,306.438199
404.249207,4811.338623,-6513.812290,919.314598
404.249529,7624.121203,-7179.997637,76.609550
404.249851,7846.182985,-6957.935855,-1072.533697
404.250172,5255.462188,-6069.688724,-1302.362347
404.250494,2664.741391,-6587.832884,229.828649
404.250816,1628.453072,-7698.141797,-459.657299
404.251137,1110.308913,-9030.512492,-3294.210641
404.251459,222.061783,-9474.636058,-2528.115143
404.251781,-1332.370696,-9326.594869,-842.705048
404.252103,-2812.782580,-9548.656652,-1455.581446
404.252424,-4071.132681,-10807.006753,-3294.210641
404.252746,-5403.503377,-12583.501014,-3677.258390
404.253068,-6809.894666,-12213.398043,-3524.039291
404.253390,-6439.791695,-11769.274478,-3140.991542
404.253711,-3627.009116,-12435.459826,-3294.210641
404.254033,-296.082377,-12213.398043,-2604.724693
404.254355,1850.514855,-10881.027347,-919.314598
404.254677,3775.050304,-9622.677246,0.000000
404.254998,5625.565159,-8808.450710,-383.047749
404.255320,7031.956449,-8438.347739,-2221.676944
404.255642,6291.750507,-7402.059420,-2451.505594
404.255964,4737.318029,-6365.771101,-1532.190996
404.256285,3923.091493,-6661.853478,-1225.752797
404.256607,3034.844362,-8956.491898,-1991.848295
404.256929,592.164754,-9030.512492,-1608.800546
404.257251,-1332.370696,-9104.533087,-1532.190996
404.257572,-2294.638420,-10510.924376,-3064.381992
404.257894,-3627.009116,-11843.295072,-2528.115143
404.258216,-5403.503377,-12657.521608,-1455.581446
404.258538,-7476.080014,-10658.965565,-1149.143247
404.258859,-7105.977043,-9844.739029,-1915.238745
404.259181,-4737.318029,-12065.356855,-2221.676944
404.259503,-1998.556043,-11103.089130,-1378.971896
404.259825,0.000000,-8808.450710,306.438199
404.260146,1480.411884,-6587.832884,1225.752797
404.260468,3849.070898,-7105.977043,842.705048
404.260790,4737.318029,-6661.853478,0.000000
404.261111,2590.720797,-4737.318029,-1149.143247
404.261433,148.041188,-4293.194464,-306.438199
404.261754,-296.082377,-6661.853478,-1685.410096
404.262076,148.041188,-8882.471304,-3294.210641
404.262398,-148.041188,-9696.697840,-2451.505594
404.262719,-1702.473667,-9178.553681,-153.219100
404.263041,-1776.494261,-9548.656652,-536.266849
404.263362,-2072.576638,-12139.377449,-2451.505594
404.263684,-3997.112087,-13101.645173,-3753.867940
404.264005,-6291.750507,-11991.336260,-2834.553343
404.264327,-6883.915261,-10807.006753,-1302.362347
404.264649,-4219.173869,-10881.027347,-383.047749
404.264970,-1036.288319,-10732.986159,-1532.190996
404.265292,1776.494261,-9474.636058,-995.924147
404.265613,4071.132681,-7994.224174,153.219100
404.265935,6439.791695,-7550.100608,612.876398
404.266257,7402.059420,-7476.080014,0.000000
404.266578,6069.688724,-6143.709319,0.000000
404.266900,4367.215058,-5773.606348,-1532.190996
404.267221,2738.761985,-7624.121203,-3217.601092
404.267543,1776.494261,-9474.636058,-4060.306139
404.267864,74.020594,-10362.883188,-3983.696590
404.268186,-1998.556043,-10658.965565,-3140.991542
404.268508,-3108.864956,-11843.295072,-2451.505594
404.268829,-4071.132681,-13027.624579,-3217.601092
404.269151,-6069.688724,-12805.562797,-4443.353888
404.269472,-7105.977043,-11843.295072,-3447.429741
404.269794,-7550.100608,-10955.047942,-2145.067394
404.270116,-6069.688724,-10584.944971,-1532.190996
404.270437,-3182.885551,-11103.089130,-1762.019645
404.270759,-222.061783,-10140.821405,76.609550
404.271080,2220.617826,-8586.388927,1608.800546
404.271402,5033.400406,-7105.977043,1378.971896
404.271724,7031.956449,-6439.791695,76.609550
404.272045,7105.977043,-5921.647536,612.876398
404.272367,5107.421000,-5403.503377,689.485948
404.272688,3330.926739,-6069.688724,-1225.752797
404.273010,2220.617826,-8290.306550,-3064.381992
404.273331,1110.308913,-9622.677246,-4136.915689
404.273653,-666.185348,-9918.759623,-3370.820191
404.273975,-2072.576638,-10732.986159,-1838.629195
404.274296,-2368.659014,-12509.480420,-1378.971896
404.274618,-3256.906145,-13397.727550,-1991.848295
404.274939,-5551.544565,-12139.377449,-1608.800546
404.275261,-7105.977043,-10288.862594,-1149.143247
404.275583,-7179.997637,-8586.388927,-536.266849
404.275904,-4737.318029,-9030.512492,-1608.800546
404.276226,-1258.350101,-8734.430116,-1378.971896
404.276547,1332.370696,-7698.141797,536.266849
404.276869,2812.782580,-6439.791695,2528.115143
404.277190,5403.503377,-5773.606348,2757.943793
404.277512,5625.565159,-6439.791695,842.705048
404.277834,3775.050304,-6143.709319,-536.266849
404.278155,1850.514855,-5625.565159,-2374.896044
404.278477,1480.411884,-7105.977043,-3753.867940
404.278798,1184.329507,-8956.491898,-4366.744339
404.279120,-740.205942,-9770.718434,-3294.210641
404.279442,-3256.906145,-11029.068536,-2068.457845
404.279763,-4293.194464,-13323.706956,-2987.772442
404.280085,-4589.276840,-14952.160028,-4596.572988
404.280406,-5329.482782,-15692.365970,-4826.401637
404.280728,-6513.812290,-13619.789333,-2834.553343
404.281050,-6365.771101,-11103.089130,-1149.143247
404.281371,-3923.091493,-9918.759623,-1455.581446
404.281693,-296.082377,-9770.718434,-2374.896044
404.282014,2368.659014,-8364.327145,-689.485948
404.282336,4367.215058,-6291.750507,1685.410096
404.282657,5995.668130,-6957.935855,1915.238745
404.282979,6809.894666,-7550.100608,1149.143247
404.283301,5403.503377,-7772.162391,229.828649
404.283622,3182.885551,-7476.080014,-612.876398
404.283944,2590.720797,-7624.121203,-2451.505594
404.284265,1998.556043,-8586.388927,-4366.744339
404.284587,222.061783,-9992.780217,-4060.306139
404.284909,-1924.535449,-11251.130318,-2221.676944
404.285230,-3330.926739,-12213.398043,-2068.457845
404.285552,-3701.029710,-13545.768739,-2374.896044
404.285873,-5329.482782,-13693.809927,-3447.429741
404.286195,-7254.018232,-11991.336260,-2528.115143
404.286516,-8142.265362,-9992.780217,-1378.971896
404.286838,-6291.750507,-9770.718434,-1072.533697
404.287160,-3849.070898,-9474.636058,-612.876398
404.287481,-1332.370696,-6957.935855,1302.362347
404.287803,888.247130,-5181.441594,1838.629195
404.288124,4737.318029,-5403.503377,1302.362347
404.288446,6883.915261,-6735.874072,1072.533697
404.288768,5847.626942,-6217.729913,2374.896044
404.289089,3701.029710,-4515.256246,2681.334243
404.289411,3182.885551,-4663.297435,-689.485948
404.289732,3997.112087,-7179.997637,-4673.182538
404.290054,2812.782580,-9474.636058,-4826.401637
404.290376,-296.082377,-9992.780217,-1991.848295
404.290697,-2590.720797,-10955.047942,153.219100
404.291019,-2960.823768,-13619.789333,-1915.238745
404.291340,-4515.256246,-14211.954086,-4443.353888
404.291662,-6661.853478,-13619.789333,-4060.306139
404.291983,-7179.997637,-11769.274478,-2298.286494
404.292305,-5329.482782,-10066.800811,-2068.457845
404.292627,-2220.617826,-9548.656652,-995.924147
404.292948,592.164754,-8660.409521,536.266849
404.293270,1924.535449,-6735.874072,1762.019645
404.293591,3775.050304,-5847.626942,766.095498
404.293913,5625.565159,-6957.935855,-459.657299
404.294235,5403.503377,-7994.224174,-766.095498
404.294556,3330.926739,-7402.059420,-459.657299
404.294878,2072.576638,-6883.915261,-1225.752797
404.295199,2664.741391,-8734.430116,-3524.039291
404.295521,2294.638420,-10214.842000,-5286.058936
404.295842,-370.102971,-10140.821405,-4366.744339
404.296164,-3701.029710,-10436.903782,-2911.162892
404.296486,-5033.400406,-13545.768739,-4366.744339
404.296807,-5995.668130,-15544.324782,-5209.449386
404.297129,-7179.997637,-15322.262999,-5898.935335
404.297450,-7698.141797,-14063.912898,-3600.648841
404.297772,-5773.606348,-12731.542202,-1685.410096
404.298094,-3182.885551,-11843.295072,-1455.581446
404.298415,-518.144159,-9548.656652,-153.219100
404.298737,2072.576638,-6883.915261,1149.143247
404.299058,4737.318029,-5181.441594,1149.143247
404.299380,7105.977043,-5551.544565,689.485948
404.299702,7254.018232,-5329.482782,842.705048
404.300023,5551.544565,-5921.647536,1685.410096
404.300345,2886.803174,-6957.935855,1685.410096
404.300666,2072.576638,-7698.141797,0.000000
404.300988,1036.288319,-8808.450710,-3294.210641
404.301309,222.061783,-8956.491898,-4443.353888
404.301631,-2368.659014,-9252.574275,-3294.210641
404.301953,-4293.194464,-10584.944971,-2298.286494
404.302274,-5995.668130,-13915.871710,-2298.286494
404.302596,-7920.203579,-14063.912898,-2681.334243
404.302917,-9918.759623,-11991.336260,-2681.334243
404.303239,-9548.656652,-10214.842000,-1838.629195
404.303561,-6439.791695,-10140.821405,-2068.457845
404.303882,-2738.761985,-9030.512492,-1685.410096
404.304204,888.247130,-7105.977043,1225.752797
404.304525,4145.153275,-5625.565159,3600.648841
404.304847,7254.018232,-5699.585753,2911.162892
404.305168,7624.121203,-5699.585753,1378.971896
404.305490,6439.791695,-6069.688724,1915.238745
404.305812,3997.112087,-5181.441594,1532.190996
404.306133,2812.782580,-5921.647536,-1149.143247
404.306455,3478.967927,-7698.141797,-3064.381992
404.306776,2590.720797,-9326.594869,-2911.162892
404.307098,0.000000,-10066.800811,-2757.943793
404.307420,-2442.679609,-12065.356855,-1915.238745
404.307741,-4145.153275,-14952.160028,-3064.381992
404.308063,-5847.626942,-15766.386565,-4826.401637
404.308384,-7846.182985,-14211.954086,-4749.792088
404.308706,-7772.162391,-12509.480420,-2987.772442
404.309028,-5107.421000,-11695.253884,-2757.943793
404.309349,-1702.473667,-10732.986159,-2221.676944
404.309671,1776.494261,-8438.347739,-306.438199
404.309992,3404.947333,-5921.647536,1608.800546
404.310314,5699.585753,-5847.626942,1608.800546
404.310635,6957.935855,-6883.915261,76.609550
404.310957,6069.688724,-7402.059420,-919.314598
404.311279,3552.988522,-7179.997637,-153.219100
404.311600,1480.411884,-7105.977043,-612.876398
404.311922,1110.308913,-8216.285956,-2451.505594
404.312243,666.185348,-9770.718434,-4366.744339
404.312565,-1184.329507,-10510.924376,-3907.087040
404.312887,-3849.070898,-10732.986159,-2834.553343
404.313208,-5255.462188,-13101.645173,-2604.724693
404.313530,-6513.812290,-14211.954086,-3217.601092
404.313851,-7920.203579,-13619.789333,-4366.744339
404.314173,-8586.388927,-11843.295072,-3677.258390
404.314494,-6809.894666,-11177.109724,-1838.629195
404.314816,-3775.050304,-10510.924376,-919.314598
404.315138,592.164754,-8438.347739,153.219100
404.315459,4145.153275,-6291.750507,1838.629195
404.315781,7105.977043,-5773.606348,2757.943793
404.316102,8068.244768,-5847.626942,2681.334243
404.316424,6883.915261,-5403.503377,2068.457845
404.316746,4441.235652,-4811.338623,1225.752797
404.317067,2368.659014,-4959.379811,-383.047749
404.317389,1554.432478,-7105.977043,-2451.505594
404.317710,888.247130,-9474.636058,-3600.648841
404.318032,-962.267725,-8956.491898,-2374.896044
404.318353,-3330.926739,-8290.306550,-1762.019645
404.318675,-5107.421000,-11177.109724,-2221.676944
404.318997,-7328.038826,-14285.974681,-4136.915689
404.319318,-9918.759623,-14063.912898,-4903.011187
404.319640,-11399.171507,-11991.336260,-4749.792088
404.319961,-9326.594869,-11473.192101,-3064.381992
404.320283,-5477.523971,-11399.171507,-2145.067394
404.320605,-1184.329507,-9992.780217,-2221.676944
404.320926,2516.700203,-7624.121203,459.657299
404.321248,5995.668130,-6217.729913,1378.971896
404.321569,8364.327145,-6661.853478,1225.752797
404.321891,8512.368333,-6809.894666,383.047749
404.322213,6069.688724,-7105.977043,536.266849
404.322534,3997.112087,-7698.141797,459.657299
404.322856,3108.864956,-7994.224174,-842.705048
404.323177,3404.947333,-8512.368333,-3753.867940
404.323499,2812.782580,-9252.574275,-4290.134789
404.323820,0.000000,-9770.718434,-2528.115143
404.324142,-2516.700203,-11547.212695,-1838.629195
404.324464,-4441.235652,-14582.057057,-2987.772442
404.324785,-6069.688724,-15914.427753,-4213.525239
404.325107,-8068.244768,-14582.057057,-4596.572988
404.325428,-8290.306550,-12805.562797,-4443.353888
404.325750,-6365.771101,-11991.336260,-2757.943793
404.326072,-1924.535449,-11029.068536,-766.095498
404.326393,1628.453072,-7994.224174,919.314598
404.326715,4811.338623,-5773.606348,1608.800546
404.327036,7772.162391,-6291.750507,1302.362347
404.327358,8882.471304,-7031.956449,1302.362347
404.327679,6439.791695,-6291.750507,995.924147
404.328001,3256.906145,-5329.482782,1225.752797
404.328323,1628.453072,-5477.523971,459.657299
404.328644,666.185348,-7772.162391,-1762.019645
404.328966,-666.185348,-9696.697840,-2987.772442
404.329287,-2516.700203,-9918.759623,-3140.991542
404.329609,-4441.235652,-8882.471304,-2068.457845
404.329931,-4811.338623,-11473.192101,-2681.334243
404.330252,-5329.482782,-13323.706956,-3600.648841
404.330574,-7476.080014,-12731.542202,-3294.210641
404.330895,-8438.347739,-10955.047942,-2681.334243
404.331217,-6513.812290,-11103.089130,-1608.800546
404.331539,-2960.823768,-10584.944971,-1762.019645
404.331860,-222.061783,-8882.471304,-612.876398
404.332182,2368.659014,-6513.812290,1225.752797
404.332503,6513.812290,-5921.647536,2374.896044
404.332825,8512.368333,-7031.956449,995.924147
404.333146,8290.306550,-7179.997637,1302.362347
404.333468,4811.338623,-6513.812290,2451.505594
404.333790,2368.659014,-5921.647536,1455.581446
404.334111,1924.535449,-6957.935855,-1762.019645
404.334433,1554.432478,-8068.244768,-3830.477490
404.334754,222.061783,-8290.306550,-3753.867940
404.335076,-2146.597232,-8364.327145,-2298.286494
404.335398,-3552.988522,-11251.130318,-1378.971896
404.335719,-5255.462188,-14656.077652,-3447.429741
404.336041,-7698.141797,-15174.221811,-4290.134789
404.336362,-9474.636058,-13767.830521,-4213.525239
404.336684,-8512.368333,-12509.480420,-4290.134789
404.337005,-5107.421000,-11695.253884,-4290.134789
404.337327,-1554.432478,-10066.800811,-3600.648841
404.337649,962.267725,-8216.285956,-842.705048
404.337970,4441.235652,-7105.977043,842.705048
404.338292,6809.894666,-7994.224174,0.000000
404.338613,7105.977043,-8364.327145,-536.266849
404.338935,5181.441594,-7846.182985,612.876398
404.339257,2442.679609,-7105.977043,383.047749
404.339578,1628.453072,-7624.121203,-1072.533697
404.339900,1258.350101,-8438.347739,-2374.896044
404.340221,222.061783,-8660.409521,-2681.334243
404.340543,-1184.329507,-8512.368333,-2451.505594
404.340865,-2072.576638,-10881.027347,-1762.019645
404.341186,-3478.967927,-13397.727550,-1762.019645
404.341508,-5625.565159,-13397.727550,-2834.553343
404.341829,-7698.141797,-12435.459826,-2987.772442
404.342151,-6883.915261,-11325.150913,-3524.039291
404.342472,-4441.235652,-11177.109724,-3447.429741
404.342794,-2072.576638,-10510.924376,-2451.505594
404.343116,814.226536,-8660.409521,306.438199
404.343437,3701.029710,-6957.935855,1072.533697
404.343759,6587.832884,-6957.935855,1149.143247
404.344080,7105.977043,-6809.894666,766.095498
404.344402,5847.626942,-6587.832884,1072.533697
404.344724,3256.906145,-6069.688724,1455.581446
404.345045,1628.453072,-7254.018232,995.924147
404.345367,1036.288319,-7328.038826,-995.924147
404.345688,74.020594,-6587.832884,-1762.019645
404.346010,-1554.432478,-5995.668130,-1608.800546
404.346331,-2960.823768,-7846.182985,-2068.457845
404.346653,-4293.194464,-11251.130318,-2528.115143
404.346975,-6439.791695,-12435.459826,-3217.601092
404.347296,-7920.203579,-13027.624579,-2834.553343
404.347618,-7476.080014,-13027.624579,-2757.943793
404.347939,-5255.462188,-12583.501014,-2834.553343
404.348261,-2516.700203,-11769.274478,-2374.896044
404.348583,222.061783,-10288.862594,-1149.143247
404.348904,3182.885551,-8808.450710,689.485948
404.349226,5995.668130,-7254.018232,536.266849
404.349547,7920.203579,-7402.059420,-306.438199
404.349869,7772.162391,-7550.100608,0.000000
404.350191,6143.709319,-7179.997637,1149.143247
404.350512,4663.297435,-6661.853478,-229.828649
404.350834,4071.132681,-7476.080014,-2145.067394
404.351155,2664.741391,-8438.347739,-2221.676944
404.351477,-444.123565,-8512.368333,-1302.362347
404.351798,-4145.153275,-8142.265362,-689.485948
404.352120,-5107.421000,-11399.171507,-2911.162892
404.352442,-6587.832884,-14285.974681,-4826.401637
404.352763,-8290.306550,-15396.283594,-4903.011187
404.353085,-9474.636058,-13471.748144,-3983.696590
404.353406,-7550.100608,-11843.295072,-1838.629195
404.353728,-3849.070898,-11547.212695,-2451.505594
404.354050,-370.102971,-9548.656652,-2298.286494
404.354371,1332.370696,-7254.018232,-1608.800546
404.354693,3997.112087,-7328.038826,-229.828649
404.355014,5625.565159,-8364.327145,766.095498
404.355336,5921.647536,-7105.977043,919.314598
404.355657,4515.256246,-6735.874072,766.095498
404.355979,3330.926739,-7402.059420,229.828649
404.356301,2664.741391,-7772.162391,-459.657299
404.356622,1628.453072,-7179.997637,-1532.190996
404.356944,-592.164754,-6587.832884,-229.828649
404.357265,-2294.638420,-6439.791695,-1149.143247
404.357587,-3552.988522,-8438.347739,-2987.772442
404.357909,-4737.318029,-12213.398043,-4213.525239
404.358230,-6957.935855,-14211.954086,-3217.601092
404.358552,-8068.244768,-12953.603985,-1762.019645
404.358873,-6661.853478,-11917.315666,-1685.410096
404.359195,-3478.967927,-11843.295072,-2221.676944
404.359517,-666.185348,-10436.903782,-1532.190996
404.359838,962.267725,-7772.162391,-612.876398
404.360160,3552.988522,-6217.729913,612.876398
404.360481,5847.626942,-6883.915261,1149.143247
404.360803,6735.874072,-7328.038826,76.609550
404.361125,4737.318029,-7105.977043,842.705048
404.361447,2664.741391,-6735.874072,612.876398
404.361768,3108.864956,-8068.244768,-1532.190996
404.362090,3404.947333,-9030.512492,-2834.553343
404.362412,1776.494261,-7920.203579,-2298.286494
404.362734,-518.144159,-7254.018232,-1762.019645
404.363055,-1554.432478,-9474.636058,-2834.553343
404.363377,-2664.741391,-13101.645173,-4749.792088
404.363699,-5255.462188,-14730.098246,-5209.449386
404.364021,-7698.141797,-13915.871710,-3217.601092
404.364342,-7402.059420,-13175.665768,-2681.334243
404.364664,-3775.050304,-13545.768739,-3217.601092
404.364986,-370.102971,-11917.315666,-3217.601092
404.365308,1850.514855,-9252.574275,-689.485948
404.365629,4219.173869,-6587.832884,1149.143247
404.365951,5699.585753,-6069.688724,459.657299
404.366273,6587.832884,-7031.956449,-842.705048
404.366595,5255.462188,-7105.977043,-536.266849
404.366916,2886.803174,-6735.874072,0.000000
404.367238,1998.556043,-7772.162391,-383.047749
404.367560,2368.659014,-9770.718434,-2221.676944
404.367882,888.247130,-10436.903782,-1838.629195
404.368203,-888.247130,-9474.636058,-1072.533697
404.368525,-2442.679609,-9326.594869,-1532.190996
404.368847,-3256.906145,-11547.212695,-2987.772442
404.369169,-5625.565159,-12657.521608,-3677.258390
404.369490,-7550.100608,-11917.315666,-2528.115143
404.369812,-7920.203579,-10732.986159,-2221.676944
404.370134,-5329.482782,-10658.965565,-2221.676944
404.370456,-2294.638420,-10140.821405,-1532.190996
404.370777,-296.082377,-7772.162391,0.000000
404.371099,1702.473667,-6069.688724,612.876398
404.371421,4071.132681,-6439.791695,1072.533697
404.371743,4959.379811,-7254.018232,842.705048
404.372064,3849.070898,-6587.832884,306.438199
404.372386,1924.535449,-6069.688724,383.047749
404.372708,1480.411884,-6957.935855,-1455.581446
404.373030,1554.432478,-7920.203579,-2604.724693
404.373351,1036.288319,-7624.121203,-2451.505594
404.373673,-518.144159,-7254.018232,-1532.190996
404.373995,-1924.535449,-9252.574275,-1532.190996
404.374317,-3256.906145,-12065.356855,-2987.772442
404.374638,-5847.626942,-12879.583391,-3294.210641
404.374960,-8068.244768,-12583.501014,-2451.505594
404.375282,-8512.368333,-11695.253884,-2451.505594
404.375604,-6735.874072,-10732.986159,-3370.820191
404.375925,-3997.112087,-10140.821405,-2528.115143
404.376247,-1332.370696,-9104.533087,-919.314598
404.376569,1258.350101,-8216.285956,842.705048
404.376891,4441.235652,-7179.997637,229.828649
404.377212,6735.874072,-8364.327145,-612.876398
404.377534,6587.832884,-8586.388927,-612.876398
404.377856,4959.379811,-7772.162391,-689.485948
404.378178,3478.967927,-7476.080014,-1455.581446
404.378499,3701.029710,-9252.574275,-2834.553343
404.378821,2516.700203,-10140.821405,-3370.820191
404.379143,0.000000,-9992.780217,-2834.553343
404.379465,-1628.453072,-10881.027347,-2911.162892
404.379786,-2368.659014,-13175.665768,-3370.820191
404.380108,-3108.864956,-15396.283594,-3677.258390
404.380430,-5773.606348,-14211.954086,-2604.724693
404.380752,-7254.018232,-12139.377449,-2298.286494
404.381073,-6291.750507,-10658.965565,-2221.676944
404.381395,-3997.112087,-9474.636058,-2451.505594
404.381717,-1628.453072,-7846.182985,-1608.800546
404.382039,370.102971,-7105.977043,0.000000
404.382360,3034.844362,-6735.874072,1225.752797
404.382682,4737.318029,-7179.997637,1685.410096
404.383004,5551.544565,-6809.894666,459.657299
404.383326,4885.359217,-6439.791695,842.705048
404.383647,4293.194464,-6735.874072,-919.314598
404.383969,3997.112087,-8216.285956,-2068.457845
404.384291,2812.782580,-9030.512492,-1762.019645
404.384613,296.082377,-8512.368333,-995.924147
404.384934,-1702.473667,-8734.430116,-229.828649
404.385256,-3256.906145,-10214.842000,-2068.457845
404.385578,-4959.379811,-10955.047942,-3447.429741
404.385900,-6365.771101,-11473.192101,-3983.696590
404.386221,-6957.935855,-11325.150913,-2451.505594
404.386543,-5847.626942,-10584.944971,-612.876398
404.386865,-4071.132681,-9252.574275,306.438199
404.387187,-1776.494261,-8512.368333,689.485948
404.387508,296.082377,-7550.100608,612.876398
404.387830,1924.535449,-6587.832884,306.438199
404.388152,3849.070898,-6587.832884,0.000000
404.388474,4145.153275,-7179.997637,0.000000
404.388795,3701.029710,-7328.038826,229.828649
404.389117,3034.844362,-7105.977043,153.219100
404.389439,2886.803174,-8068.244768,-1991.848295
404.389761,2738.761985,-8956.491898,-3907.087040
404.390082,1332.370696,-9918.759623,-4366.744339
404.390404,-814.226536,-11177.109724,-2757.943793
404.390726,-2738.761985,-12065.356855,-2604.724693
404.391048,-3997.112087,-12805.562797,-3830.477490
404.391369,-5551.544565,-13101.645173,-4673.182538
404.391691,-6957.935855,-12139.377449,-3753.867940
404.392013,-7031.956449,-10732.986159,-2681.334243
404.392335,-5403.503377,-10510.924376,-2221.676944
404.392656,-2664.741391,-10288.862594,-995.924147
404.392978,-222.061783,-8882.471304,0.000000
404.393300,2072.576638,-7179.997637,-612.876398
404.393622,4885.359217,-7254.018232,-306.438199
404.393943,6217.729913,-7476.080014,-766.095498
404.394265,5107.421000,-7624.121203,-306.438199
404.394587,3330.926739,-7624.121203,0.000000
404.394909,2442.679609,-8364.327145,-919.314598
404.395230,2294.638420,-10140.821405,-2681.334243
404.395552,518.144159,-10584.944971,-2911.162892
404.395874,-1184.329507,-10436.903782,-2221.676944
404.396196,-2812.782580,-10436.903782,-2298.286494
404.396517,-3923.091493,-11917.315666,-2757.943793
404.396839,-5107.421000,-12879.583391,-2528.115143
404.397161,-6957.935855,-11843.295072,-1455.581446
404.397483,-7994.224174,-10881.027347,-1838.629195
404.397804,-6069.688724,-10288.862594,-1149.143247
404.398126,-3330.926739,-9326.594869,-459.657299
404.398448,-370.102971,-7254.018232,459.657299
404.398770,2368.659014,-5329.482782,766.095498
404.399091,5477.523971,-5773.606348,919.314598
404.399413,7328.038826,-7179.997637,842.705048
404.399735,5921.647536,-7105.977043,1838.629195
404.400057,3552.988522,-6291.750507,1838.629195
404.400378,2368.659014,-5551.544565,-536.266849
404.400700,1850.514855,-7550.100608,-2911.162892
404.401022,592.164754,-9178.553681,-3830.477490
404.401344,-1850.514855,-9474.636058,-2604.724693
404.401665,-3923.091493,-9918.759623,-1762.019645
404.401987,-4737.318029,-11621.233289,-2528.115143
404.402309,-4737.318029,-13619.789333,-3983.696590
404.402631,-6365.771101,-13693.809927,-4060.306139
404.402952,-7402.059420,-12139.377449,-2528.115143
404.403274,-6365.771101,-10658.965565,-1072.533697
404.403596,-3775.050304,-10066.800811,-995.924147
404.403918,-888.247130,-8068.244768,-995.924147
404.404239,1850.514855,-6661.853478,76.609550
404.404561,5477.523971,-6661.853478,-383.047749
404.404883,8364.327145,-7476.080014,-459.657299
404.405205,8734.430116,-8290.306550,612.876398
404.405526,6957.935855,-7476.080014,1991.848295
404.405848,4441.235652,-7179.997637,229.828649
404.406170,3997.112087,-8734.430116,-2987.772442
404.406492,3182.885551,-10807.006753,-4826.401637
404.406813,740.205942,-11251.130318,-3830.477490
404.407135,-2220.617826,-10436.903782,-2681.334243
404.407457,-2960.823768,-12435.459826,-2298.286494
404.407779,-4663.297435,-14508.036463,-2757.943793
404.408100,-6883.915261,-14582.057057,-4213.525239
404.408422,-8808.450710,-13249.686362,-3830.477490
404.408744,-8586.388927,-11547.212695,-2374.896044
404.409066,-6069.688724,-10362.883188,-1378.971896
404.409387,-3775.050304,-9178.553681,-995.924147
404.409709,-1406.391290,-7105.977043,76.609550
404.410031,1702.473667,-5181.441594,459.657299
404.410353,4811.338623,-5181.441594,-229.828649
404.410674,5921.647536,-5921.647536,229.828649
404.410996,4959.379811,-5551.544565,1532.190996
404.411318,3256.906145,-6439.791695,612.876398
404.411640,2812.782580,-8586.388927,-1915.238745
404.411961,2220.617826,-9918.759623,-2528.115143
404.412283,518.144159,-10362.883188,-2604.724693
404.412605,-888.247130,-10881.027347,-2221.676944
404.412927,-2294.638420,-11177.109724,-1915.238745
404.413248,-2960.823768,-11843.295072,-2298.286494
404.413570,-4515.256246,-11399.171507,-2528.115143
404.413892,-5403.503377,-10510.924376,-1378.971896
404.414214,-5403.503377,-9474.636058,-1302.362347
404.414535,-3775.050304,-9400.615463,-919.314598
404.414857,-1924.535449,-9178.553681,153.219100
404.415179,0.000000,-7772.162391,1838.629195
404.415501,1628.453072,-6217.729913,1991.848295
404.415822,3849.070898,-5699.585753,1302.362347
404.416144,4811.338623,-5699.585753,306.438199
404.416466,4589.276840,-5773.606348,-766.095498
404.416788,2886.803174,-6513.812290,-1685.410096
404.417109,1480.411884,-7994.224174,-2298.286494
404.417431,444.123565,-9104.533087,-3294.210641
404.417753,-814.226536,-10807.006753,-3907.087040
404.418075,-2368.659014,-12509.480420,-3907.087040
404.418396,-3330.926739,-13323.706956,-4366.744339
404.418718,-3552.988522,-14211.954086,-5209.449386
404.419040,-4071.132681,-13767.830521,-3983.696590
404.419362,-4737.318029,-12287.418637,-1991.848295
404.419683,-4811.338623,-9548.656652,-2451.505594
404.420005,-3627.009116,-9252.574275,-2451.505594
404.420327,-1554.432478,-9696.697840,-1302.362347
404.420649,222.061783,-8364.327145,306.438199
404.420970,1924.535449,-7254.018232,1225.752797
404.421292,4219.173869,-7105.977043,1608.800546
404.421614,6661.853478,-7698.141797,689.485948
404.421936,6365.771101,-7698.141797,0.000000
404.422257,3923.091493,-6809.894666,-459.657299
404.422579,2442.679609,-7179.997637,-2145.067394
404.422901,2146.597232,-9696.697840,-4366.744339
404.423223,444.123565,-10807.006753,-4673.182538
404.423544,-2442.679609,-10881.027347,-2834.553343
404.423866,-4441.235652,-11843.295072,-2681.334243
404.424188,-4737.318029,-14582.057057,-4749.792088
404.424510,-5699.585753,-15248.242405,-4826.401637
404.424831,-7476.080014,-13175.665768,-2757.943793
404.425153,-8660.409521,-10732.986159,-1532.190996
404.425475,-6439.791695,-8438.347739,-689.485948
404.425797,-3627.009116,-8142.265362,-612.876398
404.426118,-962.267725,-6365.771101,459.657299
404.426440,1184.329507,-4219.173869,2374.896044
404.426762,4441.235652,-3775.050304,2221.676944
404.427084,5995.668130,-6735.874072,2221.676944
404.427405,6143.709319,-8438.347739,2528.115143
404.427727,4145.153275,-7031.956449,1762.019645
404.428049,2812.782580,-6439.791695,0.000000
404.428371,3849.070898,-8438.347739,-2528.115143
404.428692,3330.926739,-8660.409521,-4519.963438
404.429014,1332.370696,-8734.430116,-3524.039291
404.429336,-1406.391290,-9474.636058,-1915.238745
404.429658,-2664.741391,-12287.418637,-2451.505594
404.429979,-3701.029710,-14063.912898,-4673.182538
404.430301,-6439.791695,-15026.180623,-4136.915689
404.430623,-7994.224174,-13471.748144,-2604.724693
404.430945,-7105.977043,-10510.924376,-1378.971896
404.431266,-4367.215058,-8956.491898,-1455.581446
404.431588,-1184.329507,-6735.874072,-153.219100
404.431910,1258.350101,-4589.276840,1149.143247
404.432232,3478.967927,-4737.318029,1302.362347
404.432553,5995.668130,-6735.874072,1225.752797
404.432875,6587.832884,-8364.327145,1455.581446
404.433197,4959.379811,-7476.080014,536.266849
404.433519,4663.297435,-7402.059420,-536.266849
404.433840,4737.318029,-9178.553681,-3370.820191
404.434162,4441.235652,-10288.862594,-5209.449386
404.434484,2146.597232,-10658.965565,-4979.620737
404.434806,-370.102971,-11325.150913,-3370.820191
404.435127,-1924.535449,-12139.377449,-4290.134789
404.435449,-3404.947333,-14582.057057,-5592.497135
404.435771,-5921.647536,-15322.262999,-5286.058936
404.436093,-7698.141797,-14730.098246,-3294.210641
404.436414,-8216.285956,-12435.459826,-2451.505594
404.436736,-5699.585753,-11399.171507,-1838.629195
404.437058,-2960.823768,-9844.739029,0.000000
404.437380,-518.144159,-7402.059420,919.314598
404.437701,1184.329507,-5255.462188,1302.362347
404.438023,4293.194464,-4441.235652,1685.410096
404.438345,6661.853478,-4663.297435,689.485948
404.438667,6439.791695,-5625.565159,612.876398
404.438988,4145.153275,-6143.709319,1149.143247
404.439310,2590.720797,-7105.977043,-459.657299
404.439632,2368.659014,-9770.718434,-3217.601092
404.439954,1258.350101,-11695.253884,-4213.525239
404.440275,-1702.473667,-11547.212695,-3447.429741
404.440597,-3701.029710,-11029.068536,-4136.915689
404.440919,-4885.359217,-13323.706956,-3907.087040
404.441241,-5921.647536,-13767.830521,-3983.696590
404.441562,-7550.100608,-11917.315666,-3677.258390
404.441884,-8882.471304,-9770.718434,-1915.238745
404.442206,-7328.038826,-9326.594869,-153.219100
404.442528,-4589.276840,-8512.368333,-536.266849
404.442849,-1702.473667,-6291.750507,0.000000
404.443171,814.226536,-5033.400406,1991.848295
404.443493,3997.112087,-4737.318029,2374.896044
404.443815,5995.668130,-5107.421000,1838.629195
404.444136,5625.565159,-6439.791695,1455.581446
404.444458,3849.070898,-6365.771101,1532.190996
404.444780,3256.906145,-6809.894666,-1455.581446
404.445102,3849.070898,-9474.636058,-4979.620737
404.445423,3256.906145,-11251.130318,-4673.182538
404.445745,1184.329507,-11621.233289,-2987.772442
404.446067,-1406.391290,-11695.253884,-2451.505594
404.446389,-2368.659014,-13619.789333,-3753.867940
404.446710,-3478.967927,-14878.139434,-5822.325785
404.447032,-5847.626942,-13767.830521,-5822.325785
404.447354,-7772.162391,-11621.233289,-3140.991542
404.447676,-6439.791695,-10584.944971,-1915.238745
404.447997,-3256.906145,-10362.883188,-1225.752797
404.448319,0.000000,-8956.491898,-306.438199
404.448641,2146.597232,-7402.059420,1455.581446
404.448963,4219.173869,-6291.750507,2221.676944
404.449284,6809.894666,-6883.915261,1685.410096
404.449606,7994.224174,-5921.647536,536.266849
404.449928,7031.956449,-5477.523971,0.000000
404.450250,4589.276840,-6217.729913,0.000000
404.450571,3775.050304,-8364.327145,-1838.629195
404.450893,2886.803174,-11473.192101,-4903.011187
404.451215,1184.329507,-12583.501014,-3524.039291
404.451537,-1924.535449,-11917.315666,-2145.067394
404.451858,-3701.029710,-11547.212695,-2757.943793
404.452180,-4367.215058,-13101.645173,-4979.620737
404.452502,-5699.585753,-13619.789333,-5286.058936
404.452824,-8068.244768,-11325.150913,-3447.429741
404.453145,-8882.471304,-9178.553681,-1608.800546
404.453467,-6587.832884,-9252.574275,-1149.143247
404.453789,-3330.926739,-9992.780217,-1378.971896
404.454111,-740.205942,-8216.285956,612.876398
404.454432,1628.453072,-5477.523971,3140.991542
404.454754,4441.235652,-4959.379811,3294.210641
404.455076,6143.709319,-4885.359217,2681.334243
404.455398,6143.709319,-4663.297435,1838.629195
404.455719,4219.173869,-4959.379811,383.047749
404.456041,3034.844362,-7254.018232,-1838.629195
404.456363,2146.597232,-10066.800811,-2681.334243
404.456685,1036.288319,-10955.047942,-2911.162892
404.457006,-888.247130,-10955.047942,-2221.676944
404.457328,-2294.638420,-11399.171507,-2451.505594
404.457650,-3849.070898,-12879.583391,-3447.429741
404.457972,-6661.853478,-13175.665768,-3907.087040
404.458293,-8956.491898,-11547.212695,-4060.306139
404.458615,-9178.553681,-9992.780217,-4519.963438
404.458937,-7031.956449,-10436.903782,-3983.696590
404.459259,-4293.194464,-10658.965565,-1685.410096
404.459580,-1480.411884,-8956.491898,919.314598
404.459902,1258.350101,-6513.812290,1455.581446
404.460224,4737.318029,-6217.729913,1072.533697
404.460545,6735.874072,-7476.080014,153.219100
404.460867,6439.791695,-6809.894666,229.828649
404.461189,4885.359217,-6217.729913,383.047749
404.461510,5033.400406,-7772.162391,-1149.143247
404.461832,4811.338623,-10066.800811,-2757.943793
404.462154,3330.926739,-10288.862594,-3447.429741
404.462476,444.123565,-10732.986159,-2911.162892
404.462797,-1850.514855,-12361.439231,-3370.820191
404.463119,-3034.844362,-13693.809927,-4519.963438
404.463441,-4589.276840,-13989.892304,-5515.887586
404.463762,-6291.750507,-13693.809927,-4596.572988
404.464084,-7402.059420,-11843.295072,-2528.115143
404.464406,-6439.791695,-10732.986159,-1915.238745
404.464727,-3627.009116,-10732.986159,-1225.752797
404.465049,-148.041188,-10140.821405,-229.828649
404.465371,1850.514855,-7994.224174,229.828649
404.465692,3923.091493,-6735.874072,1378.971896
404.466014,6143.709319,-6957.935855,2528.115143
404.466336,7105.977043,-6291.750507,1762.019645
404.466657,6661.853478,-5033.400406,766.095498
404.466979,4219.173869,-5107.421000,306.438199
404.467301,2738.761985,-7179.997637,-842.705048
404.467622,1184.329507,-9918.759623,-2451.505594
404.467944,-814.226536,-10881.027347,-2834.553343
404.468266,-2590.720797,-9918.759623,-1532.190996
404.468588,-3997.112087,-10362.883188,-2451.505594
404.468909,-4885.359217,-12583.501014,-4290.134789
404.469231,-6661.853478,-12805.562797,-3983.696590
404.469553,-8660.409521,-11251.130318,-2604.724693
404.469874,-8290.306550,-9548.656652,-1991.848295
404.470196,-4737.318029,-9178.553681,-2068.457845
404.470518,-1998.556043,-8586.388927,-1685.410096
404.470839,592.164754,-7402.059420,0.000000
404.471161,3256.906145,-6217.729913,2374.896044
404.471483,6439.791695,-6217.729913,2834.553343
404.471804,7328.038826,-6513.812290,2068.457845
404.472126,6809.894666,-6661.853478,1838.629195
404.472448,4959.379811,-5921.647536,306.438199
404.472769,4515.256246,-6735.874072,-2145.067394
404.473091,3775.050304,-9474.636058,-3447.429741
404.473413,1480.411884,-10140.821405,-2374.896044
404.473734,-2220.617826,-9844.739029,-2068.457845
404.474056,-4145.153275,-11547.212695,-3140.991542
404.474378,-5773.606348,-14359.995275,-4366.744339
404.474700,-7550.100608,-14359.995275,-5669.106685
404.475021,-8660.409521,-13249.686362,-5898.935335
404.475343,-7402.059420,-12287.418637,-4519.963438
404.475665,-4293.194464,-12731.542202,-2068.457845
404.475986,-2072.576638,-11473.192101,-919.314598
404.476308,-370.102971,-7920.203579,306.438199
404.476630,1628.453072,-5329.482782,0.000000
404.476951,4663.297435,-6513.812290,-1072.533697
404.477273,6735.874072,-7920.203579,-1072.533697
404.477595,5551.544565,-7476.080014,919.314598
404.477916,3256.906145,-6513.812290,2298.286494
404.478238,2812.782580,-7402.059420,766.095498
404.478560,3627.009116,-9104.533087,-2681.334243
404.478881,2664.741391,-9844.739029,-5362.668486
404.479203,222.061783,-9992.780217,-4136.915689
404.479525,-2368.659014,-11251.130318,-2221.676944
404.479846,-4885.359217,-12879.583391,-1915.238745
404.480168,-7179.997637,-13027.624579,-1915.238745
404.480490,-9400.615463,-11769.274478,-3907.087040
404.480812,-9548.656652,-10955.047942,-4979.620737
404.481133,-6809.894666,-10955.047942,-4290.134789
404.481455,-3701.029710,-10584.944971,-2681.334243
404.481777,-888.247130,-9178.553681,383.047749
404.482098,2220.617826,-7624.121203,3983.696590
404.482420,5033.400406,-6513.812290,3753.867940
404.482742,6883.915261,-5033.400406,1149.143247
404.483063,6661.853478,-4145.153275,0.000000
404.483385,4589.276840,-4589.276840,1378.971896
404.483707,2516.700203,-5329.482782,1225.752797
404.484028,1850.514855,-7402.059420,229.828649
404.484350,1850.514855,-9992.780217,-2068.457845
404.484672,1036.288319,-10732.986159,-1991.848295
404.484993,-666.185348,-10066.800811,-2068.457845
404.485315,-2368.659014,-11029.068536,-2451.505594
404.485637,-3997.112087,-12435.459826,-2681.334243
404.485958,-7105.977043,-12879.583391,-3140.991542
404.486280,-9918.759623,-11177.109724,-3064.381992
404.486602,-9400.615463,-9992.780217,-3217.601092
404.486924,-6069.688724,-10807.006753,-3983.696590
404.487245,-2368.659014,-10362.883188,-3753.867940
404.487567,1036.288319,-9474.636058,0.000000
404.487889,5255.462188,-7550.100608,2298.286494
404.488210,8734.430116,-7402.059420,1838.629195
404.488532,9844.739029,-7328.038826,995.924147
404.488854,8142.265362,-5847.626942,1532.190996
404.489175,5995.668130,-5033.400406,-842.705048
404.489497,4589.276840,-7772.162391,-2298.286494
404.489819,3256.906145,-10436.903782,-2987.772442
404.490140,1184.329507,-11029.068536,-2374.896044
404.490462,-740.205942,-11029.068536,-2298.286494
404.490784,-1406.391290,-12435.459826,-2451.505594
404.491105,-2812.782580,-13989.892304,-3447.429741
404.491427,-6291.750507,-12953.603985,-3753.867940
404.491749,-9252.574275,-10584.944971,-3753.867940
404.492071,-9030.512492,-9992.780217,-4290.134789
404.492392,-5995.668130,-12139.377449,-4519.963438
404.492714,-3256.906145,-11991.336260,-2298.286494
404.493036,-1332.370696,-10214.842000,689.485948
404.493357,2072.576638,-8956.491898,2604.724693
404.493679,5551.544565,-8290.306550,2221.676944
404.494001,6513.812290,-6143.709319,1149.143247
404.494322,4737.318029,-3923.091493,919.314598
404.494644,3330.926739,-3849.070898,-229.828649
404.494966,2590.720797,-6513.812290,-2221.676944
404.495287,2072.576638,-8808.450710,-2298.286494
404.495609,740.205942,-9770.718434,-689.485948
404.495931,-962.267725,-9400.615463,-612.876398
404.496252,-1258.350101,-9326.594869,-1915.238745
404.496574,-2960.823768,-12435.459826,-3600.648841
404.496896,-5847.626942,-14137.933492,-3140.991542
404.497217,-9548.656652,-11769.274478,-1991.848295
404.497539,-10288.862594,-9252.574275,-2068.457845
404.497861,-7772.162391,-10214.842000,-2757.943793
404.498183,-4737.318029,-9992.780217,-2681.334243
404.498504,-2590.720797,-7698.141797,-766.095498
404.498826,1110.308913,-5847.626942,1225.752797
404.499148,5773.606348,-6143.709319,1991.848295
404.499469,8068.244768,-6513.812290,612.876398
404.499791,6735.874072,-6365.771101,1608.800546
404.500113,3701.029710,-6513.812290,1762.019645
404.500434,2368.659014,-6513.812290,-995.924147
404.500756,2368.659014,-9030.512492,-4060.306139
404.501078,962.267725,-10362.883188,-4213.525239
404.501399,-1332.370696,-10955.047942,-2451.505594
404.501721,-2960.823768,-11843.295072,-1532.190996
404.502043,-3182.885551,-14582.057057,-2451.505594
404.502364,-4441.235652,-15174.221811,-4213.525239
404.502686,-7031.956449,-12805.562797,-4826.401637
404.503008,-7920.203579,-10214.842000,-3524.039291
404.503329,-6735.874072,-9696.697840,-2528.115143
404.503651,-4145.153275,-9770.718434,-2374.896044
404.503973,-1480.411884,-8882.471304,-1149.143247
404.504295,962.267725,-7624.121203,383.047749
404.504616,4515.256246,-7179.997637,1149.143247
404.504938,7550.100608,-8142.265362,1225.752797
404.505260,8290.306550,-7476.080014,766.095498
404.505581,6809.894666,-6587.832884,383.047749
404.505903,5477.523971,-7179.997637,-919.314598
404.506225,4589.276840,-9400.615463,-2451.505594
404.506546,3034.844362,-10732.986159,-3830.477490
404.506868,962.267725,-10955.047942,-2987.772442
404.507190,-1184.329507,-11399.171507,-2757.943793
404.507511,-2516.700203,-12953.603985,-3217.601092
404.507833,-4737.318029,-13989.892304,-3600.648841
404.508155,-7772.162391,-12731.542202,-3447.429741
404.508476,-9844.739029,-10066.800811,-1608.800546
404.508798,-8956.491898,-8956.491898,-1225.752797
404.509120,-7031.956449,-8882.471304,-2528.115143
404.509441,-4219.173869,-8290.306550,-1302.362347
404.509763,-666.185348,-7031.956449,1838.629195
404.510085,3034.844362,-5995.668130,2374.896044
404.510407,7031.956449,-6661.853478,1455.581446
404.510728,8586.388927,-6587.832884,2145.067394
404.511050,7031.956449,-5477.523971,2298.286494
404.511372,4737.318029,-5329.482782,383.047749
404.511693,4293.194464,-7254.018232,-1915.238745
404.512015,3552.988522,-10807.006753,-3600.648841
404.512337,1406.391290,-11843.295072,-2911.162892
404.512658,-1628.453072,-9992.780217,-612.876398
404.512980,-2516.700203,-10955.047942,0.000000
404.513302,-3330.926739,-12879.583391,-2145.067394
404.513623,-5477.523971,-11843.295072,-3677.258390
404.513945,-8586.388927,-9400.615463,-2528.115143
404.514267,-9326.594869,-8660.409521,-1149.143247
404.514588,-7031.956449,-9030.512492,-1762.019645
404.514910,-4515.256246,-7846.182985,-2451.505594
404.515232,-1480.411884,-6587.832884,-842.705048
404.515553,962.267725,-7031.956449,1378.971896
404.515875,3849.070898,-8364.327145,1302.362347
404.516197,5329.482782,-8364.327145,-229.828649
404.516519,5477.523971,-8364.327145,-1225.752797
404.516840,5033.400406,-8438.347739,-2451.505594
404.517162,4589.276840,-8438.347739,-3140.991542
404.517484,3256.906145,-10362.883188,-3524.039291
404.517805,1628.453072,-11991.336260,-3524.039291
404.518127,-296.082377,-12657.521608,-3294.210641
404.518449,-2072.576638,-13619.789333,-3677.258390
404.518770,-3034.844362,-15100.201217,-3830.477490
404.519092,-5255.462188,-13323.706956,-2757.943793
404.519414,-6587.832884,-10436.903782,-2604.724693
404.519735,-6217.729913,-8956.491898,-2145.067394
404.520057,-4515.256246,-9326.594869,-1532.190996
404.520379,-2368.659014,-8734.430116,-1378.971896
404.520700,0.000000,-8290.306550,-306.438199
404.521022,2590.720797,-8438.347739,1225.752797
404.521344,5033.400406,-8142.265362,1991.848295
404.521665,5995.668130,-7402.059420,1915.238745
404.521987,5921.647536,-6883.915261,1149.143247
404.522309,4367.215058,-5995.668130,-536.266849
404.522631,2886.803174,-7328.038826,-2681.334243
404.522952,1776.494261,-9326.594869,-4596.572988
404.523274,592.164754,-10732.986159,-4136.915689
404.523596,-1332.370696,-11029.068536,-1915.238745
404.523917,-2072.576638,-10584.944971,-1762.019645
404.524239,-2664.741391,-11991.336260,-2528.115143
404.524561,-4293.194464,-12287.418637,-3677.258390
404.524882,-7031.956449,-11473.192101,-2528.115143
404.525204,-8956.491898,-9770.718434,-612.876398
404.525526,-8438.347739,-7476.080014,-995.924147
404.525847,-6069.688724,-6883.915261,-1378.971896
404.526169,-3108.864956,-6291.750507,-536.266849
404.526491,-1184.329507,-5699.585753,842.705048
404.526812,1110.308913,-6069.688724,2068.457845
404.527134,3330.926739,-6809.894666,2298.286494
404.527456,4959.379811,-7328.038826,1225.752797
404.527778,3849.070898,-7179.997637,0.000000
404.528099,2368.659014,-7254.018232,-1685.410096
404.528421,1406.391290,-8734.430116,-2987.772442
404.528743,962.267725,-10140.821405,-4903.011187
404.529064,148.041188,-12731.542202,-4826.401637
404.529386,-1258.350101,-14137.933492,-2298.286494
404.529708,-2960.823768,-13693.809927,-1608.800546
404.530029,-4737.318029,-13693.809927,-2681.334243
404.530351,-6587.832884,-12213.398043,-3600.648841
404.530673,-8364.327145,-10510.924376,-2757.943793
404.530994,-9474.636058,-8660.409521,-2911.162892
404.531316,-8290.306550,-7994.224174,-1762.019645
404.531638,-6439.791695,-8364.327145,-536.266849
404.531959,-3552.988522,-7476.080014,229.828649
404.532281,-518.144159,-6957.935855,919.314598
404.532603,1998.556043,-7328.038826,689.485948
404.532924,3701.029710,-7624.121203,229.828649
404.533246,3256.906145,-7698.141797,-536.266849
404.533568,666.185348,-7772.162391,-1762.019645
404.533890,-1480.411884,-8438.347739,-3370.820191
404.534211,-2886.803174,-10584.944971,-5592.497135
404.534533,-4219.173869,-12731.542202,-5898.935335
404.534855,-5551.544565,-14211.954086,-4443.353888
404.535176,-6735.874072,-13323.706956,-3294.210641
404.535498,-7179.997637,-12435.459826,-2834.553343
404.535820,-7105.977043,-12361.439231,-2298.286494
404.536141,-7624.121203,-10510.924376,-2221.676944
404.536463,-8586.388927,-8364.327145,-2221.676944
404.536785,-9474.636058,-7476.080014,0.000000
404.537106,-8956.491898,-7328.038826,995.924147
404.537428,-6513.812290,-6735.874072,383.047749
404.537750,-3256.906145,-6365.771101,76.609550
404.538071,0.000000,-7328.038826,842.705048
404.538393,1628.453072,-7179.997637,2528.115143
404.538715,3478.967927,-6143.709319,2068.457845
404.539036,4145.153275,-5773.606348,0.000000
404.539358,3034.844362,-6809.894666,-1072.533697
404.539680,-666.185348,-7402.059420,-2145.067394
404.540002,-3923.091493,-9474.636058,-3677.258390
404.540323,-6143.709319,-11177.109724,-4443.353888
404.540645,-8068.244768,-12435.459826,-4826.401637
404.540967,-9622.677246,-11251.130318,-4673.182538
404.541288,-9252.574275,-10288.862594,-4366.744339
404.541610,-8142.265362,-10955.047942,-4366.744339
404.541932,-7254.018232,-11695.253884,-3600.648841
404.542253,-6439.791695,-11029.068536,-2298.286494
404.542575,-4885.359217,-9548.656652,-766.095498
404.542897,-3330.926739,-8438.347739,229.828649
404.543218,-2516.700203,-7846.182985,919.314598
404.543540,-2590.720797,-8216.285956,1225.752797
404.543862,-1702.473667,-8808.450710,2451.505594
404.544183,148.041188,-8660.409521,1838.629195
404.544505,1998.556043,-7402.059420,-306.438199
404.544827,3923.091493,-7994.224174,-842.705048
404.545148,4293.194464,-8068.244768,306.438199
404.545470,3256.906145,-8438.347739,536.266849
404.545792,1184.329507,-8734.430116,-1225.752797
404.546114,-370.102971,-9030.512492,-3753.867940
404.546435,-1480.411884,-9400.615463,-6205.373534
404.546757,-3256.906145,-10658.965565,-6894.859482
404.547079,-5181.441594,-12139.377449,-5362.668486
404.547400,-6291.750507,-12435.459826,-4136.915689
404.547722,-6661.853478,-12435.459826,-3600.648841
404.548044,-5773.606348,-12583.501014,-3064.381992
404.548365,-5625.565159,-11103.089130,-3677.258390
404.548687,-5477.523971,-10214.842000,-3830.477490
404.549009,-5625.565159,-9104.533087,-2451.505594
404.549330,-5329.482782,-7846.182985,536.266849
404.549652,-4959.379811,-6661.853478,1455.581446
404.549974,-3997.112087,-5995.668130,842.705048
404.550295,-2738.761985,-7105.977043,-383.047749
404.550617,-1480.411884,-8438.347739,-612.876398
404.550939,-592.164754,-8438.347739,1302.362347
404.551260,1184.329507,-6809.894666,2451.505594
404.551582,4219.173869,-6809.894666,-306.438199
404.551904,6439.791695,-9622.677246,-4366.744339
404.552226,5625.565159,-12139.377449,-3983.696590
404.552547,1628.453072,-12953.603985,-689.485948
404.552869,-4071.132681,-13989.892304,1072.533697
404.553191,-7772.162391,-13915.871710,0.000000
404.553512,-9992.780217,-11029.068536,-2681.334243
404.553834,-10807.006753,-7698.141797,-5362.668486
404.554156,-11325.150913,-5847.626942,-5439.278036
404.554477,-11177.109724,-5625.565159,-2298.286494
404.554799,-10658.965565,-4885.359217,0.000000
404.555121,-8586.388927,-5329.482782,-766.095498
404.555442,-5921.647536,-8142.265362,-1685.410096
404.555764,-5181.441594,-10214.842000,-2068.457845
404.556086,-5773.606348,-10362.883188,-1991.848295
404.556407,-4515.256246,-8808.450710,-2298.286494
404.556729,-1924.535449,-8660.409521,-2834.553343
404.557051,740.205942,-9326.594869,-2834.553343
404.557373,592.164754,-8734.430116,-2987.772442
404.557694,-592.164754,-8808.450710,-3370.820191
404.558016,-962.267725,-10362.883188,-3217.601092
404.558338,-1480.411884,-12361.439231,-3140.991542
404.558659,-3330.926739,-12953.603985,-1608.800546
404.558981,-4737.318029,-12509.480420,0.000000
404.559303,-5625.565159,-11177.109724,459.657299
404.559624,-5995.668130,-9400.615463,0.000000
404.559946,-5551.544565,-7031.956449,-306.438199
404.560268,-4219.173869,-4293.194464,-1532.190996
404.560590,-2442.679609,-4737.318029,-1915.238745
404.560912,-1480.411884,-5625.565159,-612.876398
404.561234,-962.267725,-6513.812290,-229.828649
404.561555,-592.164754,-7698.141797,-2298.286494
404.561877,-148.041188,-10658.965565,-4903.011187
404.562199,-1110.308913,-13841.851115,-4979.620737
404.562521,-3182.885551,-15174.221811,-2911.162892
404.562843,-4515.256246,-14285.974681,-2451.505594
404.563165,-4219.173869,-13619.789333,-3217.601092
404.563486,-3182.885551,-13175.665768,-3524.039291
404.563808,-3552.988522,-10955.047942,-2145.067394
404.564130,-5551.544565,-8290.306550,-612.876398
404.564452,-5995.668130,-5847.626942,-383.047749
404.564774,-4737.318029,-5699.585753,-1072.533697
404.565096,-3552.988522,-5921.647536,-2221.676944
404.565418,-3256.906145,-7031.956449,-2528.115143
404.565739,-3552.988522,-7328.038826,-766.095498
404.566061,-2812.782580,-8364.327145,459.657299
404.566383,-2146.597232,-8068.244768,-383.047749
404.566705,-1406.391290,-8216.285956,-3064.381992
404.567027,-1110.308913,-9844.739029,-4443.353888
404.567349,-2368.659014,-12435.459826,-3217.601092
404.567671,-2960.823768,-15100.201217,-612.876398
404.567992,-2886.803174,-16210.510130,1532.190996
404.568314,-1924.535449,-14211.954086,2068.457845
404.568636,-296.082377,-11325.150913,995.924147
404.568958,1036.288319,-8734.430116,842.705048
404.569280,1184.329507,-7846.182985,2068.457845
404.569602,740.205942,-7105.977043,3753.867940
404.569923,-740.205942,-5477.523971,4596.572988
404.570245,-1850.514855,-4219.173869,4290.134789
404.570567,-4959.379811,-4071.132681,3447.429741
404.570889,-8438.347739,-3552.988522,2221.676944
404.571211,-9696.697840,-2960.823768,-2068.457845
404.571533,-8290.306550,-5181.441594,-6281.983084
404.571855,-7031.956449,-7254.018232,-6358.592633
404.572176,-6291.750507,-9030.512492,-4443.353888
404.572498,-6291.750507,-12731.542202,-3294.210641
404.572820,-6069.688724,-17764.942608,-3217.601092
404.573142,-6365.771101,-18727.210333,-3447.429741
404.573464,-5921.647536,-17172.777854,-4596.572988
404.573786,-3775.050304,-14063.912898,-2911.162892
404.574108,-2368.659014,-11103.089130,306.438199
404.574429,-2516.700203,-6661.853478,2068.457845
404.574751,-2220.617826,-3552.988522,4213.525239
404.575073,-1036.288319,-3034.844362,4673.182538
404.575395,-888.247130,-3108.864956,3064.381992
404.575717,-962.267725,-4737.318029,1149.143247
404.576039,-888.247130,-8438.347739,1532.190996
404.576360,-814.226536,-10807.006753,2834.553343
404.576682,-148.041188,-11991.336260,2604.724693
404.577004,1850.514855,-11769.274478,-153.219100
404.577326,3182.885551,-9400.615463,-3140.991542
404.577648,2590.720797,-9770.718434,-3753.867940
404.577970,592.164754,-13101.645173,-3677.258390
404.578292,74.020594,-16580.613101,-2451.505594
404.578613,814.226536,-17172.777854,-2221.676944
404.578935,1554.432478,-16210.510130,-1455.581446
404.579257,2442.679609,-13545.768739,1149.143247
404.579579,1406.391290,-10658.965565,2681.334243
404.579901,-518.144159,-6439.791695,2757.943793
404.580223,-1258.350101,-3330.926739,3677.258390
404.580545,-444.123565,-1480.411884,3064.381992
404.580866,888.247130,370.102971,842.705048
404.581188,1628.453072,-888.247130,0.000000
404.581510,1332.370696,-5329.482782,2298.286494
404.581832,814.226536,-7624.121203,3907.087040
404.582154,1554.432478,-9474.636058,689.485948
404.582476,2590.720797,-11917.315666,-3830.477490
404.582797,2368.659014,-12731.542202,-6052.154434
404.583119,222.061783,-12879.583391,-4290.134789
404.583441,-1776.494261,-15692.365970,-1608.800546
404.583763,-2812.782580,-17394.839637,459.657299
404.584085,-3627.009116,-15544.324782,-1072.533697
404.584407,-3627.009116,-13175.665768,-1225.752797
404.584729,-2886.803174,-12509.480420,2298.286494
404.585050,-2960.823768,-11473.192101,4749.792088
404.585372,-3627.009116,-8882.471304,5822.325785
404.585694,-3997.112087,-6809.894666,7584.345430
404.586016,-3552.988522,-5551.544565,7354.516781
404.586338,-2812.782580,-6883.915261,4213.525239
404.586660,-3108.864956,-7254.018232,2911.162892
404.586982,-2368.659014,-6735.874072,4979.620737
404.587303,1258.350101,-6735.874072,3907.087040
404.587625,5181.441594,-6143.709319,1455.581446
404.587947,6809.894666,-3849.070898,306.438199
404.588269,5403.503377,-4145.153275,-1302.362347
404.588591,2960.823768,-10955.047942,-3370.820191
404.588913,0.000000,-16506.592507,-2757.943793
404.589234,-4811.338623,-16580.613101,-3140.991542
404.589556,-9696.697840,-16950.716072,-2374.896044
404.589878,-11399.171507,-18727.210333,2451.505594
404.590200,-11325.150913,-15322.262999,4136.915689
404.590522,-11547.212695,-10066.800811,2451.505594
404.590844,-9548.656652,-9104.533087,3907.087040
404.591166,-6735.874072,-9400.615463,6588.421283
404.591487,-5329.482782,-7328.038826,8197.221829
404.591809,-3997.112087,-3034.844362,11414.822920
404.592131,-1036.288319,962.267725,11874.480219
404.592453,3775.050304,-296.082377,6588.421283
404.592775,8512.368333,-2368.659014,1225.752797
404.593097,9770.718434,-3330.926739,76.609550
404.593419,7254.018232,-5847.626942,2068.457845
404.593740,5773.606348,-14285.974681,4979.620737
404.594062,3552.988522,-19911.539840,4826.401637
404.594384,74.020594,-19615.457463,-383.047749
404.594706,-2812.782580,-17172.777854,-3447.429741
404.595028,-3330.926739,-17098.757260,-1149.143247
404.595350,-3330.926739,-12583.501014,612.876398
404.595671,-3552.988522,-4885.359217,306.438199
404.595993,-2590.720797,-1998.556043,1915.238745
404.596315,-962.267725,-4885.359217,4903.011187
404.596637,-1628.453072,-7031.956449,4290.134789
404.596959,-4589.276840,-6143.709319,3294.210641
404.597281,-2220.617826,-7624.121203,3600.648841
404.597603,1332.370696,-11029.068536,5439.278036
404.597924,2072.576638,-10807.006753,8044.002729
404.598246,3108.864956,-5625.565159,7124.688131
404.598568,8290.306550,-3478.967927,-306.438199
404.598890,12139.377449,-5033.400406,-5515.887586
404.599212,9548.656652,-5699.585753,-4366.744339
404.599534,3182.885551,-8216.285956,-766.095498
404.599856,-1776.494261,-15544.324782,0.000000
404.600177,-4293.194464,-20651.745782,-1991.848295
404.600499,-6661.853478,-20207.622217,-6052.154434
404.600821,-6957.935855,-18283.086767,-6511.811733
404.601143,-5403.503377,-14285.974681,-3600.648841
404.601465,-3627.009116,-10436.903782,-1685.410096
404.601787,-2146.597232,-7550.100608,1762.019645
404.602108,740.205942,-4737.318029,3370.820191
404.602430,2294.638420,-5107.421000,0.000000
404.602752,1628.453072,-8068.244768,-2068.457845
404.603074,814.226536,-9992.780217,2757.943793
404.603396,2072.576638,-8660.409521,4596.572988
404.603718,4885.359217,-9622.677246,-766.095498
404.604040,6587.832884,-11917.315666,-383.047749
404.604361,4959.379811,-10955.047942,1838.629195
404.604683,-1776.494261,-9474.636058,1608.800546
404.605005,-6883.915261,-9474.636058,1302.362347
404.605327,-8734.430116,-8956.491898,-1685.410096
404.605649,-9474.636058,-7698.141797,-8120.612279
404.605971,-10658.965565,-9326.594869,-8810.098227
404.606293,-10658.965565,-13027.624579,-3064.381992
404.606614,-8808.450710,-14508.036463,-229.828649
404.606936,-5625.565159,-14211.954086,-612.876398
404.607258,-2812.782580,-13841.851115,1225.752797
404.607580,-1702.473667,-12805.562797,3370.820191
404.607902,-814.226536,-7846.182985,3140.991542
404.608224,1850.514855,-1998.556043,995.924147
404.608545,6143.709319,222.061783,459.657299
404.608867,9400.615463,-148.041188,3753.867940
404.609189,7920.203579,-2590.720797,6894.859482
404.609511,4441.235652,-6365.771101,7354.516781
404.609833,1702.473667,-10140.821405,6511.811733
404.610155,0.000000,-13693.809927,4060.306139
404.610477,-2516.700203,-14730.098246,1225.752797
404.610798,-3923.091493,-12213.398043,612.876398
404.611120,-3478.967927,-9178.553681,1225.752797
404.611442,-1998.556043,-7994.224174,1608.800546
404.611764,-1406.391290,-7698.141797,2451.505594
404.612086,-2590.720797,-8216.285956,1455.581446
404.612408,-3627.009116,-10066.800811,-612.876398
404.612730,-4589.276840,-12805.562797,383.047749
404.613051,-4737.318029,-13175.665768,2528.115143
404.613373,-3256.906145,-10214.842000,3064.381992
404.613695,-148.041188,-8660.409521,2298.286494
404.614017,2368.659014,-7846.182985,2068.457845
404.614339,3182.885551,-8586.388927,3524.039291
404.614661,2664.741391,-8512.368333,5132.839837
404.614982,3552.988522,-8734.430116,4136.915689
404.615304,4737.318029,-9104.533087,2145.067394
404.615626,4959.379811,-9030.512492,1532.190996
404.615948,3330.926739,-9548.656652,2451.505594
404.616270,740.205942,-9696.697840,2451.505594
404.616592,-814.226536,-10732.986159,766.095498
404.616914,-2368.659014,-12657.521608,-1225.752797
404.617235,-3182.885551,-14878.139434,-612.876398
404.617557,-3701.029710,-14730.098246,1149.143247
404.617879,-2664.741391,-13175.665768,1455.581446
404.618201,-370.102971,-11473.192101,1608.800546
404.618523,1406.391290,-10214.842000,2681.334243
404.618845,1702.473667,-8290.306550,2987.772442
404.619167,0.000000,-6513.812290,2757.943793
404.619488,-1702.473667,-6513.812290,2451.505594
404.619810,-2368.659014,-7254.018232,2451.505594
404.620132,-962.267725,-7105.977043,1455.581446
404.620454,1924.535449,-6735.874072,536.266849
404.620776,3923.091493,-7624.121203,459.657299
404.621098,4145.153275,-8512.368333,2221.676944
404.621419,2812.782580,-8660.409521,2987.772442
404.621741,148.041188,-8216.285956,1149.143247
404.622063,-2664.741391,-8216.285956,-2451.505594
404.622385,-5847.626942,-8290.306550,-4443.353888
404.622707,-7624.121203,-7772.162391,-4443.353888
404.623029,-7105.977043,-8882.471304,-5362.668486
404.623351,-5329.482782,-11029.068536,-4366.744339
404.623672,-3627.009116,-13545.768739,-2451.505594
404.623994,-3182.885551,-14730.098246,0.000000
404.624316,-2590.720797,-14211.954086,995.924147
404.624638,-1924.535449,-11103.089130,842.705048
404.624960,-592.164754,-7402.059420,-842.705048
404.625282,592.164754,-3849.070898,-1991.848295
404.625604,2368.659014,-2960.823768,-2221.676944
404.625925,4145.153275,-5403.503377,-1455.581446
404.626247,4885.359217,-9622.677246,76.609550
404.626569,4367.215058,-12657.521608,1225.752797
404.626891,3108.864956,-13989.892304,2145.067394
404.627213,2146.597232,-12731.542202,306.438199
404.627535,592.164754,-8512.368333,-2451.505594
404.627856,-444.123565,-3923.091493,-5362.668486
404.628178,-1036.288319,-1628.453072,-8886.707777
404.628500,-2072.576638,-4885.359217,-9422.974625
404.628822,-4737.318029,-9992.780217,-7431.126331
404.629144,-7328.038826,-15396.283594,-4826.401637
404.629466,-7846.182985,-20355.663405,-3677.258390
404.629788,-6217.729913,-21539.992912,-2834.553343
404.630109,-4367.215058,-17987.004391,-3600.648841
404.630431,-2516.700203,-10214.842000,-3217.601092
404.630753,-518.144159,-4293.194464,-2681.334243
404.631075,1184.329507,-2146.597232,-1455.581446
404.631397,2146.597232,-3478.967927,-689.485948
404.631719,1702.473667,-5921.647536,1149.143247
404.632041,2516.700203,-8142.265362,1532.190996
404.632362,4811.338623,-9770.718434,1455.581446
404.632684,8512.368333,-10510.924376,229.828649
404.633006,10214.842000,-9844.739029,-383.047749
404.633328,9030.512492,-7698.141797,612.876398
404.633650,7031.956449,-6069.688724,766.095498
404.633972,2812.782580,-6143.709319,-1378.971896
404.634293,-962.267725,-8068.244768,-4443.353888
404.634615,-4145.153275,-10214.842000,-6205.373534
404.634937,-4885.359217,-13249.686362,-5898.935335
404.635259,-5403.503377,-15396.283594,-3064.381992
404.635581,-4367.215058,-16210.510130,459.657299
404.635903,-4441.235652,-13323.706956,2145.067394
404.636225,-4811.338623,-10362.883188,1991.848295
404.636546,-5329.482782,-8734.430116,1149.143247
404.636868,-5551.544565,-5773.606348,-459.657299
404.637190,-5625.565159,-3034.844362,-842.705048
404.637512,-3256.906145,-2442.679609,76.609550
404.637834,148.041188,-4885.359217,2911.162892
404.638156,2368.659014,-7698.141797,5132.839837
404.638478,3478.967927,-9252.574275,3983.696590
404.638799,2812.782580,-9918.759623,995.924147
404.639121,2812.782580,-9178.553681,-1225.752797
404.639443,2442.679609,-8438.347739,-2911.162892
404.639765,1702.473667,-9326.594869,-4366.744339
404.640087,444.123565,-10066.800811,-4826.401637
404.640409,-1036.288319,-11325.150913,-3524.039291
404.640730,-1184.329507,-14508.036463,-2987.772442
404.641052,-962.267725,-16802.674883,-919.314598
404.641374,-1628.453072,-15914.427753,0.000000
404.641696,-2220.617826,-12953.603985,0.000000
404.642018,-1480.411884,-9770.718434,1455.581446
404.642340,-962.267725,-7031.956449,2834.553343
404.642662,-148.041188,-4441.235652,1838.629195
404.642983,1258.350101,-2664.741391,689.485948
404.643305,2960.823768,-3849.070898,1149.143247
404.643627,3182.885551,-5921.647536,2681.334243
404.643949,2146.597232,-8290.306550,3064.381992
404.644271,1998.556043,-9844.739029,1838.629195
404.644593,1702.473667,-9770.718434,-995.924147
404.644915,444.123565,-8438.347739,-3140.991542
404.645236,-1406.391290,-8586.388927,-4136.915689
404.645558,-2886.803174,-9918.759623,-5132.839837
404.645880,-4219.173869,-11325.150913,-6052.154434
404.646202,-4515.256246,-14211.954086,-5898.935335
404.646524,-4367.215058,-16136.489536,-4213.525239
404.646846,-4367.215058,-15174.221811,-1915.238745
404.647167,-4145.153275,-11695.253884,-1685.410096
404.647489,-3775.050304,-9104.533087,-1378.971896
404.647811,-3404.947333,-6735.874072,-612.876398
404.648133,-2590.720797,-4589.276840,-459.657299
404.648455,-1184.329507,-4515.256246,-612.876398
404.648777,1406.391290,-5625.565159,766.095498
404.649099,4071.132681,-7254.018232,1838.629195
404.649420,5773.606348,-8660.409521,2374.896044
404.649742,5773.606348,-9030.512492,1991.848295
404.650064,5107.421000,-7179.997637,0.000000
404.650386,3701.029710,-5995.668130,-3064.381992
404.650708,1998.556043,-7254.018232,-6588.421283
404.651030,518.144159,-9252.574275,-7354.516781
404.651352,-1776.494261,-10510.924376,-6665.030833
404.651673,-3182.885551,-13471.748144,-5515.887586
404.651995,-3552.988522,-17542.880825,-4060.306139
404.652317,-3256.906145,-19393.395680,-2757.943793
404.652639,-3701.029710,-14878.139434,-4749.792088
404.652961,-3627.009116,-10288.862594,-3600.648841
404.653283,-2072.576638,-7179.997637,-1991.848295
404.653604,-740.205942,-4811.338623,-1455.581446
404.653926,0.000000,-4219.173869,-842.705048
404.654248,1628.453072,-5403.503377,1302.362347
404.654570,2960.823768,-7550.100608,1532.190996
404.654892,4737.318029,-9474.636058,919.314598
404.655214,5403.503377,-9696.697840,995.924147
404.655536,5477.523971,-7846.182985,766.095498
404.655857,4441.235652,-5699.585753,-229.828649
404.656179,2960.823768,-5403.503377,-3064.381992
404.656501,592.164754,-7402.059420,-5132.839837
404.656823,-1924.535449,-10140.821405,-6588.421283
404.657145,-4441.235652,-13545.768739,-6205.373534
404.657467,-5255.462188,-16580.613101,-3983.696590
404.657789,-5107.421000,-17246.798449,-2757.943793
404.658110,-4663.297435,-15618.345376,-2911.162892
404.658432,-3923.091493,-12213.398043,-2221.676944
404.658754,-4071.132681,-8512.368333,-995.924147
404.659076,-4071.132681,-4811.338623,0.000000
404.659398,-2442.679609,-3182.885551,76.609550
404.659717,-444.123565,-3108.864956,459.657299
404.660039,1850.514855,-4737.318029,1532.190996
404.660360,4589.276840,-6291.750507,2451.505594
404.660682,6439.791695,-8808.450710,3064.381992
404.661004,7402.059420,-9844.739029,3753.867940
404.661326,6883.915261,-8142.265362,2451.505594
404.661648,4811.338623,-7105.977043,-1072.533697
404.661969,2590.720797,-8512.368333,-3983.696590
404.662291,74.020594,-9770.718434,-4673.182538
404.662613,-1998.556043,-11399.171507,-4136.915689
404.662935,-3849.070898,-14878.139434,-3217.601092
404.663257,-4885.359217,-17394.839637,-995.924147
404.663578,-5477.523971,-16802.674883,766.095498
404.663900,-5625.565159,-12361.439231,-536.266849
404.664222,-4663.297435,-9844.739029,-1149.143247
404.664544,-3627.009116,-7698.141797,-766.095498
404.664866,-2738.761985,-5329.482782,0.000000
404.665187,-2220.617826,-4441.235652,1915.238745
404.665509,0.000000,-5773.606348,2757.943793
404.665831,2072.576638,-8068.244768,2681.334243
404.666153,3034.844362,-9252.574275,2451.505594
404.666475,3701.029710,-8290.306550,1149.143247
404.666796,4293.194464,-7031.956449,0.000000
404.667118,3478.967927,-6291.750507,-1225.752797
404.667440,1036.288319,-7624.121203,-2298.286494
404.667762,-2516.700203,-9992.780217,-3600.648841
404.668084,-4515.256246,-11843.295072,-4903.011187
404.668405,-5625.565159,-14804.118840,-4903.011187
404.668727,-5477.523971,-17024.736666,-3753.867940
404.669049,-4737.318029,-15396.283594,-2221.676944
404.669371,-3034.844362,-11473.192101,-1532.190996
404.669693,-888.247130,-8956.491898,-766.095498
404.670015,148.041188,-6957.935855,-919.314598
404.670336,444.123565,-5699.585753,0.000000
404.670658,740.205942,-5033.400406,612.876398
404.670980,3182.885551,-5699.585753,1685.410096
404.671302,6735.874072,-5551.544565,1225.752797
404.671624,9770.718434,-6661.853478,-689.485948
404.671945,10584.944971,-7846.182985,919.314598
404.672267,9104.533087,-7031.956449,1455.581446
404.672589,5995.668130,-7179.997637,-766.095498
404.672911,2590.720797,-8956.491898,-3907.087040
404.673233,-1258.350101,-10066.800811,-5515.887586
404.673554,-5329.482782,-11103.089130,-7354.516781
404.673876,-8216.285956,-12805.562797,-6511.811733
404.674198,-8142.265362,-15544.324782,-4903.011187
404.674520,-6883.915261,-15692.365970,-4136.915689
404.674842,-6439.791695,-12805.562797,-3600.648841
404.675163,-5921.647536,-11473.192101,-1915.238745
404.675485,-5921.647536,-9326.594869,-995.924147
404.675807,-5329.482782,-7846.182985,-2451.505594
404.676129,-3478.967927,-5847.626942,-2451.505594
404.676451,74.020594,-4959.379811,-1072.533697
404.676772,4663.297435,-5995.668130,-919.314598
404.677094,7328.038826,-7476.080014,-306.438199
404.677416,8290.306550,-9178.553681,1302.362347
404.677738,7624.121203,-9178.553681,842.705048
404.678060,4959.379811,-9474.636058,-1838.629195
404.678381,2368.659014,-9622.677246,-4213.525239
404.678703,-518.144159,-10140.821405,-6052.154434
404.679025,-3404.947333,-10807.006753,-7584.345430
404.679347,-4367.215058,-12361.439231,-5515.887586
404.679669,-4441.235652,-14063.912898,-3140.991542
404.679991,-4441.235652,-13767.830521,-2298.286494
404.680312,-4515.256246,-13471.748144,-1838.629195
404.680634,-4071.132681,-12731.542202,0.000000
404.680956,-3552.988522,-9918.759623,229.828649
404.681278,-3108.864956,-6291.750507,459.657299
404.681600,-1702.473667,-3701.029710,995.924147
404.681921,1110.308913,-2072.576638,1608.800546
404.682243,4293.194464,-3034.844362,2374.896044
404.682565,7105.977043,-4589.276840,1608.800546
404.682887,8364.327145,-7772.162391,1762.019645
404.683209,7920.203579,-9548.656652,1838.629195
404.683530,6365.771101,-10140.821405,1455.581446
404.683852,4441.235652,-9178.553681,-1225.752797
404.684174,1258.350101,-9104.533087,-4826.401637
404.684496,-1850.514855,-9474.636058,-6665.030833
404.684818,-4737.318029,-10584.944971,-6128.763984
404.685139,-6735.874072,-13397.727550,-4366.744339
404.685461,-7105.977043,-15988.448347,-2068.457845
404.685783,-7105.977043,-17394.839637,-842.705048
404.686105,-7105.977043,-13989.892304,0.000000
404.686427,-5995.668130,-9474.636058,229.828649
404.686748,-3256.906145,-5921.647536,-459.657299
404.687070,-1110.308913,-3182.885551,0.000000
404.687392,962.267725,-2294.638420,1685.410096
404.687714,2886.803174,-3182.885551,3140.991542
404.688036,5255.462188,-6365.771101,3064.381992
404.688357,7402.059420,-10510.924376,2757.943793
404.688679,7624.121203,-10732.986159,1762.019645
404.689001,7105.977043,-8586.388927,-766.095498
404.689323,5847.626942,-6809.894666,-2221.676944
404.689645,3997.112087,-7328.038826,-3217.601092
404.689967,-296.082377,-9622.677246,-5439.278036
404.690288,-4589.276840,-12731.542202,-6665.030833
404.690610,-7254.018232,-17542.880825,-4596.572988
404.690932,-8290.306550,-20281.642811,-2757.943793
404.691254,-8364.327145,-17616.901420,-2451.505594
404.691576,-6883.915261,-12657.521608,-1685.410096
404.691897,-4293.194464,-9178.553681,-536.266849
404.692219,-2664.741391,-5773.606348,-612.876398
404.692541,-2368.659014,-2886.803174,229.828649
404.692863,-1480.411884,-3182.885551,1378.971896
404.693185,1036.288319,-5625.565159,2068.457845
404.693506,3775.050304,-7254.018232,1149.143247
404.693828,5551.544565,-9030.512492,1149.143247
404.694150,6883.915261,-9252.574275,2911.162892
404.694472,7179.997637,-7402.059420,1685.410096
404.694794,5995.668130,-6883.915261,-1838.629195
404.695115,3182.885551,-7179.997637,-4366.744339
404.695437,-1036.288319,-8216.285956,-5822.325785
404.695759,-5033.400406,-9326.594869,-6894.859482
404.696081,-6291.750507,-13175.665768,-5592.497135
404.696403,-6809.894666,-15840.407159,-4673.182538
404.696724,-6513.812290,-15544.324782,-3983.696590
404.697046,-5773.606348,-13767.830521,-2374.896044
404.697368,-5033.400406,-11991.336260,-766.095498
404.697690,-4737.318029,-9918.759623,0.000000
404.698012,-4885.359217,-6587.832884,0.000000
404.698333,-3256.906145,-4219.173869,229.828649
404.698655,370.102971,-2516.700203,76.609550
404.698977,4885.359217,-2146.597232,0.000000
404.699299,8660.409521,-2960.823768,0.000000
404.699621,10362.883188,-5477.523971,1149.143247
404.699943,10510.924376,-9178.553681,306.438199
404.700264,7994.224174,-10955.047942,-1225.752797
404.700586,4589.276840,-11621.233289,-3524.039291
404.700908,1036.288319,-11991.336260,-5669.106685
404.701230,-1406.391290,-11547.212695,-7354.516781
404.701552,-3478.967927,-11103.089130,-7201.297681
404.701873,-4589.276840,-11991.336260,-7124.688131
404.702195,-5033.400406,-14508.036463,-5209.449386
404.702517,-6069.688724,-15470.304188,-2451.505594
404.702839,-7328.038826,-13841.851115,-1149.143247
404.703161,-7846.182985,-11547.212695,-306.438199
404.703482,-6365.771101,-9844.739029,0.000000
404.703804,-4663.297435,-7254.018232,-153.219100
404.704126,-2516.700203,-3923.091493,229.828649
404.704448,666.185348,-1850.514855,1072.533697
404.704770,4663.297435,-3701.029710,2068.457845
404.705091,6809.894666,-7328.038826,2145.067394
404.705413,5921.647536,-9178.553681,1608.800546
404.705735,4885.359217,-8734.430116,-306.438199
404.706057,4515.256246,-8586.388927,-3447.429741
404.706379,3182.885551,-10362.883188,-5975.544884
404.706700,0.000000,-10658.965565,-6128.763984
404.707022,-3330.926739,-11251.130318,-5439.278036
404.707344,-5329.482782,-14730.098246,-4826.401637
404.707666,-5551.544565,-18357.107362,-3064.381992
404.707988,-6069.688724,-16580.613101,-1915.238745
404.708309,-6661.853478,-11991.336260,-1608.800546
404.708631,-4589.276840,-9326.594869,306.438199
404.708953,-1924.535449,-6809.894666,1455.581446
404.709275,0.000000,-4219.173869,1685.410096
404.709597,1110.308913,-2294.638420,2834.553343
404.709919,2590.720797,-2886.803174,4366.744339
404.710240,4589.276840,-5255.462188,3140.991542
404.710562,6439.791695,-8290.306550,1915.238745
404.710884,6513.812290,-9030.512492,1532.190996
404.711206,6735.874072,-8142.265362,766.095498
404.711528,5551.544565,-7328.038826,-1685.410096
404.711849,3404.947333,-7846.182985,-3370.820191
404.712171,-592.164754,-8364.327145,-4673.182538
404.712493,-3997.112087,-9992.780217,-6588.421283
404.712815,-6217.729913,-14211.954086,-7201.297681
404.713137,-7328.038826,-18209.066173,-5056.230287
404.713458,-8586.388927,-18949.272115,-2681.334243
404.713780,-9030.512492,-15322.262999,-1378.971896
404.714102,-7328.038826,-11843.295072,0.000000
404.714424,-5773.606348,-8882.471304,-306.438199
404.714746,-4219.173869,-4737.318029,-536.266849
404.715067,-2442.679609,-1702.473667,229.828649
404.715389,0.000000,-2664.741391,1378.971896
404.715711,4219.173869,-4515.256246,2987.772442
404.716033,7254.018232,-6291.750507,2221.676944
404.716355,8290.306550,-8660.409521,1608.800546
404.716676,8142.265362,-8586.388927,1685.410096
404.716998,6809.894666,-7920.203579,-1072.533697
404.717320,4737.318029,-7994.224174,-5209.449386
404.717642,2516.700203,-9178.553681,-6435.202183
404.717964,-740.205942,-10658.965565,-6665.030833
404.718285,-4219.173869,-13175.665768,-5592.497135
404.718607,-6883.915261,-17987.004391,-4366.744339
404.718929,-7920.203579,-19245.354492,-2911.162892
404.719251,-7402.059420,-15692.365970,-3753.867940
404.719573,-5921.647536,-11695.253884,-3447.429741
404.719895,-4737.318029,-9400.615463,-842.705048
404.720216,-4145.153275,-6217.729913,919.314598
404.720538,-2516.700203,-3404.947333,2068.457845
404.720860,-592.164754,-2590.720797,1455.581446
404.721182,1554.432478,-3627.009116,1378.971896
404.721504,4367.215058,-5107.421000,1455.581446
404.721825,5477.523971,-7179.997637,1532.190996
404.722147,6439.791695,-8808.450710,1225.752797
404.722469,5995.668130,-8142.265362,1072.533697
404.722791,4737.318029,-7476.080014,-2374.896044
404.723113,3034.844362,-8956.491898,-5592.497135
404.723434,-148.041188,-9770.718434,-6665.030833
404.723756,-3552.988522,-11621.233289,-6971.469032
404.724078,-5403.503377,-16136.489536,-5898.935335
404.724400,-5921.647536,-19319.375086,-3447.429741
404.724722,-5773.606348,-17690.922014,-1762.019645
404.725043,-4737.318029,-12435.459826,-1302.362347
404.725365,-3404.947333,-8512.368333,-766.095498
404.725687,-2072.576638,-6291.750507,229.828649
404.726009,-1480.411884,-4367.215058,1608.800546
404.726331,-518.144159,-3330.926739,3140.991542
404.726652,1332.370696,-3108.864956,3830.477490
404.726974,4589.276840,-3627.009116,2681.334243
404.727296,6809.894666,-7031.956449,1532.190996
404.727618,5773.606348,-8290.306550,1838.629195
404.727940,4441.235652,-7550.100608,1455.581446
404.728261,3108.864956,-7402.059420,-2068.457845
404.728583,2072.576638,-8956.491898,-5592.497135
404.728905,-666.185348,-9474.636058,-6818.249932
404.729227,-4071.132681,-10807.006753,-7584.345430
404.729549,-6143.709319,-14952.160028,-7124.688131
404.729871,-7254.018232,-18727.210333,-5439.278036
404.730192,-7105.977043,-18875.251521,-3983.696590
404.730514,-6883.915261,-14508.036463,-3064.381992
404.730836,-5699.585753,-11695.253884,-1915.238745
404.731158,-4663.297435,-9252.574275,-766.095498
404.731480,-2812.782580,-6513.812290,229.828649
404.731801,-296.082377,-3478.967927,689.485948
404.732123,2886.803174,-3108.864956,612.876398
404.732445,5551.544565,-4515.256246,1378.971896
404.732767,7105.977043,-6735.874072,3524.039291
404.733089,6217.729913,-7994.224174,3447.429741
404.733410,4811.338623,-7920.203579,2298.286494
404.733732,3256.906145,-7402.059420,-1072.533697
404.734054,2368.659014,-7624.121203,-5209.449386
404.734376,1332.370696,-9178.553681,-7660.954980
404.734698,-1998.556043,-9696.697840,-7048.078582
404.735019,-4515.256246,-12435.459826,-5439.278036
404.735341,-6217.729913,-16580.613101,-4443.353888
404.735663,-6809.894666,-18505.148550,-3753.867940
404.735985,-6883.915261,-15766.386565,-4366.744339
404.736307,-6587.832884,-11843.295072,-4366.744339
404.736628,-5625.565159,-9252.574275,-2068.457845
404.736950,-4515.256246,-6291.750507,842.705048
404.737272,-2664.741391,-3627.009116,2374.896044
404.737594,222.061783,-2516.700203,2374.896044
404.737916,3182.885551,-3997.112087,2145.067394
404.738237,4663.297435,-6069.688724,3294.210641
404.738559,5699.585753,-6513.812290,3830.477490
404.738881,6661.853478,-6291.750507,2451.505594
404.739203,7328.038826,-5625.565159,306.438199
404.739525,7105.977043,-5477.523971,-2757.943793
404.739847,5181.441594,-8216.285956,-5669.106685
404.740168,2294.638420,-10584.944971,-6281.983084
404.740490,-962.267725,-13323.706956,-4826.401637
404.740812,-3478.967927,-17098.757260,-4213.525239
404.741134,-4293.194464,-19689.478057,-3447.429741
404.741456,-5329.482782,-17912.983796,-3064.381992
404.741777,-5181.441594,-13249.686362,-3830.477490
404.742099,-4515.256246,-9474.636058,-2757.943793
404.742421,-3108.864956,-6587.832884,153.219100
404.742743,-2442.679609,-4441.235652,2145.067394
404.743065,-1184.329507,-3849.070898,1991.848295
404.743386,370.102971,-4219.173869,2451.505594
404.743708,2812.782580,-6291.750507,1915.238745
404.744030,3997.112087,-8660.409521,1915.238745
404.744352,3330.926739,-8660.409521,3064.381992
404.744674,2738.761985,-6809.894666,2834.553343
404.744995,2812.782580,-6883.915261,-1608.800546
404.745317,2368.659014,-8364.327145,-5056.230287
404.745639,-370.102971,-9326.594869,-6971.469032
404.745961,-3256.906145,-11695.253884,-7048.078582
404.746283,-6069.688724,-16284.530724,-4749.792088
404.746604,-6957.935855,-20577.725188,-2987.772442
404.746926,-7698.141797,-19097.313304,-2911.162892
404.747248,-7105.977043,-13545.768739,-3447.429741
404.747570,-5403.503377,-9474.636058,-2681.334243
404.747892,-3997.112087,-5551.544565,-1302.362347
404.748213,-1998.556043,-2738.761985,612.876398
404.748535,-222.061783,-1998.556043,2528.115143
404.748857,2220.617826,-4293.194464,2834.553343
404.749179,3923.091493,-6883.915261,2604.724693
404.749501,5107.421000,-8512.368333,3294.210641
404.749823,5033.400406,-8586.388927,4060.306139
404.750144,4885.359217,-7698.141797,2451.505594
404.750466,4737.318029,-6365.771101,-766.095498
404.750788,4367.215058,-6291.750507,-4903.011187
404.751110,2368.659014,-6143.709319,-6971.469032
404.751432,0.000000,-8068.244768,-6511.811733
404.751753,-2072.576638,-13101.645173,-6052.154434
404.752075,-4071.132681,-18431.127956,-4519.963438
404.752397,-6217.729913,-19911.539840,-4060.306139
404.752719,-6883.915261,-16950.716072,-3600.648841
404.753041,-5921.647536,-13323.706956,-3064.381992
404.753362,-4145.153275,-9474.636058,-2834.553343
404.753684,-3108.864956,-6291.750507,-1532.190996
404.754006,-2072.576638,-3256.906145,689.485948
404.754328,888.247130,-2738.761985,2068.457845
404.754650,3923.091493,-3775.050304,1685.410096
404.754971,5847.626942,-5921.647536,1685.410096
404.755293,5995.668130,-6957.935855,1915.238745
404.755615,5921.647536,-7846.182985,1455.581446
404.755937,4959.379811,-7772.162391,0.000000
404.756259,3404.947333,-7624.121203,-2757.943793
404.756580,1184.329507,-9030.512492,-6358.592633
404.756902,-1258.350101,-10658.965565,-6818.249932
404.757224,-3701.029710,-13323.706956,-6052.154434
404.757546,-5403.503377,-15396.283594,-5745.716235
404.757868,-5699.585753,-17098.757260,-4903.011187
404.758190,-5181.441594,-15692.365970,-4519.963438
404.758511,-4219.173869,-11917.315666,-4519.963438
404.758833,-4293.194464,-9622.677246,-3064.381992
404.759155,-3701.029710,-8438.347739,0.000000
404.759477,-3404.947333,-6587.832884,1149.143247
404.759799,-1480.411884,-5181.441594,1685.410096
404.760120,2368.659014,-4959.379811,2145.067394
404.760442,5625.565159,-4959.379811,842.705048
404.760764,7698.141797,-5403.503377,1225.752797
404.761086,7920.203579,-6661.853478,2528.115143
404.761408,6217.729913,-6957.935855,3217.601092
404.761729,3775.050304,-7031.956449,-689.485948
404.762051,1406.391290,-9696.697840,-4903.011187
404.762373,-740.205942,-11029.068536,-7277.907231
404.762695,-3182.885551,-12139.377449,-6818.249932
404.763017,-5255.462188,-14211.954086,-5132.839837
404.763338,-5921.647536,-17468.860231,-2834.553343
404.763660,-6809.894666,-16358.551318,-1455.581446
404.763982,-6513.812290,-12805.562797,-1915.238745
404.764304,-6143.709319,-9548.656652,-2374.896044
404.764626,-4737.318029,-7698.141797,-1915.238745
404.764948,-3404.947333,-5255.462188,-842.705048
404.765269,-1554.432478,-3182.885551,919.314598
404.765591,1480.411884,-3552.988522,2604.724693
404.765913,4885.359217,-5255.462188,2451.505594
404.766235,6513.812290,-8438.347739,2145.067394
404.766557,5255.462188,-9030.512492,2528.115143
404.766878,3849.070898,-7846.182985,2528.115143
404.767200,3256.906145,-7624.121203,-383.047749
404.767522,2960.823768,-9326.594869,-3370.820191
404.767844,740.205942,-8586.388927,-4290.134789
404.768166,-1332.370696,-8660.409521,-5286.058936
404.768488,-2442.679609,-12139.377449,-4826.401637
404.768809,-2960.823768,-16580.613101,-2757.943793
404.769131,-3997.112087,-16802.674883,-3217.601092
404.769453,-4515.256246,-13619.789333,-3370.820191
404.769775,-4293.194464,-11547.212695,-2221.676944
404.770097,-3552.988522,-9992.780217,-1455.581446
404.770419,-3034.844362,-7624.121203,-1225.752797
404.770740,-2368.659014,-4219.173869,-612.876398
404.771062,666.185348,-4589.276840,536.266849
404.771384,3478.967927,-6587.832884,1072.533697
404.771706,4737.318029,-7698.141797,842.705048
404.772028,4367.215058,-7994.224174,689.485948
404.772349,3997.112087,-8808.450710,229.828649
404.772671,2368.659014,-9474.636058,-1149.143247
404.772993,740.205942,-9178.553681,-3600.648841
404.773315,-1036.288319,-9178.553681,-6818.249932
404.773637,-2516.700203,-9992.780217,-7277.907231
404.773959,-3552.988522,-12731.542202,-5362.668486
404.774280,-3923.091493,-15174.221811,-3983.696590
404.774602,-4811.338623,-15692.365970,-3294.210641
404.774924,-4589.276840,-14211.954086,-2834.553343
404.775246,-4071.132681,-12213.398043,-2451.505594
404.775568,-3478.967927,-9548.656652,-1762.019645
404.775889,-2664.741391,-7031.956449,-689.485948
404.776211,-518.144159,-4737.318029,229.828649
404.776533,2812.782580,-4219.173869,766.095498
404.776855,5773.606348,-5107.421000,1378.971896
404.777177,6957.935855,-6735.874072,2451.505594
404.777499,6587.832884,-7698.141797,3600.648841
404.777820,5255.462188,-8068.244768,2451.505594
404.778142,2886.803174,-7179.997637,536.266849
404.778464,962.267725,-6661.853478,-2068.457845
404.778786,-888.247130,-7846.182985,-4519.963438
404.779108,-2738.761985,-8512.368333,-5515.887586
404.779430,-4885.359217,-10955.047942,-4749.792088
404.779751,-5699.585753,-14434.015869,-3447.429741
404.780073,-5625.565159,-16802.674883,-2374.896044
404.780395,-5921.647536,-15544.324782,-2298.286494
404.780717,-5773.606348,-11843.295072,-2451.505594
404.781039,-4885.359217,-8142.265362,-2068.457845
404.781360,-3330.926739,-5403.503377,-995.924147
404.781682,-1776.494261,-3923.091493,-689.485948
404.782004,518.144159,-4367.215058,0.000000
404.782326,2590.720797,-6217.729913,2221.676944
404.782648,4811.338623,-7846.182985,3294.210641
404.782970,7105.977043,-8808.450710,2451.505594
404.783291,8216.285956,-8956.491898,0.000000
404.783613,7772.162391,-8808.450710,-459.657299
404.783935,5773.606348,-8068.244768,-842.705048
404.784257,2516.700203,-8956.491898,-2604.724693
404.784579,-740.205942,-9992.780217,-4290.134789
404.784900,-3478.967927,-12065.356855,-4979.620737
404.785222,-5625.565159,-15248.242405,-4903.011187
404.785544,-6143.709319,-16654.633695,-3217.601092
404.785866,-5699.585753,-14804.118840,-2604.724693
404.786188,-3923.091493,-10807.006753,-2451.505594
404.786510,-2738.761985,-8438.347739,-2604.724693
404.786831,-2960.823768,-6957.935855,-1532.190996
404.787153,-3404.947333,-6069.688724,0.000000
404.787475,-2664.741391,-6291.750507,0.000000
404.787797,0.000000,-7105.977043,-459.657299
404.788119,3034.844362,-7920.203579,-612.876398
404.788441,5107.421000,-8808.450710,919.314598
404.788762,5773.606348,-8586.388927,1838.629195
404.789084,5107.421000,-8142.265362,1302.362347
404.789406,3404.947333,-7846.182985,-919.314598
404.789728,740.205942,-8142.265362,-3064.381992
404.790050,-2294.638420,-8808.450710,-5669.106685
404.790371,-4219.173869,-10214.842000,-6128.763984
404.790693,-4663.297435,-13471.748144,-4443.353888
404.791015,-4663.297435,-14878.139434,-2834.553343
404.791337,-4515.256246,-13915.871710,-1762.019645
404.791659,-3923.091493,-12213.398043,-1072.533697
404.791981,-3330.926739,-10584.944971,-1608.800546
404.792302,-3404.947333,-8438.347739,-2374.896044
404.792624,-2960.823768,-6365.771101,-1685.410096
404.792946,-1036.288319,-4515.256246,-459.657299
404.793268,2812.782580,-5255.462188,153.219100
404.793590,6365.771101,-6365.771101,0.000000
404.793911,7698.141797,-8956.491898,919.314598
404.794233,7031.956449,-9104.533087,2374.896044
404.794555,5921.647536,-8438.347739,1455.581446
404.794877,3923.091493,-8290.306550,-995.924147
404.795199,2072.576638,-9030.512492,-3830.477490
404.795521,-1406.391290,-7994.224174,-4903.011187
404.795842,-3997.112087,-8586.388927,-5669.106685
404.796164,-4811.338623,-10955.047942,-4290.134789
404.796486,-4811.338623,-13545.768739,-3217.601092
404.796808,-5181.441594,-14582.057057,-2911.162892
404.797130,-5773.606348,-14211.954086,-2681.334243
404.797452,-5181.441594,-13027.624579,-1532.190996
404.797773,-4441.235652,-9844.739029,-1302.362347
404.798095,-3701.029710,-7105.977043,-995.924147
404.798417,-2886.803174,-4219.173869,-766.095498
404.798739,296.082377,-4219.173869,0.000000
404.799061,3552.988522,-5773.606348,229.828649
404.799382,5773.606348,-7624.121203,1149.143247
404.799704,6809.894666,-8882.471304,2145.067394
404.800026,7105.977043,-9770.718434,1225.752797
404.800348,6217.729913,-9844.739029,0.000000
404.800670,3997.112087,-9326.594869,-1685.410096
404.800992,518.144159,-8882.471304,-2987.772442
404.801313,-2442.679609,-9178.553681,-4290.134789
404.801635,-4589.276840,-11251.130318,-4673.182538
404.801957,-5995.668130,-13471.748144,-3753.867940
404.802279,-6587.832884,-15174.221811,-1991.848295
404.802601,-6513.812290,-14211.954086,-153.219100
404.802922,-4959.379811,-11325.150913,-612.876398
404.803244,-4293.194464,-8882.471304,-1608.800546
404.803566,-3330.926739,-7328.038826,-612.876398
404.803888,-2368.659014,-5921.647536,2068.457845
404.804210,-1110.308913,-4737.318029,1762.019645
404.804532,2294.638420,-4293.194464,536.266849
404.804853,5921.647536,-6809.894666,153.219100
404.805175,7698.141797,-9178.553681,689.485948
404.805497,7846.182985,-9400.615463,842.705048
404.805819,5847.626942,-9326.594869,1072.533697
404.806141,3552.988522,-9844.739029,76.609550
404.806463,370.102971,-10214.842000,-1608.800546
404.806784,-3330.926739,-8882.471304,-4903.011187
404.807106,-4885.359217,-9104.533087,-6358.592633
404.807428,-4959.379811,-11917.315666,-4979.620737
404.807750,-4367.215058,-13693.809927,-3064.381992
404.808072,-4737.318029,-13323.706956,-1608.800546
404.808393,-4885.359217,-12657.521608,459.657299
404.808715,-4737.318029,-11325.150913,1378.971896
404.809037,-4441.235652,-9030.512492,-842.705048
404.809359,-3330.926739,-6069.688724,-1532.190996
404.809681,-888.247130,-3552.988522,-1838.629195
404.810003,2812.782580,-3775.050304,-842.705048
404.810324,6809.894666,-5551.544565,919.314598
404.810646,9252.574275,-8142.265362,2374.896044
404.810968,9178.553681,-10066.800811,1072.533697
404.811290,8142.265362,-10732.986159,-919.314598
404.811612,5181.441594,-9918.759623,-2834.553343
404.811933,1850.514855,-9400.615463,-3983.696590
404.812255,-1554.432478,-8216.285956,-5209.449386
404.812577,-4071.132681,-8660.409521,-7277.907231
404.812899,-5699.585753,-11769.274478,-6971.469032
404.813221,-7105.977043,-15914.427753,-3907.087040
404.813543,-8734.430116,-17468.860231,-612.876398
404.813864,-8808.450710,-14656.077652,-919.314598
404.814186,-6661.853478,-11473.192101,-2145.067394
404.814508,-3775.050304,-8142.265362,-2451.505594
404.814830,-2368.659014,-5255.462188,-842.705048
404.815152,-888.247130,-2886.803174,612.876398
404.815474,1480.411884,-2664.741391,1225.752797
404.815795,5329.482782,-3923.091493,1532.190996
404.816117,7846.182985,-7772.162391,459.657299
404.816439,8068.244768,-10140.821405,-995.924147
404.816761,7328.038826,-10658.965565,-919.314598
404.817083,6143.709319,-10288.862594,-459.657299
404.817404,3478.967927,-10288.862594,-1378.971896
404.817726,296.082377,-9696.697840,-2604.724693
404.818048,-3256.906145,-7994.224174,-5515.887586
404.818370,-5551.544565,-10140.821405,-7201.297681
404.818692,-5699.585753,-14063.912898,-4979.620737
404.819014,-5403.503377,-15544.324782,-1762.019645
404.819335,-5107.421000,-13397.727550,459.657299
404.819657,-4959.379811,-11399.171507,1378.971896
404.819979,-4515.256246,-10066.800811,2298.286494
404.820301,-4219.173869,-7550.100608,1838.629195
404.820623,-2960.823768,-3627.009116,-153.219100
404.820944,222.061783,-1628.453072,-536.266849
404.821266,4737.318029,-2664.741391,0.000000
404.821588,7328.038826,-5921.647536,2451.505594
404.821910,7105.977043,-8734.430116,2987.772442
404.822232,6661.853478,-10288.862594,766.095498
404.822554,6217.729913,-11621.233289,-1838.629195
404.822875,4441.235652,-11917.315666,-3907.087040
404.823197,-444.123565,-10658.965565,-4366.744339
404.823519,-3923.091493,-10436.903782,-4136.915689
404.823841,-4811.338623,-11621.233289,-4290.134789
404.824163,-4811.338623,-13027.624579,-4443.353888
404.824484,-4959.379811,-14285.974681,-3217.601092
404.824806,-5921.647536,-13471.748144,0.000000
404.825128,-6291.750507,-12361.439231,1532.190996
404.825450,-5625.565159,-9844.739029,689.485948
404.825772,-3627.009116,-7476.080014,229.828649
404.826094,-1110.308913,-4145.153275,229.828649
404.826415,1036.288319,-2072.576638,153.219100
404.826737,3478.967927,-3997.112087,306.438199
404.827059,5255.462188,-7328.038826,1378.971896
404.827381,6217.729913,-9992.780217,1762.019645
404.827703,6513.812290,-10436.903782,0.000000
404.828025,5255.462188,-10140.821405,-2451.505594
404.828346,3182.885551,-9622.677246,-3064.381992
404.828668,0.000000,-9770.718434,-3753.867940
404.828990,-3108.864956,-10362.883188,-5515.887586
404.829312,-5033.400406,-11103.089130,-5975.544884
404.829634,-5699.585753,-12583.501014,-4519.963438
404.829955,-6291.750507,-13249.686362,-2834.553343
404.830277,-5847.626942,-12953.603985,-1991.848295
404.830599,-4811.338623,-11399.171507,-1455.581446
404.830921,-4663.297435,-10658.965565,-153.219100
404.831243,-4737.318029,-8808.450710,1455.581446
404.831565,-4145.153275,-6957.935855,1532.190996
404.831886,-2590.720797,-4811.338623,153.219100
404.832208,1628.453072,-4663.297435,-153.219100
404.832530,5921.647536,-4737.318029,229.828649
404.832852,9252.574275,-5255.462188,306.438199
404.833174,10510.924376,-7254.018232,689.485948
404.833495,9696.697840,-9622.677246,0.000000
404.833817,6069.688724,-9622.677246,-2298.286494
404.834139,2442.679609,-10140.821405,-3677.258390
404.834461,-1036.288319,-10881.027347,-5362.668486
404.834783,-3404.947333,-11029.068536,-7277.907231
404.835105,-5329.482782,-11695.253884,-6665.030833
404.835426,-5625.565159,-14063.912898,-4213.525239
404.835748,-4737.318029,-15618.345376,-1378.971896
404.836070,-4663.297435,-13989.892304,-612.876398
404.836392,-4885.359217,-11177.109724,-229.828649
404.836714,-4737.318029,-8364.327145,229.828649
404.837036,-3182.885551,-5921.647536,76.609550
404.837357,-1702.473667,-3849.070898,-536.266849
404.837679,740.205942,-3256.906145,0.000000
404.838001,3552.988522,-4515.256246,1072.533697
404.838323,5625.565159,-7920.203579,2604.724693
404.838645,6143.709319,-9992.780217,2374.896044
404.838966,5921.647536,-9696.697840,459.657299
404.839288,5773.606348,-8586.388927,-3600.648841
404.839610,5625.565159,-8586.388927,-5592.497135
404.839932,3627.009116,-9474.636058,-5822.325785
404.840254,296.082377,-9622.677246,-6205.373534
404.840576,-2590.720797,-13471.748144,-5209.449386
404.840897,-4737.318029,-17394.839637,-2987.772442
404.841219,-7105.977043,-18875.251521,-1685.410096
404.841541,-8438.347739,-15470.304188,-612.876398
404.841863,-6883.915261,-11251.130318,-306.438199
404.842185,-4885.359217,-7550.100608,-459.657299
404.842506,-2442.679609,-4515.256246,1149.143247
404.842828,-1258.350101,-2368.659014,2757.943793
404.843150,740.205942,-2812.782580,3217.601092
404.843472,3182.885551,-4737.318029,2374.896044
404.843794,4811.338623,-8216.285956,1838.629195
404.844116,4071.132681,-8734.430116,1378.971896
404.844437,4145.153275,-8512.368333,-306.438199
404.844759,3923.091493,-8882.471304,-2987.772442
404.845081,2442.679609,-9474.636058,-4213.525239
404.845403,-1480.411884,-9252.574275,-4519.963438
404.845725,-4737.318029,-9992.780217,-5132.839837
404.846047,-5921.647536,-12805.562797,-5745.716235
404.846368,-6217.729913,-15618.345376,-5898.935335
404.846690,-6217.729913,-15766.386565,-4596.572988
404.847012,-5329.482782,-13397.727550,-1532.190996
404.847334,-4441.235652,-11473.192101,229.828649
404.847656,-3849.070898,-9400.615463,689.485948
404.847977,-3923.091493,-6069.688724,1762.019645
404.848299,-3404.947333,-3923.091493,1838.629195
404.848621,-666.185348,-3552.988522,995.924147
404.848943,3775.050304,-4441.235652,689.485948
404.849265,6809.894666,-5403.503377,1532.190996
404.849587,8586.388927,-7179.997637,3217.601092
404.849908,8882.471304,-7994.224174,2757.943793
404.850230,8586.388927,-8956.491898,-919.314598
404.850552,6809.894666,-8808.450710,-4749.792088
404.850874,4071.132681,-9400.615463,-6052.154434
404.851196,148.041188,-9622.677246,-6358.592633
404.851517,-2294.638420,-12139.377449,-5439.278036
404.851839,-3923.091493,-15026.180623,-4749.792088
404.852161,-5329.482782,-16136.489536,-4673.182538
404.852483,-6365.771101,-15322.262999,-3753.867940
404.852805,-5773.606348,-12657.521608,-2221.676944
404.853127,-5107.421000,-10436.903782,-1608.800546
404.853448,-4737.318029,-8586.388927,-689.485948
404.853770,-4219.173869,-6513.812290,1072.533697
404.854092,-2442.679609,-4811.338623,1838.629195
404.854414,74.020594,-5329.482782,1532.190996
404.854736,2812.782580,-5921.647536,1149.143247
404.855058,4811.338623,-6513.812290,1608.800546
404.855379,5847.626942,-6809.894666,689.485948
404.855701,6661.853478,-7920.203579,-229.828649
404.856023,6069.688724,-8956.491898,-2451.505594
404.856345,3997.112087,-10436.903782,-4903.011187
404.856667,592.164754,-11843.295072,-5515.887586
404.856988,-2516.700203,-13027.624579,-5286.058936
404.857310,-4663.297435,-15100.201217,-4979.620737
404.857632,-5329.482782,-15618.345376,-4979.620737
404.857954,-5699.585753,-14063.912898,-3370.820191
404.858276,-5403.503377,-11843.295072,-1991.848295
404.858598,-5181.441594,-10436.903782,0.000000
404.858919,-5551.544565,-8364.327145,1378.971896
404.859241,-4885.359217,-6365.771101,2451.505594
404.859563,-2960.823768,-4663.297435,2451.505594
404.859885,740.205942,-3627.009116,2145.067394
404.860207,4071.132681,-3256.906145,1685.410096
404.860528,7031.956449,-4811.338623,2528.115143
404.860850,7846.182985,-6883.915261,4596.572988
404.861172,7105.977043,-7105.977043,2987.772442
404.861494,5033.400406,-7698.141797,-995.924147
404.861816,3478.967927,-9252.574275,-4136.915689
404.862138,962.267725,-9252.574275,-5515.887586
404.862459,-1850.514855,-9770.718434,-6205.373534
404.862781,-3701.029710,-13471.748144,-4673.182538
404.863103,-4145.153275,-16876.695478,-2604.724693
404.863425,-4441.235652,-16654.633695,-2374.896044
404.863747,-5107.421000,-13619.789333,-2451.505594
404.864069,-4737.318029,-11695.253884,-1302.362347
404.864391,-4663.297435,-9622.677246,0.000000
404.864713,-4293.194464,-6957.935855,1532.190996
404.865034,-3552.988522,-3552.988522,2528.115143
404.865356,-518.144159,-2442.679609,1991.848295
404.865678,2442.679609,-4145.153275,1072.533697
404.866000,3849.070898,-7031.956449,1225.752797
404.866322,3478.967927,-8660.409521,2374.896044
404.866644,3478.967927,-8438.347739,1838.629195
404.866966,4737.318029,-8808.450710,-1532.190996
404.867288,5033.400406,-9400.615463,-6128.763984
404.867609,3108.864956,-9992.780217,-7124.688131
404.867931,296.082377,-10362.883188,-6741.640382
404.868253,-2294.638420,-13101.645173,-5745.716235
404.868575,-3627.009116,-16580.613101,-5209.449386
404.868897,-4663.297435,-16802.674883,-4443.353888
404.869219,-5699.585753,-14508.036463,-3983.696590
404.869541,-5033.400406,-11843.295072,-2757.943793
404.869863,-3478.967927,-10288.862594,-1915.238745
404.870184,-2590.720797,-7698.141797,-612.876398
404.870506,-1998.556043,-5847.626942,1225.752797
404.870828,0.000000,-5477.523971,2221.676944
404.871150,2442.679609,-6513.812290,1685.410096
404.871472,5033.400406,-6661.853478,612.876398
404.871794,6291.750507,-6883.915261,842.705048
404.872116,6365.771101,-6809.894666,536.266849
404.872438,5477.523971,-7402.059420,0.000000
404.872760,3552.988522,-8438.347739,-2681.334243
404.873081,666.185348,-9918.759623,-5975.544884
404.873403,-1776.494261,-11177.109724,-6971.469032
404.873725,-4071.132681,-12287.418637,-6665.030833
404.874047,-5255.462188,-14508.036463,-5822.325785
404.874369,-5403.503377,-15692.365970,-4519.963438
404.874691,-5477.523971,-14359.995275,-3064.381992
404.875013,-5107.421000,-10732.986159,-1838.629195
404.875335,-4885.359217,-8882.471304,-995.924147
404.875656,-4885.359217,-7105.977043,153.219100
404.875978,-4885.359217,-5921.647536,1455.581446
404.876300,-3404.947333,-4811.338623,2145.067394
404.876622,0.000000,-4515.256246,2604.724693
404.876944,3256.906145,-4219.173869,2681.334243
404.877266,5847.626942,-5329.482782,3064.381992
