#time,accel_x,accel_y,accel_z
200.437870,4293.194464,-7550.100608,1302.362347
200.438192,3182.885551,-7624.121203,2221.676944
200.438514,1554.432478,-8512.368333,1302.362347
200.438837,0.000000,-9400.615463,-536.266849
200.439159,-1184.329507,-10140.821405,-1915.238745
200.439481,-2368.659014,-10288.862594,-2528.115143
200.439804,-3627.009116,-11103.089130,-2987.772442
200.440126,-3701.029710,-11547.212695,-3140.991542
200.440448,-2368.659014,-11695.253884,-2757.943793
200.440771,-592.164754,-11399.171507,-1532.190996
200.441093,-296.082377,-11325.150913,-919.314598
200.441415,-148.041188,-9622.677246,-1532.190996
200.441738,-370.102971,-7624.121203,-2221.676944
200.442060,-666.185348,-7476.080014,-2068.457845
200.442382,-888.247130,-7846.182985,-1302.362347
200.442705,-1924.535449,-7624.121203,-995.924147
200.443027,-2146.597232,-7105.977043,-1225.752797
200.443349,-740.205942,-8290.306550,-1762.019645
200.443672,1998.556043,-10510.924376,-1915.238745
200.443994,3404.947333,-11251.130318,-1072.533697
200.444316,3182.885551,-10288.862594,-229.828649
200.444638,2886.803174,-9548.656652,-1072.533697
200.444961,3108.864956,-9252.574275,-3064.381992
200.445283,2738.761985,-8956.491898,-4213.525239
200.445605,1406.391290,-9252.574275,-2757.943793
200.445928,370.102971,-10658.965565,-2221.676944
200.446250,-518.144159,-10436.903782,-2374.896044
200.446572,0.000000,-10214.842000,-2374.896044
200.446895,0.000000,-11621.233289,-2528.115143
200.447217,0.000000,-11843.295072,-2221.676944
200.447539,-1110.308913,-8882.471304,-1762.019645
200.447862,-1406.391290,-6661.853478,-2604.724693
200.448184,-814.226536,-6735.874072,-2987.772442
200.448506,-592.164754,-7402.059420,-2145.067394
200.448829,-1258.350101,-7476.080014,-1378.971896
200.449151,-888.247130,-7476.080014,-1991.848295
200.449473,1554.432478,-9252.574275,-3600.648841
200.449796,3330.926739,-10510.924376,-2604.724693
200.450118,3997.112087,-10881.027347,-1608.800546
200.450440,3552.988522,-10658.965565,-612.876398
200.450762,3552.988522,-10140.821405,0.000000
200.451085,3701.029710,-9400.615463,-1455.581446
200.451407,2812.782580,-9030.512492,-2604.724693
200.451729,1554.432478,-9474.636058,-2374.896044
200.452052,814.226536,-9474.636058,-1302.362347
200.452374,1554.432478,-9326.594869,-995.924147
200.452696,2072.576638,-9400.615463,-1378.971896
200.453019,2960.823768,-9548.656652,-842.705048
200.453341,2220.617826,-8438.347739,-689.485948
200.453663,1702.473667,-8290.306550,-1072.533697
200.453986,740.205942,-8068.244768,-1685.410096
200.454308,444.123565,-9030.512492,-1915.238745
200.454630,222.061783,-9104.533087,-1532.190996
200.454953,-444.123565,-10066.800811,-1378.971896
200.455275,0.000000,-9918.759623,-995.924147
200.455597,-296.082377,-10807.006753,-1302.362347
200.455920,0.000000,-10807.006753,-536.266849
200.456242,-1258.350101,-10140.821405,-153.219100
200.456564,-1628.453072,-9474.636058,-1149.143247
200.456886,-2368.659014,-9400.615463,-1608.800546
200.457209,-2368.659014,-9178.553681,-1455.581446
200.457531,-2368.659014,-9104.533087,-1532.190996
200.457853,-1702.473667,-9548.656652,-1225.752797
200.458176,-1184.329507,-9770.718434,-229.828649
200.458498,-296.082377,-10288.862594,306.438199
200.458820,148.041188,-9992.780217,383.047749
200.459143,222.061783,-9474.636058,-153.219100
200.459465,370.102971,-8734.430116,-842.705048
200.459787,148.041188,-8882.471304,-76.609550
200.460110,-148.041188,-9104.533087,-612.876398
200.460432,-888.247130,-8660.409521,-536.266849
200.460754,-1258.350101,-8734.430116,-689.485948
200.461077,-1480.411884,-9104.533087,-919.314598
200.461399,-1554.432478,-9030.512492,-766.095498
200.461721,-1850.514855,-8882.471304,-995.924147
200.462044,-2590.720797,-8660.409521,-1149.143247
200.462366,-3034.844362,-8438.347739,-1532.190996
200.462688,-3034.844362,-8586.388927,-2145.067394
200.463011,-2664.741391,-8216.285956,-2374.896044
200.463333,-2146.597232,-8364.327145,-2911.162892
200.463655,-1480.411884,-9030.512492,-2374.896044
200.463977,-222.061783,-9622.677246,-2451.505594
200.464300,444.123565,-9918.759623,-2145.067394
200.464622,888.247130,-10140.821405,-1762.019645
200.464944,1110.308913,-9992.780217,-1072.533697
200.465267,1258.350101,-9770.718434,-2068.457845
200.465589,666.185348,-9474.636058,-1991.848295
200.465911,148.041188,-9030.512492,-2068.457845
200.466234,-148.041188,-8734.430116,-1225.752797
200.466556,0.000000,-8512.368333,-1532.190996
200.466878,-148.041188,-8438.347739,-2068.457845
200.467201,-518.144159,-9474.636058,-2145.067394
200.467523,-740.205942,-10066.800811,-1991.848295
200.467845,-592.164754,-10436.903782,-2298.286494
200.468168,-666.185348,-10140.821405,-2451.505594
200.468490,-222.061783,-9770.718434,-2528.115143
200.468812,0.000000,-10140.821405,-3064.381992
200.469135,370.102971,-10288.862594,-2987.772442
200.469457,518.144159,-10288.862594,-2757.943793
200.469779,1036.288319,-10436.903782,-2757.943793
200.470101,1036.288319,-10436.903782,-2604.724693
200.470424,1628.453072,-10214.842000,-2528.115143
200.470746,1332.370696,-9696.697840,-2221.676944
200.471068,1332.370696,-9104.533087,-2221.676944
200.471391,962.267725,-8364.327145,-1838.629195
200.471713,1110.308913,-7179.997637,-1838.629195
200.472035,666.185348,-7254.018232,-1225.752797
200.472358,888.247130,-7698.141797,-1532.190996
200.472680,666.185348,-8068.244768,-1302.362347
200.473002,814.226536,-8364.327145,-1149.143247
200.473325,1036.288319,-9030.512492,-1685.410096
200.473647,1258.350101,-9326.594869,-1302.362347
200.473969,1258.350101,-9770.718434,-1455.581446
200.474292,888.247130,-9918.759623,-1532.190996
200.474614,518.144159,-10066.800811,-1608.800546
200.474936,0.000000,-9918.759623,-1378.971896
200.475259,0.000000,-9696.697840,-1608.800546
200.475581,-444.123565,-9326.594869,-1225.752797
200.475903,-814.226536,-9622.677246,-1532.190996
200.476225,-1406.391290,-9326.594869,-842.705048
200.476548,-1924.535449,-8956.491898,-689.485948
200.476870,-2442.679609,-9030.512492,-612.876398
200.477192,-2960.823768,-9400.615463,-766.095498
200.477515,-3256.906145,-9474.636058,-689.485948
200.477837,-3627.009116,-9474.636058,-459.657299
200.478159,-3256.906145,-9548.656652,-536.266849
200.478482,-2220.617826,-9770.718434,-919.314598
200.478804,-1554.432478,-9326.594869,-1455.581446
200.479126,-962.267725,-9474.636058,-919.314598
200.479449,-814.226536,-9474.636058,-766.095498
200.479771,-518.144159,-9474.636058,-919.314598
200.480093,-592.164754,-9844.739029,-1302.362347
200.480416,-888.247130,-10066.800811,-1762.019645
200.480738,-1554.432478,-9844.739029,-1149.143247
200.481060,-1554.432478,-9622.677246,-1532.190996
200.481383,-1702.473667,-9474.636058,-1302.362347
200.481705,-1480.411884,-9104.533087,-1455.581446
200.482027,-1628.453072,-9326.594869,-1455.581446
200.482350,-1850.514855,-8882.471304,-1302.362347
200.482672,-1628.453072,-9178.553681,-1838.629195
200.482994,-1702.473667,-9030.512492,-1455.581446
200.483316,-1184.329507,-8882.471304,-1838.629195
200.483639,-592.164754,-8586.388927,-1762.019645
200.483961,0.000000,-8882.471304,-2068.457845
200.484283,444.123565,-8882.471304,-1608.800546
200.484606,740.205942,-9992.780217,-1455.581446
200.484928,814.226536,-9696.697840,-1455.581446
200.485250,1036.288319,-9992.780217,-1762.019645
200.485573,888.247130,-9770.718434,-1608.800546
200.485895,888.247130,-9622.677246,-1302.362347
200.486217,148.041188,-9178.553681,-1762.019645
200.486540,-370.102971,-8882.471304,-1608.800546
200.486862,-1258.350101,-8364.327145,-1378.971896
200.487184,-1184.329507,-8808.450710,-1915.238745
200.487507,-962.267725,-8956.491898,-1762.019645
200.487829,-592.164754,-9548.656652,-2145.067394
200.488151,-444.123565,-9548.656652,-1838.629195
200.488474,74.020594,-9474.636058,-1685.410096
200.488796,592.164754,-9622.677246,-1915.238745
200.489118,1110.308913,-9474.636058,-2451.505594
200.489440,814.226536,-9252.574275,-1991.848295
200.489763,1258.350101,-9474.636058,-2451.505594
200.490085,1184.329507,-9474.636058,-2834.553343
200.490407,1332.370696,-9474.636058,-2757.943793
200.490730,1332.370696,-9770.718434,-1838.629195
200.491052,1702.473667,-9696.697840,-2528.115143
200.491374,1332.370696,-9844.739029,-2298.286494
200.491697,1110.308913,-9252.574275,-2298.286494
200.492019,666.185348,-8956.491898,-1991.848295
200.492341,370.102971,-8290.306550,-2145.067394
200.492664,518.144159,-8216.285956,-2451.505594
200.492986,74.020594,-8512.368333,-1915.238745
200.493308,222.061783,-9252.574275,-2068.457845
200.493631,222.061783,-9252.574275,-1608.800546
200.493953,148.041188,-9622.677246,-1762.019645
200.494275,222.061783,-10066.800811,-1915.238745
200.494598,-74.020594,-10140.821405,-1685.410096
200.494920,-370.102971,-9770.718434,-1608.800546
200.495242,-592.164754,-9548.656652,-2068.457845
200.495564,-1184.329507,-9400.615463,-2068.457845
200.495887,-1480.411884,-9474.636058,-1378.971896
200.496209,-2368.659014,-8882.471304,-766.095498
200.496531,-2960.823768,-9104.533087,-1149.143247
200.496854,-3256.906145,-9548.656652,-1149.143247
200.497176,-3478.967927,-9622.677246,-1149.143247
200.497498,-4071.132681,-9326.594869,-689.485948
200.497821,-3701.029710,-8734.430116,-689.485948
200.498143,-2664.741391,-8956.491898,-689.485948
200.498465,-2220.617826,-8734.430116,-919.314598
200.498788,-1480.411884,-8734.430116,-995.924147
200.499110,-814.226536,-8956.491898,-612.876398
200.499432,-666.185348,-8882.471304,-919.314598
200.499755,-444.123565,-9252.574275,-383.047749
200.500077,-148.041188,-9770.718434,-612.876398
200.500399,-148.041188,-9326.594869,-1072.533697
200.500722,-370.102971,-9474.636058,-1302.362347
200.501044,-888.247130,-9030.512492,-536.266849
200.501366,-444.123565,-9178.553681,-995.924147
200.501689,-962.267725,-8882.471304,-536.266849
200.502011,-1184.329507,-9178.553681,-766.095498
200.502333,-1184.329507,-8956.491898,-689.485948
200.502655,-1110.308913,-8882.471304,-919.314598
200.502978,-740.205942,-8068.244768,-1225.752797
200.503300,-444.123565,-8734.430116,-1608.800546
200.503622,-370.102971,-8660.409521,-1302.362347
200.503945,-222.061783,-8956.491898,-1685.410096
200.504267,0.000000,-9326.594869,-2068.457845
200.504589,370.102971,-10140.821405,-2298.286494
200.504912,814.226536,-10140.821405,-2451.505594
200.505234,666.185348,-10510.924376,-2145.067394
200.505556,666.185348,-10066.800811,-2068.457845
200.505879,888.247130,-10140.821405,-1991.848295
200.506201,666.185348,-9696.697840,-2068.457845
200.506523,666.185348,-9178.553681,-2298.286494
200.506846,518.144159,-9104.533087,-2221.676944
200.507168,0.000000,-9252.574275,-2451.505594
200.507490,0.000000,-9474.636058,-2221.676944
200.507813,-74.020594,-9992.780217,-1915.238745
200.508135,0.000000,-9622.677246,-1378.971896
200.508457,0.000000,-9770.718434,-1838.629195
200.508779,296.082377,-9844.739029,-1838.629195
200.509102,740.205942,-9770.718434,-2451.505594
200.509424,740.205942,-9400.615463,-2451.505594
200.509746,1406.391290,-9030.512492,-2451.505594
200.510069,2146.597232,-9474.636058,-2298.286494
200.510391,2516.700203,-9548.656652,-2298.286494
200.510713,2516.700203,-9992.780217,-2298.286494
200.511036,2368.659014,-10140.821405,-1608.800546
200.511358,2072.576638,-9844.739029,-1608.800546
200.511680,2146.597232,-9030.512492,-1532.190996
200.512003,962.267725,-8586.388927,-1915.238745
200.512325,592.164754,-8068.244768,-1302.362347
200.512647,0.000000,-7698.141797,-1225.752797
200.512970,-370.102971,-7476.080014,-1302.362347
200.513292,-444.123565,-7846.182985,-1608.800546
200.513614,-592.164754,-8290.306550,-1532.190996
200.513937,-962.267725,-8956.491898,-1225.752797
200.514259,-1110.308913,-9178.553681,-1072.533697
200.514581,-1332.370696,-9622.677246,-1532.190996
200.514903,-1332.370696,-9622.677246,-1608.800546
200.515226,-1332.370696,-9696.697840,-2068.457845
200.515548,-1702.473667,-9252.574275,-1838.629195
200.515870,-1554.432478,-9844.739029,-1838.629195
200.516193,-1998.556043,-9992.780217,-1608.800546
200.516515,-2072.576638,-10066.800811,-1685.410096
200.516837,-2516.700203,-10066.800811,-1302.362347
200.517160,-2516.700203,-10436.903782,-1915.238745
200.517482,-3182.885551,-10436.903782,-1225.752797
200.517804,-3256.906145,-9844.739029,-842.705048
200.518127,-3330.926739,-9178.553681,-383.047749
200.518449,-2590.720797,-8956.491898,-842.705048
200.518771,-1702.473667,-8734.430116,-1455.581446
200.519094,-1702.473667,-8216.285956,-1149.143247
200.519416,-1258.350101,-8660.409521,-612.876398
200.519738,-666.185348,-9326.594869,-995.924147
200.520061,-370.102971,-10214.842000,-1378.971896
200.520383,-370.102971,-10288.862594,-1685.410096
200.520705,0.000000,-10732.986159,-1838.629195
200.521027,-888.247130,-10362.883188,-1685.410096
200.521350,-1184.329507,-10140.821405,-1685.410096
200.521672,-1258.350101,-9474.636058,-1378.971896
200.521995,-1332.370696,-9030.512492,-1378.971896
200.522317,-962.267725,-9326.594869,-1532.190996
200.522639,-1480.411884,-8734.430116,-1225.752797
200.522962,-1998.556043,-8660.409521,-1225.752797
200.523284,-1850.514855,-8882.471304,-1225.752797
200.523606,-1258.350101,-8586.388927,-1302.362347
200.523929,-740.205942,-8586.388927,-995.924147
200.524251,-444.123565,-8586.388927,-1302.362347
200.524573,296.082377,-9252.574275,-1149.143247
200.524896,888.247130,-9474.636058,-1302.362347
200.525218,1554.432478,-9696.697840,-1685.410096
200.525540,2220.617826,-9770.718434,-995.924147
200.525863,2220.617826,-10214.842000,-1072.533697
200.526185,1702.473667,-9400.615463,-1762.019645
200.526507,1110.308913,-9474.636058,-1838.629195
200.526830,518.144159,-9252.574275,-1608.800546
200.527152,0.000000,-9696.697840,-2221.676944
200.527474,-148.041188,-9548.656652,-2221.676944
200.527797,-370.102971,-9622.677246,-2145.067394
200.528119,-148.041188,-9696.697840,-1915.238745
200.528441,444.123565,-9770.718434,-1838.629195
200.528764,740.205942,-9252.574275,-1762.019645
200.529086,1036.288319,-9030.512492,-2068.457845
200.529408,1554.432478,-8956.491898,-1838.629195
200.529731,1406.391290,-9030.512492,-1915.238745
200.530053,1184.329507,-9400.615463,-2528.115143
200.530375,1184.329507,-9622.677246,-2528.115143
200.530698,1184.329507,-9844.739029,-2528.115143
200.531020,1184.329507,-10214.842000,-2451.505594
200.531343,1702.473667,-10362.883188,-2298.286494
200.531665,1332.370696,-9918.759623,-1608.800546
200.531987,888.247130,-9474.636058,-1608.800546
200.532310,518.144159,-9104.533087,-1915.238745
200.532632,0.000000,-8956.491898,-2145.067394
200.532954,-740.205942,-8660.409521,-1608.800546
200.533277,-814.226536,-8882.471304,-1991.848295
200.533599,-740.205942,-8808.450710,-1302.362347
200.533921,-814.226536,-9252.574275,-1149.143247
200.534244,0.000000,-9400.615463,-1072.533697
200.534566,-666.185348,-9474.636058,-1378.971896
200.534888,-444.123565,-9548.656652,-1302.362347
200.535211,-370.102971,-9474.636058,-1685.410096
200.535533,-888.247130,-9400.615463,-1762.019645
200.535855,-1110.308913,-9548.656652,-1378.971896
200.536178,-1406.391290,-8808.450710,-1302.362347
200.536500,-2146.597232,-9252.574275,-1225.752797
200.536822,-2886.803174,-9474.636058,-1302.362347
200.537145,-3108.864956,-9770.718434,-1225.752797
200.537467,-3627.009116,-9474.636058,-459.657299
200.537789,-3627.009116,-9178.553681,-536.266849
200.538112,-3552.988522,-8364.327145,-919.314598
200.538434,-2664.741391,-8586.388927,-842.705048
200.538756,-2146.597232,-8216.285956,-689.485948
200.539079,-1554.432478,-8290.306550,-842.705048
200.539401,-1258.350101,-8660.409521,-842.705048
200.539723,-740.205942,-8882.471304,-306.438199
200.540046,-888.247130,-9770.718434,-1225.752797
200.540368,-888.247130,-10066.800811,-1225.752797
200.540691,-1184.329507,-9918.759623,-1378.971896
200.541013,-1258.350101,-9622.677246,-1225.752797
200.541335,-962.267725,-10066.800811,-1378.971896
200.541658,-666.185348,-9252.574275,-1225.752797
200.541980,-1406.391290,-9104.533087,-1302.362347
200.542302,-1702.473667,-8660.409521,-1378.971896
200.542625,-1480.411884,-9030.512492,-1378.971896
200.542947,-962.267725,-8956.491898,-1608.800546
200.543269,-1036.288319,-8882.471304,-1685.410096
200.543592,-1036.288319,-8808.450710,-1685.410096
200.543914,-296.082377,-9252.574275,-1685.410096
200.544236,74.020594,-9104.533087,-1915.238745
200.544559,666.185348,-9622.677246,-2374.896044
200.544881,962.267725,-9918.759623,-2221.676944
200.545203,1480.411884,-10362.883188,-2451.505594
200.545526,1258.350101,-10066.800811,-1991.848295
200.545848,1258.350101,-10510.924376,-1915.238745
200.546170,1110.308913,-10066.800811,-2145.067394
200.546493,814.226536,-9400.615463,-2145.067394
200.546815,814.226536,-9030.512492,-2298.286494
200.547137,518.144159,-9252.574275,-2374.896044
200.547460,148.041188,-9474.636058,-2298.286494
200.547782,222.061783,-9548.656652,-1991.848295
200.548104,370.102971,-9548.656652,-1762.019645
200.548427,740.205942,-9622.677246,-1455.581446
200.548749,666.185348,-9474.636058,-1991.848295
200.549071,1406.391290,-9696.697840,-1991.848295
200.549394,1480.411884,-9474.636058,-1685.410096
200.549716,1850.514855,-9252.574275,-1455.581446
200.550038,2072.576638,-9178.553681,-1378.971896
200.550361,2368.659014,-9474.636058,-1685.410096
200.550683,2368.659014,-9844.739029,-1762.019645
200.551006,2220.617826,-9696.697840,-1532.190996
200.551328,1480.411884,-9548.656652,-1225.752797
200.551650,1258.350101,-8956.491898,-1149.143247
200.551973,1110.308913,-8734.430116,-1608.800546
200.552295,222.061783,-8660.409521,-1149.143247
200.552617,-444.123565,-8364.327145,-1225.752797
200.552940,-814.226536,-8142.265362,-1225.752797
200.553262,-1110.308913,-8660.409521,-1685.410096
200.553584,-1110.308913,-8660.409521,-1532.190996
200.553907,-1184.329507,-8882.471304,-1608.800546
200.554229,-1258.350101,-8882.471304,-1685.410096
200.554551,-962.267725,-9474.636058,-1762.019645
200.554874,-666.185348,-9474.636058,-1532.190996
200.555196,0.000000,-9622.677246,-1302.362347
200.555518,-370.102971,-9696.697840,-1762.019645
200.555841,-592.164754,-10066.800811,-1685.410096
200.556163,-888.247130,-10140.821405,-1225.752797
200.556485,-1480.411884,-10066.800811,-1149.143247
200.556808,-2590.720797,-9696.697840,-536.266849
200.557130,-2516.700203,-9400.615463,-1685.410096
200.557452,-3256.906145,-9178.553681,-1455.581446
200.557775,-3330.926739,-9178.553681,-1225.752797
200.558097,-3552.988522,-8956.491898,-919.314598
200.558419,-3182.885551,-9104.533087,-995.924147
200.558742,-2590.720797,-8512.368333,-1302.362347
200.559064,-2664.741391,-8808.450710,-1455.581446
200.559386,-2368.659014,-9178.553681,-1302.362347
200.559709,-1850.514855,-9474.636058,-1608.800546
200.560031,-1628.453072,-9918.759623,-1915.238745
200.560354,-1406.391290,-9770.718434,-1302.362347
200.560676,-1628.453072,-10214.842000,-1378.971896
200.560998,-1036.288319,-9918.759623,-1685.410096
200.561321,-888.247130,-10066.800811,-1838.629195
200.561643,-1036.288319,-9548.656652,-1455.581446
200.561965,-1110.308913,-9326.594869,-1608.800546
200.562288,-1184.329507,-8882.471304,-919.314598
200.562610,-1258.350101,-8364.327145,-1378.971896
200.562932,-1184.329507,-7920.203579,-1225.752797
200.563255,-962.267725,-8216.285956,-1532.190996
200.563577,-444.123565,-8216.285956,-1455.581446
200.563899,222.061783,-9178.553681,-1915.238745
200.564222,296.082377,-9326.594869,-1072.533697
200.564544,962.267725,-9992.780217,-1225.752797
200.564866,1406.391290,-9622.677246,-1378.971896
200.565189,1776.494261,-9622.677246,-1991.848295
200.565511,2072.576638,-9474.636058,-1838.629195
200.565833,1850.514855,-9326.594869,-1762.019645
200.566156,1406.391290,-9326.594869,-1608.800546
200.566478,814.226536,-9178.553681,-1991.848295
200.566800,148.041188,-9104.533087,-1991.848295
200.567123,-222.061783,-9696.697840,-1991.848295
200.567445,-370.102971,-9178.553681,-3064.381992
200.567767,-888.247130,-9474.636058,-2528.115143
200.568090,-666.185348,-9400.615463,-1685.410096
200.568412,-148.041188,-9770.718434,-1915.238745
200.568734,-148.041188,-9622.677246,-1915.238745
200.569057,0.000000,-9326.594869,-2145.067394
200.569379,0.000000,-9474.636058,-1915.238745
200.569701,888.247130,-9622.677246,-2298.286494
200.570024,1924.535449,-10140.821405,-2451.505594
200.570346,2368.659014,-9770.718434,-1991.848295
200.570669,2368.659014,-9770.718434,-1608.800546
200.570991,2738.761985,-10066.800811,-1225.752797
200.571313,2220.617826,-10140.821405,-1378.971896
200.571636,1628.453072,-9696.697840,-1762.019645
200.571958,740.205942,-9474.636058,-1608.800546
200.572280,0.000000,-8882.471304,-1455.581446
200.572603,-222.061783,-8290.306550,-1225.752797
200.572925,-222.061783,-8364.327145,-995.924147
200.573247,-592.164754,-8290.306550,-995.924147
200.573570,-666.185348,-8068.244768,-1455.581446
200.573892,-888.247130,-8660.409521,-1608.800546
200.574214,-1406.391290,-8586.388927,-1302.362347
200.574537,-1554.432478,-9474.636058,-1762.019645
200.574859,-1702.473667,-9844.739029,-1378.971896
200.575181,-1406.391290,-9992.780217,-1915.238745
200.575504,-1110.308913,-9696.697840,-2068.457845
200.575826,-1110.308913,-9844.739029,-1072.533697
200.576148,-962.267725,-9918.759623,-995.924147
200.576471,-1924.535449,-9622.677246,-995.924147
200.576793,-2368.659014,-9326.594869,-1149.143247
200.577115,-2368.659014,-9622.677246,-1149.143247
200.577438,-3108.864956,-9326.594869,-1225.752797
200.577760,-3330.926739,-8734.430116,-1225.752797
200.578082,-3182.885551,-8438.347739,-919.314598
200.578405,-2368.659014,-8808.450710,-689.485948
200.578727,-2072.576638,-8660.409521,-612.876398
200.579049,-1628.453072,-8660.409521,-995.924147
200.579372,-1332.370696,-8512.368333,-1149.143247
200.579694,-888.247130,-9104.533087,-995.924147
200.580017,-666.185348,-9696.697840,-1915.238745
200.580339,-814.226536,-9844.739029,-1838.629195
200.580661,-962.267725,-10066.800811,-1608.800546
200.580984,-962.267725,-10214.842000,-1762.019645
200.581306,-888.247130,-10066.800811,-1915.238745
200.581628,-740.205942,-9844.739029,-2145.067394
200.581951,-1258.350101,-9474.636058,-1915.238745
200.582273,-1332.370696,-9252.574275,-1302.362347
200.582595,-1480.411884,-9104.533087,-1455.581446
200.582918,-962.267725,-8882.471304,-1378.971896
200.583240,-1184.329507,-8290.306550,-2068.457845
200.583562,-740.205942,-7920.203579,-1838.629195
200.583885,-222.061783,-8142.265362,-1915.238745
200.584207,814.226536,-8512.368333,-1685.410096
200.584529,962.267725,-9474.636058,-1838.629195
200.584852,1554.432478,-9474.636058,-1532.190996
200.585174,1776.494261,-10214.842000,-2068.457845
200.585496,2294.638420,-10362.883188,-2374.896044
200.585819,2368.659014,-10732.986159,-2221.676944
200.586141,2146.597232,-10288.862594,-1991.848295
200.586463,1406.391290,-9252.574275,-1762.019645
200.586786,1036.288319,-8734.430116,-1915.238745
200.587108,370.102971,-9030.512492,-2528.115143
200.587430,74.020594,-9252.574275,-2374.896044
200.587753,-592.164754,-9918.759623,-2451.505594
200.588075,-962.267725,-9548.656652,-2221.676944
200.588397,-1036.288319,-9696.697840,-1302.362347
200.588720,-962.267725,-9844.739029,-1991.848295
200.589042,-518.144159,-9400.615463,-1915.238745
200.589365,-370.102971,-8438.347739,-1608.800546
200.589687,0.000000,-8512.368333,-2068.457845
200.590009,666.185348,-9030.512492,-2221.676944
200.590332,1702.473667,-9326.594869,-2451.505594
200.590654,1702.473667,-9992.780217,-2451.505594
200.590976,2146.597232,-10584.944971,-1915.238745
200.591299,2220.617826,-10436.903782,-1072.533697
200.591621,2516.700203,-9548.656652,-1685.410096
200.591943,1628.453072,-9178.553681,-1378.971896
200.592266,1110.308913,-8882.471304,-1302.362347
200.592588,370.102971,-8512.368333,-766.095498
200.592910,148.041188,-7994.224174,-1149.143247
200.593233,-222.061783,-7698.141797,-995.924147
200.593555,0.000000,-7624.121203,-1072.533697
200.593877,0.000000,-8512.368333,-612.876398
200.594200,-444.123565,-9030.512492,0.000000
200.594522,-1258.350101,-9474.636058,-383.047749
200.594844,-1480.411884,-9474.636058,-919.314598
200.595167,-1406.391290,-9474.636058,-2221.676944
200.595489,-1554.432478,-9252.574275,-1915.238745
200.595811,-1554.432478,-9844.739029,-2068.457845
200.596134,-1850.514855,-9992.780217,-1838.629195
200.596456,-2072.576638,-10510.924376,-1455.581446
200.596778,-2368.659014,-10288.862594,-1455.581446
200.597101,-2442.679609,-10140.821405,-1378.971896
200.597423,-3108.864956,-9918.759623,-1762.019645
200.597745,-3330.926739,-10140.821405,-1685.410096
200.598068,-3627.009116,-9326.594869,-919.314598
200.598390,-3701.029710,-9104.533087,-766.095498
200.598712,-3256.906145,-8586.388927,-842.705048
200.599035,-2442.679609,-8660.409521,-919.314598
200.599357,-1776.494261,-8142.265362,-1072.533697
200.599680,-962.267725,-8290.306550,-1149.143247
200.600002,-148.041188,-8734.430116,-1225.752797
200.600324,370.102971,-8808.450710,-919.314598
200.600647,296.082377,-9252.574275,-1302.362347
200.600969,0.000000,-9844.739029,-1608.800546
200.601291,-814.226536,-9844.739029,-2298.286494
200.601614,-888.247130,-10140.821405,-2681.334243
200.601936,-1258.350101,-9622.677246,-2221.676944
200.602258,-1258.350101,-9400.615463,-1608.800546
200.602581,-1184.329507,-9400.615463,-1762.019645
200.602903,-1036.288319,-8882.471304,-1685.410096
200.603225,-962.267725,-8808.450710,-1991.848295
200.603548,-666.185348,-8364.327145,-2298.286494
200.603870,-296.082377,-8734.430116,-1455.581446
200.604192,0.000000,-8660.409521,-1991.848295
200.604515,74.020594,-8956.491898,-1838.629195
200.604837,666.185348,-9326.594869,-1532.190996
200.605159,1406.391290,-9622.677246,-1915.238745
200.605482,2146.597232,-10214.842000,-1685.410096
200.605804,2738.761985,-10584.944971,-1838.629195
200.606126,1850.514855,-9622.677246,-995.924147
200.606449,962.267725,-9252.574275,-1378.971896
200.606771,0.000000,-8586.388927,-1608.800546
200.607093,-814.226536,-8882.471304,-2374.896044
200.607416,-1998.556043,-8586.388927,-2451.505594
200.607738,-1998.556043,-9622.677246,-2528.115143
200.608060,-2146.597232,-9844.739029,-2298.286494
200.608383,-1184.329507,-10510.924376,-2068.457845
200.608705,-444.123565,-10510.924376,-2145.067394
200.609028,74.020594,-9918.759623,-1762.019645
200.609350,444.123565,-9178.553681,-1915.238745
200.609672,1258.350101,-8734.430116,-2145.067394
200.609995,1406.391290,-8586.388927,-2451.505594
200.610317,1110.308913,-9104.533087,-2451.505594
200.610639,888.247130,-9178.553681,-2374.896044
200.610962,1110.308913,-9844.739029,-995.924147
200.611284,1628.453072,-10510.924376,-2068.457845
200.611606,1776.494261,-10214.842000,-1762.019645
200.611929,1258.350101,-9474.636058,-1149.143247
200.612251,1036.288319,-8660.409521,-995.924147
200.612573,1184.329507,-8512.368333,-1149.143247
200.612896,296.082377,-7846.182985,-1608.800546
200.613218,0.000000,-8438.347739,-1838.629195
200.613540,-296.082377,-8808.450710,-1532.190996
200.613863,-518.144159,-9474.636058,-1072.533697
200.614185,-518.144159,-10140.821405,-919.314598
200.614507,-444.123565,-10436.903782,-306.438199
200.614830,-444.123565,-9844.739029,-536.266849
200.615152,-518.144159,-9474.636058,-1225.752797
200.615474,-592.164754,-9030.512492,-1378.971896
200.615797,-1184.329507,-9104.533087,-1225.752797
200.616119,-1554.432478,-8512.368333,-1532.190996
200.616441,-2072.576638,-9474.636058,-1455.581446
200.616764,-2368.659014,-9770.718434,-766.095498
200.617086,-2960.823768,-9992.780217,-919.314598
200.617408,-3478.967927,-9992.780217,-536.266849
200.617731,-3923.091493,-9622.677246,-383.047749
200.618053,-4219.173869,-8956.491898,-842.705048
200.618375,-3330.926739,-8808.450710,-995.924147
200.618698,-2960.823768,-8142.265362,-1225.752797
200.619020,-2072.576638,-7994.224174,-1608.800546
200.619343,-1036.288319,-8216.285956,-1455.581446
200.619665,0.000000,-8734.430116,-689.485948
200.619987,0.000000,-9696.697840,-1072.533697
200.620310,148.041188,-10214.842000,-1608.800546
200.620632,0.000000,-10436.903782,-1455.581446
200.620954,-296.082377,-10140.821405,-1378.971896
200.621279,0.000000,-9918.759623,-1225.752797
200.621601,-222.061783,-9622.677246,-1762.019645
200.621923,-740.205942,-9326.594869,-1532.190996
200.622246,-1110.308913,-9104.533087,-1608.800546
200.622568,-1258.350101,-9178.553681,-1532.190996
200.622890,-962.267725,-9252.574275,-1149.143247
200.623213,-1258.350101,-9104.533087,-1378.971896
200.623535,-666.185348,-8808.450710,-1455.581446
200.623857,-444.123565,-8882.471304,-2145.067394
200.624179,0.000000,-8586.388927,-2298.286494
200.624502,222.061783,-9030.512492,-2068.457845
200.624824,814.226536,-9400.615463,-1991.848295
200.625146,814.226536,-9770.718434,-2451.505594
200.625469,1702.473667,-10066.800811,-2604.724693
200.625791,1406.391290,-10584.944971,-2145.067394
200.626113,1184.329507,-10807.006753,-1378.971896
200.626436,444.123565,-9548.656652,-1608.800546
200.626758,-296.082377,-8808.450710,-2298.286494
200.627080,-666.185348,-8734.430116,-2528.115143
200.627403,-1036.288319,-8808.450710,-2757.943793
200.627725,-1258.350101,-9104.533087,-2451.505594
200.628047,-1332.370696,-9178.553681,-2451.505594
200.628370,-444.123565,-9548.656652,-2221.676944
200.628692,0.000000,-10066.800811,-1915.238745
200.629014,518.144159,-10140.821405,-1915.238745
200.629337,518.144159,-9548.656652,-1762.019645
200.629659,518.144159,-9548.656652,-1608.800546
200.629981,1480.411884,-9252.574275,-1991.848295
200.630303,1850.514855,-9104.533087,-2451.505594
200.630626,2368.659014,-9474.636058,-2451.505594
200.630948,2368.659014,-10066.800811,-1915.238745
200.631270,2442.679609,-10214.842000,-1072.533697
200.631593,2442.679609,-10066.800811,-995.924147
200.631915,2590.720797,-9474.636058,-919.314598
200.632237,1702.473667,-9252.574275,-1149.143247
200.632560,740.205942,-8734.430116,-1149.143247
200.632882,74.020594,-7920.203579,-1225.752797
200.633204,-148.041188,-8142.265362,-1455.581446
200.633527,0.000000,-8364.327145,-1685.410096
200.633849,-518.144159,-9030.512492,-1149.143247
200.634171,-740.205942,-9474.636058,-612.876398
200.634494,-1184.329507,-9770.718434,-766.095498
200.634816,-1036.288319,-9770.718434,-1455.581446
200.635138,-814.226536,-9622.677246,-1762.019645
200.635460,-888.247130,-8956.491898,-1762.019645
200.635783,-962.267725,-8808.450710,-1685.410096
200.636105,-888.247130,-9400.615463,-1991.848295
200.636427,-1036.288319,-10288.862594,-1378.971896
200.636750,-1480.411884,-10362.883188,-383.047749
200.637072,-2146.597232,-9770.718434,-766.095498
200.637394,-3034.844362,-9770.718434,-1149.143247
200.637717,-2960.823768,-9992.780217,-1149.143247
200.638039,-3034.844362,-9474.636058,-995.924147
200.638361,-2960.823768,-8660.409521,0.000000
200.638684,-2886.803174,-8216.285956,-229.828649
200.639006,-2220.617826,-8142.265362,-919.314598
200.639328,-1480.411884,-8290.306550,-995.924147
200.639651,-740.205942,-8882.471304,-689.485948
200.639973,-814.226536,-9252.574275,-919.314598
200.640295,-296.082377,-9696.697840,-1838.629195
200.640617,-962.267725,-9844.739029,-1149.143247
200.640940,-888.247130,-10510.924376,-1532.190996
200.641262,-1258.350101,-10140.821405,-1915.238745
200.641584,-1258.350101,-9770.718434,-1991.848295
200.641907,-1258.350101,-9696.697840,-1762.019645
200.642229,-1332.370696,-9474.636058,-2374.896044
200.642551,-2072.576638,-9252.574275,-2068.457845
200.642874,-1924.535449,-9104.533087,-1455.581446
200.643196,-2072.576638,-9178.553681,-1762.019645
200.643518,-1554.432478,-8660.409521,-2221.676944
200.643841,-1036.288319,-8364.327145,-2298.286494
200.644163,-222.061783,-8586.388927,-1685.410096
200.644485,0.000000,-9178.553681,-1915.238745
200.644808,888.247130,-9474.636058,-1378.971896
200.645130,1480.411884,-9622.677246,-1762.019645
200.645452,1776.494261,-9770.718434,-1838.629195
200.645774,1628.453072,-9622.677246,-1762.019645
200.646097,962.267725,-9252.574275,-1915.238745
200.646419,148.041188,-8808.450710,-1915.238745
200.646741,-518.144159,-8734.430116,-2145.067394
200.647064,-1036.288319,-9030.512492,-1915.238745
200.647386,-1628.453072,-9030.512492,-2757.943793
200.647708,-2072.576638,-9252.574275,-2681.334243
200.648031,-1776.494261,-9548.656652,-2221.676944
200.648353,-1036.288319,-10214.842000,-2451.505594
200.648675,-222.061783,-10140.821405,-2221.676944
200.648998,518.144159,-9844.739029,-2221.676944
200.649320,592.164754,-9252.574275,-1685.410096
200.649642,1406.391290,-9400.615463,-1991.848295
200.649965,1776.494261,-9474.636058,-2298.286494
200.650287,1998.556043,-9474.636058,-1915.238745
200.650609,1998.556043,-9326.594869,-1608.800546
200.650931,2368.659014,-9326.594869,-766.095498
200.651254,2664.741391,-9696.697840,-1302.362347
200.651576,2442.679609,-9548.656652,-1378.971896
200.651898,1776.494261,-9030.512492,-995.924147
200.652221,1110.308913,-9030.512492,-1225.752797
200.652543,666.185348,-8438.347739,-1225.752797
200.652865,74.020594,-8808.450710,-1532.190996
200.653188,-740.205942,-8734.430116,-1685.410096
200.653510,-592.164754,-8882.471304,-1455.581446
200.653832,-666.185348,-9326.594869,-1225.752797
200.654155,-296.082377,-9474.636058,-1455.581446
200.654477,0.000000,-9770.718434,-919.314598
200.654799,-370.102971,-10066.800811,-1378.971896
200.655122,-222.061783,-10214.842000,-1838.629195
200.655444,-518.144159,-9918.759623,-1608.800546
200.655766,-740.205942,-9918.759623,-1302.362347
200.656089,-1184.329507,-9474.636058,-1455.581446
200.656411,-2072.576638,-9030.512492,-1072.533697
200.656733,-2590.720797,-8660.409521,-1225.752797
200.657055,-3108.864956,-8956.491898,-1072.533697
200.657378,-3849.070898,-9178.553681,-919.314598
200.657700,-4293.194464,-9770.718434,-766.095498
200.658022,-4145.153275,-9400.615463,-689.485948
200.658345,-3182.885551,-9326.594869,-842.705048
200.658667,-2442.679609,-8956.491898,-919.314598
200.658989,-1554.432478,-9252.574275,-1378.971896
200.659312,-740.205942,-8956.491898,-766.095498
200.659634,0.000000,-9030.512492,-1072.533697
200.659956,370.102971,-9474.636058,-1072.533697
200.660279,518.144159,-10066.800811,-1378.971896
200.660601,444.123565,-10362.883188,-1608.800546
200.660923,74.020594,-10214.842000,-919.314598
200.661246,0.000000,-10140.821405,-1378.971896
200.661568,-296.082377,-9474.636058,-1149.143247
200.661890,-592.164754,-9030.512492,-1302.362347
200.662212,-1036.288319,-8216.285956,-1149.143247
200.662535,-1480.411884,-8068.244768,-1225.752797
200.662857,-1406.391290,-7698.141797,-1532.190996
200.663179,-1628.453072,-7994.224174,-1915.238745
200.663502,-1628.453072,-8216.285956,-1762.019645
200.663824,-1702.473667,-8808.450710,-1915.238745
200.664146,-1036.288319,-9178.553681,-2374.896044
200.664469,-888.247130,-9844.739029,-1915.238745
200.664791,222.061783,-9918.759623,-2145.067394
200.665113,740.205942,-10288.862594,-2528.115143
200.665436,962.267725,-10140.821405,-2911.162892
200.665758,1184.329507,-10436.903782,-2757.943793
200.666080,1184.329507,-10066.800811,-2145.067394
200.666403,888.247130,-9992.780217,-2221.676944
200.666725,296.082377,-8882.471304,-2145.067394
200.667047,148.041188,-9030.512492,-2681.334243
200.667369,0.000000,-9178.553681,-2068.457845
200.667692,0.000000,-9622.677246,-1762.019645
200.668014,0.000000,-9326.594869,-1608.800546
200.668336,814.226536,-9770.718434,-1991.848295
200.668659,1036.288319,-10066.800811,-1608.800546
200.668981,1480.411884,-10066.800811,-1685.410096
200.669303,1776.494261,-9622.677246,-1455.581446
200.669626,1924.535449,-9400.615463,-1685.410096
200.669948,1776.494261,-9474.636058,-1608.800546
200.670270,2590.720797,-9844.739029,-1762.019645
200.670593,2368.659014,-9770.718434,-1915.238745
200.670915,2072.576638,-9770.718434,-1378.971896
200.671237,2072.576638,-9622.677246,-1149.143247
200.671560,1776.494261,-9252.574275,-1455.581446
200.671882,1332.370696,-8956.491898,-1762.019645
200.672204,370.102971,-8734.430116,-1225.752797
200.672526,-740.205942,-8438.347739,-995.924147
200.672849,-1480.411884,-7994.224174,-1225.752797
200.673171,-2146.597232,-7772.162391,-1608.800546
200.673493,-1924.535449,-7920.203579,-1915.238745
200.673816,-1554.432478,-8512.368333,-1532.190996
200.674138,-1554.432478,-8734.430116,-1072.533697
200.674460,-1702.473667,-9252.574275,-1225.752797
200.674783,-1110.308913,-9622.677246,-1302.362347
200.675105,-148.041188,-10510.924376,-2068.457845
200.675427,-296.082377,-10140.821405,-1915.238745
200.675750,-740.205942,-10140.821405,-1302.362347
200.676072,-1110.308913,-9696.697840,-766.095498
200.676394,-1480.411884,-9918.759623,-612.876398
200.676717,-2072.576638,-9326.594869,-459.657299
200.677039,-2812.782580,-9400.615463,-1378.971896
200.677361,-3256.906145,-9400.615463,-1455.581446
200.677683,-3627.009116,-9548.656652,-919.314598
200.678006,-3552.988522,-9474.636058,-689.485948
200.678328,-3330.926739,-9400.615463,-689.485948
200.678650,-3627.009116,-9030.512492,-842.705048
200.678973,-2960.823768,-9326.594869,-1455.581446
200.679295,-2516.700203,-9474.636058,-1608.800546
200.679617,-1776.494261,-9474.636058,-2145.067394
200.679940,-1406.391290,-9548.656652,-2221.676944
200.680262,-814.226536,-9622.677246,-1991.848295
200.680584,-148.041188,-9918.759623,-1608.800546
200.680907,-444.123565,-10288.862594,-1838.629195
200.681229,0.000000,-9918.759623,-2068.457845
200.681551,-296.082377,-9696.697840,-2374.896044
200.681874,-666.185348,-8956.491898,-1838.629195
200.682196,-814.226536,-8512.368333,-1225.752797
200.682518,-1036.288319,-8068.244768,-1378.971896
200.682841,-1036.288319,-7772.162391,-1608.800546
200.683163,-888.247130,-7846.182985,-1608.800546
200.683485,-296.082377,-8142.265362,-1685.410096
200.683807,222.061783,-8216.285956,-2068.457845
200.684130,592.164754,-9252.574275,-1608.800546
200.684452,1110.308913,-9622.677246,-1302.362347
200.684774,1554.432478,-9770.718434,-1685.410096
200.685097,1850.514855,-10066.800811,-1915.238745
200.685419,2072.576638,-9696.697840,-2145.067394
200.685741,2220.617826,-10214.842000,-1838.629195
200.686064,1406.391290,-9770.718434,-1762.019645
200.686386,814.226536,-9548.656652,-2221.676944
200.686708,296.082377,-9030.512492,-2145.067394
200.687031,222.061783,-9326.594869,-2145.067394
200.687353,296.082377,-8956.491898,-2528.115143
200.687675,222.061783,-9548.656652,-2068.457845
200.687998,0.000000,-9326.594869,-1608.800546
200.688320,74.020594,-9770.718434,-1302.362347
200.688642,296.082377,-9696.697840,-1608.800546
200.688964,296.082377,-9474.636058,-1608.800546
200.689287,1036.288319,-9474.636058,-1838.629195
200.689609,1480.411884,-9474.636058,-2068.457845
200.689931,1850.514855,-9474.636058,-1685.410096
200.690254,1998.556043,-9844.739029,-1455.581446
200.690576,1628.453072,-9474.636058,-1225.752797
200.690898,1554.432478,-9252.574275,-1532.190996
200.691221,1110.308913,-9548.656652,-2068.457845
200.691543,666.185348,-9622.677246,-2451.505594
200.691865,0.000000,-9326.594869,-2068.457845
200.692188,-666.185348,-9178.553681,-1455.581446
200.692510,-1702.473667,-8142.265362,-1149.143247
200.692832,-1110.308913,-8660.409521,-1608.800546
200.693155,-1332.370696,-8438.347739,-1762.019645
200.693477,-1776.494261,-8068.244768,-1915.238745
200.693799,-1924.535449,-8808.450710,-1762.019645
200.694121,-2146.597232,-8660.409521,-1072.533697
200.694444,-1998.556043,-9474.636058,-1149.143247
200.694766,-2072.576638,-9622.677246,-1378.971896
200.695088,-1998.556043,-9696.697840,-1685.410096
200.695411,-1998.556043,-9622.677246,-1608.800546
200.695733,-1850.514855,-10288.862594,-1149.143247
200.696055,-2368.659014,-9992.780217,-766.095498
200.696378,-2590.720797,-9696.697840,-1149.143247
200.696700,-2738.761985,-9548.656652,-1378.971896
200.697022,-2664.741391,-9844.739029,-1302.362347
200.697345,-2516.700203,-9474.636058,-1225.752797
200.697667,-2664.741391,-9622.677246,-842.705048
200.697989,-2590.720797,-9104.533087,-536.266849
200.698312,-1850.514855,-9696.697840,-612.876398
200.698634,-1332.370696,-9474.636058,-919.314598
200.698956,-518.144159,-9474.636058,-1378.971896
200.699278,-148.041188,-9030.512492,-766.095498
200.699601,296.082377,-8808.450710,-766.095498
200.699923,444.123565,-8660.409521,-612.876398
200.700245,296.082377,-8808.450710,-766.095498
200.700568,-222.061783,-8808.450710,-995.924147
200.700890,-592.164754,-9030.512492,-1225.752797
200.701212,-1258.350101,-8956.491898,-995.924147
200.701535,-1110.308913,-9104.533087,-1685.410096
200.701857,-1702.473667,-8956.491898,-1532.190996
200.702179,-1776.494261,-8660.409521,-1378.971896
200.702502,-1702.473667,-8660.409521,-1302.362347
200.702824,-1554.432478,-8290.306550,-2145.067394
200.703146,-1110.308913,-8290.306550,-2298.286494
200.703469,-444.123565,-9178.553681,-2374.896044
200.703791,148.041188,-9622.677246,-1608.800546
200.704113,888.247130,-9696.697840,-1915.238745
200.704435,1406.391290,-10288.862594,-2068.457845
200.704758,2220.617826,-9770.718434,-1532.190996
200.705080,2516.700203,-10140.821405,-2145.067394
200.705402,2960.823768,-9918.759623,-2298.286494
200.705725,2590.720797,-9844.739029,-2145.067394
200.706047,2442.679609,-9770.718434,-1455.581446
200.706369,2220.617826,-9696.697840,-1838.629195
200.706692,1184.329507,-8660.409521,-1838.629195
200.707014,740.205942,-9030.512492,-2451.505594
200.707336,222.061783,-9104.533087,-1838.629195
200.707659,-148.041188,-9770.718434,-1915.238745
200.707981,-296.082377,-9548.656652,-1532.190996
200.708303,-296.082377,-9622.677246,-1762.019645
200.708626,-370.102971,-9622.677246,-2221.676944
200.708948,0.000000,-9844.739029,-2451.505594
200.709270,0.000000,-9622.677246,-2451.505594
200.709593,0.000000,-9770.718434,-2374.896044
200.709915,296.082377,-10214.842000,-2145.067394
200.710237,666.185348,-9992.780217,-2221.676944
200.710559,814.226536,-9548.656652,-2298.286494
200.710882,888.247130,-9622.677246,-2374.896044
200.711204,1184.329507,-9474.636058,-1532.190996
200.711526,1258.350101,-9104.533087,-1532.190996
200.711849,666.185348,-8438.347739,-1225.752797
200.712171,444.123565,-8586.388927,-842.705048
200.712493,-296.082377,-8438.347739,-842.705048
200.712816,-888.247130,-8068.244768,-919.314598
200.713138,-962.267725,-7994.224174,-1608.800546
200.713460,-1184.329507,-8068.244768,-1685.410096
200.713783,-1036.288319,-8734.430116,-1378.971896
200.714105,-1184.329507,-9178.553681,-1072.533697
200.714427,-1406.391290,-9548.656652,-1072.533697
200.714750,-1702.473667,-9622.677246,-1225.752797
200.715072,-1406.391290,-10140.821405,-1991.848295
200.715394,-1406.391290,-10288.862594,-2451.505594
200.715716,-1702.473667,-10362.883188,-2221.676944
200.716039,-2072.576638,-9844.739029,-1302.362347
200.716361,-2442.679609,-9844.739029,-1302.362347
200.716683,-2220.617826,-9696.697840,-1225.752797
200.717006,-2812.782580,-9548.656652,-1302.362347
200.717328,-2812.782580,-9696.697840,-1149.143247
200.717650,-3108.864956,-9696.697840,-842.705048
200.717973,-3330.926739,-9178.553681,-306.438199
200.718295,-2886.803174,-9104.533087,-689.485948
200.718617,-2220.617826,-8586.388927,-459.657299
200.718940,-1850.514855,-8660.409521,-1149.143247
200.719262,-1258.350101,-8512.368333,-1302.362347
200.719584,-222.061783,-9178.553681,-1149.143247
200.719907,0.000000,-9326.594869,-1455.581446
200.720229,666.185348,-9696.697840,-1685.410096
200.720551,0.000000,-9992.780217,-1149.143247
200.720873,148.041188,-10362.883188,-1608.800546
200.721196,0.000000,-9770.718434,-1838.629195
200.721518,-296.082377,-9400.615463,-1991.848295
200.721840,-518.144159,-8734.430116,-1762.019645
200.722163,-1184.329507,-8512.368333,-1608.800546
200.722485,-1332.370696,-8808.450710,-1302.362347
200.722807,-1258.350101,-8660.409521,-1532.190996
200.723129,-1184.329507,-8512.368333,-1762.019645
200.723452,-740.205942,-8512.368333,-1838.629195
200.723774,0.000000,-8882.471304,-1378.971896
200.724096,444.123565,-8956.491898,-1532.190996
200.724418,740.205942,-9326.594869,-1762.019645
200.724741,1332.370696,-9400.615463,-1838.629195
200.725063,2146.597232,-9548.656652,-1915.238745
200.725385,2442.679609,-9844.739029,-2145.067394
200.725708,2442.679609,-10362.883188,-1915.238745
200.726030,1998.556043,-10066.800811,-1608.800546
200.726352,1110.308913,-9844.739029,-1685.410096
200.726674,814.226536,-9400.615463,-1915.238745
200.726997,148.041188,-9326.594869,-2374.896044
200.727319,0.000000,-8882.471304,-2221.676944
200.727641,-962.267725,-9178.553681,-2451.505594
200.727963,-1036.288319,-9178.553681,-1838.629195
200.728286,-666.185348,-9770.718434,-1915.238745
200.728608,-296.082377,-9474.636058,-1915.238745
200.728930,444.123565,-9918.759623,-2221.676944
200.729252,222.061783,-8734.430116,-1608.800546
200.729575,814.226536,-9400.615463,-1991.848295
200.729897,962.267725,-9474.636058,-2068.457845
200.730219,814.226536,-9696.697840,-2221.676944
200.730542,888.247130,-9548.656652,-1915.238745
200.730864,518.144159,-9844.739029,-2374.896044
200.731186,814.226536,-10140.821405,-2068.457845
200.731508,666.185348,-9918.759623,-1991.848295
200.731831,0.000000,-9622.677246,-995.924147
200.732153,-370.102971,-9104.533087,-766.095498
200.732475,-518.144159,-8216.285956,-1149.143247
200.732797,-1258.350101,-7920.203579,-1302.362347
200.733120,-1480.411884,-7994.224174,-1532.190996
200.733442,-1776.494261,-8290.306550,-1378.971896
200.733764,-1628.453072,-8956.491898,-1532.190996
200.734086,-962.267725,-9696.697840,-1378.971896
200.734409,-1184.329507,-9474.636058,-536.266849
200.734731,-962.267725,-10140.821405,-995.924147
200.735053,-962.267725,-10214.842000,-1762.019645
200.735376,-1184.329507,-9992.780217,-1762.019645
200.735698,-1184.329507,-10214.842000,-1608.800546
200.736020,-1332.370696,-9770.718434,-2145.067394
200.736342,-1850.514855,-9400.615463,-1608.800546
200.736665,-2146.597232,-9178.553681,-1532.190996
200.736987,-2220.617826,-9474.636058,-1455.581446
200.737309,-2516.700203,-9326.594869,-1072.533697
200.737631,-2738.761985,-9844.739029,-612.876398
200.737954,-2590.720797,-9474.636058,-459.657299
200.738276,-2294.638420,-9400.615463,-766.095498
200.738598,-1554.432478,-8882.471304,-842.705048
200.738921,-888.247130,-8882.471304,-1225.752797
200.739243,-370.102971,-8068.244768,-766.095498
200.739565,444.123565,-8882.471304,-919.314598
200.739887,592.164754,-8956.491898,-919.314598
200.740210,518.144159,-9548.656652,-1225.752797
200.740532,0.000000,-9622.677246,-1149.143247
200.740854,-222.061783,-9844.739029,-1532.190996
200.741176,0.000000,-9992.780217,-1608.800546
200.741499,-518.144159,-9474.636058,-1762.019645
200.741821,-1184.329507,-8512.368333,-1608.800546
200.742143,-1332.370696,-8586.388927,-1608.800546
200.742465,-1554.432478,-8734.430116,-1608.800546
200.742788,-1258.350101,-8808.450710,-1762.019645
200.743110,-962.267725,-8956.491898,-2221.676944
200.743432,-962.267725,-8956.491898,-2145.067394
200.743755,-370.102971,-9252.574275,-2221.676944
200.744077,296.082377,-9474.636058,-1915.238745
200.744399,814.226536,-9474.636058,-1532.190996
200.744721,1924.535449,-10140.821405,-2145.067394
200.745044,1776.494261,-9844.739029,-2145.067394
200.745366,2220.617826,-9696.697840,-2298.286494
200.745688,2072.576638,-10066.800811,-2145.067394
200.746010,1998.556043,-10140.821405,-1608.800546
200.746333,1258.350101,-9474.636058,-1302.362347
200.746655,814.226536,-9030.512492,-2374.896044
200.746977,222.061783,-9104.533087,-2374.896044
200.747300,-222.061783,-9400.615463,-2451.505594
200.747622,-444.123565,-9770.718434,-2451.505594
200.747944,-1184.329507,-9252.574275,-1991.848295
200.748266,-518.144159,-9918.759623,-1455.581446
200.748589,-370.102971,-9622.677246,-1685.410096
200.748911,74.020594,-9844.739029,-2145.067394
200.749233,148.041188,-9622.677246,-2068.457845
200.749555,370.102971,-9696.697840,-2068.457845
200.749878,666.185348,-9474.636058,-2451.505594
200.750200,814.226536,-9474.636058,-2145.067394
200.750522,1036.288319,-9252.574275,-2068.457845
200.750844,1184.329507,-9696.697840,-1685.410096
200.751167,1628.453072,-9474.636058,-1225.752797
200.751489,1776.494261,-9252.574275,-919.314598
200.751811,1850.514855,-9104.533087,-1149.143247
200.752134,1184.329507,-8882.471304,-842.705048
200.752456,370.102971,-8586.388927,-612.876398
200.752778,-148.041188,-8290.306550,-995.924147
200.753100,-888.247130,-7920.203579,-995.924147
200.753423,-444.123565,-7698.141797,-1378.971896
200.753745,-1036.288319,-8216.285956,-919.314598
200.754067,-962.267725,-8882.471304,-1149.143247
200.754389,-1258.350101,-9474.636058,-1225.752797
200.754712,-1332.370696,-10066.800811,-1225.752797
200.755034,-1332.370696,-10214.842000,-1302.362347
200.755356,-1110.308913,-10140.821405,-1991.848295
200.755678,-1628.453072,-10140.821405,-1455.581446
200.756001,-1776.494261,-9844.739029,-1378.971896
200.756323,-2368.659014,-9474.636058,-1149.143247
200.756645,-2516.700203,-9326.594869,-1225.752797
200.756968,-2590.720797,-9474.636058,-1915.238745
200.757290,-2886.803174,-9326.594869,-1762.019645
200.757612,-3256.906145,-9622.677246,-1378.971896
200.757934,-3034.844362,-9696.697840,-842.705048
200.758257,-2738.761985,-9622.677246,-1072.533697
200.758579,-2516.700203,-9622.677246,-842.705048
200.758901,-1998.556043,-9474.636058,-1072.533697
200.759223,-1184.329507,-8956.491898,-1225.752797
200.759546,-296.082377,-9104.533087,-1455.581446
200.759868,222.061783,-8734.430116,-1685.410096
200.760190,666.185348,-9178.553681,-1455.581446
200.760513,1110.308913,-9696.697840,-1302.362347
200.760835,888.247130,-10066.800811,-1455.581446
200.761157,74.020594,-9992.780217,-1302.362347
200.761479,-148.041188,-9696.697840,-1762.019645
200.761802,-1184.329507,-8882.471304,-1915.238745
200.762124,-1406.391290,-8512.368333,-1455.581446
200.762446,-1480.411884,-8216.285956,-1455.581446
200.762768,-1628.453072,-8068.244768,-1532.190996
200.763091,-1776.494261,-8142.265362,-1838.629195
200.763413,-1258.350101,-8586.388927,-2451.505594
200.763735,-1258.350101,-8956.491898,-1915.238745
200.764057,-518.144159,-9474.636058,-1991.848295
200.764380,0.000000,-9844.739029,-2068.457845
200.764702,518.144159,-9918.759623,-2221.676944
200.765024,1184.329507,-9844.739029,-2145.067394
200.765347,1628.453072,-9474.636058,-2298.286494
200.765669,1480.411884,-9474.636058,-1378.971896
200.765991,1332.370696,-9696.697840,-1685.410096
200.766313,888.247130,-9474.636058,-1838.629195
200.766636,444.123565,-9252.574275,-1762.019645
200.766958,0.000000,-9104.533087,-1608.800546
200.767280,-370.102971,-8808.450710,-2068.457845
200.767602,-444.123565,-8956.491898,-2221.676944
200.767925,-444.123565,-9400.615463,-1915.238745
200.768247,-370.102971,-9696.697840,-1838.629195
200.768569,222.061783,-10288.862594,-1608.800546
200.768892,666.185348,-10140.821405,-1915.238745
200.769214,666.185348,-9844.739029,-1762.019645
200.769536,1110.308913,-9918.759623,-1915.238745
200.769858,1406.391290,-9622.677246,-1915.238745
200.770181,1332.370696,-9474.636058,-2145.067394
200.770503,1406.391290,-9474.636058,-1762.019645
200.770825,962.267725,-9474.636058,-1915.238745
200.771147,962.267725,-9548.656652,-1838.629195
200.771470,666.185348,-9548.656652,-1532.190996
200.771792,0.000000,-9326.594869,-995.924147
200.772114,-592.164754,-8882.471304,-919.314598
200.772436,-1184.329507,-7920.203579,-689.485948
200.772759,-962.267725,-8216.285956,-1378.971896
200.773081,-1258.350101,-7920.203579,-1225.752797
200.773403,-1184.329507,-8142.265362,-1532.190996
200.773726,-1036.288319,-8586.388927,-1455.581446
200.774048,-740.205942,-9030.512492,-1378.971896
200.774370,-592.164754,-9992.780217,-1378.971896
200.774692,-592.164754,-10732.986159,-1225.752797
200.775015,-444.123565,-10584.944971,-1378.971896
200.775337,-444.123565,-10214.842000,-1608.800546
200.775659,-444.123565,-9770.718434,-1455.581446
200.775981,-740.205942,-9400.615463,-842.705048
200.776304,-1332.370696,-9252.574275,-1149.143247
200.776626,-1702.473667,-8956.491898,-1302.362347
200.776948,-1998.556043,-9474.636058,-1149.143247
200.777270,-2516.700203,-9622.677246,-1072.533697
200.777593,-2812.782580,-9548.656652,-689.485948
200.777915,-3108.864956,-9400.615463,-536.266849
200.778237,-2886.803174,-9548.656652,-766.095498
200.778560,-2368.659014,-8956.491898,-689.485948
200.778882,-1776.494261,-8882.471304,-1225.752797
200.779204,-1036.288319,-8956.491898,-1149.143247
200.779526,-962.267725,-8290.306550,-919.314598
200.779849,-148.041188,-9178.553681,-1149.143247
200.780171,0.000000,-9770.718434,-1608.800546
200.780493,-370.102971,-9622.677246,-1608.800546
200.780815,-666.185348,-10066.800811,-2145.067394
200.781138,-814.226536,-9696.697840,-1608.800546
200.781460,-814.226536,-9474.636058,-1915.238745
200.781782,-1406.391290,-8808.450710,-1915.238745
200.782105,-1628.453072,-8364.327145,-1608.800546
200.782427,-1776.494261,-8290.306550,-1378.971896
200.782749,-1258.350101,-8068.244768,-1838.629195
200.783071,-1184.329507,-8438.347739,-1991.848295
200.783394,-814.226536,-8734.430116,-1762.019645
200.783716,-222.061783,-9030.512492,-1762.019645
200.784038,518.144159,-9400.615463,-2221.676944
200.784360,740.205942,-9474.636058,-2298.286494
200.784683,1628.453072,-10140.821405,-2145.067394
200.785005,1924.535449,-10362.883188,-2374.896044
200.785327,1998.556043,-10214.842000,-2528.115143
200.785649,1776.494261,-10436.903782,-2757.943793
200.785972,1480.411884,-10214.842000,-2068.457845
200.786294,1332.370696,-9918.759623,-2145.067394
200.786616,666.185348,-9178.553681,-2068.457845
200.786939,0.000000,-9104.533087,-2298.286494
200.787261,-222.061783,-8956.491898,-2145.067394
200.787583,-444.123565,-9474.636058,-2221.676944
200.787905,-592.164754,-8956.491898,-1685.410096
200.788228,-740.205942,-9474.636058,-2528.115143
200.788550,-296.082377,-9548.656652,-1838.629195
200.788872,296.082377,-9696.697840,-2221.676944
200.789194,888.247130,-9474.636058,-1991.848295
200.789517,814.226536,-9474.636058,-1532.190996
200.789839,1258.350101,-9326.594869,-1838.629195
200.790161,1554.432478,-9474.636058,-1915.238745
200.790484,1702.473667,-9474.636058,-2298.286494
200.790806,1480.411884,-9622.677246,-1991.848295
200.791128,1554.432478,-9622.677246,-1302.362347
200.791450,1702.473667,-9548.656652,-1378.971896
200.791773,1110.308913,-8956.491898,-1225.752797
200.792095,1036.288319,-8882.471304,-995.924147
200.792417,222.061783,-8586.388927,-689.485948
200.792739,0.000000,-8216.285956,-766.095498
200.793062,-740.205942,-7698.141797,-612.876398
200.793384,-1184.329507,-7994.224174,-1532.190996
200.793706,-1110.308913,-8808.450710,-1532.190996
200.794028,-1184.329507,-9104.533087,-1072.533697
200.794351,-1258.350101,-9474.636058,-995.924147
200.794673,-1258.350101,-9918.759623,-1225.752797
200.794995,-888.247130,-10214.842000,-995.924147
200.795318,-1110.308913,-9918.759623,-1838.629195
200.795640,-1332.370696,-9992.780217,-1915.238745
200.795962,-1406.391290,-9770.718434,-1762.019645
200.796284,-1850.514855,-9770.718434,-1455.581446
200.796607,-2146.597232,-9770.718434,-995.924147
200.796929,-2664.741391,-9844.739029,-1991.848295
200.797251,-2738.761985,-10066.800811,-1378.971896
200.797573,-3182.885551,-9770.718434,-1225.752797
200.797896,-3034.844362,-9474.636058,-536.266849
200.798218,-2590.720797,-9326.594869,-919.314598
200.798540,-1776.494261,-8882.471304,-1072.533697
200.798862,-1702.473667,-8734.430116,-1378.971896
200.799185,-1480.411884,-8438.347739,-1149.143247
200.799507,-1036.288319,-8808.450710,-1302.362347
200.799829,-666.185348,-8956.491898,-1532.190996
200.800152,0.000000,-9474.636058,-2298.286494
200.800474,-444.123565,-9474.636058,-1532.190996
200.800796,-222.061783,-9992.780217,-1608.800546
200.801118,-592.164754,-9622.677246,-1685.410096
200.801441,-592.164754,-9622.677246,-2068.457845
200.801763,-888.247130,-8808.450710,-1762.019645
200.802085,-1332.370696,-8734.430116,-2374.896044
200.802407,-1702.473667,-8882.471304,-1838.629195
200.802730,-1850.514855,-8734.430116,-1762.019645
200.803052,-1702.473667,-8586.388927,-1762.019645
200.803374,-1332.370696,-8808.450710,-1762.019645
200.803697,-740.205942,-8956.491898,-1762.019645
200.804019,0.000000,-9178.553681,-1915.238745
200.804341,370.102971,-9400.615463,-1532.190996
200.804663,962.267725,-9474.636058,-1762.019645
200.804986,1850.514855,-9622.677246,-1915.238745
200.805308,2368.659014,-9844.739029,-1685.410096
200.805630,2516.700203,-10214.842000,-1838.629195
200.805952,1924.535449,-9770.718434,-1685.410096
200.806275,1110.308913,-9622.677246,-1838.629195
200.806597,740.205942,-9400.615463,-1915.238745
200.806919,0.000000,-9400.615463,-2068.457845
200.807241,-370.102971,-9400.615463,-2374.896044
200.807564,-814.226536,-9326.594869,-2451.505594
200.807886,-740.205942,-9178.553681,-2145.067394
200.808208,-222.061783,-9474.636058,-1991.848295
200.808531,296.082377,-9474.636058,-1838.629195
200.808853,740.205942,-9252.574275,-2221.676944
200.809175,666.185348,-9474.636058,-2068.457845
200.809497,814.226536,-9548.656652,-1685.410096
200.809820,1110.308913,-9474.636058,-1915.238745
200.810142,1332.370696,-9770.718434,-2145.067394
200.810464,1036.288319,-9474.636058,-1608.800546
200.810786,1480.411884,-9696.697840,-1685.410096
200.811109,1554.432478,-9474.636058,-1532.190996
200.811431,1480.411884,-9622.677246,-1378.971896
200.811753,666.185348,-9030.512492,-995.924147
200.812076,-148.041188,-8734.430116,-689.485948
200.812398,-740.205942,-8216.285956,-919.314598
200.812720,-1258.350101,-8364.327145,-1762.019645
200.813042,-1850.514855,-8438.347739,-1762.019645
200.813365,-2072.576638,-8586.388927,-1762.019645
200.813687,-1850.514855,-8956.491898,-1608.800546
200.814009,-1628.453072,-9548.656652,-1149.143247
200.814331,-1332.370696,-10140.821405,-766.095498
200.814654,-888.247130,-10584.944971,-1455.581446
200.814976,-1036.288319,-10288.862594,-1762.019645
200.815298,-962.267725,-10140.821405,-1838.629195
200.815620,-1332.370696,-9770.718434,-1915.238745
200.815943,-1258.350101,-9474.636058,-1302.362347
200.816265,-1554.432478,-9252.574275,-1225.752797
200.816587,-1776.494261,-9104.533087,-1149.143247
200.816910,-1998.556043,-9400.615463,-1072.533697
200.817232,-2368.659014,-9696.697840,-919.314598
200.817554,-2886.803174,-9030.512492,-612.876398
200.817876,-2738.761985,-9178.553681,-995.924147
200.818199,-2368.659014,-8956.491898,-919.314598
200.818521,-1702.473667,-8660.409521,-1072.533697
200.818843,-1480.411884,-8660.409521,-1378.971896
200.819165,-666.185348,-8438.347739,-1302.362347
200.819488,-592.164754,-8882.471304,-766.095498
200.819810,-370.102971,-9326.594869,-995.924147
200.820132,-222.061783,-10066.800811,-1608.800546
200.820454,-592.164754,-9918.759623,-1762.019645
200.820777,-888.247130,-10214.842000,-1915.238745
200.821099,-962.267725,-9400.615463,-1455.581446
200.821421,-1110.308913,-9252.574275,-1762.019645
200.821744,-1554.432478,-8512.368333,-2068.457845
200.822066,-1628.453072,-8660.409521,-1838.629195
200.822388,-1776.494261,-8660.409521,-1532.190996
200.822711,-1406.391290,-9104.533087,-1838.629195
200.823033,-1258.350101,-8660.409521,-1608.800546
200.823355,-814.226536,-8882.471304,-1762.019645
200.823678,-296.082377,-8882.471304,-1532.190996
200.824000,666.185348,-9252.574275,-1838.629195
200.824322,1110.308913,-9326.594869,-2681.334243
200.824645,1924.535449,-9474.636058,-1608.800546
200.824967,2220.617826,-9622.677246,-2068.457845
200.825289,2590.720797,-10288.862594,-2221.676944
200.825612,2368.659014,-10436.903782,-2145.067394
200.825934,2072.576638,-10584.944971,-1685.410096
200.826256,1184.329507,-10066.800811,-1532.190996
200.826579,444.123565,-8956.491898,-1991.848295
200.826901,0.000000,-8734.430116,-2374.896044
200.827223,-370.102971,-9104.533087,-2068.457845
200.827546,-814.226536,-9252.574275,-2145.067394
200.827868,-962.267725,-8882.471304,-1762.019645
200.828190,-1332.370696,-9474.636058,-1455.581446
200.828513,-592.164754,-9844.739029,-1991.848295
200.828835,-222.061783,-10066.800811,-1915.238745
200.829157,222.061783,-9770.718434,-1608.800546
200.829480,222.061783,-9696.697840,-1762.019645
200.829802,1036.288319,-9474.636058,-1838.629195
200.830124,1406.391290,-9474.636058,-2221.676944
200.830447,1628.453072,-9104.533087,-1915.238745
200.830769,1702.473667,-9770.718434,-1991.848295
200.831091,2072.576638,-9770.718434,-1072.533697
200.831414,2146.597232,-9474.636058,-995.924147
200.831736,1924.535449,-8808.450710,-612.876398
200.832058,1184.329507,-8882.471304,-995.924147
200.832381,222.061783,-8586.388927,-766.095498
200.832703,-444.123565,-7846.182985,-612.876398
200.833025,-1554.432478,-7328.038826,-995.924147
200.833348,-1480.411884,-7846.182985,-1991.848295
200.833670,-1628.453072,-8216.285956,-1455.581446
200.833992,-1628.453072,-9178.553681,-1225.752797
200.834315,-1628.453072,-9622.677246,-1302.362347
200.834637,-1702.473667,-9992.780217,-1608.800546
200.834959,-1332.370696,-10214.842000,-1838.629195
200.835282,-1184.329507,-10362.883188,-1991.848295
200.835604,-1554.432478,-10362.883188,-2221.676944
200.835927,-1850.514855,-10288.862594,-1915.238745
200.836249,-2368.659014,-9992.780217,-1915.238745
200.836571,-2220.617826,-9474.636058,-1608.800546
200.836894,-2442.679609,-9548.656652,-1685.410096
200.837216,-2294.638420,-9770.718434,-1762.019645
200.837538,-2368.659014,-9622.677246,-995.924147
200.837861,-2516.700203,-9548.656652,-612.876398
200.838183,-2442.679609,-9400.615463,-536.266849
200.838505,-2294.638420,-9030.512492,-1532.190996
200.838828,-1998.556043,-8734.430116,-1302.362347
200.839150,-1406.391290,-8586.388927,-1149.143247
200.839472,-814.226536,-8734.430116,-1225.752797
200.839795,74.020594,-8660.409521,-1455.581446
200.840117,592.164754,-9474.636058,-1838.629195
200.840439,518.144159,-9474.636058,-1838.629195
200.840762,296.082377,-10510.924376,-1838.629195
200.841084,-296.082377,-10288.862594,-2145.067394
200.841406,-814.226536,-10214.842000,-2451.505594
200.841729,-1702.473667,-9104.533087,-1685.410096
200.842051,-1554.432478,-8808.450710,-1685.410096
200.842373,-1480.411884,-8290.306550,-1685.410096
200.842696,-1702.473667,-8142.265362,-1838.629195
200.843018,-1554.432478,-8290.306550,-1455.581446
200.843340,-1110.308913,-8364.327145,-1762.019645
200.843663,-592.164754,-8586.388927,-2145.067394
200.843985,-740.205942,-8882.471304,-1685.410096
200.844307,0.000000,-9326.594869,-1762.019645
200.844630,814.226536,-9474.636058,-1915.238745
200.844952,1480.411884,-9326.594869,-1762.019645
200.845274,2220.617826,-9474.636058,-2068.457845
200.845597,2664.741391,-9696.697840,-1991.848295
200.845919,2220.617826,-10066.800811,-1685.410096
200.846241,1554.432478,-9622.677246,-1838.629195
200.846564,1036.288319,-9474.636058,-2374.896044
200.846886,370.102971,-9178.553681,-2451.505594
200.847208,0.000000,-9178.553681,-2528.115143
200.847531,-592.164754,-9178.553681,-2298.286494
200.847853,-666.185348,-9474.636058,-1991.848295
200.848175,-814.226536,-10140.821405,-1915.238745
200.848498,-518.144159,-10288.862594,-1532.190996
200.848820,-296.082377,-10140.821405,-1991.848295
200.849142,0.000000,-9252.574275,-1532.190996
200.849465,222.061783,-9326.594869,-1915.238745
200.849787,1258.350101,-9252.574275,-1991.848295
200.850109,1554.432478,-9252.574275,-2145.067394
200.850432,1332.370696,-8808.450710,-1608.800546
200.850754,1406.391290,-9548.656652,-1072.533697
200.851076,1184.329507,-9844.739029,-1532.190996
200.851399,814.226536,-9992.780217,-1685.410096
200.851721,0.000000,-9474.636058,-1149.143247
200.852043,-370.102971,-9252.574275,-1225.752797
200.852366,-740.205942,-8216.285956,-612.876398
200.852688,-962.267725,-7846.182985,-995.924147
200.853010,-962.267725,-7772.162391,-1378.971896
200.853333,-1036.288319,-8216.285956,-1685.410096
200.853655,-1184.329507,-8364.327145,-1378.971896
200.853977,-666.185348,-9474.636058,-1225.752797
200.854300,-592.164754,-10066.800811,-766.095498
200.854622,-592.164754,-10510.924376,-1225.752797
200.854944,-740.205942,-10436.903782,-1455.581446
200.855267,-518.144159,-10140.821405,-1685.410096
200.855589,-518.144159,-9252.574275,-1915.238745
200.855911,-592.164754,-9400.615463,-1072.533697
200.856234,-962.267725,-9178.553681,-1072.533697
200.856556,-1332.370696,-9178.553681,-1532.190996
200.856878,-2146.597232,-9474.636058,-1302.362347
200.857201,-2590.720797,-9696.697840,-995.924147
200.857523,-3330.926739,-9252.574275,-383.047749
200.857845,-3404.947333,-9400.615463,-1149.143247
200.858168,-3404.947333,-9474.636058,-1149.143247
200.858490,-2664.741391,-8956.491898,-995.924147
200.858812,-2146.597232,-8956.491898,-1225.752797
200.859135,-1184.329507,-8808.450710,-1915.238745
200.859457,-296.082377,-9104.533087,-1072.533697
200.859779,-148.041188,-9178.553681,-1072.533697
200.860102,0.000000,-9844.739029,-1455.581446
200.860424,0.000000,-9770.718434,-1685.410096
200.860746,0.000000,-9844.739029,-1915.238745
200.861069,0.000000,-9770.718434,-1685.410096
200.861391,0.000000,-9844.739029,-2068.457845
200.861713,-666.185348,-9104.533087,-1302.362347
200.862036,-962.267725,-8808.450710,-1762.019645
200.862358,-1406.391290,-8438.347739,-1378.971896
200.862680,-1258.350101,-8660.409521,-1532.190996
200.863003,-1258.350101,-8586.388927,-1532.190996
200.863325,-1406.391290,-8438.347739,-1991.848295
200.863647,-888.247130,-8586.388927,-1762.019645
200.863970,-296.082377,-8882.471304,-1991.848295
200.864292,148.041188,-8808.450710,-2528.115143
200.864614,666.185348,-9474.636058,-1915.238745
200.864937,1332.370696,-10066.800811,-1838.629195
200.865259,1850.514855,-10362.883188,-2145.067394
200.865581,1998.556043,-10214.842000,-2298.286494
200.865904,1554.432478,-10214.842000,-2145.067394
200.866226,1332.370696,-9326.594869,-1532.190996
200.866548,1036.288319,-9252.574275,-2221.676944
200.866871,666.185348,-8734.430116,-2221.676944
200.867193,74.020594,-9178.553681,-2145.067394
200.867515,-222.061783,-9474.636058,-1455.581446
200.867838,-1258.350101,-9326.594869,-1915.238745
200.868160,-1332.370696,-9178.553681,-1378.971896
200.868482,-814.226536,-9252.574275,-1838.629195
200.868805,0.000000,-9548.656652,-2068.457845
200.869127,740.205942,-9474.636058,-2145.067394
200.869449,1110.308913,-9400.615463,-1838.629195
200.869772,1184.329507,-9474.636058,-842.705048
200.870094,2072.576638,-9918.759623,-1608.800546
200.870416,2146.597232,-9474.636058,-1532.190996
200.870739,1776.494261,-9844.739029,-1838.629195
200.871061,1628.453072,-9622.677246,-1532.190996
200.871383,1258.350101,-9474.636058,-689.485948
200.871706,1258.350101,-8586.388927,-1149.143247
200.872028,740.205942,-8808.450710,-1302.362347
200.872350,222.061783,-8660.409521,-995.924147
200.872673,-296.082377,-8290.306550,-995.924147
200.872995,-592.164754,-8364.327145,-995.924147
200.873317,-888.247130,-8586.388927,-842.705048
200.873640,-1110.308913,-8882.471304,-1532.190996
200.873962,-1258.350101,-9178.553681,-1072.533697
200.874284,-1332.370696,-9474.636058,-1072.533697
200.874607,-962.267725,-10066.800811,-1608.800546
200.874929,-740.205942,-9992.780217,-1838.629195
200.875251,-444.123565,-10066.800811,-2068.457845
200.875574,-370.102971,-10214.842000,-1608.800546
200.875896,-444.123565,-10436.903782,-1532.190996
200.876218,-814.226536,-10436.903782,-1378.971896
200.876541,-1184.329507,-10066.800811,-1302.362347
200.876863,-1850.514855,-9326.594869,-995.924147
200.877185,-2664.741391,-9030.512492,-1455.581446
200.877508,-3330.926739,-9178.553681,-1302.362347
200.877830,-3627.009116,-9178.553681,-766.095498
200.878152,-3923.091493,-8882.471304,-919.314598
200.878475,-3849.070898,-8586.388927,-689.485948
200.878797,-3256.906145,-9178.553681,-1532.190996
200.879119,-2368.659014,-9178.553681,-1762.019645
200.879442,-1776.494261,-8956.491898,-1532.190996
200.879764,-888.247130,-8956.491898,-1608.800546
200.880086,-296.082377,-9622.677246,-1915.238745
200.880409,-148.041188,-9548.656652,-1915.238745
200.880731,-592.164754,-10140.821405,-1915.238745
200.881053,-370.102971,-10436.903782,-1838.629195
200.881376,-592.164754,-10584.944971,-1915.238745
200.881698,-592.164754,-9770.718434,-1685.410096
200.882020,-518.144159,-9104.533087,-1455.581446
200.882343,-518.144159,-8660.409521,-1608.800546
200.882665,-666.185348,-8364.327145,-1302.362347
200.882987,-814.226536,-7846.182985,-1072.533697
200.883310,-666.185348,-8290.306550,-1378.971896
200.883632,-370.102971,-8142.265362,-1149.143247
200.883954,74.020594,-8808.450710,-1608.800546
200.884277,592.164754,-9326.594869,-1225.752797
200.884599,1036.288319,-9770.718434,-1072.533697
200.884921,1480.411884,-9622.677246,-1762.019645
200.885244,2220.617826,-10066.800811,-2221.676944
200.885566,1702.473667,-9696.697840,-2068.457845
200.885888,1480.411884,-9918.759623,-1991.848295
200.886211,444.123565,-9622.677246,-2221.676944
200.886533,0.000000,-9474.636058,-2221.676944
200.886855,-888.247130,-9326.594869,-2298.286494
200.887178,-518.144159,-9918.759623,-2681.334243
200.887500,-1332.370696,-9252.574275,-2221.676944
200.887822,-1036.288319,-9326.594869,-2221.676944
200.888145,-814.226536,-9178.553681,-1608.800546
200.888467,-296.082377,-9400.615463,-1685.410096
200.888789,0.000000,-9178.553681,-1838.629195
200.889112,222.061783,-9030.512492,-1762.019645
200.889434,740.205942,-9178.553681,-1532.190996
200.889756,1554.432478,-9326.594869,-1532.190996
200.890079,2072.576638,-9474.636058,-1685.410096
200.890401,2368.659014,-9622.677246,-1455.581446
200.890723,2294.638420,-9622.677246,-1225.752797
200.891046,2294.638420,-9548.656652,-1149.143247
200.891368,2072.576638,-9918.759623,-1532.190996
200.891690,1110.308913,-9548.656652,-1149.143247
200.892013,222.061783,-9326.594869,-995.924147
200.892335,-592.164754,-8438.347739,-1225.752797
200.892657,-518.144159,-8734.430116,-1608.800546
200.892980,-1036.288319,-8216.285956,-1608.800546
200.893302,-1332.370696,-8438.347739,-1455.581446
200.893624,-1332.370696,-8438.347739,-1378.971896
200.893947,-1110.308913,-9030.512492,-1378.971896
200.894269,-1258.350101,-9770.718434,-1378.971896
200.894591,-1628.453072,-10066.800811,-1378.971896
200.894914,-1850.514855,-9918.759623,-1762.019645
200.895236,-1554.432478,-9992.780217,-2221.676944
200.895558,-1480.411884,-9992.780217,-1915.238745
200.895881,-2072.576638,-9030.512492,-1302.362347
200.896203,-2294.638420,-9104.533087,-1608.800546
200.896525,-2220.617826,-9252.574275,-1608.800546
200.896848,-2368.659014,-9696.697840,-1532.190996
200.897170,-2442.679609,-10066.800811,-1608.800546
200.897492,-2516.700203,-9770.718434,-229.828649
200.897815,-2960.823768,-9474.636058,-1225.752797
200.898137,-2442.679609,-9622.677246,-995.924147
200.898459,-1628.453072,-9104.533087,-842.705048
200.898782,-962.267725,-8956.491898,-1225.752797
200.899104,-222.061783,-8660.409521,-612.876398
200.899426,0.000000,-8882.471304,-459.657299
200.899749,592.164754,-9474.636058,-842.705048
200.900071,444.123565,-9918.759623,-1225.752797
200.900393,74.020594,-9696.697840,-1532.190996
200.900716,-148.041188,-9770.718434,-1838.629195
200.901038,-296.082377,-9326.594869,-1685.410096
200.901361,-666.185348,-9474.636058,-2068.457845
200.901683,-1184.329507,-8956.491898,-1838.629195
200.902005,-1924.535449,-8734.430116,-1608.800546
200.902328,-1998.556043,-8512.368333,-1608.800546
200.902650,-1480.411884,-8808.450710,-1685.410096
200.902972,-1850.514855,-8586.388927,-2145.067394
200.903295,-1628.453072,-8882.471304,-1915.238745
200.903617,-1184.329507,-8734.430116,-1532.190996
200.903939,-666.185348,-8734.430116,-1915.238745
200.904262,148.041188,-8956.491898,-1762.019645
200.904584,666.185348,-9252.574275,-1608.800546
200.904906,1406.391290,-9918.759623,-1991.848295
200.905229,2072.576638,-10214.842000,-2068.457845
200.905551,2220.617826,-10066.800811,-1838.629195
200.905873,2368.659014,-10436.903782,-1608.800546
200.906196,2220.617826,-9770.718434,-1225.752797
200.906518,1480.411884,-8956.491898,-1455.581446
200.906840,592.164754,-8512.368333,-1991.848295
200.907163,0.000000,-8956.491898,-2068.457845
200.907485,-148.041188,-9400.615463,-1915.238745
200.907807,-222.061783,-9918.759623,-1378.971896
200.908130,-814.226536,-9474.636058,-1991.848295
200.908452,-222.061783,-9918.759623,-1685.410096
200.908774,296.082377,-10066.800811,-1532.190996
200.909097,814.226536,-9844.739029,-1762.019645
200.909419,518.144159,-9326.594869,-1532.190996
200.909741,1258.350101,-9474.636058,-1608.800546
200.910064,814.226536,-9326.594869,-1991.848295
200.910386,1258.350101,-9400.615463,-2221.676944
200.910708,1258.350101,-9770.718434,-2221.676944
200.911031,1554.432478,-9696.697840,-1455.581446
200.911353,1776.494261,-9770.718434,-1378.971896
200.911675,1406.391290,-8512.368333,-995.924147
200.911998,1332.370696,-9104.533087,-919.314598
200.912320,518.144159,-8660.409521,-919.314598
200.912642,-444.123565,-8216.285956,-995.924147
200.912965,-1036.288319,-7550.100608,-1225.752797
200.913287,-1036.288319,-8142.265362,-1685.410096
200.913609,-1036.288319,-8438.347739,-1608.800546
200.913932,-962.267725,-8734.430116,-995.924147
200.914254,-962.267725,-9178.553681,-919.314598
200.914576,-740.205942,-9696.697840,-1225.752797
200.914899,-370.102971,-10214.842000,-1302.362347
200.915221,-666.185348,-10066.800811,-1762.019645
200.915543,-1184.329507,-9992.780217,-1608.800546
200.915866,-1480.411884,-9844.739029,-1838.629195
200.916188,-1924.535449,-9770.718434,-1608.800546
200.916510,-2442.679609,-9548.656652,-1225.752797
200.916833,-2590.720797,-9474.636058,-1762.019645
200.917155,-3034.844362,-9474.636058,-1762.019645
200.917477,-3256.906145,-9622.677246,-1378.971896
200.917800,-3552.988522,-9770.718434,-995.924147
200.918122,-3182.885551,-9400.615463,-306.438199
200.918444,-2738.761985,-9548.656652,-1608.800546
200.918767,-2738.761985,-9326.594869,-1608.800546
200.919089,-2146.597232,-9104.533087,-1378.971896
200.919411,-1184.329507,-9400.615463,-1532.190996
200.919734,-222.061783,-9178.553681,-1532.190996
200.920056,518.144159,-9326.594869,-1608.800546
200.920378,740.205942,-10066.800811,-1762.019645
200.920701,444.123565,-10436.903782,-1455.581446
200.921023,74.020594,-9992.780217,-1685.410096
200.921345,-370.102971,-9844.739029,-1991.848295
200.921667,-666.185348,-9178.553681,-1838.629195
200.921990,-1184.329507,-8364.327145,-1991.848295
200.922312,-1702.473667,-8216.285956,-1532.190996
200.922634,-1998.556043,-8364.327145,-1685.410096
200.922957,-1998.556043,-8216.285956,-1378.971896
200.923279,-1850.514855,-8512.368333,-1915.238745
200.923601,-1998.556043,-8808.450710,-1915.238745
200.923923,-962.267725,-9400.615463,-1838.629195
200.924246,-666.185348,-9474.636058,-1608.800546
200.924568,74.020594,-9918.759623,-1838.629195
200.924890,814.226536,-9548.656652,-2145.067394
200.925213,1924.535449,-9844.739029,-2221.676944
200.925535,2072.576638,-10066.800811,-1455.581446
200.925857,1998.556043,-9992.780217,-1378.971896
200.926179,1554.432478,-9918.759623,-1608.800546
200.926502,1036.288319,-9548.656652,-1762.019645
200.926824,518.144159,-9030.512492,-1762.019645
200.927146,518.144159,-9252.574275,-2451.505594
200.927469,-148.041188,-8956.491898,-1915.238745
200.927791,-518.144159,-8734.430116,-1608.800546
200.928113,-296.082377,-9104.533087,-1302.362347
200.928435,222.061783,-9622.677246,-1685.410096
200.928758,444.123565,-9474.636058,-919.314598
200.929080,740.205942,-9770.718434,-995.924147
200.929402,888.247130,-9696.697840,-1302.362347
200.929725,1628.453072,-9474.636058,-1838.629195
200.930047,1924.535449,-9696.697840,-2068.457845
200.930369,1628.453072,-9770.718434,-1685.410096
200.930692,1184.329507,-9104.533087,-1302.362347
200.931014,1258.350101,-9474.636058,-1838.629195
200.931336,888.247130,-9844.739029,-1915.238745
200.931658,444.123565,-9770.718434,-1532.190996
200.931981,-296.082377,-9474.636058,-1225.752797
200.932303,-1036.288319,-8438.347739,-1149.143247
200.932625,-1110.308913,-8438.347739,-1608.800546
200.932948,-1184.329507,-7994.224174,-1915.238745
200.933270,-1332.370696,-8142.265362,-1838.629195
200.933592,-1332.370696,-8142.265362,-1302.362347
200.933914,-814.226536,-9030.512492,-1991.848295
200.934237,-888.247130,-9474.636058,-1072.533697
200.934559,-518.144159,-10510.924376,-1378.971896
200.934881,-370.102971,-10214.842000,-1455.581446
200.935204,0.000000,-10214.842000,-1838.629195
200.935526,-222.061783,-9992.780217,-1149.143247
200.935848,0.000000,-9992.780217,-995.924147
200.936170,-1184.329507,-9104.533087,-1302.362347
200.936493,-1332.370696,-9252.574275,-1608.800546
200.936815,-1924.535449,-9104.533087,-1608.800546
200.937137,-2294.638420,-9770.718434,-1302.362347
200.937460,-2960.823768,-9548.656652,-919.314598
200.937782,-2738.761985,-9992.780217,-919.314598
200.938104,-3182.885551,-9622.677246,-919.314598
200.938426,-2738.761985,-9622.677246,-919.314598
200.938749,-2294.638420,-9104.533087,-1225.752797
200.939071,-1554.432478,-8808.450710,-1302.362347
200.939393,-1110.308913,-8364.327145,-1378.971896
200.939716,-518.144159,-8956.491898,-1072.533697
200.940038,-444.123565,-9474.636058,-1072.533697
200.940360,-814.226536,-9474.636058,-1608.800546
200.940682,-1036.288319,-9918.759623,-1762.019645
200.941005,-1258.350101,-9252.574275,-1225.752797
200.941327,-1184.329507,-9622.677246,-1838.629195
200.941649,-1480.411884,-8956.491898,-1915.238745
200.941972,-1702.473667,-8586.388927,-1685.410096
200.942294,-1628.453072,-8290.306550,-1532.190996
200.942616,-1332.370696,-8660.409521,-1608.800546
200.942938,-1332.370696,-7920.203579,-1991.848295
200.943261,-1036.288319,-8808.450710,-1762.019645
200.943583,-592.164754,-8808.450710,-1455.581446
200.943905,148.041188,-9474.636058,-1608.800546
200.944228,740.205942,-9400.615463,-2145.067394
200.944550,1036.288319,-9844.739029,-2221.676944
200.944872,1480.411884,-9992.780217,-1838.629195
200.945194,1702.473667,-9844.739029,-2374.896044
200.945517,1776.494261,-9770.718434,-2374.896044
200.945839,1924.535449,-9992.780217,-1838.629195
200.946161,1628.453072,-9548.656652,-1532.190996
200.946484,962.267725,-9474.636058,-1685.410096
200.946806,518.144159,-9104.533087,-1991.848295
200.947128,518.144159,-9400.615463,-2298.286494
200.947450,0.000000,-9622.677246,-2221.676944
200.947773,0.000000,-9770.718434,-2068.457845
200.948095,-222.061783,-9622.677246,-2145.067394
200.948417,0.000000,-9770.718434,-1685.410096
200.948740,74.020594,-9844.739029,-1762.019645
200.949062,518.144159,-9622.677246,-2068.457845
200.949384,592.164754,-9474.636058,-1762.019645
200.949706,1406.391290,-9474.636058,-1532.190996
200.950029,1628.453072,-9474.636058,-1532.190996
200.950351,2146.597232,-9474.636058,-1915.238745
200.950673,2146.597232,-9622.677246,-1838.629195
200.950996,2072.576638,-9474.636058,-1072.533697
200.951318,1998.556043,-9474.636058,-1149.143247
200.951640,1776.494261,-8364.327145,-842.705048
200.951962,1110.308913,-8660.409521,-1302.362347
200.952285,740.205942,-8512.368333,-536.266849
200.952607,0.000000,-8364.327145,-766.095498
200.952929,-518.144159,-7994.224174,-842.705048
200.953252,-814.226536,-8290.306550,-1072.533697
200.953574,-1258.350101,-8290.306550,-1378.971896
200.953896,-1406.391290,-9030.512492,-1302.362347
200.954218,-1332.370696,-9030.512492,-1302.362347
200.954541,-1480.411884,-9548.656652,-1762.019645
200.954863,-962.267725,-9770.718434,-1762.019645
200.955185,-592.164754,-10140.821405,-1685.410096
200.955508,-1036.288319,-9992.780217,-1762.019645
200.955830,-1480.411884,-10140.821405,-1378.971896
200.956152,-1850.514855,-9548.656652,-1378.971896
200.956474,-2220.617826,-9252.574275,-1762.019645
200.956797,-2516.700203,-8808.450710,-1072.533697
200.957119,-3182.885551,-9474.636058,-1532.190996
200.957441,-3552.988522,-9104.533087,-1685.410096
200.957764,-3552.988522,-9474.636058,-1302.362347
200.958086,-3849.070898,-9696.697840,-1225.752797
200.958408,-3108.864956,-9992.780217,-1302.362347
200.958730,-3034.844362,-9696.697840,-1455.581446
200.959053,-2368.659014,-9548.656652,-1455.581446
200.959375,-1554.432478,-9474.636058,-1685.410096
200.959697,-740.205942,-9104.533087,-1685.410096
200.960020,-296.082377,-9474.636058,-1915.238745
200.960342,0.000000,-9622.677246,-1455.581446
200.960664,-148.041188,-10288.862594,-1762.019645
200.960987,0.000000,-10288.862594,-1762.019645
200.961309,-444.123565,-10362.883188,-1991.848295
200.961631,-592.164754,-9474.636058,-1915.238745
200.961953,-740.205942,-9178.553681,-1455.581446
200.962276,-888.247130,-8438.347739,-1455.581446
200.962598,-1184.329507,-8216.285956,-1225.752797
200.962920,-1332.370696,-7624.121203,-1532.190996
200.963243,-1184.329507,-8216.285956,-2145.067394
200.963565,-592.164754,-8438.347739,-1915.238745
200.963887,-592.164754,-9400.615463,-1991.848295
200.964209,-296.082377,-9474.636058,-1762.019645
200.964532,444.123565,-9844.739029,-1608.800546
200.964854,1110.308913,-9844.739029,-1762.019645
200.965176,1850.514855,-9548.656652,-2068.457845
200.965499,2072.576638,-9770.718434,-1608.800546
200.965821,1628.453072,-9918.759623,-1991.848295
200.966143,888.247130,-9474.636058,-1838.629195
200.966465,74.020594,-9252.574275,-1915.238745
200.966788,0.000000,-8808.450710,-1838.629195
200.967110,222.061783,-9474.636058,-2604.724693
200.967432,-370.102971,-8956.491898,-2221.676944
200.967755,-444.123565,-9252.574275,-2068.457845
200.968077,-148.041188,-9400.615463,-1302.362347
200.968399,74.020594,-9918.759623,-1608.800546
200.968721,222.061783,-9622.677246,-1762.019645
200.969044,0.000000,-9622.677246,-1149.143247
200.969366,518.144159,-9400.615463,-1455.581446
200.969688,1258.350101,-9326.594869,-1762.019645
200.970011,1850.514855,-9622.677246,-1991.848295
200.970333,2072.576638,-9030.512492,-1762.019645
200.970655,1628.453072,-9474.636058,-995.924147
200.970977,1480.411884,-9548.656652,-919.314598
200.971300,1258.350101,-9770.718434,-1225.752797
200.971622,518.144159,-9326.594869,-1685.410096
200.971944,-222.061783,-9104.533087,-1378.971896
200.972267,-518.144159,-8216.285956,-842.705048
200.972589,-814.226536,-8364.327145,-1302.362347
200.972911,-740.205942,-8142.265362,-995.924147
200.973233,-962.267725,-8364.327145,-1302.362347
200.973556,-962.267725,-8216.285956,-1455.581446
200.973878,-888.247130,-8882.471304,-1149.143247
200.974200,-814.226536,-9474.636058,-1149.143247
200.974523,-1036.288319,-10288.862594,-1149.143247
200.974845,-666.185348,-10140.821405,-1455.581446
200.975167,-518.144159,-9844.739029,-1915.238745
200.975489,-444.123565,-10066.800811,-1685.410096
200.975812,-888.247130,-9622.677246,-1532.190996
200.976134,-1480.411884,-9548.656652,-1225.752797
200.976456,-1850.514855,-9326.594869,-1225.752797
200.976779,-2146.597232,-9400.615463,-1302.362347
200.977101,-2516.700203,-9622.677246,-1149.143247
200.977423,-2812.782580,-9548.656652,-919.314598
200.977745,-3182.885551,-9474.636058,-995.924147
200.978068,-3034.844362,-9770.718434,-766.095498
200.978390,-2516.700203,-9548.656652,-995.924147
200.978712,-2294.638420,-9252.574275,-1532.190996
200.979035,-1406.391290,-9474.636058,-1838.629195
200.979357,-1036.288319,-9400.615463,-1762.019645
200.979679,-222.061783,-9400.615463,-1072.533697
200.980001,-296.082377,-9474.636058,-1762.019645
200.980324,-518.144159,-9474.636058,-1991.848295
200.980646,-592.164754,-9696.697840,-1915.238745
200.980968,-814.226536,-9252.574275,-2221.676944
200.981291,-1258.350101,-9474.636058,-1608.800546
200.981613,-1480.411884,-9178.553681,-1685.410096
200.981935,-1480.411884,-9178.553681,-1532.190996
200.982257,-1702.473667,-8660.409521,-1225.752797
200.982580,-1406.391290,-8364.327145,-995.924147
200.982902,-1480.411884,-7476.080014,-1608.800546
200.983224,-962.267725,-8512.368333,-1915.238745
200.983547,-444.123565,-8512.368333,-1915.238745
200.983869,74.020594,-9030.512492,-1915.238745
200.984191,444.123565,-9252.574275,-1838.629195
200.984513,962.267725,-9770.718434,-2451.505594
200.984836,1702.473667,-10140.821405,-1915.238745
200.985158,2072.576638,-10584.944971,-2374.896044
200.985480,2146.597232,-9992.780217,-2604.724693
200.985803,2072.576638,-10362.883188,-2374.896044
200.986125,1554.432478,-9696.697840,-1685.410096
200.986447,1702.473667,-9474.636058,-1762.019645
200.986769,518.144159,-8660.409521,-1838.629195
200.987092,148.041188,-9030.512492,-2374.896044
200.987414,74.020594,-9326.594869,-2068.457845
200.987736,-222.061783,-9474.636058,-1608.800546
200.988059,0.000000,-9474.636058,-1685.410096
200.988381,-148.041188,-9548.656652,-1762.019645
200.988703,74.020594,-9474.636058,-1532.190996
200.989025,518.144159,-9474.636058,-1762.019645
200.989348,370.102971,-9326.594869,-1915.238745
200.989670,814.226536,-9326.594869,-1455.581446
200.989992,962.267725,-9400.615463,-2068.457845
200.990315,1480.411884,-9474.636058,-2145.067394
200.990637,1628.453072,-9696.697840,-2145.067394
200.990959,1554.432478,-9918.759623,-1608.800546
200.991282,1406.391290,-9474.636058,-995.924147
200.991604,1332.370696,-8956.491898,-1378.971896
200.991926,962.267725,-8808.450710,-1225.752797
200.992248,592.164754,-8734.430116,-1149.143247
200.992571,-444.123565,-8290.306550,-919.314598
200.992893,-888.247130,-7920.203579,-536.266849
200.993215,-1110.308913,-8142.265362,-1302.362347
200.993538,-1184.329507,-7994.224174,-1378.971896
200.993860,-1184.329507,-8438.347739,-1149.143247
200.994182,-1184.329507,-8808.450710,-995.924147
200.994504,-1258.350101,-9548.656652,-1072.533697
200.994827,-1480.411884,-9622.677246,-1149.143247
200.995149,-518.144159,-10510.924376,-1608.800546
200.995471,-1036.288319,-10214.842000,-1608.800546
200.995794,-1406.391290,-10510.924376,-1608.800546
200.996116,-1924.535449,-9992.780217,-1685.410096
200.996438,-2294.638420,-9548.656652,-1378.971896
200.996760,-2146.597232,-9474.636058,-1149.143247
200.997083,-2516.700203,-9696.697840,-1762.019645
200.997405,-2886.803174,-9548.656652,-1608.800546
200.997727,-3034.844362,-9770.718434,-1302.362347
200.998050,-3182.885551,-9548.656652,-842.705048
200.998372,-3034.844362,-9252.574275,-612.876398
200.998694,-2516.700203,-9178.553681,-1532.190996
200.999016,-2072.576638,-8882.471304,-1685.410096
200.999339,-1258.350101,-8956.491898,-1455.581446
200.999661,-370.102971,-9104.533087,-1455.581446
200.999983,0.000000,-9178.553681,-1302.362347
201.000306,296.082377,-9474.636058,-1302.362347
201.000628,148.041188,-9844.739029,-1762.019645
201.000950,0.000000,-10066.800811,-1838.629195
201.001272,-444.123565,-10214.842000,-1991.848295
201.001595,-814.226536,-9548.656652,-1838.629195
201.001917,-592.164754,-9104.533087,-2221.676944
201.002239,-814.226536,-8512.368333,-1991.848295
201.002562,-1110.308913,-8512.368333,-1762.019645
201.002884,-1184.329507,-8364.327145,-1532.190996
201.003206,-962.267725,-8808.450710,-1532.190996
201.003528,-370.102971,-8882.471304,-1991.848295
201.003851,-296.082377,-8882.471304,-1378.971896
201.004173,0.000000,-9178.553681,-1685.410096
201.004495,666.185348,-9622.677246,-1762.019645
201.004818,1184.329507,-9474.636058,-1685.410096
201.005140,1776.494261,-10066.800811,-2068.457845
201.005462,1776.494261,-9696.697840,-1455.581446
201.005784,1702.473667,-10140.821405,-1685.410096
201.006107,1110.308913,-9770.718434,-1532.190996
201.006429,592.164754,-9696.697840,-1762.019645
201.006751,148.041188,-9326.594869,-1762.019645
201.007074,-148.041188,-9252.574275,-2987.772442
201.007396,-222.061783,-9178.553681,-2451.505594
201.007718,-592.164754,-9252.574275,-2145.067394
201.008040,-814.226536,-9400.615463,-1608.800546
201.008363,-370.102971,-9844.739029,-1225.752797
201.008685,0.000000,-9326.594869,-1225.752797
201.009007,0.000000,-9252.574275,-1455.581446
201.009330,222.061783,-9104.533087,-1532.190996
201.009652,1036.288319,-9252.574275,-1838.629195
201.009974,1554.432478,-9474.636058,-1532.190996
201.010296,1628.453072,-9326.594869,-1608.800546
201.010619,1406.391290,-9474.636058,-1608.800546
201.010941,1184.329507,-9474.636058,-1532.190996
201.011263,1184.329507,-9770.718434,-1532.190996
201.011586,888.247130,-9918.759623,-1455.581446
201.011908,0.000000,-9474.636058,-766.095498
201.012230,-296.082377,-8586.388927,-383.047749
201.012552,-814.226536,-8512.368333,-1302.362347
201.012875,-740.205942,-7994.224174,-1685.410096
201.013197,-1332.370696,-8068.244768,-1608.800546
201.013519,-1406.391290,-8142.265362,-1532.190996
201.013842,-1480.411884,-8734.430116,-1608.800546
201.014164,-1036.288319,-9400.615463,-995.924147
201.014486,-962.267725,-10510.924376,-1149.143247
201.014808,-962.267725,-10288.862594,-1378.971896
201.015131,-1036.288319,-10214.842000,-1608.800546
201.015453,-740.205942,-9918.759623,-1838.629195
201.015775,-444.123565,-9992.780217,-1532.190996
201.016098,-1554.432478,-9474.636058,-1225.752797
201.016420,-2072.576638,-9252.574275,-1378.971896
201.016742,-2294.638420,-9474.636058,-1455.581446
201.017064,-2590.720797,-10140.821405,-1378.971896
201.017387,-2738.761985,-9770.718434,-995.924147
201.017709,-2812.782580,-9770.718434,-1532.190996
201.018031,-2738.761985,-9400.615463,-995.924147
201.018354,-2072.576638,-8956.491898,-1072.533697
201.018676,-1554.432478,-8586.388927,-1149.143247
201.018998,-962.267725,-8512.368333,-1302.362347
201.019320,-592.164754,-8438.347739,-1455.581446
201.019643,-222.061783,-9326.594869,-1072.533697
201.019965,-370.102971,-9918.759623,-1455.581446
201.020287,-518.144159,-9918.759623,-1762.019645
201.020610,-666.185348,-9918.759623,-1991.848295
201.020932,-370.102971,-9770.718434,-1762.019645
201.021254,-592.164754,-9622.677246,-1915.238745
201.021577,-1036.288319,-8882.471304,-1991.848295
201.021899,-1480.411884,-8660.409521,-1991.848295
201.022221,-1628.453072,-8660.409521,-1455.581446
201.022543,-1628.453072,-9252.574275,-1608.800546
201.022866,-1406.391290,-8808.450710,-1608.800546
201.023188,-1332.370696,-8956.491898,-1915.238745
201.023510,-740.205942,-8734.430116,-1762.019645
201.023833,0.000000,-9252.574275,-1762.019645
201.024155,740.205942,-8882.471304,-1991.848295
201.024477,1332.370696,-8808.450710,-1838.629195
201.024799,1850.514855,-9770.718434,-1838.629195
201.025122,2368.659014,-10214.842000,-2221.676944
201.025444,2368.659014,-10288.862594,-2298.286494
201.025766,2146.597232,-10732.986159,-1915.238745
201.026089,1924.535449,-9918.759623,-919.314598
201.026411,1480.411884,-10214.842000,-1838.629195
201.026733,962.267725,-8956.491898,-1838.629195
201.027055,444.123565,-8956.491898,-2068.457845
201.027378,74.020594,-9178.553681,-2145.067394
201.027700,-296.082377,-9474.636058,-1455.581446
201.028022,-888.247130,-9252.574275,-919.314598
201.028345,-962.267725,-9622.677246,-1608.800546
201.028667,-592.164754,-9770.718434,-1685.410096
201.028989,-222.061783,-9400.615463,-1532.190996
201.029312,74.020594,-9030.512492,-1378.971896
201.029634,0.000000,-9030.512492,-1302.362347
201.029956,666.185348,-9474.636058,-2068.457845
201.030278,1184.329507,-9474.636058,-1915.238745
201.030601,1258.350101,-9548.656652,-1915.238745
201.030923,1184.329507,-9696.697840,-1455.581446
201.031245,1036.288319,-9326.594869,-1149.143247
201.031568,1554.432478,-9252.574275,-612.876398
201.031890,1184.329507,-8660.409521,-1302.362347
201.032212,740.205942,-8660.409521,-842.705048
201.032535,222.061783,-8438.347739,-919.314598
201.032857,-444.123565,-8142.265362,-766.095498
201.033179,-592.164754,-7994.224174,-1532.190996
201.033501,-962.267725,-7994.224174,-1302.362347
201.033824,-1036.288319,-8586.388927,-1378.971896
201.034146,-1184.329507,-8808.450710,-1072.533697
201.034468,-1406.391290,-9326.594869,-1378.971896
201.034791,-1184.329507,-9474.636058,-1532.190996
201.035113,-1258.350101,-10436.903782,-1991.848295
201.035435,-1258.350101,-10140.821405,-2068.457845
201.035757,-1480.411884,-10510.924376,-1991.848295
201.036080,-1924.535449,-10288.862594,-1608.800546
201.036402,-2146.597232,-9696.697840,-1302.362347
201.036724,-2738.761985,-9474.636058,-2068.457845
201.037047,-2664.741391,-9844.739029,-2068.457845
201.037369,-3108.864956,-9548.656652,-1991.848295
201.037691,-3034.844362,-9770.718434,-1225.752797
201.038014,-3256.906145,-9548.656652,-1149.143247
201.038336,-2442.679609,-9474.636058,-1302.362347
201.038658,-2442.679609,-9178.553681,-1532.190996
201.038980,-1924.535449,-9104.533087,-1532.190996
201.039303,-1406.391290,-8808.450710,-1455.581446
201.039625,-592.164754,-8956.491898,-1608.800546
201.039947,-222.061783,-8956.491898,-1838.629195
201.040270,444.123565,-9622.677246,-1991.848295
201.040592,296.082377,-9844.739029,-1838.629195
201.040914,370.102971,-10436.903782,-1915.238745
201.041237,0.000000,-10436.903782,-2145.067394
201.041559,0.000000,-9548.656652,-1991.848295
201.041881,-222.061783,-9400.615463,-1455.581446
201.042203,-814.226536,-8808.450710,-1608.800546
201.042526,-962.267725,-8808.450710,-1532.190996
201.042848,-1110.308913,-8438.347739,-1608.800546
201.043170,-888.247130,-8438.347739,-1532.190996
201.043493,-888.247130,-8290.306550,-1608.800546
201.043815,-148.041188,-8882.471304,-1685.410096
201.044137,74.020594,-9104.533087,-1455.581446
201.044459,518.144159,-9548.656652,-1532.190996
201.044782,888.247130,-9548.656652,-1608.800546
201.045104,1184.329507,-9548.656652,-1685.410096
201.045426,1406.391290,-9622.677246,-1685.410096
201.045749,1406.391290,-9918.759623,-1838.629195
201.046071,962.267725,-9696.697840,-1532.190996
201.046393,444.123565,-9622.677246,-1685.410096
201.046716,0.000000,-9030.512492,-1991.848295
201.047038,-370.102971,-9104.533087,-2145.067394
201.047360,-222.061783,-9178.553681,-2068.457845
201.047682,-148.041188,-9474.636058,-1915.238745
201.048005,-222.061783,-9474.636058,-1378.971896
201.048327,74.020594,-10214.842000,-1455.581446
201.048649,148.041188,-9474.636058,-1225.752797
201.048972,518.144159,-9844.739029,-1225.752797
201.049294,296.082377,-9252.574275,-1225.752797
201.049616,1184.329507,-8956.491898,-1455.581446
201.049939,1850.514855,-8956.491898,-1455.581446
201.050261,2146.597232,-9252.574275,-1378.971896
201.050583,1776.494261,-9474.636058,-995.924147
201.050905,1406.391290,-9326.594869,-995.924147
201.051228,962.267725,-9474.636058,-1149.143247
201.051550,444.123565,-9622.677246,-1302.362347
201.051872,-296.082377,-9252.574275,-1149.143247
201.052195,-888.247130,-8438.347739,-995.924147
201.052517,-1258.350101,-8216.285956,-1225.752797
201.052839,-1554.432478,-8290.306550,-1838.629195
201.053162,-1850.514855,-8216.285956,-1838.629195
201.053484,-1850.514855,-8438.347739,-1991.848295
201.053806,-1554.432478,-9178.553681,-1915.238745
201.054128,-1480.411884,-9622.677246,-2145.067394
201.054451,-1480.411884,-10288.862594,-1762.019645
201.054773,-1554.432478,-10288.862594,-1608.800546
201.055095,-1110.308913,-10140.821405,-2068.457845
201.055418,-814.226536,-9844.739029,-1991.848295
201.055740,-1332.370696,-9622.677246,-1302.362347
201.056062,-1332.370696,-9400.615463,-1149.143247
201.056384,-1850.514855,-9400.615463,-1455.581446
201.056707,-2072.576638,-9104.533087,-1378.971896
201.057029,-1998.556043,-9770.718434,-1302.362347
201.057351,-2368.659014,-9400.615463,-842.705048
201.057674,-2516.700203,-9474.636058,-1378.971896
201.057996,-2664.741391,-9326.594869,-1455.581446
201.058318,-2072.576638,-9474.636058,-1378.971896
201.058641,-1554.432478,-9178.553681,-1302.362347
201.058963,-1110.308913,-9030.512492,-1762.019645
201.059285,-740.205942,-9104.533087,-1762.019645
201.059607,-222.061783,-9400.615463,-1991.848295
201.059930,-222.061783,-9696.697840,-1532.190996
201.060252,-370.102971,-9918.759623,-1762.019645
201.060574,-592.164754,-9622.677246,-1915.238745
201.060897,-740.205942,-9474.636058,-1991.848295
201.061219,-1036.288319,-9400.615463,-1685.410096
201.061541,-1184.329507,-9030.512492,-1685.410096
201.061864,-1480.411884,-8734.430116,-1915.238745
201.062186,-1406.391290,-8586.388927,-1532.190996
201.062508,-1110.308913,-8956.491898,-1302.362347
201.062830,-814.226536,-8216.285956,-1532.190996
201.063153,-740.205942,-8290.306550,-1915.238745
201.063475,0.000000,-8808.450710,-1838.629195
201.063797,222.061783,-9178.553681,-1532.190996
201.064120,1110.308913,-9326.594869,-2221.676944
201.064442,1406.391290,-9844.739029,-2374.896044
201.064764,1776.494261,-9918.759623,-1762.019645
201.065086,1998.556043,-10510.924376,-1685.410096
201.065409,2146.597232,-10288.862594,-1991.848295
201.065731,1924.535449,-10510.924376,-1838.629195
201.066053,1702.473667,-10510.924376,-1762.019645
201.066376,888.247130,-9400.615463,-1302.362347
201.066698,222.061783,-8586.388927,-1762.019645
201.067020,0.000000,-8882.471304,-2298.286494
201.067343,-444.123565,-9030.512492,-1991.848295
201.067665,-370.102971,-9918.759623,-1608.800546
201.067987,-740.205942,-9178.553681,-1608.800546
201.068309,-666.185348,-9992.780217,-1762.019645
201.068632,0.000000,-9844.739029,-1455.581446
201.068954,74.020594,-9918.759623,-1608.800546
201.069276,148.041188,-9474.636058,-1608.800546
201.069599,1036.288319,-9326.594869,-995.924147
201.069921,1110.308913,-9400.615463,-1608.800546
201.070243,1480.411884,-9252.574275,-1685.410096
201.070566,1776.494261,-9252.574275,-1685.410096
201.070888,1998.556043,-9548.656652,-1225.752797
201.071210,1998.556043,-9474.636058,-842.705048
201.071532,1406.391290,-8808.450710,-536.266849
201.071855,1036.288319,-8734.430116,-612.876398
201.072177,444.123565,-8364.327145,-612.876398
201.072499,-592.164754,-7920.203579,-612.876398
201.072822,-1110.308913,-7550.100608,-842.705048
201.073144,-1258.350101,-7328.038826,-1302.362347
201.073466,-1554.432478,-8068.244768,-1762.019645
201.073788,-1702.473667,-8882.471304,-1608.800546
201.074111,-1628.453072,-9474.636058,-1378.971896
201.074433,-1776.494261,-9992.780217,-1302.362347
201.074755,-962.267725,-9844.739029,-1608.800546
201.075078,-1554.432478,-10066.800811,-2068.457845
201.075400,-962.267725,-10214.842000,-2298.286494
201.075722,-1110.308913,-10066.800811,-2221.676944
201.076045,-1332.370696,-9844.739029,-1608.800546
201.076367,-1258.350101,-9770.718434,-1302.362347
201.076689,-1924.535449,-9548.656652,-766.095498
201.077011,-1924.535449,-9844.739029,-1685.410096
201.077334,-2368.659014,-9696.697840,-1378.971896
201.077656,-2368.659014,-9474.636058,-1149.143247
201.077978,-2738.761985,-9030.512492,-842.705048
201.078301,-2220.617826,-8660.409521,-995.924147
201.078623,-2294.638420,-8660.409521,-1685.410096
201.078945,-2146.597232,-8734.430116,-1762.019645
201.079268,-1776.494261,-8734.430116,-1608.800546
201.079590,-1110.308913,-9326.594869,-1991.848295
201.079912,-888.247130,-9770.718434,-1991.848295
201.080234,-666.185348,-9844.739029,-2604.724693
201.080557,-962.267725,-10214.842000,-2221.676944
201.080879,-592.164754,-10584.944971,-2451.505594
201.081201,-888.247130,-10066.800811,-2604.724693
201.081524,-962.267725,-9992.780217,-1991.848295
201.081846,-740.205942,-9252.574275,-2145.067394
201.082168,-962.267725,-9178.553681,-2221.676944
201.082490,-888.247130,-8956.491898,-1608.800546
201.082813,-740.205942,-8660.409521,-1455.581446
201.083135,-296.082377,-8438.347739,-1532.190996
201.083457,74.020594,-8290.306550,-2068.457845
201.083780,222.061783,-8290.306550,-1149.143247
201.084102,962.267725,-8660.409521,-1225.752797
201.084424,1332.370696,-9326.594869,-1072.533697
201.084747,1776.494261,-9400.615463,-1225.752797
201.085069,2220.617826,-9474.636058,-1149.143247
201.085391,1924.535449,-9548.656652,-1608.800546
201.085713,1776.494261,-10214.842000,-1302.362347
201.086036,1110.308913,-10140.821405,-1455.581446
201.086358,148.041188,-9622.677246,-1762.019645
201.086680,-296.082377,-9178.553681,-1915.238745
201.087003,-962.267725,-9252.574275,-1915.238745
201.087325,-1036.288319,-9252.574275,-2298.286494
201.087647,-1184.329507,-9770.718434,-2068.457845
201.087970,-962.267725,-9474.636058,-1302.362347
201.088292,-370.102971,-9770.718434,-1378.971896
201.088614,370.102971,-10066.800811,-1532.190996
201.088936,740.205942,-9696.697840,-1072.533697
201.089259,592.164754,-8956.491898,-689.485948
201.089581,1258.350101,-8808.450710,-536.266849
201.089903,1628.453072,-8808.450710,-1149.143247
201.090226,2146.597232,-8808.450710,-919.314598
201.090548,1924.535449,-8956.491898,-689.485948
201.090870,1554.432478,-9326.594869,-842.705048
201.091193,1406.391290,-9474.636058,-766.095498
201.091515,962.267725,-9622.677246,-995.924147
201.091837,0.000000,-9252.574275,-766.095498
201.092159,-592.164754,-8734.430116,-689.485948
201.092482,-1554.432478,-8142.265362,-1225.752797
201.092804,-1184.329507,-8438.347739,-1685.410096
201.093126,-1628.453072,-8734.430116,-1991.848295
201.093449,-1776.494261,-8808.450710,-1532.190996
201.093771,-1554.432478,-9474.636058,-1302.362347
201.094093,-1258.350101,-9918.759623,-1991.848295
201.094415,-1332.370696,-10584.944971,-1532.190996
201.094738,-1258.350101,-10362.883188,-1685.410096
201.095060,-1184.329507,-9844.739029,-1915.238745
201.095382,-814.226536,-9770.718434,-2145.067394
201.095705,-592.164754,-9992.780217,-2221.676944
201.096027,-1258.350101,-9252.574275,-1302.362347
201.096349,-1480.411884,-9400.615463,-1762.019645
201.096672,-1850.514855,-9178.553681,-1608.800546
201.096994,-1850.514855,-10140.821405,-1455.581446
201.097316,-1850.514855,-9622.677246,-842.705048
201.097638,-2072.576638,-9548.656652,-1149.143247
201.097961,-2368.659014,-8956.491898,-1378.971896
201.098283,-1776.494261,-8882.471304,-1532.190996
201.098605,-1258.350101,-8956.491898,-1838.629195
201.098928,-1036.288319,-8882.471304,-2221.676944
201.099250,-666.185348,-9178.553681,-1838.629195
201.099572,-666.185348,-9474.636058,-1762.019645
201.099895,-370.102971,-9770.718434,-1685.410096
201.100217,-592.164754,-9844.739029,-2298.286494
201.100539,-888.247130,-9770.718434,-2604.724693
201.100861,-1110.308913,-9252.574275,-2298.286494
201.101184,-1110.308913,-9178.553681,-2374.896044
201.101506,-1184.329507,-9104.533087,-2451.505594
201.101828,-1406.391290,-9030.512492,-2374.896044
201.102151,-1332.370696,-9104.533087,-1915.238745
201.102473,-1554.432478,-9178.553681,-1685.410096
201.102795,-814.226536,-9178.553681,-1455.581446
201.103117,-666.185348,-8956.491898,-1455.581446
201.103440,-370.102971,-8512.368333,-1455.581446
201.103762,0.000000,-8512.368333,-1762.019645
201.104084,740.205942,-8586.388927,-1915.238745
201.104407,1406.391290,-9104.533087,-2145.067394
201.104729,1480.411884,-9696.697840,-2068.457845
201.105051,1998.556043,-10362.883188,-1838.629195
201.105374,2220.617826,-10732.986159,-1608.800546
201.105696,2294.638420,-10881.027347,-1378.971896
201.106018,2072.576638,-10214.842000,-1455.581446
201.106340,1702.473667,-10140.821405,-1838.629195
201.106663,1036.288319,-9030.512492,-1762.019645
201.106985,74.020594,-8956.491898,-2145.067394
201.107307,-444.123565,-9178.553681,-2068.457845
201.107630,-740.205942,-9400.615463,-1762.019645
201.107952,-1258.350101,-9474.636058,-1532.190996
201.108274,-1480.411884,-9844.739029,-1455.581446
201.108597,-888.247130,-9622.677246,-1455.581446
201.108919,-370.102971,-9474.636058,-1378.971896
201.109241,0.000000,-9104.533087,-1149.143247
201.109563,444.123565,-9104.533087,-1072.533697
201.109886,666.185348,-8882.471304,-1072.533697
201.110208,1036.288319,-8956.491898,-1378.971896
201.110530,1258.350101,-8882.471304,-1838.629195
201.110853,1480.411884,-9474.636058,-1225.752797
201.111175,1110.308913,-9548.656652,-612.876398
201.111497,1554.432478,-9770.718434,-459.657299
201.111819,814.226536,-9030.512492,-536.266849
201.112142,518.144159,-8734.430116,-995.924147
201.112464,0.000000,-8290.306550,-459.657299
201.112786,-592.164754,-7846.182985,-612.876398
201.113109,-1184.329507,-7772.162391,-689.485948
201.113431,-1480.411884,-8364.327145,-1532.190996
201.113753,-1184.329507,-9030.512492,-1455.581446
201.114076,-1110.308913,-9252.574275,-1302.362347
201.114398,-1184.329507,-9918.759623,-1455.581446
201.114720,-1110.308913,-10362.883188,-1532.190996
201.115042,-370.102971,-10510.924376,-1915.238745
201.115365,-296.082377,-10362.883188,-2068.457845
201.115687,-518.144159,-10362.883188,-1838.629195
201.116009,-740.205942,-9844.739029,-1685.410096
201.116332,-888.247130,-10066.800811,-1608.800546
201.116654,-1702.473667,-8956.491898,-995.924147
201.116976,-1850.514855,-9400.615463,-1225.752797
201.117299,-2294.638420,-9400.615463,-1455.581446
201.117621,-2516.700203,-9548.656652,-1302.362347
201.117943,-2590.720797,-9178.553681,-1225.752797
201.118265,-2442.679609,-9104.533087,-1072.533697
201.118588,-2146.597232,-9104.533087,-1225.752797
201.118910,-1776.494261,-8734.430116,-1608.800546
201.119232,-1406.391290,-8290.306550,-1762.019645
201.119555,-888.247130,-8808.450710,-2145.067394
201.119877,-592.164754,-9326.594869,-2298.286494
201.120199,-370.102971,-9474.636058,-2451.505594
201.120521,-370.102971,-9696.697840,-2145.067394
201.120844,-370.102971,-10362.883188,-2604.724693
201.121166,-740.205942,-10436.903782,-2451.505594
201.121488,-1258.350101,-10066.800811,-2604.724693
201.121811,-1332.370696,-9474.636058,-2451.505594
201.122133,-1110.308913,-9252.574275,-2451.505594
201.122455,-962.267725,-8956.491898,-2145.067394
201.122778,-1184.329507,-8808.450710,-1838.629195
201.123100,-1554.432478,-8364.327145,-1378.971896
201.123422,-1036.288319,-7994.224174,-1762.019645
201.123744,-518.144159,-8660.409521,-2374.896044
201.124067,222.061783,-9104.533087,-2221.676944
201.124389,444.123565,-9474.636058,-1915.238745
201.124711,1184.329507,-9696.697840,-1838.629195
201.125034,1480.411884,-9622.677246,-1378.971896
201.125356,1924.535449,-9918.759623,-1072.533697
201.125678,1776.494261,-10066.800811,-1455.581446
201.126001,1406.391290,-9918.759623,-1762.019645
201.126323,592.164754,-9474.636058,-2068.457845
201.126645,0.000000,-9474.636058,-1991.848295
201.126967,-518.144159,-9474.636058,-1378.971896
201.127290,-740.205942,-9400.615463,-1991.848295
201.127612,-1258.350101,-9400.615463,-1838.629195
201.127934,-1332.370696,-9030.512492,-1072.533697
201.128257,-1184.329507,-9474.636058,-1149.143247
201.128579,-1110.308913,-8586.388927,-1991.848295
201.128901,-592.164754,-9030.512492,-1378.971896
201.129224,-444.123565,-8808.450710,-1225.752797
201.129546,518.144159,-9030.512492,-1225.752797
201.129868,814.226536,-8808.450710,-1608.800546
201.130190,1184.329507,-9326.594869,-1378.971896
201.130513,1036.288319,-9622.677246,-842.705048
201.130835,1258.350101,-9918.759623,-1149.143247
201.131157,1036.288319,-9696.697840,-1072.533697
201.131480,888.247130,-9770.718434,-1378.971896
201.131802,444.123565,-9326.594869,-1072.533697
201.132124,444.123565,-8660.409521,-842.705048
201.132447,0.000000,-8216.285956,-766.095498
201.132769,-74.020594,-8068.244768,-995.924147
201.133091,-518.144159,-8216.285956,-689.485948
201.133413,-370.102971,-8586.388927,-1149.143247
201.133736,-740.205942,-8956.491898,-1225.752797
201.134058,-370.102971,-9474.636058,-1149.143247
201.134380,-370.102971,-10140.821405,-1149.143247
201.134703,-296.082377,-10066.800811,-995.924147
201.135025,-444.123565,-9770.718434,-1532.190996
201.135347,-74.020594,-9474.636058,-1762.019645
201.135670,-148.041188,-9992.780217,-1915.238745
201.135992,-444.123565,-9622.677246,-1838.629195
201.136314,-1406.391290,-9622.677246,-1685.410096
201.136636,-1702.473667,-9474.636058,-1532.190996
201.136959,-2220.617826,-9622.677246,-1685.410096
201.137281,-2368.659014,-9696.697840,-1762.019645
201.137603,-2738.761985,-9770.718434,-1149.143247
201.137926,-3108.864956,-9474.636058,-1762.019645
201.138248,-2590.720797,-9400.615463,-1455.581446
201.138570,-1998.556043,-8660.409521,-1149.143247
201.138893,-1258.350101,-8808.450710,-1455.581446
201.139215,-592.164754,-8586.388927,-1838.629195
201.139537,0.000000,-8512.368333,-1838.629195
201.139859,0.000000,-8808.450710,-1532.190996
201.140182,0.000000,-9770.718434,-1915.238745
201.140504,-666.185348,-9622.677246,-2221.676944
201.140826,-962.267725,-9696.697840,-1991.848295
201.141149,-1258.350101,-9622.677246,-2145.067394
201.141471,-1184.329507,-9770.718434,-2145.067394
201.141793,-1036.288319,-9400.615463,-2221.676944
201.142116,-1110.308913,-9252.574275,-2145.067394
201.142438,-1184.329507,-9030.512492,-1149.143247
201.142760,-888.247130,-8882.471304,-1762.019645
201.143082,-1258.350101,-8586.388927,-1915.238745
201.143405,-888.247130,-8586.388927,-2068.457845
201.143727,-296.082377,-8808.450710,-1915.238745
201.144049,296.082377,-9178.553681,-1455.581446
201.144372,666.185348,-9326.594869,-1991.848295
201.144694,740.205942,-9622.677246,-1532.190996
201.145016,1036.288319,-10140.821405,-1915.238745
201.145338,1406.391290,-10140.821405,-2298.286494
201.145661,1406.391290,-10288.862594,-2221.676944
201.145983,1258.350101,-10288.862594,-1838.629195
201.146305,370.102971,-9696.697840,-1685.410096
201.146628,296.082377,-9474.636058,-1685.410096
201.146950,74.020594,-9400.615463,-2068.457845
201.147272,-222.061783,-9474.636058,-2068.457845
201.147595,-962.267725,-9474.636058,-1762.019645
201.147917,-1036.288319,-9474.636058,-1532.190996
201.148239,-740.205942,-9770.718434,-1608.800546
201.148561,-444.123565,-9400.615463,-1302.362347
201.148884,-148.041188,-9474.636058,-1608.800546
201.149206,222.061783,-9104.533087,-1532.190996
201.149528,592.164754,-8660.409521,-919.314598
201.149851,1110.308913,-8956.491898,-1455.581446
201.150173,1258.350101,-9400.615463,-1455.581446
201.150495,1702.473667,-9400.615463,-1149.143247
201.150818,1480.411884,-9622.677246,-1072.533697
201.151140,1332.370696,-9400.615463,-383.047749
201.151462,1628.453072,-9474.636058,-995.924147
201.151784,1258.350101,-8808.450710,-842.705048
201.152107,888.247130,-8734.430116,-766.095498
201.152429,296.082377,-8364.327145,-536.266849
201.152751,-148.041188,-8364.327145,-306.438199
201.153074,-444.123565,-7772.162391,-842.705048
201.153396,-1110.308913,-8438.347739,-995.924147
201.153718,-888.247130,-8808.450710,-995.924147
201.154041,-888.247130,-8808.450710,-1225.752797
201.154363,-814.226536,-9474.636058,-1149.143247
201.154685,-518.144159,-9696.697840,-1378.971896
201.155007,-592.164754,-9770.718434,-1225.752797
201.155330,-592.164754,-9770.718434,-1762.019645
201.155652,-740.205942,-9696.697840,-1762.019645
201.155974,-962.267725,-9770.718434,-1915.238745
201.156297,-1036.288319,-9770.718434,-2298.286494
201.156619,-1332.370696,-9252.574275,-1378.971896
201.156941,-1406.391290,-9622.677246,-1838.629195
201.157264,-1702.473667,-9770.718434,-1685.410096
201.157586,-1924.535449,-9992.780217,-1762.019645
201.157908,-2146.597232,-9622.677246,-1302.362347
201.158230,-2072.576638,-9918.759623,-919.314598
201.158553,-1998.556043,-9400.615463,-1225.752797
201.158875,-1628.453072,-9104.533087,-1915.238745
201.159197,-1406.391290,-8438.347739,-1838.629195
201.159520,-814.226536,-8660.409521,-1532.190996
201.159842,-666.185348,-8364.327145,-2298.286494
201.160164,-370.102971,-8882.471304,-2451.505594
201.160487,-888.247130,-9474.636058,-2221.676944
201.160809,-1184.329507,-10214.842000,-2451.505594
201.161131,-1628.453072,-10658.965565,-2681.334243
201.161453,-1924.535449,-10214.842000,-3217.601092
201.161776,-1924.535449,-9696.697840,-2451.505594
201.162098,-1554.432478,-9770.718434,-2528.115143
201.162420,-1406.391290,-9104.533087,-2451.505594
201.162743,-1406.391290,-8956.491898,-2221.676944
201.163065,-1184.329507,-8956.491898,-1991.848295
201.163387,-592.164754,-8808.450710,-2145.067394
201.163710,-370.102971,-9104.533087,-1991.848295
201.164032,0.000000,-9178.553681,-1838.629195
201.164354,592.164754,-9548.656652,-1608.800546
201.164676,1110.308913,-9474.636058,-1378.971896
201.164999,1776.494261,-8660.409521,-1532.190996
201.165321,2294.638420,-9252.574275,-689.485948
201.165643,1776.494261,-9548.656652,-1302.362347
201.165966,1184.329507,-9474.636058,-995.924147
201.166288,74.020594,-9474.636058,-1532.190996
201.166610,-444.123565,-9474.636058,-1762.019645
201.166933,-1036.288319,-9474.636058,-1532.190996
201.167255,-1258.350101,-9474.636058,-2145.067394
201.167577,-1554.432478,-9252.574275,-2298.286494
201.167899,-1776.494261,-9326.594869,-1915.238745
201.168222,-1184.329507,-9770.718434,-1838.629195
201.168544,-296.082377,-9992.780217,-1532.190996
201.168866,0.000000,-9696.697840,-1838.629195
201.169189,-296.082377,-9252.574275,-1225.752797
201.169511,222.061783,-9178.553681,-1378.971896
201.169833,888.247130,-8734.430116,-1455.581446
201.170156,1258.350101,-9400.615463,-1072.533697
201.170478,1332.370696,-8438.347739,-1149.143247
201.170800,1480.411884,-9252.574275,-689.485948
201.171122,1554.432478,-9252.574275,-689.485948
201.171445,1480.411884,-9696.697840,-766.095498
201.171767,1184.329507,-9252.574275,-459.657299
201.172089,1036.288319,-8808.450710,-842.705048
201.172412,666.185348,-8512.368333,-383.047749
201.172734,296.082377,-8438.347739,-995.924147
201.173056,0.000000,-8512.368333,-995.924147
201.173379,-518.144159,-8808.450710,-995.924147
201.173701,-888.247130,-9252.574275,-1225.752797
201.174023,-814.226536,-9474.636058,-1532.190996
201.174345,-888.247130,-10288.862594,-1455.581446
201.174668,-740.205942,-10362.883188,-1378.971896
201.174990,-1036.288319,-10140.821405,-1608.800546
201.175312,-666.185348,-9622.677246,-1762.019645
201.175635,-740.205942,-9326.594869,-1532.190996
201.175957,-1110.308913,-9400.615463,-1455.581446
201.176279,-1776.494261,-9030.512492,-1532.190996
201.176601,-2146.597232,-9030.512492,-1685.410096
201.176924,-2368.659014,-9474.636058,-1532.190996
201.177246,-2442.679609,-9770.718434,-1149.143247
201.177568,-2590.720797,-9696.697840,-1225.752797
201.177891,-2812.782580,-9474.636058,-1455.581446
201.178213,-2442.679609,-9178.553681,-1685.410096
201.178535,-1702.473667,-8882.471304,-1532.190996
201.178858,-1110.308913,-8438.347739,-1302.362347
201.179180,-296.082377,-8068.244768,-1685.410096
201.179502,-222.061783,-8808.450710,-1991.848295
201.179824,-518.144159,-9326.594869,-1532.190996
201.180147,-740.205942,-9992.780217,-1915.238745
201.180469,-1184.329507,-9844.739029,-2451.505594
201.180791,-1258.350101,-10288.862594,-2451.505594
201.181114,-1480.411884,-9844.739029,-2298.286494
201.181436,-1258.350101,-9918.759623,-2451.505594
201.181758,-1184.329507,-9178.553681,-2221.676944
201.182081,-1184.329507,-8956.491898,-2068.457845
201.182403,-518.144159,-9474.636058,-1762.019645
201.182725,-444.123565,-9326.594869,-1838.629195
201.183047,-888.247130,-9104.533087,-1991.848295
201.183370,-666.185348,-9104.533087,-1991.848295
201.183692,-222.061783,-8734.430116,-2145.067394
201.184014,222.061783,-8660.409521,-1915.238745
201.184337,666.185348,-8586.388927,-2604.724693
201.184659,1258.350101,-9326.594869,-2451.505594
201.184981,1406.391290,-9844.739029,-2068.457845
201.185304,1702.473667,-10214.842000,-2374.896044
201.185626,1776.494261,-10658.965565,-2298.286494
201.185948,1554.432478,-10436.903782,-2451.505594
201.186270,888.247130,-10362.883188,-1838.629195
201.186593,518.144159,-9770.718434,-1991.848295
201.186915,148.041188,-9400.615463,-2145.067394
201.187237,74.020594,-9252.574275,-2145.067394
201.187560,-296.082377,-9178.553681,-1532.190996
201.187882,-222.061783,-9030.512492,-1302.362347
201.188204,-666.185348,-9622.677246,-1225.752797
201.188527,-518.144159,-9548.656652,-1149.143247
201.188849,0.000000,-9474.636058,-1149.143247
201.189171,74.020594,-8808.450710,-1378.971896
201.189493,518.144159,-8586.388927,-1532.190996
201.189816,740.205942,-8882.471304,-1149.143247
201.190138,1110.308913,-9252.574275,-1302.362347
201.190460,1406.391290,-9400.615463,-1532.190996
201.190783,1406.391290,-9770.718434,-1378.971896
201.191105,1480.411884,-9252.574275,-689.485948
201.191427,1036.288319,-9400.615463,-842.705048
201.191750,1258.350101,-9030.512492,-689.485948
201.192072,814.226536,-8882.471304,-689.485948
201.192394,148.041188,-8512.368333,-612.876398
201.192716,-814.226536,-8142.265362,-612.876398
201.193039,-740.205942,-7920.203579,-459.657299
201.193361,-962.267725,-8364.327145,-919.314598
201.193683,-888.247130,-8660.409521,-995.924147
201.194006,-740.205942,-9252.574275,-919.314598
201.194328,-666.185348,-9252.574275,-612.876398
201.194650,-592.164754,-9400.615463,-689.485948
201.194973,-888.247130,-9030.512492,-689.485948
201.195295,-666.185348,-9474.636058,-1608.800546
201.195617,-1036.288319,-9548.656652,-1838.629195
201.195939,-1184.329507,-9992.780217,-1838.629195
201.196262,-1480.411884,-9770.718434,-1532.190996
201.196584,-1258.350101,-10658.965565,-1532.190996
201.196906,-1850.514855,-10436.903782,-1378.971896
201.197229,-2220.617826,-9770.718434,-1378.971896
201.197551,-2664.741391,-9622.677246,-1608.800546
201.197873,-2812.782580,-9474.636058,-1532.190996
201.198196,-2516.700203,-9104.533087,-1378.971896
201.198518,-2812.782580,-8438.347739,-1685.410096
201.198840,-2442.679609,-8586.388927,-1991.848295
201.199162,-1628.453072,-8734.430116,-1455.581446
201.199485,-888.247130,-9178.553681,-1915.238745
201.199807,-296.082377,-9178.553681,-2068.457845
201.200129,-148.041188,-9474.636058,-2604.724693
201.200452,-518.144159,-9548.656652,-2068.457845
201.200774,-740.205942,-10288.862594,-2681.334243
201.201096,-888.247130,-10140.821405,-2757.943793
201.201419,-962.267725,-10288.862594,-2528.115143
201.201741,-1184.329507,-9178.553681,-2528.115143
201.202063,-1110.308913,-9696.697840,-2528.115143
201.202385,-1184.329507,-9252.574275,-1915.238745
201.202708,-1258.350101,-9252.574275,-2221.676944
201.203030,-1258.350101,-8956.491898,-2068.457845
201.203352,-444.123565,-8956.491898,-1915.238745
201.203675,0.000000,-9104.533087,-2374.896044
201.203997,148.041188,-9030.512492,-2068.457845
201.204319,370.102971,-8808.450710,-1685.410096
201.204642,1110.308913,-9252.574275,-1378.971896
201.204964,1554.432478,-9400.615463,-1455.581446
201.205286,2072.576638,-10066.800811,-1991.848295
201.205608,1628.453072,-9992.780217,-1685.410096
201.205931,1184.329507,-9918.759623,-1762.019645
201.206253,222.061783,-9770.718434,-1838.629195
201.206575,-222.061783,-9252.574275,-1915.238745
201.206898,-370.102971,-9104.533087,-1532.190996
201.207220,-666.185348,-9252.574275,-2145.067394
201.207542,-1258.350101,-9400.615463,-1991.848295
201.207865,-1480.411884,-9474.636058,-1838.629195
201.208187,-1406.391290,-9622.677246,-1608.800546
201.208509,-518.144159,-9326.594869,-1455.581446
201.208831,-296.082377,-9400.615463,-1608.800546
201.209154,148.041188,-8512.368333,-1072.533697
201.209476,592.164754,-8734.430116,-1225.752797
201.209798,1036.288319,-8586.388927,-1302.362347
201.210121,1184.329507,-8956.491898,-1685.410096
201.210443,1184.329507,-8956.491898,-1072.533697
201.210765,1258.350101,-9844.739029,-1072.533697
201.211087,1332.370696,-9918.759623,-842.705048
201.211410,1702.473667,-9992.780217,-995.924147
201.211732,1036.288319,-9474.636058,-842.705048
201.212054,370.102971,-8808.450710,-766.095498
201.212377,74.020594,-8734.430116,-689.485948
201.212699,0.000000,-8586.388927,-919.314598
201.213021,-592.164754,-8290.306550,-919.314598
201.213344,-740.205942,-8512.368333,-1072.533697
201.213666,-148.041188,-9104.533087,-1455.581446
201.213988,-296.082377,-9622.677246,-1302.362347
201.214310,-1036.288319,-9844.739029,-842.705048
201.214633,-888.247130,-10140.821405,-842.705048
201.214955,-962.267725,-9918.759623,-1302.362347
201.215277,-518.144159,-9400.615463,-1685.410096
201.215600,-740.205942,-9474.636058,-1762.019645
201.215922,-962.267725,-9474.636058,-1455.581446
201.216244,-1332.370696,-9400.615463,-1455.581446
201.216567,-1554.432478,-9400.615463,-1532.190996
201.216889,-1628.453072,-9992.780217,-1685.410096
201.217211,-1924.535449,-9918.759623,-1302.362347
201.217533,-2738.761985,-9696.697840,-1149.143247
201.217856,-2738.761985,-9326.594869,-1072.533697
201.218178,-2368.659014,-8808.450710,-1302.362347
201.218500,-1776.494261,-8216.285956,-1302.362347
201.218823,-1258.350101,-8438.347739,-1762.019645
201.219145,-1184.329507,-7920.203579,-1685.410096
201.219467,-888.247130,-8586.388927,-1762.019645
201.219790,-592.164754,-8956.491898,-1532.190996
201.220112,-740.205942,-9548.656652,-1915.238745
201.220434,-1110.308913,-9770.718434,-2298.286494
201.220756,-1628.453072,-10066.800811,-1915.238745
201.221079,-1480.411884,-10140.821405,-2221.676944
201.221401,-1480.411884,-10288.862594,-2451.505594
201.221723,-1406.391290,-9400.615463,-2374.896044
201.222046,-1184.329507,-9474.636058,-2221.676944
201.222368,-962.267725,-9104.533087,-1762.019645
201.222690,-962.267725,-9178.553681,-2221.676944
201.223013,-1184.329507,-8956.491898,-1838.629195
201.223335,-888.247130,-9178.553681,-1991.848295
201.223657,-518.144159,-8808.450710,-1838.629195
201.223979,222.061783,-8734.430116,-1991.848295
201.224302,592.164754,-8734.430116,-1838.629195
201.224624,1258.350101,-9474.636058,-2145.067394
201.224946,1406.391290,-9696.697840,-1838.629195
201.225269,1924.535449,-10066.800811,-1991.848295
201.225591,1776.494261,-10140.821405,-2068.457845
201.225913,1776.494261,-10732.986159,-1762.019645
201.226236,962.267725,-10066.800811,-1532.190996
201.226558,666.185348,-9696.697840,-2221.676944
