#time,accel_x,accel_y,accel_z
486.180465,-296.082377,-9770.718434,-2068.457845
486.180787,-518.144159,-9548.656652,-1838.629195
486.181109,-370.102971,-9400.615463,-1608.800546
486.181431,-148.041188,-9474.636058,-1532.190996
486.181754,0.000000,-9474.636058,-1762.019645
486.182076,0.000000,-9770.718434,-2068.457845
486.182398,-592.164754,-9696.697840,-1762.019645
486.182720,-592.164754,-9918.759623,-1455.581446
486.183043,-592.164754,-9844.739029,-1685.410096
486.183365,-296.082377,-9622.677246,-1149.143247
486.183687,0.000000,-9104.533087,-1378.971896
486.184009,-296.082377,-9252.574275,-1149.143247
486.184331,-148.041188,-9178.553681,-1225.752797
486.184654,-444.123565,-9252.574275,-1455.581446
486.184976,-518.144159,-9400.615463,-1302.362347
486.185298,-444.123565,-9474.636058,-1072.533697
486.185620,-370.102971,-9844.739029,-1149.143247
486.185942,-518.144159,-9622.677246,-1072.533697
486.186265,-518.144159,-9326.594869,-995.924147
486.186587,-222.061783,-9252.574275,-1072.533697
486.186909,-370.102971,-8586.388927,-766.095498
486.187231,-444.123565,-9178.553681,-842.705048
486.187553,-444.123565,-9252.574275,-1072.533697
486.187876,-592.164754,-9548.656652,-919.314598
486.188198,-666.185348,-9474.636058,-995.924147
486.188520,-444.123565,-9400.615463,-1072.533697
486.188842,-740.205942,-8956.491898,-383.047749
486.189164,0.000000,-9178.553681,-1149.143247
486.189487,-296.082377,-8882.471304,-1149.143247
486.189809,-296.082377,-8956.491898,-995.924147
486.190131,-296.082377,-9104.533087,-1072.533697
486.190453,-518.144159,-9474.636058,-919.314598
486.190776,-518.144159,-9474.636058,-1302.362347
486.191098,-592.164754,-9400.615463,-1532.190996
486.191420,-370.102971,-9474.636058,-1302.362347
486.191742,-148.041188,-9252.574275,-1608.800546
486.192064,-222.061783,-8586.388927,-1838.629195
486.192387,-518.144159,-9178.553681,-1608.800546
486.192709,-370.102971,-9252.574275,-1378.971896
486.193031,-444.123565,-9474.636058,-1685.410096
486.193353,-518.144159,-9696.697840,-2145.067394
486.193675,-518.144159,-9622.677246,-1838.629195
486.193998,-148.041188,-9474.636058,-1762.019645
486.194320,-370.102971,-9252.574275,-1762.019645
486.194642,-296.082377,-9474.636058,-1991.848295
486.194964,-444.123565,-9326.594869,-1838.629195
486.195286,-296.082377,-9400.615463,-1991.848295
486.195609,-518.144159,-9252.574275,-2221.676944
486.195931,-370.102971,-9252.574275,-2374.896044
486.196253,-370.102971,-9622.677246,-2221.676944
486.196575,-296.082377,-9770.718434,-2221.676944
486.196898,-370.102971,-9474.636058,-2221.676944
486.197220,-148.041188,-9474.636058,-2068.457845
486.197542,1406.391290,-9474.636058,-2528.115143
486.197864,1998.556043,-9622.677246,-2451.505594
486.198186,2442.679609,-9474.636058,-1225.752797
486.198509,1998.556043,-8882.471304,-459.657299
486.198831,1036.288319,-8586.388927,-1378.971896
486.199153,74.020594,-9104.533087,-2221.676944
486.199475,-1258.350101,-9252.574275,-2528.115143
486.199797,-3108.864956,-9474.636058,-1915.238745
486.200120,-4515.256246,-9548.656652,-2374.896044
486.200442,-3627.009116,-9178.553681,-3217.601092
486.200764,-1184.329507,-9474.636058,-2911.162892
486.201086,1776.494261,-11029.068536,-2221.676944
486.201408,2960.823768,-10732.986159,-459.657299
486.201731,2516.700203,-9474.636058,306.438199
486.202053,1924.535449,-8512.368333,-612.876398
486.202375,2220.617826,-9400.615463,-1915.238745
486.202697,2516.700203,-9992.780217,-2528.115143
486.203020,1184.329507,-9252.574275,-1378.971896
486.203342,-222.061783,-7698.141797,0.000000
486.203664,222.061783,-7179.997637,-459.657299
486.203986,1850.514855,-8956.491898,-2374.896044
486.204308,2072.576638,-10436.903782,-1915.238745
486.204631,222.061783,-9622.677246,306.438199
486.204953,-1258.350101,-9030.512492,0.000000
486.205275,-518.144159,-9326.594869,-2987.772442
486.205597,518.144159,-9326.594869,-3524.039291
486.205919,1036.288319,-10140.821405,-1149.143247
486.206242,1110.308913,-10140.821405,-919.314598
486.206564,2294.638420,-9548.656652,-1685.410096
486.206886,3627.009116,-9696.697840,-995.924147
486.207208,4737.318029,-10881.027347,-153.219100
486.207530,4515.256246,-11621.233289,0.000000
486.207853,3108.864956,-9474.636058,306.438199
486.208175,2146.597232,-8142.265362,-689.485948
486.208497,2368.659014,-8364.327145,-842.705048
486.208819,2220.617826,-8290.306550,-842.705048
486.209141,1628.453072,-7402.059420,-995.924147
486.209464,1110.308913,-7105.977043,-1072.533697
486.209786,2072.576638,-9770.718434,76.609550
486.210108,2664.741391,-11029.068536,-383.047749
486.210430,2664.741391,-10214.842000,-1302.362347
486.210753,1998.556043,-9770.718434,-1838.629195
486.211075,2664.741391,-10140.821405,-842.705048
486.211397,2886.803174,-8956.491898,-766.095498
486.211719,3478.967927,-9030.512492,-2681.334243
486.212041,2738.761985,-9252.574275,-1762.019645
486.212364,2886.803174,-9918.759623,-842.705048
486.212686,3478.967927,-9474.636058,-919.314598
486.213008,3478.967927,-9474.636058,-1685.410096
486.213330,2664.741391,-9696.697840,-1608.800546
486.213652,2368.659014,-8882.471304,-459.657299
486.213975,1554.432478,-7328.038826,-766.095498
486.214297,518.144159,-7328.038826,-1532.190996
486.214619,-296.082377,-7994.224174,-2374.896044
486.214941,-592.164754,-9252.574275,-1762.019645
486.215263,-888.247130,-10288.862594,-1072.533697
486.215586,-666.185348,-11251.130318,-1378.971896
486.215908,-222.061783,-11843.295072,-1532.190996
486.216230,740.205942,-11473.192101,-995.924147
486.216552,1406.391290,-10288.862594,-612.876398
486.216875,1406.391290,-9474.636058,-1072.533697
486.217197,1332.370696,-8512.368333,-1991.848295
486.217519,1110.308913,-7994.224174,-1915.238745
486.217841,666.185348,-7402.059420,-1532.190996
486.218163,444.123565,-7772.162391,-1762.019645
486.218486,888.247130,-8660.409521,-1915.238745
486.218808,1036.288319,-8882.471304,-1991.848295
486.219130,1332.370696,-8956.491898,-1915.238745
486.219452,1998.556043,-8364.327145,-2221.676944
486.219774,2294.638420,-8142.265362,-2911.162892
486.220097,2368.659014,-8660.409521,-2604.724693
486.220419,2072.576638,-9622.677246,-2298.286494
486.220741,1924.535449,-9992.780217,-2451.505594
486.221063,1628.453072,-11029.068536,-2681.334243
486.221385,1480.411884,-11917.315666,-2221.676944
486.221708,1406.391290,-12287.418637,-1225.752797
486.222030,1332.370696,-11399.171507,-612.876398
486.222352,1258.350101,-10362.883188,-766.095498
486.222674,1850.514855,-9400.615463,-919.314598
486.222997,1924.535449,-8956.491898,-766.095498
486.223319,2294.638420,-8438.347739,-459.657299
486.223641,2368.659014,-7550.100608,-842.705048
486.223963,3108.864956,-7846.182985,-1762.019645
486.224285,4367.215058,-8734.430116,-2221.676944
486.224608,4885.359217,-8808.450710,-2068.457845
486.224930,4737.318029,-9030.512492,-1915.238745
486.225252,3997.112087,-9326.594869,-2451.505594
486.225574,3552.988522,-10658.965565,-2757.943793
486.225896,2664.741391,-12065.356855,-2834.553343
486.226219,1480.411884,-12435.459826,-2374.896044
486.226541,592.164754,-11991.336260,-919.314598
486.226863,518.144159,-10881.027347,-229.828649
486.227185,962.267725,-9548.656652,153.219100
486.227507,740.205942,-7994.224174,1149.143247
486.227830,518.144159,-6513.812290,1302.362347
486.228152,444.123565,-5329.482782,766.095498
486.228474,962.267725,-4811.338623,229.828649
486.228796,1480.411884,-5107.421000,459.657299
486.229118,1702.473667,-6069.688724,-153.219100
486.229441,1332.370696,-7550.100608,-689.485948
486.229763,1258.350101,-9252.574275,-1225.752797
486.230085,1628.453072,-10732.986159,-1532.190996
486.230407,1554.432478,-11843.295072,-3217.601092
486.230730,592.164754,-11843.295072,-3217.601092
486.231052,-518.144159,-12361.439231,-3294.210641
486.231374,-1110.308913,-12287.418637,-3217.601092
486.231696,-1850.514855,-12509.480420,-2528.115143
486.232018,-2590.720797,-12065.356855,-1838.629195
486.232341,-2886.803174,-11843.295072,-1302.362347
486.232663,-2960.823768,-11473.192101,-919.314598
486.232985,-1998.556043,-10140.821405,-76.609550
486.233307,-1110.308913,-9178.553681,229.828649
486.233629,0.000000,-7698.141797,306.438199
486.233952,1702.473667,-6217.729913,459.657299
486.234274,3034.844362,-4885.359217,153.219100
486.234596,4737.318029,-5551.544565,-612.876398
486.234918,5255.462188,-5699.585753,-1302.362347
486.235240,5477.523971,-6143.709319,-995.924147
486.235563,5625.565159,-6661.853478,-2068.457845
486.235885,6291.750507,-9548.656652,-4673.182538
486.236207,6365.771101,-13841.851115,-4903.011187
486.236529,5033.400406,-14434.015869,-2757.943793
486.236852,2146.597232,-13101.645173,-919.314598
486.237174,-740.205942,-11695.253884,-459.657299
486.237496,-2886.803174,-10955.047942,-2528.115143
486.237818,-4071.132681,-10214.842000,-4060.306139
486.238140,-5329.482782,-8882.471304,-2451.505594
486.238463,-6069.688724,-6587.832884,-1302.362347
486.238785,-5033.400406,-6587.832884,-1532.190996
486.239107,-1110.308913,-8734.430116,-1072.533697
486.239429,2886.803174,-8068.244768,-2145.067394
486.239751,5995.668130,-9030.512492,-3753.867940
486.240074,9400.615463,-10510.924376,-2834.553343
486.240396,11843.295072,-10881.027347,-995.924147
486.240718,13471.748144,-9030.512492,-1225.752797
486.241040,13397.727550,-7920.203579,-2068.457845
486.241362,12731.542202,-8068.244768,-1455.581446
486.241685,9474.636058,-10140.821405,-1608.800546
486.242007,5107.421000,-10436.903782,-1532.190996
486.242329,296.082377,-10955.047942,-919.314598
486.242651,-3256.906145,-12213.398043,-1302.362347
486.242974,-5033.400406,-13027.624579,-536.266849
486.243296,-7772.162391,-12139.377449,383.047749
486.243618,-9030.512492,-10658.965565,1378.971896
486.243940,-9326.594869,-5699.585753,2834.553343
486.244262,-7402.059420,-3330.926739,76.609550
486.244585,-4663.297435,-3330.926739,-2145.067394
486.244907,-370.102971,-5477.523971,-2604.724693
486.245229,3330.926739,-7920.203579,-2834.553343
486.245551,7179.997637,-9474.636058,-3370.820191
486.245874,10066.800811,-12065.356855,-3524.039291
486.246196,11177.109724,-12583.501014,-2221.676944
486.246518,9400.615463,-11843.295072,-2681.334243
486.246841,6143.709319,-11029.068536,-3677.258390
486.247163,3108.864956,-10955.047942,-4903.011187
486.247486,1480.411884,-11103.089130,-6205.373534
486.247808,74.020594,-11399.171507,-4136.915689
486.248130,-3108.864956,-12213.398043,459.657299
486.248453,-6291.750507,-12435.459826,3140.991542
486.248775,-7031.956449,-10140.821405,4673.182538
486.249097,-5477.523971,-7846.182985,2145.067394
486.249420,-3330.926739,-6735.874072,459.657299
486.249742,814.226536,-7698.141797,459.657299
486.250065,5699.585753,-5477.523971,995.924147
486.250387,9622.677246,-3627.009116,306.438199
486.250709,12731.542202,-6069.688724,-536.266849
486.251032,12435.459826,-9104.533087,612.876398
486.251354,9548.656652,-9844.739029,-306.438199
486.251677,3923.091493,-11769.274478,-3294.210641
486.251999,-1036.288319,-15322.262999,-6358.592633
486.252321,-4885.359217,-17838.963202,-6358.592633
486.252644,-7624.121203,-14508.036463,-3600.648841
486.252966,-9622.677246,-7476.080014,-1608.800546
486.253288,-7179.997637,-6513.812290,-2604.724693
486.253611,-3849.070898,-4959.379811,-2911.162892
486.253933,-1406.391290,-7920.203579,-1532.190996
486.254256,-3108.864956,-8438.347739,2604.724693
486.254578,-3108.864956,-7402.059420,4213.525239
486.254900,-962.267725,-6217.729913,229.828649
486.255223,2886.803174,-5329.482782,-2451.505594
486.255545,5403.503377,-5921.647536,-1991.848295
486.255868,5921.647536,-6809.894666,-1455.581446
486.256190,5921.647536,-9474.636058,-306.438199
486.256512,6809.894666,-10807.006753,1608.800546
486.256835,7772.162391,-10066.800811,-2298.286494
486.257157,7031.956449,-11103.089130,-6741.640382
486.257479,4737.318029,-12731.542202,-6435.202183
486.257802,2294.638420,-13027.624579,-2145.067394
486.258124,296.082377,-11843.295072,-383.047749
486.258447,-222.061783,-11029.068536,-1685.410096
486.258769,-1480.411884,-11621.233289,-3217.601092
486.259091,-2886.803174,-11621.233289,-1532.190996
486.259414,-2590.720797,-11177.109724,1762.019645
486.259736,-740.205942,-9030.512492,1225.752797
486.260059,2368.659014,-6661.853478,-766.095498
486.260381,5625.565159,-5403.503377,-153.219100
486.260703,7105.977043,-4589.276840,1991.848295
486.261026,7105.977043,-4515.256246,995.924147
486.261348,5107.421000,-5255.462188,-2451.505594
486.261670,3034.844362,-5921.647536,-3370.820191
486.261993,1480.411884,-8882.471304,-4290.134789
486.262315,-814.226536,-11325.150913,-6511.811733
486.262638,-3330.926739,-14211.954086,-7048.078582
486.262960,-4737.318029,-15248.242405,-3907.087040
486.263282,-3775.050304,-14359.995275,-1149.143247
486.263605,-2220.617826,-12509.480420,-3830.477490
486.263927,-2294.638420,-11843.295072,-6052.154434
486.264250,-2146.597232,-11769.274478,-2757.943793
486.264572,-666.185348,-11177.109724,1532.190996
486.264894,1850.514855,-10436.903782,1838.629195
486.265217,4663.297435,-9252.574275,-229.828649
486.265539,5033.400406,-8808.450710,-229.828649
486.265862,4219.173869,-8068.244768,4519.963438
486.266184,3108.864956,-5773.606348,6971.469032
486.266506,3552.988522,-4441.235652,2528.115143
486.266829,5255.462188,-3997.112087,-3140.991542
486.267151,6957.935855,-4885.359217,-3370.820191
486.267473,5699.585753,-7105.977043,229.828649
486.267796,3404.947333,-9400.615463,2451.505594
486.268118,1258.350101,-9918.759623,842.705048
486.268441,-518.144159,-10066.800811,-2987.772442
486.268763,-3701.029710,-10658.965565,-5822.325785
486.269085,-8364.327145,-11621.233289,-5669.106685
486.269408,-11177.109724,-12213.398043,-4443.353888
486.269730,-10140.821405,-12435.459826,-4060.306139
486.270053,-6661.853478,-11991.336260,-3753.867940
486.270375,-4737.318029,-10881.027347,-1838.629195
486.270697,-4219.173869,-9770.718434,612.876398
486.271020,-4367.215058,-8660.409521,2451.505594
486.271342,-2812.782580,-7624.121203,-229.828649
486.271664,-1924.535449,-7254.018232,-3217.601092
486.271987,-2368.659014,-7105.977043,-2068.457845
486.272309,-3034.844362,-7105.977043,1685.410096
486.272632,-1480.411884,-7254.018232,2221.676944
486.272954,2442.679609,-8512.368333,-766.095498
486.273276,6809.894666,-10066.800811,-3983.696590
486.273599,8438.347739,-11547.212695,-1915.238745
486.273921,7772.162391,-10288.862594,2068.457845
486.274244,4959.379811,-8660.409521,1685.410096
486.274566,2294.638420,-9030.512492,-1072.533697
486.274888,0.000000,-9474.636058,-3677.258390
486.275211,-3404.947333,-9918.759623,-4979.620737
486.275533,-8068.244768,-9918.759623,-4903.011187
486.275855,-10214.842000,-10510.924376,-2834.553343
486.276178,-8364.327145,-11251.130318,-2374.896044
486.276500,-3923.091493,-10510.924376,-3447.429741
486.276823,-2294.638420,-9696.697840,-4136.915689
486.277145,-2072.576638,-8734.430116,-2528.115143
486.277467,-1998.556043,-7994.224174,229.828649
486.277790,-1480.411884,-7105.977043,-1149.143247
486.278112,-2886.803174,-7402.059420,-3447.429741
486.278435,-2516.700203,-9400.615463,-3830.477490
486.278757,-1850.514855,-9844.739029,-3447.429741
486.279079,518.144159,-10658.965565,-3370.820191
486.279402,4293.194464,-12139.377449,-1378.971896
486.279724,7550.100608,-10955.047942,536.266849
486.280046,9622.677246,-8216.285956,1378.971896
486.280369,9622.677246,-5403.503377,2374.896044
486.280691,7920.203579,-5625.565159,536.266849
486.281014,6439.791695,-8290.306550,-2757.943793
486.281336,3923.091493,-9622.677246,-2068.457845
486.281658,74.020594,-9178.553681,229.828649
486.281981,-2516.700203,-8956.491898,306.438199
486.282303,-1036.288319,-10584.944971,-1762.019645
486.282626,1184.329507,-11991.336260,-3064.381992
486.282948,2294.638420,-11695.253884,-2221.676944
486.283270,518.144159,-9326.594869,-153.219100
486.283593,-1480.411884,-8512.368333,-153.219100
486.283915,-2368.659014,-8142.265362,-1991.848295
486.284238,-3182.885551,-9474.636058,-4519.963438
486.284560,-5255.462188,-11325.150913,-4673.182538
486.284882,-5773.606348,-11991.336260,-2911.162892
486.285205,-4293.194464,-11473.192101,-1532.190996
486.285527,-1110.308913,-10881.027347,-1072.533697
486.285849,2146.597232,-10288.862594,-842.705048
486.286172,3552.988522,-7476.080014,995.924147
486.286494,3182.885551,-4885.359217,1685.410096
486.286817,2812.782580,-4441.235652,-689.485948
486.287139,2368.659014,-7031.956449,-3907.087040
486.287461,1184.329507,-9400.615463,-2911.162892
486.287784,-2072.576638,-10362.883188,306.438199
486.288106,-4441.235652,-11251.130318,2298.286494
486.288429,-3923.091493,-11917.315666,76.609550
486.288751,-1480.411884,-11029.068536,-3983.696590
486.289073,-222.061783,-9474.636058,-3830.477490
486.289396,-1776.494261,-6957.935855,0.000000
486.289718,-2960.823768,-7772.162391,1991.848295
486.290040,-3108.864956,-8290.306550,-1378.971896
486.290363,-2738.761985,-10140.821405,-4519.963438
486.290685,-3997.112087,-11547.212695,-3447.429741
486.291008,-5477.523971,-12213.398043,-766.095498
486.291330,-5625.565159,-10881.027347,76.609550
486.291652,-2886.803174,-10214.842000,-1149.143247
486.291975,740.205942,-9178.553681,-2374.896044
486.292297,2590.720797,-7031.956449,-1838.629195
486.292620,2590.720797,-5255.462188,0.000000
486.292942,1702.473667,-4737.318029,-383.047749
486.293264,1554.432478,-6291.750507,-2911.162892
486.293587,-444.123565,-9400.615463,-3217.601092
486.293909,-2812.782580,-11843.295072,-1915.238745
486.294231,-5181.441594,-12213.398043,-1225.752797
486.294554,-5181.441594,-11325.150913,-1685.410096
486.294876,-2294.638420,-10732.986159,-4443.353888
486.295199,74.020594,-10066.800811,-4519.963438
486.295521,814.226536,-8882.471304,-1149.143247
486.295843,592.164754,-8216.285956,1302.362347
486.296166,0.000000,-8882.471304,383.047749
486.296488,888.247130,-9622.677246,-2604.724693
486.296811,740.205942,-10214.842000,-4596.572988
486.297133,0.000000,-11029.068536,-1991.848295
486.297455,-666.185348,-10362.883188,919.314598
486.297778,740.205942,-8882.471304,459.657299
486.298100,3701.029710,-7031.956449,-1762.019645
486.298422,5847.626942,-6809.894666,-2911.162892
486.298745,6069.688724,-7550.100608,-842.705048
486.299067,4293.194464,-7624.121203,306.438199
486.299390,2516.700203,-7846.182985,-1225.752797
486.299712,1184.329507,-8660.409521,-3294.210641
486.300034,-814.226536,-9918.759623,-3370.820191
486.300357,-3552.988522,-11103.089130,-3677.258390
486.300679,-4737.318029,-11473.192101,-4136.915689
486.301002,-4071.132681,-10658.965565,-4136.915689
486.301324,-1924.535449,-10436.903782,-4136.915689
486.301646,148.041188,-10288.862594,-2834.553343
486.301969,-444.123565,-9992.780217,-383.047749
486.302291,-1406.391290,-9844.739029,689.485948
486.302613,-592.164754,-10288.862594,-1838.629195
486.302936,-370.102971,-10436.903782,-2987.772442
486.303258,-1554.432478,-9548.656652,-1378.971896
486.303581,-2664.741391,-7624.121203,2604.724693
486.303903,-1480.411884,-7846.182985,1378.971896
486.304225,2220.617826,-8586.388927,-1762.019645
486.304548,4959.379811,-8956.491898,-2451.505594
486.304870,4219.173869,-8290.306550,383.047749
486.305193,2146.597232,-7550.100608,2528.115143
486.305515,1406.391290,-7550.100608,689.485948
486.305837,814.226536,-8142.265362,-3524.039291
486.306160,-1110.308913,-8808.450710,-4519.963438
486.306482,-4663.297435,-9474.636058,-2757.943793
486.306805,-6439.791695,-10510.924376,-1991.848295
486.307127,-6143.709319,-10214.842000,-3064.381992
486.307449,-4071.132681,-11769.274478,-4213.525239
486.307772,-2590.720797,-12879.583391,-3677.258390
486.308094,-2368.659014,-12139.377449,-1685.410096
486.308416,-3330.926739,-9696.697840,1072.533697
486.308739,-2590.720797,-8882.471304,306.438199
486.309061,-1850.514855,-9252.574275,-2068.457845
486.309384,-2146.597232,-8290.306550,-1991.848295
486.309706,-2664.741391,-7105.977043,306.438199
486.310028,-1406.391290,-8068.244768,1072.533697
486.310351,2294.638420,-8586.388927,0.000000
486.310673,5699.585753,-8290.306550,-1991.848295
486.310996,6883.915261,-8290.306550,-229.828649
486.311318,5625.565159,-8734.430116,2604.724693
486.311640,3775.050304,-7846.182985,2145.067394
486.311963,1480.411884,-6587.832884,-2221.676944
486.312285,-518.144159,-7179.997637,-5515.887586
486.312607,-3182.885551,-9474.636058,-4903.011187
486.312930,-5773.606348,-10955.047942,-3140.991542
486.313252,-6883.915261,-11029.068536,-2834.553343
486.313575,-4737.318029,-12065.356855,-3983.696590
486.313897,-2146.597232,-13175.665768,-4903.011187
486.314219,-962.267725,-13471.748144,-1915.238745
486.314542,-2294.638420,-10140.821405,-229.828649
486.314864,-2368.659014,-8512.368333,-919.314598
486.315187,148.041188,-9252.574275,-2221.676944
486.315509,1776.494261,-9252.574275,-1838.629195
486.315831,296.082377,-7550.100608,-995.924147
486.316154,-740.205942,-7105.977043,1149.143247
486.316476,1184.329507,-7920.203579,1762.019645
486.316798,4589.276840,-8216.285956,-919.314598
486.317121,6439.791695,-8512.368333,-1225.752797
486.317443,5995.668130,-8438.347739,0.000000
486.317766,4367.215058,-6957.935855,995.924147
486.318088,2886.803174,-7254.018232,0.000000
486.318410,888.247130,-7105.977043,-1915.238745
486.318733,-1702.473667,-8438.347739,-4290.134789
486.319055,-4737.318029,-10436.903782,-5439.278036
486.319378,-7179.997637,-11695.253884,-4213.525239
486.319700,-7179.997637,-12361.439231,-3677.258390
486.320022,-4811.338623,-13693.809927,-4903.011187
486.320345,-2960.823768,-11843.295072,-4596.572988
486.320667,-3256.906145,-9400.615463,-2298.286494
486.320989,-3256.906145,-8512.368333,-1072.533697
486.321312,-2220.617826,-8512.368333,-2911.162892
486.321634,-518.144159,-9696.697840,-4826.401637
486.321957,-740.205942,-10362.883188,-2834.553343
486.322279,-592.164754,-10807.006753,995.924147
486.322601,370.102971,-9252.574275,2528.115143
486.322924,3404.947333,-7179.997637,2221.676944
486.323246,7179.997637,-5847.626942,-842.705048
486.323569,9252.574275,-7105.977043,-2604.724693
486.323891,8734.430116,-8364.327145,1455.581446
486.324213,5995.668130,-6957.935855,4213.525239
486.324536,2442.679609,-6809.894666,153.219100
486.324858,-592.164754,-10510.924376,-2528.115143
486.325181,-4071.132681,-12139.377449,-2834.553343
486.325503,-8734.430116,-10732.986159,-3064.381992
486.325825,-11473.192101,-9400.615463,-3830.477490
486.326148,-10066.800811,-10288.862594,-4903.011187
486.326470,-4737.318029,-11843.295072,-5822.325785
486.326792,-2664.741391,-11177.109724,-5286.058936
486.327115,-3701.029710,-10214.842000,-1532.190996
486.327437,-4071.132681,-10510.924376,306.438199
486.327760,-2960.823768,-11325.150913,-2681.334243
486.328082,-2368.659014,-12583.501014,-3524.039291
486.328404,-2368.659014,-10732.986159,-2145.067394
486.328727,-1554.432478,-8586.388927,-919.314598
486.329049,1406.391290,-7772.162391,306.438199
486.329372,5255.462188,-6291.750507,2221.676944
486.329694,9178.553681,-4885.359217,1455.581446
486.330016,9696.697840,-5255.462188,-459.657299
486.330339,8586.388927,-7698.141797,2911.162892
486.330661,5403.503377,-8734.430116,3600.648841
486.330983,1628.453072,-9474.636058,229.828649
486.331306,-1998.556043,-9844.739029,-1838.629195
486.331628,-4737.318029,-9474.636058,-2221.676944
486.331951,-6291.750507,-7994.224174,-2681.334243
486.332273,-5477.523971,-7698.141797,-4060.306139
486.332595,-3404.947333,-10732.986159,-4366.744339
486.332918,-962.267725,-13101.645173,-3064.381992
486.333240,-740.205942,-12287.418637,-919.314598
486.333563,-2294.638420,-11917.315666,-153.219100
486.333885,-2368.659014,-10658.965565,-2451.505594
486.334207,-3108.864956,-9252.574275,-5898.935335
486.334530,-3849.070898,-9252.574275,-4903.011187
486.334852,-3552.988522,-9252.574275,-229.828649
486.335174,-2294.638420,-7624.121203,306.438199
486.335497,666.185348,-6883.915261,-1072.533697
486.335819,4071.132681,-7476.080014,-995.924147
486.336142,6809.894666,-8660.409521,0.000000
486.336464,7105.977043,-7994.224174,0.000000
486.336786,5773.606348,-7550.100608,1378.971896
486.337109,3627.009116,-6883.915261,536.266849
486.337431,1776.494261,-7994.224174,-2221.676944
486.337754,-1110.308913,-10807.006753,-3217.601092
486.338076,-4737.318029,-10955.047942,-2451.505594
486.338398,-6217.729913,-10436.903782,-3064.381992
486.338721,-3849.070898,-11695.253884,-5056.230287
486.339043,-444.123565,-12213.398043,-4290.134789
486.339365,-148.041188,-10584.944971,-1762.019645
486.339688,-1258.350101,-10510.924376,0.000000
486.340010,-2146.597232,-10955.047942,-766.095498
486.340333,-2516.700203,-9474.636058,-4213.525239
486.340655,-3701.029710,-8734.430116,-5745.716235
486.340977,-5255.462188,-9178.553681,-3064.381992
486.341300,-4663.297435,-9622.677246,-536.266849
486.341622,-1332.370696,-9326.594869,-995.924147
486.341945,2442.679609,-8364.327145,-995.924147
486.342267,5699.585753,-8956.491898,-919.314598
486.342589,6513.812290,-7846.182985,76.609550
486.342912,5551.544565,-6143.709319,689.485948
486.343234,3552.988522,-6217.729913,-689.485948
486.343557,1776.494261,-7846.182985,-1838.629195
486.343879,-1628.453072,-9030.512492,-2451.505594
486.344201,-4959.379811,-9622.677246,-2451.505594
486.344524,-6365.771101,-10510.924376,-2221.676944
486.344846,-3923.091493,-11769.274478,-3600.648841
486.345168,0.000000,-11399.171507,-3447.429741
486.345491,740.205942,-10066.800811,-2451.505594
486.345813,0.000000,-9622.677246,766.095498
486.346136,-370.102971,-9548.656652,842.705048
486.346458,-1036.288319,-9548.656652,-2145.067394
486.346781,-2368.659014,-10140.821405,-4290.134789
486.347103,-3330.926739,-10658.965565,-2451.505594
486.347425,-3775.050304,-9178.553681,0.000000
486.347748,-1332.370696,-8882.471304,-459.657299
486.348070,2960.823768,-8512.368333,-995.924147
486.348393,6661.853478,-8882.471304,-306.438199
486.348715,7328.038826,-7624.121203,919.314598
486.349037,5847.626942,-7031.956449,1838.629195
486.349360,3256.906145,-7105.977043,459.657299
486.349682,1110.308913,-8734.430116,-2604.724693
486.350005,-1702.473667,-9844.739029,-3447.429741
486.350327,-5181.441594,-9400.615463,-2145.067394
486.350650,-7328.038826,-9104.533087,-1608.800546
486.350972,-5403.503377,-10288.862594,-3370.820191
486.351294,-1776.494261,-11843.295072,-4519.963438
486.351617,-888.247130,-11769.274478,-2757.943793
486.351939,-2368.659014,-11029.068536,229.828649
486.352262,-3775.050304,-9696.697840,153.219100
486.352584,-2960.823768,-9696.697840,-2374.896044
486.352907,-1850.514855,-9696.697840,-4979.620737
486.353229,-1702.473667,-9770.718434,-3907.087040
486.353551,-2368.659014,-10362.883188,-459.657299
486.353874,-666.185348,-9622.677246,2145.067394
486.354196,2590.720797,-8586.388927,919.314598
486.354519,5551.544565,-8290.306550,-1455.581446
486.354841,6217.729913,-8290.306550,-689.485948
486.355163,4219.173869,-7179.997637,1378.971896
486.355486,2220.617826,-6587.832884,842.705048
486.355808,888.247130,-6439.791695,-1378.971896
486.356131,0.000000,-8068.244768,-3217.601092
486.356453,-2516.700203,-8882.471304,-3140.991542
486.356776,-5551.544565,-9474.636058,-1762.019645
486.357098,-6069.688724,-11103.089130,-1378.971896
486.357420,-4663.297435,-11843.295072,-3370.820191
486.357743,-2368.659014,-11843.295072,-4826.401637
486.358065,-1628.453072,-11325.150913,-2834.553343
486.358388,-1406.391290,-10066.800811,-383.047749
486.358710,-592.164754,-9622.677246,-1225.752797
486.359033,1036.288319,-9474.636058,-4673.182538
486.359355,1776.494261,-9770.718434,-4749.792088
486.359677,1110.308913,-9992.780217,-689.485948
486.360000,666.185348,-9474.636058,1455.581446
486.360322,1554.432478,-8956.491898,459.657299
486.360645,4145.153275,-9252.574275,-1608.800546
486.360967,5995.668130,-8660.409521,-1378.971896
486.361289,6069.688724,-7476.080014,459.657299
486.361612,4515.256246,-5477.523971,2145.067394
486.361934,2442.679609,-5255.462188,766.095498
486.362257,1258.350101,-7254.018232,-1915.238745
486.362579,-740.205942,-10214.842000,-3524.039291
486.362902,-3849.070898,-12139.377449,-2068.457845
486.363224,-6069.688724,-11917.315666,-1915.238745
486.363546,-5255.462188,-11251.130318,-3677.258390
486.363869,-2220.617826,-10955.047942,-4749.792088
486.364191,-148.041188,-11103.089130,-2834.553343
486.364514,-592.164754,-10584.944971,-306.438199
486.364836,-1480.411884,-9548.656652,0.000000
486.365159,-1702.473667,-9400.615463,-2987.772442
486.365481,-1850.514855,-10658.965565,-4290.134789
486.365803,-2368.659014,-11547.212695,-2145.067394
486.366126,-3108.864956,-10066.800811,459.657299
486.366448,-1850.514855,-8068.244768,229.828649
486.366771,1554.432478,-6883.915261,-766.095498
486.367093,4959.379811,-6291.750507,-612.876398
486.367416,5625.565159,-6143.709319,689.485948
486.367738,4219.173869,-6439.791695,2987.772442
486.368060,2368.659014,-7402.059420,1455.581446
486.368383,962.267725,-9104.533087,-1608.800546
486.368705,-1110.308913,-10732.986159,-3677.258390
486.369028,-4145.153275,-11103.089130,-2451.505594
486.369350,-6587.832884,-10584.944971,-689.485948
486.369672,-6735.874072,-11029.068536,-2221.676944
486.369995,-4219.173869,-11177.109724,-4826.401637
486.370317,-2812.782580,-10288.862594,-5362.668486
486.370640,-2664.741391,-10362.883188,-2681.334243
486.370962,-3478.967927,-9622.677246,-842.705048
486.371285,-2146.597232,-9844.739029,-1915.238745
486.371607,-370.102971,-11547.212695,-4519.963438
486.371929,-444.123565,-11399.171507,-2911.162892
486.372252,-1036.288319,-9992.780217,1378.971896
486.372574,-444.123565,-7772.162391,2604.724693
486.372897,3108.864956,-5995.668130,0.000000
486.373219,6587.832884,-6069.688724,-2911.162892
486.373542,7624.121203,-6587.832884,-689.485948
486.373864,6217.729913,-6587.832884,2757.943793
486.374186,4293.194464,-6587.832884,2528.115143
486.374509,2738.761985,-7772.162391,-766.095498
486.374831,1480.411884,-10362.883188,-3600.648841
486.375154,-2146.597232,-11325.150913,-2911.162892
486.375476,-6809.894666,-10288.862594,-1072.533697
486.375798,-8290.306550,-9770.718434,-1838.629195
486.376121,-5847.626942,-10288.862594,-5056.230287
486.376443,-3108.864956,-10362.883188,-6358.592633
486.376766,-2220.617826,-11399.171507,-4136.915689
486.377088,-2960.823768,-11325.150913,-1149.143247
486.377411,-1258.350101,-11843.295072,-2221.676944
486.377733,962.267725,-12065.356855,-4596.572988
486.378055,2442.679609,-11843.295072,-4749.792088
486.378378,1850.514855,-10881.027347,-995.924147
486.378700,1036.288319,-9252.574275,1762.019645
486.379023,2072.576638,-7105.977043,1378.971896
486.379345,4441.235652,-5921.647536,-1302.362347
486.379668,6587.832884,-5773.606348,-1762.019645
486.379990,6291.750507,-5995.668130,306.438199
486.380312,4145.153275,-5255.462188,2451.505594
486.380635,2220.617826,-5847.626942,1762.019645
486.380957,1110.308913,-8808.450710,-1378.971896
486.381280,-1406.391290,-11325.150913,-3217.601092
486.381602,-6069.688724,-11843.295072,-2068.457845
486.381924,-9918.759623,-10807.006753,-1378.971896
486.382247,-9104.533087,-10955.047942,-3907.087040
486.382569,-5403.503377,-11843.295072,-6894.859482
486.382892,-2442.679609,-11843.295072,-5822.325785
486.383214,-1554.432478,-10584.944971,-1762.019645
486.383537,-1258.350101,-9770.718434,842.705048
486.383859,0.000000,-10658.965565,-2145.067394
486.384181,592.164754,-11473.192101,-4596.572988
486.384504,-666.185348,-11621.233289,-3064.381992
486.384826,-2294.638420,-10140.821405,459.657299
486.385149,-1702.473667,-7698.141797,1915.238745
486.385471,1924.535449,-5847.626942,153.219100
486.385794,5181.441594,-5329.482782,-689.485948
486.386116,6957.935855,-5477.523971,1455.581446
486.386438,5921.647536,-5403.503377,3677.258390
486.386761,4071.132681,-5699.585753,3064.381992
486.387083,2368.659014,-7105.977043,229.828649
486.387406,222.061783,-10066.800811,-2298.286494
486.387728,-3627.009116,-11769.274478,-2374.896044
486.388050,-7846.182985,-11769.274478,-1608.800546
486.388373,-9178.553681,-11325.150913,-2374.896044
486.388695,-6661.853478,-11473.192101,-4903.011187
486.389018,-3256.906145,-12139.377449,-6128.763984
486.389340,-2220.617826,-10732.986159,-3370.820191
486.389663,-2368.659014,-10510.924376,0.000000
486.389985,-2146.597232,-10436.903782,-1532.190996
486.390307,-592.164754,-10510.924376,-4903.011187
486.390630,-370.102971,-11177.109724,-5056.230287
486.390952,-1480.411884,-10510.924376,-1378.971896
486.391275,-1110.308913,-8882.471304,1072.533697
486.391597,1850.514855,-7476.080014,153.219100
486.391920,6069.688724,-6883.915261,-1455.581446
486.392242,8364.327145,-6661.853478,995.924147
486.392564,8142.265362,-5773.606348,2911.162892
486.392887,6809.894666,-5181.441594,2604.724693
486.393209,5033.400406,-6217.729913,306.438199
486.393532,2590.720797,-8142.265362,-1838.629195
486.393854,-1480.411884,-9548.656652,-2757.943793
486.394177,-6735.874072,-11103.089130,-1378.971896
486.394499,-9918.759623,-11325.150913,-1762.019645
486.394821,-8364.327145,-11843.295072,-4366.744339
486.395144,-5255.462188,-12657.521608,-6894.859482
486.395466,-2812.782580,-11991.336260,-5515.887586
486.395789,-1702.473667,-12065.356855,-1991.848295
486.396111,-666.185348,-10362.883188,-1378.971896
486.396433,1480.411884,-9770.718434,-2987.772442
486.396756,1628.453072,-10436.903782,-4673.182538
486.397078,-740.205942,-10362.883188,-2604.724693
486.397401,-2886.803174,-8808.450710,459.657299
486.397723,-2368.659014,-7772.162391,229.828649
486.398046,1406.391290,-7105.977043,-2451.505594
486.398368,5403.503377,-7402.059420,-2374.896044
486.398690,7179.997637,-5921.647536,1532.190996
486.399013,6957.935855,-4293.194464,4749.792088
486.399335,5477.523971,-4885.359217,2757.943793
486.399658,3775.050304,-7179.997637,-919.314598
486.399980,518.144159,-9474.636058,-3064.381992
486.400303,-4737.318029,-10955.047942,-2681.334243
486.400625,-8808.450710,-11399.171507,-2451.505594
486.400947,-8808.450710,-11917.315666,-3677.258390
486.401270,-5033.400406,-13249.686362,-6128.763984
486.401592,-2664.741391,-12139.377449,-5286.058936
486.401915,-1628.453072,-11917.315666,-1378.971896
486.402237,-1554.432478,-10732.986159,842.705048
486.402559,-1110.308913,-10214.842000,-2145.067394
486.402882,-1924.535449,-10658.965565,-4979.620737
486.403204,-2812.782580,-10807.006753,-3524.039291
486.403527,-4145.153275,-9622.677246,-766.095498
486.403849,-2812.782580,-7328.038826,0.000000
486.404172,148.041188,-6957.935855,-229.828649
486.404494,4515.256246,-6809.894666,-612.876398
486.404816,7031.956449,-6439.791695,459.657299
486.405139,6439.791695,-6217.729913,2681.334243
486.405461,4737.318029,-6587.832884,2681.334243
486.405784,4145.153275,-7994.224174,-689.485948
486.406106,2516.700203,-9696.697840,-2987.772442
486.406429,-1480.411884,-11251.130318,-2145.067394
486.406751,-6069.688724,-11843.295072,-689.485948
486.407073,-7254.018232,-11695.253884,-1455.581446
486.407396,-4885.359217,-11621.233289,-4060.306139
486.407718,-2516.700203,-11399.171507,-5286.058936
486.408041,-1702.473667,-11251.130318,-2834.553343
486.408363,-2368.659014,-9548.656652,-153.219100
486.408685,-1702.473667,-9622.677246,-1149.143247
486.409008,-1110.308913,-10288.862594,-3907.087040
486.409330,-962.267725,-10807.006753,-4366.744339
486.409653,-1776.494261,-10658.965565,-1762.019645
486.409975,-1776.494261,-8882.471304,919.314598
486.410298,666.185348,-7402.059420,459.657299
486.410620,4441.235652,-6883.915261,-1072.533697
486.410942,7254.018232,-6513.812290,76.609550
486.411265,7105.977043,-5477.523971,1838.629195
486.411587,4737.318029,-4219.173869,2145.067394
486.411910,2368.659014,-6365.771101,306.438199
486.412232,444.123565,-8586.388927,-1685.410096
486.412555,-2368.659014,-10362.883188,-3600.648841
486.412877,-6069.688724,-11547.212695,-3140.991542
486.413199,-8216.285956,-11325.150913,-1532.190996
486.413522,-6661.853478,-11251.130318,-2911.162892
486.413844,-4293.194464,-11399.171507,-5286.058936
486.414167,-2590.720797,-11325.150913,-4519.963438
486.414489,-3404.947333,-10066.800811,-1991.848295
486.414812,-3256.906145,-9770.718434,-1915.238745
486.415134,-1702.473667,-10807.006753,-4673.182538
486.415456,-518.144159,-11769.274478,-6052.154434
486.415779,-1110.308913,-11843.295072,-3064.381992
486.416101,-1184.329507,-11029.068536,1302.362347
486.416424,814.226536,-9104.533087,919.314598
486.416746,4589.276840,-7698.141797,-1455.581446
486.417068,7698.141797,-6513.812290,-2145.067394
486.417391,8734.430116,-5181.441594,306.438199
486.417713,7550.100608,-4293.194464,2451.505594
486.418036,5625.565159,-5033.400406,2068.457845
486.418358,2664.741391,-6661.853478,0.000000
486.418681,370.102971,-10881.027347,-2987.772442
486.419003,-3775.050304,-12435.459826,-3217.601092
486.419325,-8216.285956,-11695.253884,-1838.629195
486.419648,-8882.471304,-11769.274478,-2528.115143
486.419970,-5847.626942,-11621.233289,-4826.401637
486.420293,-4367.215058,-10881.027347,-5515.887586
486.420615,-4219.173869,-10436.903782,-2834.553343
486.420938,-3701.029710,-10436.903782,-1225.752797
486.421260,-2294.638420,-10807.006753,-2604.724693
486.421582,-666.185348,-11325.150913,-5209.449386
486.421905,-740.205942,-11621.233289,-3830.477490
486.422227,-2072.576638,-11399.171507,76.609550
486.422550,-1554.432478,-9252.574275,1685.410096
486.422872,1332.370696,-7254.018232,383.047749
486.423194,4737.318029,-5107.421000,-1225.752797
486.423517,6587.832884,-4219.173869,0.000000
486.423839,6809.894666,-3849.070898,1915.238745
486.424162,5921.647536,-5329.482782,2987.772442
486.424484,4515.256246,-7179.997637,1838.629195
486.424807,1998.556043,-8808.450710,-459.657299
486.425129,-2072.576638,-10584.944971,-1149.143247
486.425451,-6143.709319,-11843.295072,-1685.410096
486.425774,-8068.244768,-12139.377449,-2298.286494
486.426096,-6439.791695,-12287.418637,-3983.696590
486.426419,-3552.988522,-10881.027347,-5669.106685
486.426741,-1480.411884,-10732.986159,-3677.258390
486.427064,-740.205942,-9918.759623,-459.657299
486.427386,-1332.370696,-10362.883188,0.000000
486.427708,-1332.370696,-11769.274478,-3830.477490
486.428031,-1776.494261,-12805.562797,-5056.230287
486.428353,-2960.823768,-12065.356855,-2298.286494
486.428676,-3256.906145,-9474.636058,612.876398
486.428998,-1776.494261,-6883.915261,0.000000
486.429320,2590.720797,-6069.688724,-1455.581446
486.429643,5773.606348,-5699.585753,-1149.143247
486.429965,6587.832884,-5699.585753,995.924147
486.430288,4663.297435,-5551.544565,2911.162892
486.430610,2590.720797,-6809.894666,1302.362347
486.430933,1554.432478,-8586.388927,-2145.067394
486.431255,0.000000,-10955.047942,-4213.525239
486.431577,-3256.906145,-12139.377449,-2451.505594
486.431900,-5921.647536,-11251.130318,-229.828649
486.432222,-5995.668130,-9770.718434,-2068.457845
486.432545,-3552.988522,-10658.965565,-4903.011187
486.432867,-1776.494261,-11769.274478,-5515.887586
486.433190,-2368.659014,-11473.192101,-3370.820191
486.433512,-3256.906145,-10658.965565,-995.924147
486.433834,-3552.988522,-9400.615463,-1915.238745
486.434157,-2220.617826,-10140.821405,-4290.134789
486.434479,-1924.535449,-10807.006753,-3600.648841
486.434802,-2368.659014,-10362.883188,-612.876398
486.435124,-1332.370696,-8586.388927,842.705048
486.435446,2442.679609,-7402.059420,-995.924147
486.435769,6513.812290,-7105.977043,-1838.629195
486.436091,8586.388927,-6883.915261,536.266849
486.436414,7624.121203,-5847.626942,2451.505594
486.436736,5625.565159,-6365.771101,1991.848295
486.437059,4071.132681,-7698.141797,0.000000
486.437381,1998.556043,-9400.615463,-1991.848295
486.437703,-2368.659014,-10584.944971,-3140.991542
486.438026,-6957.935855,-11325.150913,-1685.410096
486.438348,-7476.080014,-10881.027347,-1455.581446
486.438671,-4219.173869,-10510.924376,-4213.525239
486.438993,-1406.391290,-10066.800811,-5132.839837
486.439316,-740.205942,-9844.739029,-2374.896044
486.439638,-2072.576638,-8734.430116,306.438199
486.439960,-2368.659014,-8956.491898,-536.266849
486.440283,-1850.514855,-10584.944971,-4136.915689
486.440605,-2146.597232,-11695.253884,-6818.249932
486.440928,-3701.029710,-11917.315666,-4519.963438
486.441250,-3701.029710,-11103.089130,229.828649
486.441573,0.000000,-9104.533087,383.047749
486.441895,4145.153275,-8586.388927,-2298.286494
486.442217,6365.771101,-8216.285956,-1455.581446
486.442540,6365.771101,-6883.915261,2068.457845
486.442862,3775.050304,-5033.400406,2374.896044
486.443185,2590.720797,-5403.503377,-153.219100
486.443507,1332.370696,-7772.162391,-1685.410096
486.443829,-888.247130,-9474.636058,-1378.971896
486.444152,-3923.091493,-10288.862594,-383.047749
486.444474,-5403.503377,-10362.883188,-612.876398
486.444797,-3552.988522,-11029.068536,-2451.505594
486.445119,-148.041188,-11325.150913,-3753.867940
486.445442,1480.411884,-10362.883188,-2374.896044
486.445764,-296.082377,-9622.677246,306.438199
486.446086,-2590.720797,-9474.636058,766.095498
486.446409,-3627.009116,-9918.759623,-2145.067394
486.446731,-4219.173869,-10362.883188,-5975.544884
486.447054,-4811.338623,-11251.130318,-6128.763984
486.447376,-5255.462188,-10955.047942,-2298.286494
486.447699,-3775.050304,-9474.636058,-383.047749
486.448021,444.123565,-9400.615463,-995.924147
486.448343,4737.318029,-9548.656652,-1378.971896
486.448666,6069.688724,-8660.409521,76.609550
486.448988,4515.256246,-6883.915261,1991.848295
486.449310,2738.761985,-5477.523971,1072.533697
486.449633,2516.700203,-6661.853478,-1838.629195
486.449955,2072.576638,-8290.306550,-3907.087040
486.450277,-444.123565,-9918.759623,-842.705048
486.450600,-3256.906145,-9918.759623,1455.581446
486.450922,-2886.803174,-9622.677246,-153.219100
486.451244,74.020594,-10362.883188,-3294.210641
486.451567,2220.617826,-11325.150913,-3983.696590
486.451889,740.205942,-10436.903782,-995.924147
486.452211,-1480.411884,-8586.388927,689.485948
486.452534,-1480.411884,-7772.162391,-1608.800546
486.452856,-1332.370696,-9622.677246,-4519.963438
486.453178,-1702.473667,-10881.027347,-4443.353888
486.453501,-3923.091493,-11399.171507,-1915.238745
486.453823,-4441.235652,-10584.944971,0.000000
486.454145,-1776.494261,-10288.862594,-995.924147
486.454468,2294.638420,-9844.739029,-2528.115143
486.454790,4367.215058,-8660.409521,-1838.629195
486.455112,4145.153275,-7031.956449,306.438199
486.455435,2368.659014,-5255.462188,995.924147
486.455757,1258.350101,-5699.585753,-689.485948
486.456079,444.123565,-8290.306550,-2911.162892
486.456402,-1406.391290,-9474.636058,-3600.648841
486.456724,-4663.297435,-10510.924376,-1762.019645
486.457046,-5921.647536,-11177.109724,-919.314598
486.457369,-3404.947333,-11695.253884,-2911.162892
486.457691,-370.102971,-11325.150913,-4903.011187
486.458013,370.102971,-10140.821405,-3370.820191
486.458336,-888.247130,-8882.471304,-536.266849
486.458658,-592.164754,-9474.636058,-1149.143247
486.458980,296.082377,-10807.006753,-3907.087040
486.459303,74.020594,-11473.192101,-3753.867940
486.459625,-1628.453072,-11325.150913,-919.314598
486.459947,-2960.823768,-10214.842000,1685.410096
486.460270,-1850.514855,-8586.388927,536.266849
486.460592,740.205942,-7179.997637,-2374.896044
486.460914,3404.947333,-7105.977043,-2374.896044
486.461237,3997.112087,-7105.977043,306.438199
486.461559,2368.659014,-6069.688724,1915.238745
486.461881,74.020594,-6069.688724,536.266849
486.462204,-222.061783,-8438.347739,-2451.505594
486.462526,-1406.391290,-10658.965565,-4749.792088
486.462848,-4441.235652,-11029.068536,-3753.867940
486.463171,-6883.915261,-10510.924376,-1685.410096
486.463493,-5921.647536,-10732.986159,-2451.505594
486.463815,-2738.761985,-10732.986159,-4443.353888
486.464138,-814.226536,-10362.883188,-3907.087040
486.464460,-962.267725,-10214.842000,-1762.019645
486.464782,-1258.350101,-10214.842000,-306.438199
486.465105,-592.164754,-9696.697840,-1378.971896
486.465427,0.000000,-9844.739029,-2834.553343
486.465749,-222.061783,-10584.944971,-2374.896044
486.466072,-1036.288319,-10658.965565,306.438199
486.466394,-1258.350101,-8290.306550,2298.286494
486.466716,1332.370696,-6143.709319,383.047749
486.467039,4663.297435,-5847.626942,-2145.067394
486.467361,6587.832884,-7476.080014,-995.924147
486.467683,5847.626942,-7772.162391,2528.115143
486.468006,4145.153275,-7476.080014,1991.848295
486.468328,3775.050304,-8660.409521,-1608.800546
486.468650,3182.885551,-10881.027347,-4443.353888
486.468973,518.144159,-11843.295072,-3600.648841
486.469295,-3478.967927,-11843.295072,-1915.238745
486.469617,-5107.421000,-11325.150913,-1072.533697
486.469940,-3552.988522,-10955.047942,-2911.162892
486.470262,-666.185348,-10658.965565,-4979.620737
486.470584,-888.247130,-10140.821405,-2451.505594
486.470907,-2294.638420,-9104.533087,0.000000
486.471229,-2146.597232,-8512.368333,-995.924147
486.471551,-1258.350101,-9326.594869,-2528.115143
486.471874,-888.247130,-9918.759623,-1685.410096
486.472196,-2664.741391,-9696.697840,-536.266849
486.472518,-2886.803174,-9252.574275,229.828649
486.472841,-814.226536,-8512.368333,-766.095498
486.473163,3034.844362,-8586.388927,-1685.410096
486.473485,5403.503377,-8068.244768,-766.095498
486.473808,5551.544565,-7846.182985,1225.752797
486.474130,3775.050304,-6587.832884,1685.410096
486.474452,3034.844362,-7105.977043,-689.485948
486.474775,2590.720797,-9326.594869,-3294.210641
486.475097,-148.041188,-10807.006753,-3600.648841
486.475419,-3627.009116,-11029.068536,-1302.362347
486.475742,-6365.771101,-9918.759623,-383.047749
486.476064,-5033.400406,-9918.759623,-2068.457845
486.476386,-1998.556043,-10807.006753,-4060.306139
486.476709,-1036.288319,-10807.006753,-3370.820191
486.477031,-2368.659014,-8808.450710,-536.266849
486.477353,-2738.761985,-8290.306550,1072.533697
486.477676,-2220.617826,-8438.347739,-1149.143247
486.477998,-2368.659014,-9400.615463,-4366.744339
486.478320,-3627.009116,-10214.842000,-3600.648841
486.478643,-4441.235652,-9622.677246,0.000000
486.478965,-2368.659014,-8586.388927,-1378.971896
486.479287,1554.432478,-9548.656652,-2604.724693
486.479610,4811.338623,-9548.656652,-2221.676944
486.479932,5847.626942,-8512.368333,229.828649
486.480254,4737.318029,-6883.915261,995.924147
486.480577,3627.009116,-6661.853478,-689.485948
486.480899,2960.823768,-8660.409521,-3677.258390
486.481221,814.226536,-9622.677246,-4596.572988
486.481544,-3330.926739,-9696.697840,-2604.724693
486.481866,-6291.750507,-10140.821405,-766.095498
486.482188,-4737.318029,-11103.089130,-1991.848295
486.482511,-1702.473667,-11325.150913,-5822.325785
486.482833,296.082377,-10881.027347,-4903.011187
486.483155,0.000000,-9474.636058,-1072.533697
486.483478,0.000000,-9622.677246,1149.143247
486.483800,518.144159,-10066.800811,-995.924147
486.484122,592.164754,-9474.636058,-3447.429741
486.484445,0.000000,-9844.739029,-3447.429741
486.484767,-1036.288319,-9918.759623,-1378.971896
486.485089,-1184.329507,-9770.718434,995.924147
486.485412,592.164754,-9474.636058,0.000000
486.485734,3330.926739,-8438.347739,-689.485948
486.486056,4293.194464,-7328.038826,0.000000
486.486379,3478.967927,-6661.853478,459.657299
486.486701,2294.638420,-6661.853478,-383.047749
486.487023,1036.288319,-7254.018232,-1991.848295
486.487346,-370.102971,-9326.594869,-3140.991542
486.487668,-2738.761985,-11769.274478,-1149.143247
486.487990,-6217.729913,-12213.398043,-459.657299
486.488313,-6809.894666,-11251.130318,-766.095498
486.488635,-4293.194464,-9844.739029,-3907.087040
486.488957,-1184.329507,-10140.821405,-4903.011187
486.489280,222.061783,-10066.800811,-1915.238745
486.489602,74.020594,-8734.430116,766.095498
486.489924,-370.102971,-7920.203579,383.047749
486.490247,518.144159,-9622.677246,-1915.238745
486.490569,444.123565,-11251.130318,-3064.381992
486.490891,-1628.453072,-10436.903782,-1532.190996
486.491214,-3034.844362,-9844.739029,1455.581446
486.491536,-2146.597232,-8586.388927,2451.505594
486.491858,962.267725,-7031.956449,0.000000
486.492181,3034.844362,-5847.626942,-1762.019645
486.492503,3552.988522,-6069.688724,-306.438199
486.492825,2146.597232,-6587.832884,459.657299
486.493148,1628.453072,-7476.080014,-229.828649
486.493470,814.226536,-8956.491898,-1991.848295
486.493792,-740.205942,-11177.109724,-3140.991542
486.494115,-3182.885551,-12583.501014,-2757.943793
486.494437,-5181.441594,-11917.315666,-1302.362347
486.494759,-4589.276840,-11029.068536,-2911.162892
486.495082,-1924.535449,-10510.924376,-4903.011187
486.495404,0.000000,-9696.697840,-4596.572988
486.495726,-444.123565,-8808.450710,-459.657299
486.496049,-1776.494261,-8290.306550,1302.362347
486.496371,-2368.659014,-8808.450710,-1991.848295
486.496693,-1702.473667,-10881.027347,-4903.011187
486.497016,-1628.453072,-11843.295072,-3524.039291
486.497338,-2442.679609,-10288.862594,-842.705048
486.497660,-1332.370696,-9178.553681,306.438199
486.497983,2220.617826,-8438.347739,-766.095498
486.498305,6069.688724,-8290.306550,-1838.629195
486.498627,7846.182985,-7476.080014,0.000000
486.498950,6957.935855,-6735.874072,766.095498
486.499272,5033.400406,-7105.977043,-459.657299
486.499594,3923.091493,-8808.450710,-2068.457845
486.499917,1702.473667,-11621.233289,-3140.991542
486.500239,-1850.514855,-12731.542202,-2987.772442
486.500561,-5329.482782,-11177.109724,-2068.457845
486.500884,-5773.606348,-9548.656652,-2145.067394
486.501206,-3182.885551,-9474.636058,-3447.429741
486.501528,-962.267725,-9474.636058,-3983.696590
486.501851,-2516.700203,-8068.244768,-1608.800546
486.502173,-3627.009116,-7772.162391,0.000000
486.502495,-3330.926739,-7920.203579,-1302.362347
486.502818,-2146.597232,-9548.656652,-4060.306139
486.503140,-2368.659014,-10510.924376,-4596.572988
486.503462,-3552.988522,-11325.150913,-2451.505594
486.503785,-3034.844362,-11621.233289,1072.533697
486.504107,-222.061783,-10584.944971,842.705048
486.504429,3108.864956,-8364.327145,-2221.676944
486.504752,4515.256246,-6291.750507,-2221.676944
486.505074,4663.297435,-5847.626942,0.000000
486.505396,3701.029710,-5995.668130,919.314598
486.505719,3330.926739,-7698.141797,-1072.533697
486.506041,1480.411884,-9474.636058,-2451.505594
486.506363,-1554.432478,-11029.068536,-1302.362347
486.506686,-4589.276840,-11325.150913,-689.485948
486.507008,-5847.626942,-11473.192101,-995.924147
486.507330,-3849.070898,-11473.192101,-3294.210641
486.507653,-1406.391290,-10362.883188,-4060.306139
486.507975,-888.247130,-8808.450710,-1685.410096
486.508297,-1554.432478,-8068.244768,1072.533697
486.508620,-2442.679609,-8216.285956,689.485948
486.508942,-2664.741391,-9104.533087,-2681.334243
486.509264,-2960.823768,-10807.006753,-4903.011187
486.509587,-3997.112087,-11917.315666,-2451.505594
486.509909,-4737.318029,-11177.109724,153.219100
486.510231,-2738.761985,-9326.594869,536.266849
486.510554,1628.453072,-9030.512492,-1685.410096
486.510876,5329.482782,-8512.368333,-2145.067394
486.511198,5773.606348,-7476.080014,-766.095498
486.511521,3775.050304,-6217.729913,842.705048
486.511843,2368.659014,-6809.894666,0.000000
486.512165,2146.597232,-8512.368333,-2068.457845
486.512488,1554.432478,-11177.109724,-3294.210641
486.512810,-1554.432478,-12213.398043,-1455.581446
486.513132,-4071.132681,-11473.192101,0.000000
486.513455,-3108.864956,-9474.636058,-1378.971896
486.513777,-296.082377,-8882.471304,-2681.334243
486.514099,1554.432478,-9030.512492,-2911.162892
486.514422,0.000000,-8586.388927,-229.828649
486.514744,-1554.432478,-7772.162391,1455.581446
486.515066,-1924.535449,-8660.409521,-229.828649
486.515389,-1924.535449,-9326.594869,-2987.772442
486.515711,-2960.823768,-10658.965565,-3753.867940
486.516033,-3330.926739,-10732.986159,-1838.629195
486.516356,-2220.617826,-9400.615463,-153.219100
486.516678,962.267725,-8364.327145,-1608.800546
486.517000,4663.297435,-8512.368333,-2145.067394
486.517323,6587.832884,-8660.409521,-1608.800546
486.517645,5625.565159,-7402.059420,0.000000
486.517967,3256.906145,-7179.997637,229.828649
486.518290,1702.473667,-8068.244768,-1991.848295
486.518612,222.061783,-10807.006753,-3983.696590
486.518934,-1924.535449,-11769.274478,-3677.258390
486.519257,-4737.318029,-11621.233289,-1915.238745
486.519579,-5181.441594,-11103.089130,-383.047749
486.519901,-2812.782580,-9696.697840,-1608.800546
486.520224,-592.164754,-8660.409521,-3064.381992
486.520546,-370.102971,-7846.182985,-2451.505594
486.520868,-1628.453072,-8068.244768,-612.876398
486.521191,-2368.659014,-8512.368333,-842.705048
486.521513,-1702.473667,-10362.883188,-3370.820191
486.521835,-1628.453072,-11917.315666,-4290.134789
486.522158,-2442.679609,-12139.377449,-2834.553343
486.522480,-3034.844362,-10362.883188,766.095498
486.522802,-962.267725,-9474.636058,0.000000
486.523125,2368.659014,-9030.512492,-2757.943793
486.523447,4737.318029,-7994.224174,-2757.943793
486.523769,4145.153275,-6291.750507,-689.485948
486.524092,1850.514855,-5625.565159,536.266849
486.524414,592.164754,-7179.997637,-612.876398
486.524736,0.000000,-8956.491898,-3217.601092
486.525059,-2590.720797,-10362.883188,-3983.696590
486.525381,-5995.668130,-11695.253884,-2145.067394
486.525703,-8068.244768,-11843.295072,-229.828649
486.526026,-6291.750507,-11843.295072,-2528.115143
486.526348,-3256.906145,-10436.903782,-3753.867940
486.526670,-2220.617826,-8808.450710,-2451.505594
486.526993,-1850.514855,-7920.203579,-995.924147
486.527315,-1406.391290,-7402.059420,-1225.752797
486.527637,-296.082377,-8808.450710,-2068.457845
486.527960,0.000000,-11547.212695,-2834.553343
486.528282,-518.144159,-12361.439231,-1915.238745
486.528604,-1332.370696,-11695.253884,383.047749
486.528927,444.123565,-10140.821405,1072.533697
486.529249,3923.091493,-8364.327145,-536.266849
486.529571,6883.915261,-6957.935855,-766.095498
486.529894,7105.977043,-5403.503377,842.705048
486.530216,6143.709319,-4515.256246,2068.457845
486.530538,4663.297435,-6291.750507,1378.971896
486.530861,3034.844362,-9326.594869,-612.876398
486.531183,444.123565,-11473.192101,-2681.334243
486.531505,-3552.988522,-12139.377449,-2528.115143
486.531828,-6291.750507,-11991.336260,-689.485948
486.532150,-6069.688724,-11177.109724,-153.219100
486.532472,-3701.029710,-8364.327145,-3524.039291
486.532795,-1036.288319,-7846.182985,-5898.935335
486.533117,-1406.391290,-8660.409521,-2681.334243
486.533439,-814.226536,-8882.471304,-229.828649
486.533762,-740.205942,-8660.409521,-1532.190996
486.534084,0.000000,-10732.986159,-3983.696590
486.534406,-296.082377,-12287.418637,-3370.820191
486.534729,-1480.411884,-13027.624579,-459.657299
486.535051,-888.247130,-10807.006753,1302.362347
486.535373,814.226536,-8068.244768,76.609550
486.535696,3775.050304,-6217.729913,-1838.629195
486.536018,5847.626942,-5477.523971,-1838.629195
486.536340,5773.606348,-5181.441594,153.219100
486.536663,3997.112087,-6661.853478,536.266849
486.536985,2738.761985,-8660.409521,-306.438199
486.537307,1332.370696,-10288.862594,-1991.848295
486.537630,-2072.576638,-11843.295072,-2451.505594
486.537952,-5995.668130,-11991.336260,-1149.143247
486.538274,-7994.224174,-11251.130318,-919.314598
486.538597,-6735.874072,-9844.739029,-4213.525239
486.538919,-3034.844362,-10214.842000,-6128.763984
486.539241,-2146.597232,-10066.800811,-4136.915689
486.539564,-2146.597232,-8660.409521,-153.219100
486.539886,-2442.679609,-8882.471304,536.266849
486.540208,-1702.473667,-10658.965565,-3064.381992
486.540531,-1332.370696,-11843.295072,-5745.716235
486.540853,-2960.823768,-12805.562797,-4366.744339
486.541175,-3627.009116,-11695.253884,-229.828649
486.541498,-1776.494261,-9252.574275,459.657299
486.541820,2812.782580,-7179.997637,-1225.752797
486.542142,6069.688724,-5921.647536,-1915.238745
486.542465,6587.832884,-5995.668130,0.000000
486.542787,5255.462188,-6957.935855,1302.362347
486.543109,4145.153275,-7698.141797,1532.190996
486.543432,2072.576638,-8142.265362,-995.924147
486.543754,-962.267725,-9696.697840,-2528.115143
486.544076,-4663.297435,-10658.965565,-2374.896044
486.544399,-7179.997637,-10362.883188,-1532.190996
486.544721,-6883.915261,-9622.677246,-2604.724693
486.545043,-3775.050304,-9400.615463,-3600.648841
486.545366,-2146.597232,-8808.450710,-4673.182538
486.545688,-1554.432478,-8734.430116,-1685.410096
486.546010,-1998.556043,-8956.491898,0.000000
486.546333,-962.267725,-10732.986159,-1378.971896
486.546655,-592.164754,-11843.295072,-4749.792088
486.546977,-1998.556043,-11769.274478,-4213.525239
486.547300,-3775.050304,-10732.986159,-1149.143247
486.547622,-2220.617826,-9178.553681,76.609550
486.547944,2072.576638,-8586.388927,-1225.752797
486.548267,5699.585753,-7031.956449,-2221.676944
486.548589,7476.080014,-6217.729913,-306.438199
486.548911,7105.977043,-5625.565159,2068.457845
486.549234,6217.729913,-6587.832884,1762.019645
486.549556,4219.173869,-8586.388927,-153.219100
486.549878,888.247130,-9918.759623,-2145.067394
486.550201,-3552.988522,-10288.862594,-2681.334243
486.550523,-6883.915261,-11103.089130,-2221.676944
486.550845,-6143.709319,-11473.192101,-2451.505594
486.551168,-3256.906145,-11325.150913,-3217.601092
486.551490,-666.185348,-9918.759623,-3370.820191
486.551812,222.061783,-9252.574275,-1762.019645
486.552134,-444.123565,-9474.636058,919.314598
486.552457,-1332.370696,-10214.842000,-229.828649
486.552779,-1628.453072,-10732.986159,-3983.696590
486.553101,-2812.782580,-11103.089130,-5056.230287
486.553424,-4367.215058,-10807.006753,-2145.067394
486.553746,-3330.926739,-9770.718434,1302.362347
486.554068,-1036.288319,-8808.450710,612.876398
486.554391,2516.700203,-7550.100608,-1149.143247
486.554713,5107.421000,-7105.977043,-919.314598
486.555035,5403.503377,-6217.729913,383.047749
486.555358,4367.215058,-5551.544565,383.047749
486.555680,2664.741391,-6291.750507,-76.609550
486.556002,1110.308913,-7994.224174,-2145.067394
486.556325,-1480.411884,-9548.656652,-2374.896044
486.556647,-4959.379811,-10584.944971,-1378.971896
486.556969,-6587.832884,-11547.212695,-766.095498
486.557291,-4589.276840,-11843.295072,-2911.162892
486.557614,-740.205942,-11769.274478,-4366.744339
486.557936,814.226536,-11029.068536,-2451.505594
486.558258,0.000000,-8808.450710,459.657299
486.558581,-1036.288319,-7254.018232,995.924147
486.558903,-1480.411884,-7846.182985,-2298.286494
486.559225,-2812.782580,-9918.759623,-5439.278036
486.559548,-4515.256246,-11177.109724,-4749.792088
486.559870,-5403.503377,-11251.130318,-1302.362347
486.560192,-2812.782580,-10510.924376,153.219100
486.560515,2294.638420,-9622.677246,-1149.143247
486.560837,6957.935855,-8512.368333,-2221.676944
486.561159,8216.285956,-6587.832884,-383.047749
486.561482,6809.894666,-5773.606348,1072.533697
486.561804,4663.297435,-5995.668130,689.485948
486.562126,2294.638420,-8142.265362,-1378.971896
486.562449,-1332.370696,-10140.821405,-3447.429741
486.562771,-4737.318029,-12287.418637,-3600.648841
486.563093,-7105.977043,-12731.542202,-2451.505594
486.563415,-6217.729913,-12065.356855,-1762.019645
486.563738,-1924.535449,-10955.047942,-2757.943793
486.564060,0.000000,-8512.368333,-4213.525239
486.564382,296.082377,-7994.224174,-2451.505594
486.564705,-1332.370696,-7624.121203,-612.876398
486.565027,-1628.453072,-9400.615463,-1915.238745
486.565349,-1184.329507,-11177.109724,-5592.497135
486.565672,-1628.453072,-11991.336260,-5209.449386
486.565994,-2664.741391,-12805.562797,-1378.971896
486.566316,-2220.617826,-11325.150913,1685.410096
486.566639,1110.308913,-9474.636058,536.266849
486.566961,4885.359217,-7179.997637,-2145.067394
486.567283,7402.059420,-6217.729913,-2451.505594
486.567606,7476.080014,-4737.318029,919.314598
486.567928,5329.482782,-4515.256246,1915.238745
486.568250,2886.803174,-5847.626942,612.876398
486.568572,370.102971,-8586.388927,-1378.971896
486.568895,-2886.803174,-11695.253884,-2834.553343
486.569217,-6143.709319,-12213.398043,-1915.238745
486.569539,-7624.121203,-11991.336260,-1838.629195
486.569862,-5033.400406,-11325.150913,-3294.210641
486.570184,-1850.514855,-10140.821405,-4060.306139
486.570506,-518.144159,-9178.553681,-2374.896044
486.570829,-888.247130,-8216.285956,-153.219100
486.571151,-1110.308913,-9696.697840,-919.314598
486.571473,-888.247130,-11251.130318,-3524.039291
486.571796,-888.247130,-11917.315666,-4443.353888
486.572118,-2146.597232,-11621.233289,-1915.238745
486.572440,-2072.576638,-10732.986159,1838.629195
486.572763,444.123565,-8438.347739,2068.457845
486.573085,3997.112087,-6217.729913,-766.095498
486.573407,6957.935855,-5033.400406,-2221.676944
486.573729,6883.915261,-4885.359217,229.828649
486.574052,5477.523971,-4071.132681,2528.115143
486.574374,3552.988522,-6069.688724,1762.019645
486.574696,1998.556043,-9548.656652,-1225.752797
486.575019,-1332.370696,-11843.295072,-2757.943793
486.575341,-5699.585753,-12805.562797,-2681.334243
486.575663,-8808.450710,-12953.603985,-1608.800546
486.575986,-7550.100608,-12213.398043,-3064.381992
486.576308,-4515.256246,-10214.842000,-4979.620737
486.576630,-1924.535449,-10140.821405,-5515.887586
486.576953,-1924.535449,-9030.512492,-1072.533697
486.577275,-1776.494261,-10214.842000,459.657299
486.577597,-1480.411884,-10066.800811,-1991.848295
486.577920,-962.267725,-11029.068536,-5056.230287
486.578242,-2072.576638,-11843.295072,-2987.772442
486.578564,-2738.761985,-11029.068536,459.657299
486.578886,-1702.473667,-8068.244768,1302.362347
486.579209,1998.556043,-6143.709319,-612.876398
486.579531,5773.606348,-5551.544565,-1762.019645
486.579853,7328.038826,-5107.421000,-306.438199
486.580176,6513.812290,-4811.338623,1762.019645
486.580498,4737.318029,-6439.791695,1149.143247
486.580820,3182.885551,-9474.636058,-919.314598
486.581143,814.226536,-11251.130318,-2451.505594
486.581465,-3108.864956,-12879.583391,-3524.039291
486.581787,-6735.874072,-12509.480420,-1915.238745
486.582110,-7105.977043,-11695.253884,-1915.238745
486.582432,-4737.318029,-10362.883188,-4290.134789
486.582754,-1258.350101,-10362.883188,-4903.011187
486.583077,-814.226536,-9474.636058,-2911.162892
486.583399,-1628.453072,-9548.656652,0.000000
486.583721,-1480.411884,-9252.574275,-689.485948
486.584043,-1480.411884,-9844.739029,-3600.648841
486.584366,-2442.679609,-10436.903782,-4213.525239
486.584688,-3478.967927,-9844.739029,-1762.019645
486.585010,-2886.803174,-8956.491898,-536.266849
486.585333,-148.041188,-8216.285956,-306.438199
486.585655,3108.864956,-7105.977043,-1302.362347
486.585977,5551.544565,-6069.688724,-766.095498
486.586300,5773.606348,-5699.585753,536.266849
486.586622,4885.359217,-6069.688724,1072.533697
486.586944,2960.823768,-7476.080014,-459.657299
486.587267,1332.370696,-10584.944971,-2681.334243
486.587589,-2146.597232,-12583.501014,-3370.820191
486.587911,-5921.647536,-12805.562797,-1838.629195
486.588234,-7031.956449,-11917.315666,-919.314598
486.588556,-4885.359217,-11103.089130,-4060.306139
486.588878,-1776.494261,-10658.965565,-5669.106685
486.589200,0.000000,-9844.739029,-3064.381992
486.589523,148.041188,-8660.409521,306.438199
486.589845,296.082377,-9104.533087,689.485948
486.590167,962.267725,-9770.718434,-1991.848295
486.590490,1036.288319,-10881.027347,-3907.087040
486.590812,-814.226536,-10881.027347,-1991.848295
486.591134,-1258.350101,-9992.780217,842.705048
486.591457,814.226536,-8734.430116,919.314598
486.591779,3923.091493,-7179.997637,459.657299
486.592101,5847.626942,-6883.915261,0.000000
486.592424,5551.544565,-5403.503377,1225.752797
486.592746,4663.297435,-4737.318029,766.095498
486.593068,3923.091493,-6291.750507,-842.705048
486.593391,2664.741391,-9474.636058,-2145.067394
486.593713,-666.185348,-10955.047942,-2451.505594
486.594035,-5255.462188,-11843.295072,-1072.533697
486.594357,-7994.224174,-11547.212695,-536.266849
486.594680,-7031.956449,-11917.315666,-2987.772442
486.595002,-3627.009116,-11029.068536,-6128.763984
486.595324,-1924.535449,-8956.491898,-5822.325785
486.595647,-1702.473667,-8438.347739,-1685.410096
486.595969,-962.267725,-8956.491898,919.314598
486.596291,-666.185348,-10955.047942,0.000000
486.596614,-814.226536,-11251.130318,-2451.505594
486.596936,-1184.329507,-11103.089130,-2987.772442
486.597258,-1110.308913,-10955.047942,-1072.533697
486.597581,-444.123565,-9622.677246,919.314598
486.597903,1850.514855,-7179.997637,1532.190996
486.598225,4071.132681,-4737.318029,1225.752797
486.598548,5995.668130,-3775.050304,689.485948
486.598870,6365.771101,-5033.400406,0.000000
486.599192,4663.297435,-6661.853478,-612.876398
486.599515,2368.659014,-8734.430116,-1532.190996
486.599837,-518.144159,-11769.274478,-2145.067394
486.600159,-4071.132681,-13545.768739,-1378.971896
486.600481,-7476.080014,-12953.603985,-1378.971896
486.600804,-8734.430116,-11029.068536,-3907.087040
486.601126,-7031.956449,-10584.944971,-6818.249932
486.601448,-4145.153275,-10288.862594,-7048.078582
486.601771,-3552.988522,-9474.636058,-3600.648841
486.602093,-3108.864956,-9326.594869,0.000000
486.602415,-1998.556043,-9474.636058,-1532.190996
486.602738,-1184.329507,-11695.253884,-4366.744339
486.603060,-1554.432478,-12213.398043,-3907.087040
486.603382,-3034.844362,-11177.109724,-1838.629195
486.603705,-3034.844362,-8512.368333,383.047749
486.604027,-740.205942,-6735.874072,229.828649
486.604349,2738.761985,-6365.771101,-612.876398
486.604672,5181.441594,-6513.812290,-1225.752797
486.604994,6365.771101,-5847.626942,229.828649
486.605316,5995.668130,-5773.606348,919.314598
486.605638,5921.647536,-7624.121203,-306.438199
486.605961,3997.112087,-10362.883188,-766.095498
486.606283,666.185348,-12287.418637,-1225.752797
486.606605,-3701.029710,-12361.439231,-1532.190996
486.606928,-5847.626942,-12065.356855,-2221.676944
486.607250,-4885.359217,-10955.047942,-3524.039291
486.607572,-2294.638420,-9400.615463,-5362.668486
486.607895,-370.102971,-8660.409521,-4519.963438
486.608217,0.000000,-8734.430116,-995.924147
486.608539,296.082377,-9770.718434,1762.019645
486.608862,74.020594,-9992.780217,-1532.190996
486.609184,-518.144159,-10881.027347,-5286.058936
486.609506,-1480.411884,-11695.253884,-4060.306139
486.609829,-2146.597232,-11769.274478,-995.924147
486.610151,-1480.411884,-9992.780217,612.876398
486.610473,1480.411884,-8142.265362,153.219100
486.610795,4959.379811,-7179.997637,0.000000
486.611118,6661.853478,-6513.812290,306.438199
486.611440,6365.771101,-5699.585753,2298.286494
486.611762,4737.318029,-5107.421000,1762.019645
486.612085,3404.947333,-6439.791695,-1072.533697
486.612407,1554.432478,-8734.430116,-1991.848295
486.612729,-2294.638420,-10658.965565,-689.485948
486.613052,-5551.544565,-11769.274478,76.609550
486.613374,-6587.832884,-11325.150913,-1378.971896
486.613696,-4737.318029,-10658.965565,-3830.477490
486.614019,-2664.741391,-9474.636058,-4519.963438
486.614341,-370.102971,-9474.636058,-3064.381992
486.614663,74.020594,-8586.388927,-689.485948
486.614986,-592.164754,-9918.759623,-842.705048
486.615308,-1628.453072,-10807.006753,-2681.334243
486.615630,-3552.988522,-11103.089130,-3447.429741
486.615952,-5477.523971,-11399.171507,-2221.676944
486.616275,-4959.379811,-10955.047942,-1455.581446
486.616597,-2442.679609,-10584.944971,-1608.800546
486.616919,592.164754,-8734.430116,-1302.362347
486.617242,2960.823768,-6587.832884,1149.143247
486.617564,3997.112087,-4885.359217,2298.286494
486.617886,4589.276840,-4737.318029,689.485948
486.618209,4515.256246,-7105.977043,-2298.286494
486.618531,1184.329507,-8586.388927,-2451.505594
486.618853,-2738.761985,-10066.800811,-1378.971896
486.619176,-5699.585753,-11991.336260,-1302.362347
486.619498,-5921.647536,-13175.665768,-1991.848295
486.619820,-3701.029710,-12731.542202,-3677.258390
486.620143,-1554.432478,-11103.089130,-4673.182538
486.620465,-666.185348,-9252.574275,-2681.334243
486.620787,-370.102971,-9622.677246,76.609550
486.621109,-1258.350101,-8660.409521,1149.143247
486.621432,-2442.679609,-8068.244768,-1378.971896
486.621754,-4515.256246,-9104.533087,-5132.839837
486.622076,-5403.503377,-11103.089130,-4136.915689
486.622399,-5329.482782,-10732.986159,-1455.581446
486.622721,-2812.782580,-9474.636058,-1532.190996
486.623043,1554.432478,-9252.574275,-1991.848295
486.623366,5107.421000,-8808.450710,-536.266849
486.623688,6513.812290,-7402.059420,0.000000
486.624010,6217.729913,-6217.729913,0.000000
486.624333,5255.462188,-6587.832884,-1915.238745
486.624655,3775.050304,-7920.203579,-3677.258390
486.624977,1110.308913,-9696.697840,-2987.772442
486.625300,-2368.659014,-10658.965565,-1225.752797
486.625622,-4515.256246,-10955.047942,-1685.410096
486.625944,-2960.823768,-11029.068536,-2757.943793
486.626266,222.061783,-11325.150913,-4060.306139
486.626589,1924.535449,-10658.965565,-2374.896044
486.626911,1554.432478,-8882.471304,689.485948
486.627233,1036.288319,-8512.368333,1762.019645
486.627556,666.185348,-8586.388927,-766.095498
486.627878,296.082377,-9326.594869,-3140.991542
486.628200,-1036.288319,-9992.780217,-3524.039291
486.628523,-2146.597232,-10214.842000,-2145.067394
486.628845,-1480.411884,-10140.821405,-229.828649
486.629167,444.123565,-9844.739029,0.000000
486.629490,2812.782580,-9400.615463,-536.266849
486.629812,4737.318029,-8438.347739,-842.705048
486.630134,4367.215058,-7402.059420,-229.828649
486.630457,3627.009116,-6587.832884,-766.095498
486.630779,2368.659014,-7179.997637,-1608.800546
486.631101,-148.041188,-9030.512492,-2374.896044
486.631423,-4367.215058,-10436.903782,-2374.896044
486.631746,-7994.224174,-10362.883188,-459.657299
486.632068,-8734.430116,-10362.883188,-2298.286494
486.632390,-5847.626942,-10732.986159,-4979.620737
486.632713,-2590.720797,-11473.192101,-4979.620737
486.633035,-1184.329507,-10955.047942,-1302.362347
486.633357,-1480.411884,-9548.656652,2451.505594
486.633680,-1332.370696,-8438.347739,1378.971896
486.634002,0.000000,-9252.574275,-2374.896044
486.634324,-518.144159,-9622.677246,-4749.792088
486.634647,-2220.617826,-9474.636058,-2221.676944
486.634969,-3182.885551,-9252.574275,1991.848295
486.635291,-1776.494261,-8808.450710,1991.848295
486.635614,1332.370696,-8068.244768,306.438199
486.635936,3997.112087,-6883.915261,-383.047749
486.636258,4737.318029,-6513.812290,-536.266849
486.636580,4145.153275,-6587.832884,-153.219100
486.636903,3775.050304,-7624.121203,-536.266849
486.637225,1406.391290,-8808.450710,-1532.190996
486.637547,-2664.741391,-9844.739029,-1072.533697
486.637870,-6513.812290,-9992.780217,-1532.190996
486.638192,-7624.121203,-10807.006753,-4290.134789
486.638514,-6291.750507,-11843.295072,-6511.811733
486.638837,-4589.276840,-11843.295072,-5209.449386
486.639159,-3627.009116,-11695.253884,-1838.629195
486.639481,-2886.803174,-9844.739029,1532.190996
486.639804,-2146.597232,-7402.059420,612.876398
486.640126,-1332.370696,-6809.894666,-4136.915689
486.640448,-1776.494261,-8808.450710,-5439.278036
486.640771,-2442.679609,-10436.903782,-2681.334243
486.641093,-3034.844362,-9474.636058,0.000000
486.641415,-1110.308913,-8512.368333,0.000000
486.641738,3182.885551,-9696.697840,-306.438199
486.642060,7402.059420,-10288.862594,-1378.971896
486.642382,7994.224174,-8216.285956,-766.095498
486.642704,6735.874072,-7254.018232,612.876398
486.643027,5847.626942,-8068.244768,229.828649
486.643349,4737.318029,-9474.636058,-2221.676944
486.643671,1850.514855,-10066.800811,-2681.334243
486.643994,-2368.659014,-10436.903782,-2374.896044
486.644316,-4885.359217,-11399.171507,-2604.724693
486.644638,-4293.194464,-11695.253884,-2834.553343
486.644961,-2664.741391,-11029.068536,-3370.820191
486.645283,-1184.329507,-9992.780217,-2221.676944
486.645605,-1110.308913,-8438.347739,-842.705048
486.645928,-444.123565,-8364.327145,0.000000
486.646250,518.144159,-8216.285956,-1608.800546
486.646572,888.247130,-8438.347739,-4826.401637
486.646895,-518.144159,-9474.636058,-3830.477490
486.647217,-1850.514855,-10658.965565,306.438199
486.647539,-2960.823768,-9548.656652,1455.581446
486.647861,-1776.494261,-9548.656652,-1072.533697
486.648184,814.226536,-9696.697840,-2834.553343
486.648506,2738.761985,-8808.450710,-2451.505594
486.648828,3182.885551,-7031.956449,-1225.752797
486.649151,2812.782580,-5847.626942,306.438199
486.649473,2442.679609,-7254.018232,0.000000
486.649796,1258.350101,-9548.656652,-2145.067394
486.650118,-1554.432478,-11177.109724,-2374.896044
486.650440,-5107.421000,-12213.398043,-1378.971896
486.650763,-7105.977043,-10584.944971,-919.314598
486.651085,-4811.338623,-9918.759623,-2681.334243
486.651407,-666.185348,-10066.800811,-3370.820191
486.651730,1776.494261,-8586.388927,-1685.410096
486.652052,1554.432478,-7179.997637,76.609550
486.652374,888.247130,-8364.327145,306.438199
486.652697,518.144159,-9252.574275,-153.219100
486.653019,-740.205942,-10658.965565,-3524.039291
486.653341,-3478.967927,-11547.212695,-3294.210641
486.653664,-4737.318029,-11769.274478,-153.219100
486.653986,-3775.050304,-9770.718434,306.438199
486.654308,-1184.329507,-7698.141797,-1608.800546
486.654631,1776.494261,-7105.977043,-1685.410096
486.654953,3627.009116,-7105.977043,-842.705048
486.655276,3552.988522,-6735.874072,-306.438199
486.655598,2960.823768,-7772.162391,-612.876398
486.655920,1776.494261,-9548.656652,-2068.457845
486.656243,-962.267725,-10807.006753,-2987.772442
486.656565,-3330.926739,-11103.089130,-2374.896044
486.656887,-5403.503377,-10584.944971,-2068.457845
486.657210,-4885.359217,-10584.944971,-2987.772442
486.657532,-3256.906145,-9992.780217,-3907.087040
486.657854,-2368.659014,-8586.388927,-2681.334243
486.658177,-1924.535449,-8734.430116,-842.705048
486.658499,-2072.576638,-9030.512492,-459.657299
486.658821,-962.267725,-9918.759623,-1991.848295
486.659144,0.000000,-11103.089130,-4060.306139
486.659466,148.041188,-11251.130318,-3064.381992
486.659789,-148.041188,-10362.883188,0.000000
486.660111,740.205942,-8660.409521,1149.143247
486.660433,3404.947333,-7846.182985,-459.657299
486.660756,5995.668130,-8068.244768,-1762.019645
486.661078,6883.915261,-7920.203579,-383.047749
486.661400,6217.729913,-7254.018232,1532.190996
486.661723,4959.379811,-7105.977043,2068.457845
486.662045,3923.091493,-7402.059420,-459.657299
486.662367,1850.514855,-8512.368333,-2604.724693
486.662690,-1628.453072,-9474.636058,-2528.115143
486.663012,-4959.379811,-9622.677246,-1915.238745
486.663334,-6069.688724,-10881.027347,-2911.162892
486.663657,-5329.482782,-11325.150913,-3753.867940
486.663979,-4515.256246,-11547.212695,-3140.991542
486.664302,-3923.091493,-10288.862594,-2451.505594
486.664624,-4145.153275,-9918.759623,-1455.581446
486.664946,-3256.906145,-9474.636058,-1991.848295
486.665269,-2072.576638,-9622.677246,-4596.572988
486.665591,-1554.432478,-10658.965565,-4903.011187
486.665913,-2442.679609,-11177.109724,-1762.019645
486.666236,-3034.844362,-11103.089130,1149.143247
486.666558,-2442.679609,-8438.347739,995.924147
486.666880,74.020594,-7179.997637,-1302.362347
486.667203,2886.803174,-7105.977043,-2374.896044
486.667525,4145.153275,-7179.997637,-1685.410096
486.667847,3923.091493,-7105.977043,0.000000
486.668170,3108.864956,-7105.977043,459.657299
486.668492,2294.638420,-9030.512492,-995.924147
486.668815,-740.205942,-10658.965565,-2374.896044
486.669137,-4737.318029,-11843.295072,-2681.334243
486.669459,-7476.080014,-11621.233289,-2987.772442
486.669782,-7846.182985,-10955.047942,-3983.696590
486.670104,-5699.585753,-10066.800811,-3983.696590
486.670426,-3997.112087,-10584.944971,-2757.943793
486.670749,-2442.679609,-10955.047942,-919.314598
486.671071,-1924.535449,-9178.553681,383.047749
486.671393,-1332.370696,-8808.450710,-1072.533697
486.671716,-1776.494261,-8882.471304,-2834.553343
486.672038,-3330.926739,-9474.636058,-2987.772442
486.672360,-5847.626942,-9770.718434,-1072.533697
486.672683,-6883.915261,-8364.327145,76.609550
486.673005,-5329.482782,-7105.977043,-995.924147
486.673328,-1628.453072,-6513.812290,-2374.896044
486.673650,1924.535449,-7179.997637,-2834.553343
486.673972,2590.720797,-7846.182985,-1838.629195
486.674295,2146.597232,-9400.615463,229.828649
486.674617,1924.535449,-9992.780217,766.095498
486.674939,1628.453072,-10214.842000,-2374.896044
486.675262,-222.061783,-11029.068536,-4903.011187
486.675584,-3923.091493,-11251.130318,-4060.306139
486.675906,-6587.832884,-11029.068536,-1915.238745
486.676229,-7105.977043,-9992.780217,-995.924147
486.676551,-5329.482782,-9474.636058,-2221.676944
486.676873,-3256.906145,-9400.615463,-3217.601092
486.677196,-1850.514855,-9844.739029,-1455.581446
486.677518,-2368.659014,-8068.244768,689.485948
486.677841,-2294.638420,-7328.038826,1302.362347
486.678163,-1184.329507,-7105.977043,-459.657299
486.678485,-1110.308913,-6809.894666,-2681.334243
486.678808,-2886.803174,-7772.162391,-2757.943793
486.679130,-5255.462188,-9622.677246,-689.485948
486.679452,-5847.626942,-10807.006753,0.000000
486.679775,-4367.215058,-10881.027347,-1302.362347
486.680097,-1480.411884,-10584.944971,-3524.039291
486.680419,74.020594,-10214.842000,-4060.306139
486.680742,888.247130,-10140.821405,-1915.238745
486.681064,444.123565,-8956.491898,0.000000
486.681386,666.185348,-8586.388927,-995.924147
486.681709,1406.391290,-8438.347739,-3447.429741
486.682031,74.020594,-7920.203579,-4366.744339
486.682354,-2146.597232,-8364.327145,-4060.306139
486.682676,-3997.112087,-9992.780217,-2451.505594
486.682998,-3923.091493,-11991.336260,-1532.190996
486.683321,-3256.906145,-11843.295072,-1149.143247
486.683643,-3701.029710,-9548.656652,-766.095498
486.683965,-4737.318029,-7476.080014,-1532.190996
486.684288,-5033.400406,-6735.874072,-1378.971896
486.684610,-4811.338623,-6587.832884,-1838.629195
486.684932,-4219.173869,-7179.997637,-2298.286494
486.685255,-3108.864956,-9104.533087,-2834.553343
486.685577,-1776.494261,-10140.821405,-2987.772442
486.685899,-1184.329507,-11029.068536,-2068.457845
486.686222,-296.082377,-12213.398043,-842.705048
486.686544,0.000000,-12435.459826,-229.828649
486.686867,444.123565,-11103.089130,-1838.629195
486.687189,0.000000,-10510.924376,-2451.505594
486.687511,-1776.494261,-10214.842000,-919.314598
486.687834,-3404.947333,-9474.636058,76.609550
486.688156,-5033.400406,-7920.203579,-995.924147
486.688478,-4663.297435,-7402.059420,-1838.629195
486.688801,-3775.050304,-6883.915261,-2221.676944
486.689123,-2886.803174,-6587.832884,-2451.505594
486.689445,-2072.576638,-6587.832884,-1608.800546
486.689768,-1110.308913,-7994.224174,-1072.533697
486.690090,0.000000,-9104.533087,-1455.581446
486.690412,74.020594,-9178.553681,-1991.848295
486.690735,-814.226536,-9400.615463,-2911.162892
486.691057,-2442.679609,-9844.739029,-3524.039291
486.691380,-2960.823768,-11621.233289,-4136.915689
486.691702,-3849.070898,-12361.439231,-3217.601092
486.692024,-4885.359217,-12361.439231,-1762.019645
486.692347,-5625.565159,-11325.150913,-842.705048
486.692669,-5551.544565,-9622.677246,-1072.533697
486.692991,-5181.441594,-7254.018232,-1532.190996
486.693314,-4293.194464,-5773.606348,-1991.848295
486.693636,-2886.803174,-5847.626942,-1225.752797
486.693958,-1702.473667,-6439.791695,0.000000
486.694281,-370.102971,-7031.956449,536.266849
486.694603,2072.576638,-7920.203579,1532.190996
486.694925,4885.359217,-10066.800811,153.219100
486.695248,5995.668130,-11325.150913,-1991.848295
486.695570,4589.276840,-12065.356855,-689.485948
486.695893,1332.370696,-10732.986159,1149.143247
486.696215,-1554.432478,-9474.636058,76.609550
486.696537,-5107.421000,-9770.718434,-3064.381992
486.696860,-8068.244768,-10066.800811,-3677.258390
486.697182,-11843.295072,-9104.533087,-3907.087040
486.697504,-13545.768739,-9474.636058,-3140.991542
486.697827,-12879.583391,-10288.862594,-995.924147
486.698149,-9474.636058,-10288.862594,-1915.238745
486.698471,-5181.441594,-8956.491898,-3830.477490
486.698794,-1554.432478,-7105.977043,-3447.429741
486.699116,814.226536,-5551.544565,-1532.190996
486.699438,1554.432478,-5255.462188,-1225.752797
486.699761,1924.535449,-7254.018232,-1838.629195
486.700083,1406.391290,-9252.574275,-2757.943793
486.700406,1554.432478,-11843.295072,-4290.134789
486.700728,1480.411884,-13841.851115,-4213.525239
486.701050,962.267725,-14211.954086,-1455.581446
486.701373,296.082377,-12805.562797,536.266849
486.701695,-1332.370696,-9770.718434,1072.533697
486.702017,-3108.864956,-8068.244768,76.609550
486.702340,-4663.297435,-7105.977043,-459.657299
486.702662,-7031.956449,-6513.812290,-2451.505594
486.702984,-7476.080014,-7254.018232,-2221.676944
486.703307,-6291.750507,-8586.388927,-536.266849
486.703629,-4145.153275,-9400.615463,1225.752797
486.703951,-1258.350101,-9030.512492,1072.533697
486.704274,1332.370696,-8290.306550,383.047749
486.704596,3404.947333,-7994.224174,-919.314598
486.704919,4515.256246,-8142.265362,-2834.553343
486.705241,4145.153275,-7994.224174,-2681.334243
486.705563,2368.659014,-7846.182985,-2604.724693
486.705886,1332.370696,-8660.409521,-3983.696590
486.706208,-222.061783,-10362.883188,-4979.620737
486.706530,-2220.617826,-12805.562797,-4290.134789
486.706853,-4959.379811,-14063.912898,-2604.724693
486.707175,-7105.977043,-14434.015869,-1838.629195
486.707497,-7550.100608,-13323.706956,-1455.581446
486.707820,-7105.977043,-11177.109724,-2068.457845
486.708142,-6661.853478,-8068.244768,-2987.772442
486.708464,-5699.585753,-6291.750507,-1302.362347
486.708787,-4811.338623,-4515.256246,-536.266849
486.709109,-3849.070898,-3330.926739,-536.266849
486.709432,-2738.761985,-3997.112087,-1532.190996
486.709754,-2368.659014,-6883.915261,-842.705048
486.710076,-2146.597232,-10807.006753,-1302.362347
486.710399,-2146.597232,-12509.480420,-2374.896044
486.710721,-1554.432478,-13915.871710,-2221.676944
486.711043,-296.082377,-13471.748144,-1532.190996
486.711366,962.267725,-11917.315666,-2145.067394
486.711688,1110.308913,-9770.718434,-1608.800546
486.712010,962.267725,-8808.450710,-842.705048
486.712333,-148.041188,-8956.491898,-459.657299
486.712655,-1332.370696,-9030.512492,-612.876398
486.712977,-3182.885551,-7920.203579,-536.266849
486.713300,-4367.215058,-6735.874072,-1762.019645
486.713622,-5625.565159,-6587.832884,-1225.752797
486.713945,-5699.585753,-6587.832884,-995.924147
486.714267,-6143.709319,-6143.709319,-1378.971896
486.714589,-5847.626942,-6661.853478,-2451.505594
486.714912,-4885.359217,-7550.100608,-2987.772442
486.715234,-4367.215058,-9770.718434,-3524.039291
486.715556,-4219.173869,-11695.253884,-3677.258390
486.715879,-4145.153275,-13249.686362,-3370.820191
486.716201,-3701.029710,-13915.871710,-3064.381992
486.716523,-2738.761985,-13693.809927,-3064.381992
486.716846,-2146.597232,-11843.295072,-2145.067394
486.717168,-1258.350101,-10214.842000,-2068.457845
486.717490,-592.164754,-9178.553681,-1378.971896
486.717813,0.000000,-8290.306550,0.000000
486.718135,148.041188,-7402.059420,0.000000
486.718458,444.123565,-6735.874072,306.438199
486.718780,518.144159,-5995.668130,459.657299
486.719102,296.082377,-6365.771101,0.000000
486.719425,-148.041188,-6883.915261,0.000000
486.719747,-888.247130,-7476.080014,-536.266849
486.720069,-1184.329507,-8586.388927,-1762.019645
486.720392,-666.185348,-9696.697840,-1915.238745
486.720714,-814.226536,-11177.109724,-1762.019645
486.721036,-962.267725,-12213.398043,-1762.019645
486.721359,-888.247130,-12583.501014,-1915.238745
486.721681,-1258.350101,-12361.439231,-1302.362347
486.722003,-1480.411884,-11177.109724,-842.705048
486.722326,-1850.514855,-9918.759623,-995.924147
486.722648,-2368.659014,-9252.574275,-1302.362347
486.722970,-3108.864956,-8512.368333,-766.095498
486.723293,-3923.091493,-7994.224174,-459.657299
486.723615,-3775.050304,-8068.244768,-536.266849
486.723938,-4663.297435,-7920.203579,-1072.533697
486.724260,-5403.503377,-7328.038826,-1532.190996
486.724582,-5181.441594,-7031.956449,-2068.457845
486.724905,-4737.318029,-7402.059420,-3600.648841
486.725227,-4515.256246,-8216.285956,-3447.429741
486.725549,-4811.338623,-9030.512492,-2451.505594
486.725872,-4737.318029,-10066.800811,-2221.676944
486.726194,-4441.235652,-12139.377449,-3447.429741
486.726516,-3034.844362,-13545.768739,-3524.039291
486.726839,-2294.638420,-13619.789333,-2298.286494
486.727161,-1258.350101,-11917.315666,-306.438199
486.727483,-296.082377,-9696.697840,-459.657299
486.727806,148.041188,-8364.327145,-306.438199
486.728128,-518.144159,-7105.977043,229.828649
486.728451,-2072.576638,-7179.997637,612.876398
486.728773,-3923.091493,-7328.038826,153.219100
486.729095,-5255.462188,-7254.018232,0.000000
486.729418,-5477.523971,-7254.018232,-995.924147
486.729740,-4959.379811,-8216.285956,-1378.971896
486.730062,-3404.947333,-9178.553681,-995.924147
486.730385,-2146.597232,-9030.512492,-995.924147
486.730707,-888.247130,-8290.306550,-1532.190996
486.731029,0.000000,-10436.903782,-2834.553343
486.731352,666.185348,-12213.398043,-2681.334243
486.731674,0.000000,-12657.521608,-2451.505594
486.731996,-1332.370696,-12583.501014,-2834.553343
486.732319,-888.247130,-13619.789333,-2221.676944
486.732641,-814.226536,-13175.665768,-1455.581446
486.732964,-888.247130,-11991.336260,-153.219100
486.733286,-1332.370696,-10288.862594,1532.190996
486.733608,-814.226536,-8438.347739,1225.752797
486.733931,0.000000,-7402.059420,612.876398
486.734253,888.247130,-5773.606348,1915.238745
486.734575,1702.473667,-5921.647536,1225.752797
486.734898,2368.659014,-6513.812290,766.095498
486.735220,2886.803174,-7179.997637,1225.752797
486.735542,2738.761985,-8660.409521,1225.752797
486.735865,2812.782580,-11177.109724,689.485948
486.736187,2442.679609,-12879.583391,229.828649
486.736509,1554.432478,-13101.645173,0.000000
486.736832,1406.391290,-12065.356855,0.000000
486.737154,1110.308913,-11103.089130,0.000000
486.737477,962.267725,-10066.800811,1302.362347
486.737799,148.041188,-8956.491898,1532.190996
486.738121,-592.164754,-7846.182985,1838.629195
486.738444,-1258.350101,-7624.121203,1532.190996
486.738766,-1850.514855,-7772.162391,1838.629195
486.739088,-2146.597232,-8068.244768,2298.286494
486.739411,-2220.617826,-7772.162391,3524.039291
486.739733,-2072.576638,-7698.141797,3524.039291
486.740055,-1332.370696,-7698.141797,3217.601092
486.740378,-1110.308913,-7476.080014,2681.334243
486.740700,-1184.329507,-7994.224174,2681.334243
486.741022,-666.185348,-8068.244768,2451.505594
486.741345,-1184.329507,-9030.512492,1915.238745
486.741667,-1628.453072,-10732.986159,1762.019645
486.741990,-2146.597232,-11843.295072,2298.286494
486.742312,-2664.741391,-12287.418637,2451.505594
486.742634,-3108.864956,-12065.356855,2145.067394
486.742957,-3330.926739,-11769.274478,1991.848295
486.743279,-3108.864956,-10881.027347,2145.067394
486.743601,-2664.741391,-9548.656652,2145.067394
486.743924,-2072.576638,-8660.409521,2451.505594
486.744246,-1332.370696,-8438.347739,2604.724693
486.744568,-1036.288319,-7994.224174,2528.115143
486.744891,-1480.411884,-8734.430116,1915.238745
486.745213,-2368.659014,-9474.636058,1455.581446
486.745535,-2960.823768,-10362.883188,1072.533697
486.745858,-3627.009116,-10140.821405,536.266849
486.746180,-4219.173869,-9548.656652,76.609550
486.746503,-3627.009116,-9400.615463,-995.924147
486.746825,-3108.864956,-9474.636058,-1455.581446
486.747147,-2072.576638,-9548.656652,-1378.971896
486.747470,-1628.453072,-10362.883188,-842.705048
486.747792,-1258.350101,-11325.150913,-306.438199
486.748114,-148.041188,-12139.377449,0.000000
486.748437,518.144159,-11473.192101,-229.828649
486.748759,2442.679609,-10807.006753,536.266849
486.749082,4145.153275,-8512.368333,1072.533697
486.749404,6291.750507,-6217.729913,459.657299
486.749726,8068.244768,-4885.359217,153.219100
486.750049,8142.265362,-4663.297435,-536.266849
486.750371,7994.224174,-6291.750507,-842.705048
486.750694,5033.400406,-8586.388927,-1685.410096
486.751016,814.226536,-10362.883188,-1149.143247
486.751338,-3256.906145,-11103.089130,-689.485948
486.751661,-6883.915261,-10658.965565,-2298.286494
486.751983,-7476.080014,-11695.253884,-4673.182538
486.752306,-7550.100608,-11621.233289,-5898.935335
486.752628,-5329.482782,-11251.130318,-5669.106685
486.752950,-2294.638420,-11843.295072,-3830.477490
486.753273,1332.370696,-13101.645173,0.000000
486.753595,4367.215058,-13249.686362,1072.533697
486.753918,6217.729913,-12139.377449,-306.438199
486.754240,6069.688724,-9844.739029,536.266849
486.754562,5477.523971,-8216.285956,2604.724693
486.754885,4959.379811,-4737.318029,3140.991542
486.755207,4367.215058,-1924.535449,306.438199
486.755530,2072.576638,-3034.844362,-1149.143247
486.755852,-1110.308913,-5625.565159,0.000000
486.756175,-3849.070898,-7105.977043,-229.828649
486.756497,-6069.688724,-9844.739029,-2068.457845
486.756819,-8734.430116,-12065.356855,-2604.724693
486.757142,-9030.512492,-14285.974681,-2451.505594
486.757464,-7994.224174,-13915.871710,-4366.744339
486.757787,-5551.544565,-13915.871710,-4213.525239
486.758109,-4071.132681,-13397.727550,-2528.115143
486.758431,-2146.597232,-12139.377449,-1532.190996
486.758754,-1924.535449,-9178.553681,-689.485948
486.759076,-1924.535449,-7402.059420,-766.095498
486.759399,-1998.556043,-8586.388927,-229.828649
486.759721,-1406.391290,-9918.759623,1532.190996
486.760043,-1702.473667,-9992.780217,2145.067394
486.760366,-2368.659014,-8882.471304,2451.505594
486.760688,-2146.597232,-9104.533087,4596.572988
486.761011,-1258.350101,-9400.615463,5592.497135
486.761333,-1110.308913,-8216.285956,5286.058936
486.761656,-1184.329507,-7105.977043,4060.306139
486.761978,-1480.411884,-6069.688724,2604.724693
486.762300,-296.082377,-6661.853478,1532.190996
486.762623,370.102971,-6735.874072,689.485948
486.762945,1850.514855,-8068.244768,-153.219100
486.763268,3108.864956,-9992.780217,306.438199
486.763590,4367.215058,-12065.356855,1149.143247
486.763912,4959.379811,-11917.315666,2221.676944
486.764235,4071.132681,-11769.274478,1532.190996
486.764557,2368.659014,-11547.212695,1608.800546
486.764880,1110.308913,-11251.130318,919.314598
486.765202,-1850.514855,-11325.150913,0.000000
486.765524,-4293.194464,-10066.800811,2757.943793
486.765847,-7031.956449,-7254.018232,5132.839837
486.766169,-8068.244768,-6217.729913,3294.210641
486.766492,-6143.709319,-7920.203579,766.095498
486.766814,-2368.659014,-8438.347739,842.705048
486.767136,888.247130,-8438.347739,306.438199
486.767459,4145.153275,-9844.739029,1302.362347
486.767781,7846.182985,-10807.006753,3830.477490
486.768104,10288.862594,-11029.068536,3524.039291
486.768426,9992.780217,-10510.924376,1608.800546
486.768749,7846.182985,-10288.862594,3677.258390
486.769071,7994.224174,-7550.100608,3907.087040
486.769393,7328.038826,-6661.853478,-1991.848295
486.769716,6439.791695,-10436.903782,-4366.744339
486.770038,4219.173869,-13323.706956,76.609550
486.770361,-740.205942,-9178.553681,2834.553343
486.770683,-6735.874072,-8808.450710,2298.286494
486.771005,-9326.594869,-13989.892304,1455.581446
486.771328,-12509.480420,-15544.324782,-2834.553343
486.771650,-17024.736666,-12213.398043,-4673.182538
486.771973,-20133.601622,-9326.594869,1378.971896
486.772295,-16876.695478,-5107.421000,2451.505594
486.772617,-9474.636058,-5107.421000,-3524.039291
486.772940,148.041188,-6883.915261,-4673.182538
486.773262,6513.812290,-6365.771101,-2604.724693
486.773585,8882.471304,-8808.450710,-2451.505594
486.773907,10955.047942,-11473.192101,3753.867940
486.774230,10955.047942,-9770.718434,6741.640382
486.774552,7550.100608,-5921.647536,-1762.019645
486.774874,5329.482782,-8734.430116,-7814.174080
486.775197,4515.256246,-14952.160028,-3677.258390
486.775519,740.205942,-14211.954086,1225.752797
486.775842,-5107.421000,-10510.924376,4443.353888
486.776164,-9252.574275,-10955.047942,7507.735880
486.776486,-10510.924376,-9918.759623,3830.477490
486.776809,-8364.327145,-8512.368333,-3907.087040
486.777131,-7179.997637,-7476.080014,-7660.954980
486.777454,-6069.688724,-7994.224174,-1149.143247
486.777776,-2812.782580,-5477.523971,3294.210641
486.778098,296.082377,-3552.988522,2145.067394
486.778421,1850.514855,-5107.421000,1915.238745
486.778743,3256.906145,-8216.285956,-1225.752797
486.779066,4441.235652,-10807.006753,-5592.497135
486.779388,4367.215058,-12361.439231,-4443.353888
486.779711,2368.659014,-13175.665768,-689.485948
486.780033,1998.556043,-13471.748144,689.485948
486.780355,1554.432478,-13027.624579,383.047749
486.780678,740.205942,-14137.933492,-383.047749
486.781000,-518.144159,-13545.768739,-2451.505594
486.781323,-1924.535449,-11769.274478,-1608.800546
486.781645,-1776.494261,-9178.553681,1608.800546
486.781967,-814.226536,-5773.606348,3830.477490
486.782290,592.164754,-4441.235652,2681.334243
486.782612,3478.967927,-5255.462188,1378.971896
486.782935,5477.523971,-5625.565159,0.000000
486.783257,4663.297435,-5477.523971,-229.828649
486.783579,518.144159,-8068.244768,1838.629195
486.783902,-3034.844362,-11029.068536,4519.963438
486.784224,-3849.070898,-11843.295072,1915.238745
486.784547,-2812.782580,-12065.356855,-3600.648841
486.784869,-592.164754,-12731.542202,-5132.839837
486.785191,592.164754,-10955.047942,-3064.381992
486.785514,-888.247130,-9326.594869,1302.362347
486.785836,-2220.617826,-9622.677246,3600.648841
486.786159,-2738.761985,-11991.336260,1762.019645
486.786481,-2590.720797,-12435.459826,-1455.581446
486.786804,-3108.864956,-11325.150913,-2298.286494
486.787126,-3849.070898,-8808.450710,383.047749
486.787448,-2886.803174,-7624.121203,4136.915689
486.787771,-814.226536,-7179.997637,5898.935335
486.788093,1332.370696,-7254.018232,5515.887586
486.788416,3997.112087,-4885.359217,4136.915689
486.788738,5921.647536,-2590.720797,-229.828649
486.789060,7105.977043,-2516.700203,-2374.896044
486.789383,7105.977043,-5181.441594,-1072.533697
486.789705,5847.626942,-9474.636058,766.095498
486.790028,2960.823768,-13545.768739,1762.019645
486.790350,-1628.453072,-15248.242405,1685.410096
486.790672,-5921.647536,-15692.365970,-536.266849
486.790995,-8142.265362,-15840.407159,-3907.087040
486.791317,-7698.141797,-15766.386565,-4213.525239
486.791640,-5773.606348,-15100.201217,-2145.067394
486.791962,-5107.421000,-10214.842000,2987.772442
486.792285,-3330.926739,-7328.038826,4060.306139
486.792607,-2146.597232,-3997.112087,1915.238745
486.792929,-962.267725,-4145.153275,-1991.848295
486.793252,-1776.494261,-6217.729913,-2451.505594
486.793574,-4145.153275,-7772.162391,229.828649
486.793897,-4811.338623,-7772.162391,1302.362347
486.794219,-2886.803174,-7402.059420,0.000000
486.794541,962.267725,-9030.512492,-1838.629195
486.794864,4367.215058,-10955.047942,-1532.190996
486.795186,5255.462188,-11251.130318,-76.609550
486.795509,4145.153275,-9548.656652,-995.924147
486.795831,3627.009116,-8586.388927,-2528.115143
486.796153,3256.906145,-9770.718434,-4290.134789
486.796476,2220.617826,-12213.398043,-4443.353888
486.796798,0.000000,-12657.521608,-3447.429741
486.797121,-3256.906145,-11473.192101,-2451.505594
486.797443,-3775.050304,-10955.047942,-1608.800546
486.797766,-1480.411884,-11325.150913,-1149.143247
486.798088,962.267725,-10362.883188,76.609550
486.798410,1258.350101,-5995.668130,1838.629195
486.798733,2516.700203,-2738.761985,689.485948
486.799055,4663.297435,-1924.535449,-2145.067394
486.799378,5181.441594,-3923.091493,-3294.210641
486.799700,2220.617826,-7550.100608,-1915.238745
486.800022,-1924.535449,-10436.903782,153.219100
486.800345,-3849.070898,-12361.439231,-2374.896044
486.800667,-2664.741391,-13397.727550,-5592.497135
486.800990,-296.082377,-14211.954086,-7354.516781
486.801312,444.123565,-13693.809927,-4903.011187
486.801634,-222.061783,-10436.903782,-919.314598
486.801957,-1406.391290,-6217.729913,-1378.971896
486.802279,-1702.473667,-6291.750507,-4903.011187
486.802602,-2738.761985,-8438.347739,-7814.174080
486.802924,-4737.318029,-10584.944971,-6741.640382
486.803246,-7698.141797,-11399.171507,-4443.353888
486.803569,-8364.327145,-11473.192101,-2681.334243
486.803891,-6809.894666,-12657.521608,-2221.676944
486.804214,-3404.947333,-13249.686362,-1378.971896
486.804536,-888.247130,-10584.944971,306.438199
486.804859,0.000000,-5551.544565,153.219100
486.805181,2368.659014,-1628.453072,-2145.067394
486.805503,5551.544565,-2442.679609,-3677.258390
486.805826,6365.771101,-6957.935855,-1225.752797
486.806148,3775.050304,-12065.356855,1991.848295
486.806471,592.164754,-14582.057057,1762.019645
486.806793,0.000000,-15914.427753,-766.095498
486.807115,3182.885551,-16136.489536,-3370.820191
486.807438,6069.688724,-13397.727550,-2681.334243
486.807760,5847.626942,-8660.409521,383.047749
486.808083,4145.153275,-2960.823768,3524.039291
486.808405,3775.050304,-296.082377,2221.676944
486.808727,1702.473667,-2960.823768,-995.924147
486.809050,-3330.926739,-7254.018232,-1991.848295
486.809372,-9030.512492,-11473.192101,-1072.533697
486.809695,-11695.253884,-12953.603985,-1149.143247
486.810017,-9992.780217,-13693.809927,-1838.629195
486.810340,-5921.647536,-13619.789333,-306.438199
486.810662,-4811.338623,-9696.697840,3064.381992
486.810984,-4737.318029,-5403.503377,3907.087040
486.811307,-3552.988522,-2960.823768,919.314598
486.811629,-1332.370696,-4737.318029,-3983.696590
486.811952,518.144159,-7772.162391,-6435.202183
486.812274,296.082377,-11769.274478,-2834.553343
486.812596,-740.205942,-14508.036463,3753.867940
486.812919,222.061783,-14285.974681,5132.839837
486.813241,2516.700203,-11917.315666,2528.115143
486.813564,4885.359217,-10288.862594,-229.828649
486.813886,5773.606348,-8512.368333,-383.047749
486.814208,6439.791695,-5033.400406,459.657299
486.814531,7105.977043,-2738.761985,-612.876398
486.814853,8438.347739,-2812.782580,-842.705048
486.815176,7920.203579,-7402.059420,-383.047749
486.815498,4663.297435,-12879.583391,1302.362347
486.815820,-1110.308913,-14508.036463,3064.381992
486.816143,-4885.359217,-14137.933492,-153.219100
486.816465,-5477.523971,-13915.871710,-4290.134789
486.816788,-2886.803174,-13693.809927,-4903.011187
486.817110,-1184.329507,-10807.006753,-1838.629195
486.817433,-222.061783,-5477.523971,306.438199
486.817755,518.144159,-2960.823768,-536.266849
486.818077,370.102971,-5403.503377,-3217.601092
486.818400,-1776.494261,-9844.739029,-4213.525239
486.818722,-6513.812290,-13545.768739,-3600.648841
486.819045,-9622.677246,-13841.851115,-2987.772442
486.819367,-8216.285956,-12435.459826,-4979.620737
486.819689,-4441.235652,-11251.130318,-5669.106685
486.820012,-740.205942,-8808.450710,-3217.601092
486.820334,814.226536,-6365.771101,153.219100
486.820657,74.020594,-2072.576638,-689.485948
486.820979,518.144159,-2220.617826,-4366.744339
486.821301,888.247130,-7402.059420,-7048.078582
486.821624,-1036.288319,-12361.439231,-5439.278036
486.821946,-4367.215058,-13841.851115,-1762.019645
486.822269,-6069.688724,-12509.480420,-1455.581446
486.822591,-4441.235652,-11399.171507,-3830.477490
486.822914,-1184.329507,-11547.212695,-4213.525239
486.823236,518.144159,-9030.512492,-1991.848295
486.823558,2368.659014,-6883.915261,-383.047749
486.823881,3923.091493,-3478.967927,-689.485948
486.824203,5847.626942,-4515.256246,-2145.067394
486.824526,6661.853478,-7772.162391,-1762.019645
486.824848,3775.050304,-9844.739029,995.924147
486.825170,0.000000,-10881.027347,612.876398
486.825493,-962.267725,-11325.150913,-2757.943793
486.825815,518.144159,-11251.130318,-5592.497135
486.826138,2812.782580,-11991.336260,-5669.106685
486.826460,2442.679609,-9696.697840,-2451.505594
486.826782,1776.494261,-6809.894666,-919.314598
486.827105,2220.617826,-4811.338623,-3140.991542
486.827427,1628.453072,-6217.729913,-6205.373534
486.827750,-1258.350101,-10881.027347,-7124.688131
486.828072,-6661.853478,-14285.974681,-5822.325785
486.828395,-10732.986159,-16284.530724,-3064.381992
486.828717,-11399.171507,-16580.613101,-3447.429741
486.829039,-8142.265362,-15100.201217,-4290.134789
486.829362,-4441.235652,-12731.542202,-2298.286494
486.829684,-962.267725,-7698.141797,919.314598
486.830007,1258.350101,-2516.700203,1225.752797
486.830329,3256.906145,-1628.453072,-1225.752797
486.830651,4811.338623,-4737.318029,-1455.581446
486.830974,3775.050304,-9400.615463,689.485948
486.831296,-222.061783,-12139.377449,2451.505594
486.831619,-1702.473667,-12139.377449,3140.991542
486.831941,888.247130,-11843.295072,-229.828649
486.832263,5625.565159,-12213.398043,-1838.629195
486.832586,8364.327145,-11103.089130,459.657299
486.832908,8068.244768,-7402.059420,3907.087040
486.833231,6439.791695,-3478.967927,1991.848295
486.833553,5329.482782,-3256.906145,-1225.752797
486.833875,2590.720797,-7105.977043,-2757.943793
486.834198,-2738.761985,-10066.800811,-2221.676944
486.834520,-8586.388927,-10732.986159,-306.438199
486.834843,-11029.068536,-11621.233289,612.876398
486.835165,-9474.636058,-13767.830521,153.219100
486.835488,-6143.709319,-13545.768739,229.828649
486.835810,-5477.523971,-9992.780217,1378.971896
486.836132,-3849.070898,-4959.379811,2145.067394
486.836455,-1406.391290,-814.226536,153.219100
486.836777,1480.411884,-1480.411884,-2374.896044
486.837100,1628.453072,-5033.400406,-2681.334243
486.837422,-518.144159,-9696.697840,-766.095498
486.837744,-3478.967927,-12361.439231,229.828649
486.838067,-3627.009116,-14137.933492,-1762.019645
486.838389,-962.267725,-15544.324782,-4596.572988
486.838712,1480.411884,-15026.180623,-4213.525239
486.839034,3775.050304,-12361.439231,-995.924147
486.839356,3034.844362,-6439.791695,306.438199
486.839679,3923.091493,-3849.070898,-1608.800546
486.840001,3552.988522,-5625.565159,-4596.572988
486.840324,1702.473667,-10732.986159,-4903.011187
486.840646,-2368.659014,-13249.686362,-2528.115143
486.840969,-5625.565159,-13693.809927,-842.705048
486.841291,-5847.626942,-13989.892304,-1685.410096
486.841613,-2886.803174,-14063.912898,-1915.238745
486.841936,0.000000,-11843.295072,459.657299
486.842258,1702.473667,-6883.915261,1991.848295
486.842581,2368.659014,-1628.453072,536.266849
486.842903,3330.926739,-1184.329507,-3217.601092
486.843225,2960.823768,-5255.462188,-4519.963438
486.843548,518.144159,-10288.862594,-2374.896044
486.843870,-3552.988522,-11843.295072,-766.095498
486.844193,-4589.276840,-12361.439231,-2298.286494
486.844515,-2442.679609,-12435.459826,-4903.011187
486.844837,814.226536,-12731.542202,-5439.278036
486.845160,2072.576638,-10955.047942,-3370.820191
486.845482,2442.679609,-7550.100608,-306.438199
486.845805,2220.617826,-4441.235652,-1532.190996
486.846127,2664.741391,-4219.173869,-4290.134789
486.846449,1554.432478,-6883.915261,-4136.915689
486.846772,-2294.638420,-9548.656652,-1532.190996
486.847094,-5255.462188,-9918.759623,229.828649
486.847417,-5699.585753,-9918.759623,-1685.410096
486.847739,-2368.659014,-10955.047942,-2834.553343
486.848062,1036.288319,-11769.274478,-1685.410096
486.848384,1776.494261,-8882.471304,1149.143247
486.848706,1998.556043,-4811.338623,1991.848295
486.849029,3552.988522,-3330.926739,-1225.752797
486.849351,4959.379811,-5403.503377,-3830.477490
486.849674,4515.256246,-9992.780217,-3907.087040
486.849996,1406.391290,-12657.521608,-1991.848295
486.850318,-1184.329507,-13323.706956,-1762.019645
486.850641,-1406.391290,-14063.912898,-3600.648841
486.850963,-148.041188,-14359.995275,-4979.620737
486.851286,-296.082377,-13101.645173,-4213.525239
486.851608,-2664.741391,-9252.574275,-2451.505594
486.851930,-3775.050304,-5995.668130,-2451.505594
486.852252,-3923.091493,-5033.400406,-4673.182538
486.852575,-4293.194464,-7920.203579,-5822.325785
486.852897,-6883.915261,-9992.780217,-3983.696590
486.853220,-9622.677246,-10066.800811,-1991.848295
486.853542,-9548.656652,-10807.006753,-3447.429741
486.853864,-6291.750507,-12805.562797,-4673.182538
486.854187,-3330.926739,-14804.118840,-4443.353888
486.854509,-2886.803174,-13471.748144,0.000000
486.854832,-1554.432478,-9548.656652,1915.238745
486.855154,1924.535449,-5847.626942,-1072.533697
486.855476,6291.750507,-3849.070898,-4596.572988
486.855799,9548.656652,-5403.503377,-4673.182538
486.856121,8512.368333,-8586.388927,-766.095498
486.856444,5625.565159,-10732.986159,2374.896044
486.856766,3627.009116,-11103.089130,1685.410096
486.857088,2886.803174,-13027.624579,-612.876398
486.857411,2664.741391,-13767.830521,-1072.533697
486.857733,1628.453072,-10436.903782,-153.219100
486.858056,0.000000,-4293.194464,0.000000
486.858378,296.082377,-148.041188,-842.705048
486.858700,2072.576638,-1110.308913,-2451.505594
486.859023,1628.453072,-5921.647536,-3753.867940
486.859345,-3478.967927,-10955.047942,-2374.896044
486.859668,-9622.677246,-13767.830521,536.266849
486.859990,-13175.665768,-13693.809927,919.314598
486.860312,-11103.089130,-12879.583391,-3370.820191
486.860635,-6883.915261,-13027.624579,-5362.668486
486.860957,-2590.720797,-9918.759623,-3064.381992
486.861280,518.144159,-4071.132681,-612.876398
486.861602,3404.947333,-2664.741391,0.000000
486.861924,6143.709319,-6587.832884,-306.438199
486.862247,5181.441594,-11325.150913,153.219100
486.862569,666.185348,-12139.377449,1302.362347
486.862892,-2072.576638,-10732.986159,1455.581446
486.863214,-740.205942,-10214.842000,-919.314598
486.863536,3552.988522,-10140.821405,-3217.601092
486.863859,7254.018232,-8586.388927,-689.485948
486.864181,8142.265362,-5255.462188,2681.334243
486.864504,6439.791695,-3330.926739,2145.067394
486.864826,5477.523971,-6365.771101,-306.438199
486.865148,2664.741391,-10510.924376,-2221.676944
486.865471,-1776.494261,-13397.727550,-2757.943793
486.865793,-6735.874072,-13619.789333,-2451.505594
486.866116,-8734.430116,-13101.645173,-2221.676944
486.866438,-7179.997637,-13323.706956,-3600.648841
486.866760,-4663.297435,-13989.892304,-4060.306139
486.867083,-1850.514855,-12879.583391,-1991.848295
486.867405,-1110.308913,-8660.409521,995.924147
486.867728,444.123565,-6661.853478,-306.438199
486.868050,1776.494261,-6587.832884,-2834.553343
486.868372,1332.370696,-8364.327145,-3447.429741
486.868695,-1480.411884,-10658.965565,-1302.362347
486.869017,-4515.256246,-10066.800811,76.609550
486.869340,-5329.482782,-9992.780217,-919.314598
486.869662,-2368.659014,-10732.986159,-2757.943793
486.869984,444.123565,-11177.109724,-2451.505594
486.870307,814.226536,-9252.574275,0.000000
486.870629,1776.494261,-6587.832884,1072.533697
486.870952,2664.741391,-3256.906145,-1685.410096
486.871274,2960.823768,-4367.215058,-4443.353888
486.871596,518.144159,-7402.059420,-4443.353888
486.871919,-4737.318029,-10436.903782,-2604.724693
486.872241,-8438.347739,-12509.480420,-2451.505594
486.872564,-7920.203579,-13619.789333,-3064.381992
486.872886,-4071.132681,-13989.892304,-2834.553343
486.873208,-814.226536,-11399.171507,-919.314598
486.873531,1554.432478,-8364.327145,1149.143247
486.873853,3478.967927,-3034.844362,1378.971896
486.874176,4219.173869,-1850.514855,-1455.581446
486.874498,3330.926739,-4367.215058,-2374.896044
486.874820,370.102971,-6587.832884,-536.266849
486.875143,-1998.556043,-7550.100608,-383.047749
486.875465,-1184.329507,-7698.141797,-2451.505594
486.875788,3034.844362,-9696.697840,-5056.230287
486.876110,6439.791695,-13027.624579,-4596.572988
486.876432,6735.874072,-14582.057057,0.000000
486.876755,5033.400406,-10658.965565,2451.505594
486.877077,2442.679609,-5699.585753,-1608.800546
486.877400,1406.391290,-5551.544565,-7507.735880
486.877722,-740.205942,-7920.203579,-9576.193725
486.878044,-4737.318029,-10214.842000,-8120.612279
486.878367,-8068.244768,-12065.356855,-4826.401637
486.878689,-7624.121203,-15914.427753,-2451.505594
486.879012,-4663.297435,-18653.189738,-3600.648841
486.879334,-2072.576638,-18579.169144,-3217.601092
486.879656,-1998.556043,-13693.809927,0.000000
486.879979,-1554.432478,-6143.709319,383.047749
486.880301,1036.288319,-2294.638420,-3447.429741
486.880624,4219.173869,-2516.700203,-4903.011187
486.880946,2664.741391,-5181.441594,-1532.190996
486.881268,-814.226536,-8438.347739,1762.019645
486.881591,-2146.597232,-11103.089130,1378.971896
486.881913,592.164754,-14211.954086,-2911.162892
486.882236,4515.256246,-16358.551318,-5439.278036
486.882558,6069.688724,-14952.160028,-1838.629195
486.882880,4737.318029,-9548.656652,2451.505594
486.883203,2590.720797,-4219.173869,2911.162892
486.883525,1036.288319,-2812.782580,-1455.581446
486.883848,-1406.391290,-4885.359217,-4213.525239
486.884170,-6217.729913,-7698.141797,-4596.572988
486.884492,-10658.965565,-10214.842000,-2451.505594
486.884815,-10732.986159,-12139.377449,-383.047749
486.885137,-6587.832884,-13767.830521,0.000000
486.885460,-2368.659014,-12879.583391,2298.286494
486.885782,-1036.288319,-9400.615463,3830.477490
486.886104,-1110.308913,-4293.194464,4290.134789
486.886427,-740.205942,-1332.370696,1991.848295
486.886749,296.082377,-1628.453072,-689.485948
486.887071,-148.041188,-3108.864956,-689.485948
486.887394,-888.247130,-5847.626942,1762.019645
486.887716,74.020594,-8882.471304,3140.991542
486.888039,2294.638420,-10288.862594,1302.362347
486.888361,4811.338623,-12657.521608,-1378.971896
486.888683,5847.626942,-14211.954086,-229.828649
486.889006,4959.379811,-13101.645173,1455.581446
486.889328,3997.112087,-9548.656652,1149.143247
486.889651,4293.194464,-5255.462188,-3064.381992
486.889973,3627.009116,-3997.112087,-6511.811733
486.890295,1258.350101,-7105.977043,-5056.230287
486.890618,-2146.597232,-10955.047942,-842.705048
486.890940,-5773.606348,-13545.768739,-536.266849
486.891263,-6291.750507,-16580.613101,-2451.505594
486.891585,-5329.482782,-19689.478057,-4060.306139
486.891907,-4293.194464,-18505.148550,-2221.676944
486.892230,-3627.009116,-13323.706956,842.705048
486.892552,-1924.535449,-5625.565159,229.828649
486.892875,814.226536,-1036.288319,-3447.429741
486.893197,3256.906145,-2738.761985,-4903.011187
486.893519,2442.679609,-8216.285956,-2451.505594
486.893842,-1036.288319,-11843.295072,0.000000
486.894164,-2368.659014,-14211.954086,-612.876398
486.894487,-444.123565,-14878.139434,-2911.162892
486.894809,3997.112087,-13767.830521,-3677.258390
486.895131,6809.894666,-10732.986159,-2757.943793
486.895454,7254.018232,-7105.977043,-995.924147
486.895776,6365.771101,-3997.112087,-1225.752797
486.896099,4367.215058,-3256.906145,-3064.381992
486.896421,740.205942,-6883.915261,-4213.525239
486.896743,-4663.297435,-11547.212695,-2757.943793
486.897066,-9104.533087,-11843.295072,-842.705048
486.897388,-10658.965565,-10288.862594,-1455.581446
486.897711,-7920.203579,-10214.842000,-2451.505594
486.898033,-4145.153275,-10362.883188,-1149.143247
486.898355,-2146.597232,-7772.162391,1762.019645
486.898678,-2294.638420,-3108.864956,3294.210641
486.899000,-1628.453072,-444.123565,1072.533697
486.899323,222.061783,-2516.700203,-2757.943793
486.899645,666.185348,-5847.626942,-3447.429741
486.899967,-592.164754,-7550.100608,-1378.971896
486.900290,-1258.350101,-8512.368333,-919.314598
486.900612,1036.288319,-11251.130318,-3217.601092
486.900935,4663.297435,-14730.098246,-4519.963438
486.901257,5625.565159,-15026.180623,-2451.505594
486.901579,3627.009116,-11843.295072,306.438199
486.901902,2072.576638,-8586.388927,-995.924147
486.902224,2294.638420,-6661.853478,-4519.963438
486.902547,1480.411884,-7402.059420,-6205.373534
486.902869,-1850.514855,-8956.491898,-3907.087040
486.903191,-5255.462188,-10658.965565,-1532.190996
486.903514,-6143.709319,-12583.501014,-1991.848295
486.903836,-5033.400406,-15840.407159,-3217.601092
486.904159,-3182.885551,-17320.819043,-2221.676944
486.904481,-1924.535449,-14952.160028,383.047749
486.904803,-1110.308913,-10436.903782,1532.190996
486.905126,1702.473667,-5773.606348,-229.828649
486.905448,3775.050304,-3552.988522,-4213.525239
486.905771,3997.112087,-5625.565159,-4443.353888
486.906093,1850.514855,-9104.533087,-995.924147
486.906415,-962.267725,-12065.356855,995.924147
486.906738,-1776.494261,-13989.892304,0.000000
486.907060,0.000000,-15174.221811,-2298.286494
486.907383,2220.617826,-14359.995275,-2451.505594
486.907705,3256.906145,-10955.047942,0.000000
486.908027,3552.988522,-6069.688724,1915.238745
486.908350,3182.885551,-2146.597232,459.657299
486.908672,2516.700203,-2516.700203,-1225.752797
486.908995,-370.102971,-5773.606348,-1149.143247
486.909317,-4441.235652,-9252.574275,383.047749
486.909639,-7179.997637,-10807.006753,1532.190996
486.909962,-6957.935855,-10066.800811,-153.219100
486.910284,-3701.029710,-10584.944971,-459.657299
486.910607,-370.102971,-9918.759623,1455.581446
486.910929,-592.164754,-6291.750507,4290.134789
486.911251,-222.061783,-2960.823768,4060.306139
486.911574,888.247130,-1110.308913,306.438199
486.911896,1924.535449,-3701.029710,-2528.115143
486.912219,740.205942,-7624.121203,-1532.190996
486.912541,-1332.370696,-10658.965565,1225.752797
486.912863,-2146.597232,-11917.315666,1532.190996
486.913186,296.082377,-12731.542202,-612.876398
486.913508,3627.009116,-13545.768739,-3217.601092
486.913831,4737.318029,-13397.727550,-2451.505594
486.914153,3034.844362,-9770.718434,76.609550
486.914475,1702.473667,-5699.585753,-536.266849
486.914798,1258.350101,-5403.503377,-4060.306139
486.915120,0.000000,-9178.553681,-5975.544884
486.915443,-3849.070898,-12287.418637,-4136.915689
486.915765,-8512.368333,-12583.501014,-1915.238745
486.916087,-10140.821405,-12879.583391,-2451.505594
486.916410,-7328.038826,-14359.995275,-4519.963438
486.916732,-3552.988522,-14952.160028,-4826.401637
486.917055,-1702.473667,-12805.562797,-2221.676944
486.917377,-888.247130,-8142.265362,153.219100
486.917699,666.185348,-6217.729913,-1225.752797
486.918022,2664.741391,-7698.141797,-4213.525239
486.918344,2664.741391,-9918.759623,-4443.353888
486.918667,222.061783,-11325.150913,-2451.505594
486.918989,-1258.350101,-11843.295072,-1532.190996
486.919311,1258.350101,-12361.439231,-2834.553343
486.919634,5255.462188,-12435.459826,-3294.210641
486.919956,7624.121203,-10288.862594,-842.705048
486.920279,5625.565159,-6809.894666,2298.286494
486.920601,3923.091493,-4293.194464,2068.457845
486.920923,2368.659014,-2812.782580,-1762.019645
486.921246,370.102971,-3627.009116,-5132.839837
486.921568,-2886.803174,-7105.977043,-4213.525239
486.921891,-5625.565159,-9474.636058,-995.924147
486.922213,-6069.688724,-10140.821405,-995.924147
486.922535,-4589.276840,-10955.047942,-2451.505594
486.922858,-2442.679609,-11991.336260,-1532.190996
486.923180,-2294.638420,-11103.089130,0.000000
486.923503,-3330.926739,-8438.347739,1532.190996
486.923825,-3552.988522,-5033.400406,0.000000
486.924147,-1998.556043,-2812.782580,-3830.477490
486.924470,-444.123565,-4885.359217,-5439.278036
486.924792,-444.123565,-8660.409521,-1915.238745
486.925115,-1332.370696,-10658.965565,2374.896044
486.925437,-1480.411884,-11251.130318,2221.676944
486.925759,1332.370696,-11917.315666,-1072.533697
486.926082,4219.173869,-12361.439231,-2681.334243
486.926404,4811.338623,-10288.862594,-2145.067394
486.926727,5255.462188,-6513.812290,-842.705048
486.927049,6291.750507,-4145.153275,-2604.724693
486.927371,6957.935855,-6291.750507,-5745.716235
486.927694,5033.400406,-11103.089130,-4213.525239
486.928016,-296.082377,-14508.036463,-995.924147
486.928339,-5403.503377,-15026.180623,229.828649
486.928661,-6513.812290,-15396.283594,-2298.286494
486.928983,-4737.318029,-14582.057057,-5822.325785
486.929306,-3701.029710,-12953.603985,-4673.182538
486.929628,-2516.700203,-9178.553681,0.000000
486.929951,-1998.556043,-5255.462188,2451.505594
486.930273,-444.123565,-5181.441594,-229.828649
486.930595,0.000000,-7994.224174,-2681.334243
486.930918,-1924.535449,-11177.109724,-1762.019645
486.931240,-4589.276840,-12139.377449,306.438199
486.931563,-4663.297435,-11103.089130,459.657299
486.931885,-1332.370696,-10140.821405,-2145.067394
486.932207,2812.782580,-9178.553681,-3217.601092
486.932530,4145.153275,-8364.327145,-1302.362347
486.932852,2516.700203,-7179.997637,1608.800546
486.933175,740.205942,-6587.832884,1608.800546
486.933497,148.041188,-7772.162391,-1302.362347
486.933819,0.000000,-10140.821405,-3753.867940
486.934142,-2664.741391,-11547.212695,-2298.286494
486.934464,-4441.235652,-10807.006753,995.924147
486.934787,-4737.318029,-8660.409521,1685.410096
486.935109,-2738.761985,-7994.224174,-459.657299
486.935431,-1554.432478,-8808.450710,-612.876398
486.935754,-444.123565,-9548.656652,1225.752797
486.936076,-1406.391290,-7402.059420,3677.258390
486.936399,-666.185348,-5551.544565,2068.457845
486.936721,1332.370696,-5255.462188,-459.657299
486.937043,3256.906145,-5699.585753,-1149.143247
486.937366,2294.638420,-6291.750507,1072.533697
486.937688,740.205942,-7402.059420,1838.629195
486.938011,0.000000,-9252.574275,-536.266849
486.938333,1184.329507,-11029.068536,-3217.601092
486.938655,2368.659014,-12509.480420,-3907.087040
486.938978,2812.782580,-13175.665768,-2528.115143
486.939300,3701.029710,-13101.645173,-919.314598
486.939623,3849.070898,-8808.450710,-1378.971896
486.939945,2294.638420,-5847.626942,-4443.353888
486.940267,-1110.308913,-7846.182985,-5132.839837
486.940590,-5477.523971,-11177.109724,-3600.648841
486.940912,-8660.409521,-11769.274478,-3294.210641
486.941235,-8956.491898,-11399.171507,-5056.230287
486.941557,-5477.523971,-13841.851115,-5975.544884
486.941879,-2072.576638,-14656.077652,-3140.991542
486.942202,-148.041188,-12213.398043,919.314598
486.942524,592.164754,-8142.265362,1685.410096
486.942847,1628.453072,-5995.668130,-1838.629195
486.943169,2664.741391,-7328.038826,-5209.449386
486.943491,1258.350101,-8216.285956,-4366.744339
486.943814,-1776.494261,-7624.121203,-1455.581446
486.944136,-1776.494261,-7624.121203,-1225.752797
486.944459,2664.741391,-10140.821405,-4213.525239
486.944781,6735.874072,-13175.665768,-5822.325785
486.945103,6957.935855,-14434.015869,-1455.581446
486.945426,4145.153275,-11103.089130,2757.943793
486.945748,1776.494261,-6217.729913,842.705048
486.946071,740.205942,-4219.173869,-4366.744339
486.946393,-370.102971,-5625.565159,-6588.421283
486.946715,-4441.235652,-6883.915261,-4903.011187
486.947038,-8660.409521,-7550.100608,-1838.629195
486.947360,-9622.677246,-9548.656652,-153.219100
486.947683,-6957.935855,-11991.336260,-306.438199
486.948005,-3627.009116,-12657.521608,-1532.190996
486.948327,-1332.370696,-11769.274478,-919.314598
486.948650,0.000000,-7179.997637,306.438199
486.948972,2220.617826,-3627.009116,-766.095498
486.949295,3923.091493,-3256.906145,-2604.724693
486.949617,2590.720797,-5921.647536,-2068.457845
486.949939,-1480.411884,-9252.574275,766.095498
486.950262,-2886.803174,-11621.233289,76.609550
486.950584,-1406.391290,-12731.542202,-3294.210641
486.950907,2664.741391,-14285.974681,-4903.011187
486.951229,5773.606348,-13619.789333,-2451.505594
486.951551,5551.544565,-9918.759623,2298.286494
486.951874,3701.029710,-6883.915261,3524.039291
486.952196,2442.679609,-4293.194464,-842.705048
486.952519,222.061783,-5033.400406,-6358.592633
486.952841,-3404.947333,-7698.141797,-7660.954980
486.953164,-6883.915261,-10732.986159,-4136.915689
486.953486,-7179.997637,-12805.562797,-1762.019645
486.953808,-4885.359217,-14582.057057,-2068.457845
486.954131,-1554.432478,-16580.613101,-689.485948
486.954453,-814.226536,-15248.242405,459.657299
486.954776,-1258.350101,-10214.842000,1762.019645
486.955098,-1628.453072,-5403.503377,-1225.752797
486.955421,0.000000,-3478.967927,-4979.620737
486.955743,1628.453072,-4515.256246,-4979.620737
486.956066,1110.308913,-6809.894666,-1915.238745
486.956388,-518.144159,-9918.759623,1685.410096
486.956711,-1036.288319,-12805.562797,1915.238745
486.957033,666.185348,-15026.180623,-1225.752797
486.957355,2516.700203,-15322.262999,-1532.190996
486.957678,3404.947333,-12435.459826,766.095498
486.958000,4737.318029,-6661.853478,919.314598
486.958323,5995.668130,-888.247130,-1608.800546
486.958645,6365.771101,-592.164754,-2221.676944
486.958968,3256.906145,-4071.132681,-1225.752797
486.959290,-1924.535449,-9696.697840,766.095498
486.959613,-6439.791695,-14285.974681,1072.533697
486.959935,-8882.471304,-13175.665768,-1378.971896
486.960258,-6957.935855,-13101.645173,-4060.306139
486.960580,-2368.659014,-14508.036463,-2068.457845
486.960902,-962.267725,-9474.636058,1072.533697
486.961225,-1184.329507,-2220.617826,2451.505594
486.961547,-1850.514855,888.247130,689.485948
486.961870,-1036.288319,-3034.844362,-2221.676944
486.962192,-2146.597232,-8808.450710,-3370.820191
486.962515,-4293.194464,-12583.501014,-1225.752797
486.962837,-5329.482782,-14508.036463,-612.876398
486.963160,-2442.679609,-14063.912898,-2145.067394
486.963482,2812.782580,-12731.542202,-2374.896044
486.963805,5995.668130,-9326.594869,-1149.143247
486.964127,5107.421000,-6069.688724,153.219100
486.964449,2590.720797,-3182.885551,-842.705048
486.964772,1776.494261,-3330.926739,-3907.087040
486.965094,1258.350101,-7254.018232,-5132.839837
486.965417,-2294.638420,-11473.192101,-3677.258390
486.965739,-4589.276840,-14211.954086,-995.924147
486.966062,-5847.626942,-12879.583391,-919.314598
486.966384,-3701.029710,-12287.418637,-2757.943793
486.966707,518.144159,-13693.809927,-3140.991542
486.967029,1850.514855,-11917.315666,-2068.457845
486.967352,1702.473667,-8216.285956,229.828649
486.967674,666.185348,-4737.318029,-459.657299
