#time,accel_x,accel_y,accel_z
289.172004,-666.185348,-9474.636058,-1915.238745
289.172327,-666.185348,-9474.636058,-1838.629195
289.172649,-592.164754,-9622.677246,-1915.238745
289.172971,-296.082377,-9252.574275,-1762.019645
289.173294,-370.102971,-9400.615463,-1532.190996
289.173616,-296.082377,-9400.615463,-1685.410096
289.173938,-370.102971,-9252.574275,-1532.190996
289.174260,-370.102971,-9474.636058,-1532.190996
289.174583,-370.102971,-9918.759623,-1149.143247
289.174905,-222.061783,-9622.677246,-1838.629195
289.175227,-296.082377,-9548.656652,-1302.362347
289.175550,-296.082377,-9326.594869,-1455.581446
289.175872,-370.102971,-9252.574275,-1532.190996
289.176194,-370.102971,-9326.594869,-1378.971896
289.176517,-370.102971,-9030.512492,-1149.143247
289.176839,-148.041188,-9548.656652,-1608.800546
289.177161,-592.164754,-9474.636058,-1302.362347
289.177483,-592.164754,-9622.677246,-1455.581446
289.177806,-592.164754,-9474.636058,-1608.800546
289.178128,-444.123565,-8956.491898,-1302.362347
289.178450,-296.082377,-8586.388927,-1072.533697
289.178773,-370.102971,-9178.553681,-1378.971896
289.179095,-370.102971,-9326.594869,-1149.143247
289.179417,-518.144159,-9400.615463,-1225.752797
289.179739,-888.247130,-9474.636058,-1378.971896
289.180062,-888.247130,-9252.574275,-995.924147
289.180384,-370.102971,-9474.636058,-1378.971896
289.180706,-370.102971,-9252.574275,-1378.971896
289.181029,-222.061783,-9104.533087,-1225.752797
289.181351,-222.061783,-9252.574275,-1225.752797
289.181673,-444.123565,-8586.388927,-766.095498
289.181996,-148.041188,-9326.594869,-1838.629195
289.182318,-518.144159,-9474.636058,-1378.971896
289.182640,-296.082377,-9548.656652,-1608.800546
289.182962,-296.082377,-9474.636058,-1532.190996
289.183285,-296.082377,-9252.574275,-1225.752797
289.183607,148.041188,-9252.574275,-1532.190996
289.183929,0.000000,-9104.533087,-1532.190996
289.184252,-296.082377,-9178.553681,-1455.581446
289.184574,-296.082377,-9326.594869,-1455.581446
289.184896,-370.102971,-9474.636058,-1685.410096
289.185218,0.000000,-9252.574275,-1532.190996
289.185541,-592.164754,-9400.615463,-1455.581446
289.185863,-370.102971,-9178.553681,-1762.019645
289.186185,0.000000,-9252.574275,-1762.019645
289.186508,0.000000,-9326.594869,-1685.410096
289.186830,-148.041188,-9178.553681,-1838.629195
289.187152,-370.102971,-9400.615463,-1762.019645
289.187474,-666.185348,-9474.636058,-1762.019645
289.187797,-444.123565,-9474.636058,-1838.629195
289.188119,0.000000,-9474.636058,-1762.019645
289.188441,222.061783,-9030.512492,-1685.410096
289.188764,2294.638420,-9622.677246,-2221.676944
289.189086,2812.782580,-9918.759623,-1915.238745
289.189408,2368.659014,-9104.533087,-536.266849
289.189731,1406.391290,-8364.327145,-306.438199
289.190053,222.061783,-8882.471304,-1762.019645
289.190375,-666.185348,-9326.594869,-2528.115143
289.190697,-3034.844362,-9104.533087,-2528.115143
289.191020,-4219.173869,-9622.677246,-2604.724693
289.191342,-4293.194464,-9844.739029,-2911.162892
289.191664,-2442.679609,-9770.718434,-3370.820191
289.191987,666.185348,-10807.006753,-3600.648841
289.192309,3108.864956,-11547.212695,-1455.581446
289.192631,3478.967927,-10658.965565,153.219100
289.192953,3182.885551,-9326.594869,612.876398
289.193276,2664.741391,-8660.409521,-1072.533697
289.193598,3182.885551,-9326.594869,-2298.286494
289.193920,2368.659014,-9326.594869,-2145.067394
289.194243,592.164754,-8142.265362,-459.657299
289.194565,-666.185348,-7105.977043,153.219100
289.194887,296.082377,-7846.182985,-1302.362347
289.195210,1554.432478,-9844.739029,-2374.896044
289.195532,222.061783,-9918.759623,-689.485948
289.195854,-1998.556043,-8660.409521,612.876398
289.196176,-2368.659014,-8808.450710,-1915.238745
289.196499,-1184.329507,-9400.615463,-4366.744339
289.196821,0.000000,-9474.636058,-3600.648841
289.197143,444.123565,-10362.883188,-2068.457845
289.197466,1332.370696,-11251.130318,-1532.190996
289.197788,2738.761985,-10140.821405,-1608.800546
289.198110,4219.173869,-10658.965565,-1072.533697
289.198432,4811.338623,-11547.212695,-153.219100
289.198755,4071.132681,-11177.109724,-612.876398
289.199077,2812.782580,-8660.409521,-1378.971896
289.199399,2146.597232,-7179.997637,-383.047749
289.199722,2442.679609,-7402.059420,-229.828649
289.200044,2442.679609,-7328.038826,-766.095498
289.200366,1998.556043,-6439.791695,-612.876398
289.200688,1332.370696,-7476.080014,-153.219100
289.201011,2516.700203,-10288.862594,76.609550
289.201333,2812.782580,-10807.006753,-612.876398
289.201655,1924.535449,-9622.677246,-1608.800546
289.201978,1998.556043,-10288.862594,-1991.848295
289.202300,2590.720797,-10140.821405,-995.924147
289.202622,2886.803174,-9030.512492,-2221.676944
289.202945,2812.782580,-9178.553681,-2681.334243
289.203267,2738.761985,-10288.862594,-2145.067394
289.203589,3182.885551,-10288.862594,-995.924147
289.203911,3478.967927,-9844.739029,-1685.410096
289.204234,2664.741391,-9844.739029,-2068.457845
289.204556,2516.700203,-9622.677246,-766.095498
289.204878,2146.597232,-8290.306550,-459.657299
289.205201,1184.329507,-7031.956449,-689.485948
289.205523,0.000000,-7328.038826,-1608.800546
289.205845,-444.123565,-8142.265362,-1532.190996
289.206167,-666.185348,-9104.533087,-1072.533697
289.206490,-518.144159,-10436.903782,-919.314598
289.206812,-222.061783,-11325.150913,-1072.533697
289.207134,518.144159,-11843.295072,-1072.533697
289.207457,1110.308913,-11251.130318,-383.047749
289.207779,1332.370696,-10510.924376,-306.438199
289.208101,1924.535449,-9474.636058,-1225.752797
289.208424,1776.494261,-8512.368333,-1915.238745
289.208746,1406.391290,-8142.265362,-1302.362347
289.209068,518.144159,-8364.327145,-766.095498
289.209390,0.000000,-8068.244768,-1378.971896
289.209713,-148.041188,-8216.285956,-1608.800546
289.210035,0.000000,-9030.512492,-1991.848295
289.210357,-148.041188,-9104.533087,-2068.457845
289.210680,-222.061783,-7994.224174,-2145.067394
289.211002,0.000000,-7994.224174,-2528.115143
289.211324,0.000000,-7994.224174,-1915.238745
289.211646,0.000000,-9474.636058,-1915.238745
289.211969,0.000000,-10066.800811,-2298.286494
289.212291,-888.247130,-10732.986159,-2451.505594
289.212613,-888.247130,-11843.295072,-1762.019645
289.212936,-666.185348,-11917.315666,-1302.362347
289.213258,-518.144159,-10436.903782,-1149.143247
289.213580,-518.144159,-9696.697840,-1532.190996
289.213902,-592.164754,-9548.656652,-995.924147
289.214225,-518.144159,-9252.574275,-459.657299
289.214547,-962.267725,-8882.471304,-459.657299
289.214869,-592.164754,-9030.512492,-1149.143247
289.215192,-222.061783,-8438.347739,-1532.190996
289.215514,222.061783,-7698.141797,-1532.190996
289.215836,740.205942,-7624.121203,-2221.676944
289.216159,1184.329507,-8216.285956,-2374.896044
289.216481,1258.350101,-8660.409521,-2374.896044
289.216803,1110.308913,-9992.780217,-3217.601092
289.217125,518.144159,-11177.109724,-2987.772442
289.217448,-370.102971,-11399.171507,-2911.162892
289.217770,-518.144159,-11103.089130,-3217.601092
289.218092,-740.205942,-10881.027347,-2987.772442
289.218415,-1036.288319,-10362.883188,-1762.019645
289.218737,-1184.329507,-10584.944971,-1072.533697
289.219059,-1850.514855,-9918.759623,0.000000
289.219381,-2442.679609,-8956.491898,383.047749
289.219704,-2294.638420,-7920.203579,76.609550
289.220026,-1924.535449,-6661.853478,0.000000
289.220348,-1258.350101,-5699.585753,-612.876398
289.220671,-1110.308913,-5181.441594,76.609550
289.220993,-592.164754,-5107.421000,0.000000
289.221315,74.020594,-6587.832884,-1302.362347
289.221638,0.000000,-8364.327145,-2145.067394
289.221960,-222.061783,-10140.821405,-2757.943793
289.222282,-296.082377,-11843.295072,-3447.429741
289.222604,0.000000,-12139.377449,-3600.648841
289.222927,296.082377,-11769.274478,-3677.258390
289.223249,444.123565,-10881.027347,-3447.429741
289.223571,370.102971,-11177.109724,-2987.772442
289.223894,-592.164754,-11695.253884,-2374.896044
289.224216,-1702.473667,-12509.480420,-1072.533697
289.224538,-2664.741391,-12435.459826,76.609550
289.224860,-2738.761985,-10881.027347,842.705048
289.225183,-1850.514855,-8660.409521,1149.143247
289.225505,0.000000,-7031.956449,383.047749
289.225827,740.205942,-4663.297435,1302.362347
289.226150,1702.473667,-2886.803174,1302.362347
289.226472,2072.576638,-3182.885551,0.000000
289.226794,1776.494261,-5699.585753,-1762.019645
289.227116,1850.514855,-9104.533087,-3370.820191
289.227439,518.144159,-11769.274478,-4136.915689
289.227761,-296.082377,-13767.830521,-4060.306139
289.228083,-592.164754,-14508.036463,-3907.087040
289.228406,-222.061783,-14434.015869,-3677.258390
289.228728,-666.185348,-14063.912898,-3600.648841
289.229050,-1628.453072,-13175.665768,-2298.286494
289.229373,-2516.700203,-11991.336260,-612.876398
289.229695,-2146.597232,-10510.924376,-229.828649
289.230017,-962.267725,-8068.244768,-383.047749
289.230339,-222.061783,-5921.647536,0.000000
289.230662,-148.041188,-4737.318029,1915.238745
289.230984,-370.102971,-4367.215058,3907.087040
289.231306,-1184.329507,-3627.009116,2911.162892
289.231629,-1406.391290,-3552.988522,612.876398
289.231951,-666.185348,-4515.256246,-2374.896044
289.232273,370.102971,-5699.585753,-3830.477490
289.232595,1628.453072,-7846.182985,-3983.696590
289.232918,2368.659014,-10214.842000,-3907.087040
289.233240,2442.679609,-12361.439231,-3830.477490
289.233562,1924.535449,-14508.036463,-4213.525239
289.233885,370.102971,-15692.365970,-4826.401637
289.234207,-1554.432478,-16580.613101,-6358.592633
289.234529,-2960.823768,-16876.695478,-5515.887586
289.234852,-3182.885551,-14952.160028,-3064.381992
289.235174,-2220.617826,-12213.398043,-842.705048
289.235496,-1036.288319,-9252.574275,459.657299
289.235818,74.020594,-7031.956449,1991.848295
289.236141,296.082377,-4737.318029,3140.991542
289.236463,74.020594,-2368.659014,2528.115143
289.236785,296.082377,-1554.432478,306.438199
289.237108,1850.514855,-3478.967927,-842.705048
289.237430,2516.700203,-5477.523971,-2451.505594
289.237752,3108.864956,-8956.491898,-2604.724693
289.238074,2738.761985,-11843.295072,-2528.115143
289.238397,2738.761985,-13989.892304,-3524.039291
289.238719,2516.700203,-14582.057057,-5056.230287
289.239042,2146.597232,-14359.995275,-6281.983084
289.239364,0.000000,-13989.892304,-4673.182538
289.239687,-1628.453072,-14137.933492,-3524.039291
289.240009,-2886.803174,-13397.727550,-1915.238745
289.240331,-3627.009116,-11621.233289,-383.047749
289.240654,-3627.009116,-9178.553681,153.219100
289.240976,-3330.926739,-7254.018232,919.314598
289.241299,-2886.803174,-5033.400406,2298.286494
289.241621,-2368.659014,-3108.864956,3677.258390
289.241944,-1628.453072,-1628.453072,3524.039291
289.242266,-1036.288319,-518.144159,2068.457845
289.242588,-666.185348,-1184.329507,306.438199
289.242911,-296.082377,-3849.070898,-2068.457845
289.243233,-148.041188,-7031.956449,-3830.477490
289.243556,-370.102971,-9696.697840,-4213.525239
289.243878,-222.061783,-13027.624579,-4519.963438
289.244201,74.020594,-15100.201217,-4673.182538
289.244523,-518.144159,-16210.510130,-5209.449386
289.244845,-1036.288319,-16654.633695,-5132.839837
289.245168,-1332.370696,-16284.530724,-4136.915689
289.245490,-2220.617826,-15396.283594,-2451.505594
289.245813,-2886.803174,-12509.480420,-153.219100
289.246135,-2960.823768,-9178.553681,1072.533697
289.246458,-1258.350101,-6735.874072,2145.067394
289.246780,814.226536,-5107.421000,1915.238745
289.247102,1850.514855,-3478.967927,2068.457845
289.247425,1924.535449,-2812.782580,2221.676944
289.247747,2220.617826,-2368.659014,2451.505594
289.248070,2294.638420,-3923.091493,0.000000
289.248392,1998.556043,-6587.832884,-3140.991542
289.248715,814.226536,-9844.739029,-4826.401637
289.249037,-370.102971,-12583.501014,-4979.620737
289.249359,-962.267725,-14656.077652,-4826.401637
289.249682,-1628.453072,-16358.551318,-3830.477490
289.250004,-1628.453072,-17764.942608,-4596.572988
289.250327,-2442.679609,-16728.654289,-3600.648841
289.250649,-2960.823768,-14285.974681,-2145.067394
289.250972,-3108.864956,-11621.233289,-689.485948
289.251294,-1850.514855,-9030.512492,-383.047749
289.251616,-888.247130,-6513.812290,-306.438199
289.251939,-888.247130,-3849.070898,1991.848295
289.252261,-1184.329507,-2442.679609,3370.820191
289.252584,-1036.288319,-2294.638420,3217.601092
289.252906,-296.082377,-2368.659014,1225.752797
289.253229,1184.329507,-2590.720797,-766.095498
289.253551,2220.617826,-4071.132681,-2528.115143
289.253874,3108.864956,-6735.874072,-3217.601092
289.254196,3404.947333,-9030.512492,-3294.210641
289.254518,3256.906145,-11473.192101,-4290.134789
289.254841,2368.659014,-13767.830521,-4673.182538
289.255163,888.247130,-16580.613101,-5745.716235
289.255486,-1110.308913,-18135.045579,-4979.620737
289.255808,-2590.720797,-17838.963202,-3064.381992
289.256131,-2664.741391,-15914.427753,-2068.457845
289.256453,-1776.494261,-12509.480420,-1302.362347
289.256775,-666.185348,-9770.718434,-153.219100
289.257098,-370.102971,-7105.977043,1532.190996
289.257420,-962.267725,-3997.112087,3600.648841
289.257743,-962.267725,-1258.350101,2757.943793
289.258065,-222.061783,-1776.494261,229.828649
289.258388,1702.473667,-4515.256246,-2374.896044
289.258710,2886.803174,-7031.956449,-3064.381992
289.259032,2812.782580,-9474.636058,-2757.943793
289.259355,2812.782580,-12287.418637,-2451.505594
289.259677,3478.967927,-13323.706956,-2757.943793
289.260000,3108.864956,-13101.645173,-4903.011187
289.260322,1406.391290,-12805.562797,-5745.716235
289.260645,-888.247130,-13693.809927,-4749.792088
289.260967,-2738.761985,-14508.036463,-3830.477490
289.261289,-3701.029710,-14359.995275,-1532.190996
289.261612,-4219.173869,-12213.398043,-536.266849
289.261934,-4145.153275,-9474.636058,306.438199
289.262257,-3627.009116,-7920.203579,919.314598
289.262579,-2812.782580,-5181.441594,2757.943793
289.262902,-2960.823768,-2294.638420,3140.991542
289.263224,-2664.741391,-296.082377,2528.115143
289.263546,-2220.617826,222.061783,1149.143247
289.263869,-1406.391290,-2146.597232,-995.924147
289.264191,-1406.391290,-5107.421000,-3140.991542
289.264514,-1258.350101,-8364.327145,-4519.963438
289.264836,-962.267725,-11695.253884,-4519.963438
289.265159,0.000000,-13915.871710,-4136.915689
289.265481,148.041188,-15692.365970,-5286.058936
289.265803,-740.205942,-16876.695478,-5362.668486
289.266126,-1924.535449,-16580.613101,-4443.353888
289.266448,-2368.659014,-15692.365970,-3217.601092
289.266771,-3108.864956,-12879.583391,-1225.752797
289.267093,-2886.803174,-10436.903782,-459.657299
289.267416,-2664.741391,-7846.182985,1838.629195
289.267738,-962.267725,-6587.832884,2987.772442
289.268060,888.247130,-5033.400406,3217.601092
289.268383,1628.453072,-2960.823768,2604.724693
289.268705,1776.494261,-1776.494261,1915.238745
289.269028,2442.679609,-1776.494261,383.047749
289.269350,2812.782580,-4737.318029,-1532.190996
289.269673,2072.576638,-8364.327145,-3370.820191
289.269995,592.164754,-11769.274478,-4136.915689
289.270317,-296.082377,-13841.851115,-4979.620737
289.270640,-1554.432478,-15618.345376,-4979.620737
289.270962,-2294.638420,-16876.695478,-5515.887586
289.271285,-2368.659014,-16950.716072,-5132.839837
289.271607,-2886.803174,-15248.242405,-3524.039291
289.271930,-2886.803174,-12657.521608,-1608.800546
289.272252,-2516.700203,-10140.821405,-766.095498
289.272574,-1850.514855,-7402.059420,-459.657299
289.272897,-1554.432478,-5329.482782,842.705048
289.273219,-1702.473667,-3627.009116,2604.724693
289.273542,-1628.453072,-2812.782580,2834.553343
289.273864,-740.205942,-2812.782580,2145.067394
289.274187,0.000000,-2812.782580,536.266849
289.274509,1924.535449,-3256.906145,-1225.752797
289.274831,3701.029710,-4663.297435,-3064.381992
289.275154,4515.256246,-7254.018232,-3907.087040
289.275476,4145.153275,-10066.800811,-4749.792088
289.275799,3034.844362,-13101.645173,-4749.792088
289.276121,2368.659014,-16432.571912,-5362.668486
289.276444,814.226536,-18505.148550,-5898.935335
289.276766,-1184.329507,-18949.272115,-4903.011187
289.277088,-2146.597232,-17987.004391,-3294.210641
289.277411,-1998.556043,-15396.283594,-1991.848295
289.277733,-1850.514855,-11547.212695,-383.047749
289.278056,-1110.308913,-7402.059420,1532.190996
289.278378,-740.205942,-3701.029710,2298.286494
289.278701,-518.144159,-1554.432478,1685.410096
289.279023,-222.061783,-1480.411884,1072.533697
289.279345,1776.494261,-3330.926739,153.219100
289.279668,2664.741391,-5551.544565,-1455.581446
289.279990,3182.885551,-8068.244768,-1762.019645
289.280313,2886.803174,-10362.883188,-1302.362347
289.280635,2442.679609,-11695.253884,-2528.115143
289.280958,2442.679609,-12583.501014,-4749.792088
289.281280,888.247130,-12509.480420,-5439.278036
289.281602,-814.226536,-13249.686362,-5745.716235
289.281925,-2146.597232,-14508.036463,-4596.572988
289.282247,-3330.926739,-14730.098246,-2298.286494
289.282570,-4589.276840,-13619.789333,-612.876398
289.282892,-5255.462188,-11325.150913,383.047749
289.283215,-4737.318029,-8586.388927,689.485948
289.283537,-4293.194464,-5921.647536,1608.800546
289.283859,-4071.132681,-3108.864956,2374.896044
289.284182,-4071.132681,-740.205942,2528.115143
289.284504,-2960.823768,-592.164754,1915.238745
289.284827,-888.247130,-1776.494261,-459.657299
289.285149,370.102971,-4071.132681,-2374.896044
289.285472,1110.308913,-7550.100608,-3140.991542
289.285794,1406.391290,-10510.924376,-2987.772442
289.286116,1406.391290,-13101.645173,-3830.477490
289.286439,1110.308913,-15322.262999,-4903.011187
289.286761,518.144159,-16580.613101,-5822.325785
289.287084,-888.247130,-15988.448347,-5669.106685
289.287406,-2294.638420,-15692.365970,-4366.744339
289.287729,-3330.926739,-14211.954086,-2145.067394
289.288051,-4293.194464,-12879.583391,-229.828649
289.288373,-4219.173869,-9992.780217,1608.800546
289.288696,-2812.782580,-7179.997637,1762.019645
289.289018,-1036.288319,-5181.441594,1532.190996
289.289341,-296.082377,-2886.803174,1838.629195
289.289663,1036.288319,-2220.617826,2068.457845
289.289986,1480.411884,-2294.638420,1302.362347
289.290308,2442.679609,-4515.256246,-1532.190996
289.290630,2590.720797,-7698.141797,-3524.039291
289.290953,1332.370696,-10732.986159,-4443.353888
289.291275,0.000000,-13175.665768,-4673.182538
289.291598,0.000000,-15174.221811,-4903.011187
289.291920,0.000000,-16506.592507,-5592.497135
289.292243,-518.144159,-16580.613101,-4903.011187
289.292565,-1776.494261,-15248.242405,-3447.429741
289.292888,-2294.638420,-13545.768739,-1991.848295
289.293210,-2294.638420,-10362.883188,-689.485948
289.293532,-1554.432478,-8216.285956,-612.876398
289.293855,-666.185348,-6217.729913,383.047749
289.294177,-666.185348,-4367.215058,2374.896044
289.294500,-518.144159,-2516.700203,3677.258390
289.294822,-444.123565,-3108.864956,3294.210641
289.295145,-148.041188,-3034.844362,1149.143247
289.295467,814.226536,-2738.761985,-1608.800546
289.295789,2294.638420,-3849.070898,-3677.258390
289.296112,3552.988522,-6587.832884,-4290.134789
289.296434,3849.070898,-9696.697840,-4290.134789
289.296757,3256.906145,-12731.542202,-4519.963438
289.297079,2664.741391,-15470.304188,-5056.230287
289.297402,1110.308913,-17616.901420,-5745.716235
289.297724,-814.226536,-18505.148550,-5592.497135
289.298046,-2146.597232,-17838.963202,-3753.867940
289.298369,-2738.761985,-15248.242405,-1915.238745
289.298691,-2368.659014,-11695.253884,-383.047749
289.299014,-1184.329507,-8734.430116,1149.143247
289.299336,0.000000,-6513.812290,2451.505594
289.299659,74.020594,-3552.988522,3217.601092
289.299981,148.041188,-1184.329507,3064.381992
289.300303,1628.453072,-2072.576638,919.314598
289.300626,3478.967927,-4441.235652,-612.876398
289.300948,4293.194464,-6291.750507,-2068.457845
289.301271,3775.050304,-8882.471304,-2221.676944
289.301593,2738.761985,-11399.171507,-2987.772442
289.301916,2368.659014,-13101.645173,-3447.429741
289.302238,1702.473667,-13471.748144,-5439.278036
289.302560,0.000000,-14063.912898,-6281.983084
289.302883,-1554.432478,-15248.242405,-5669.106685
289.303205,-2886.803174,-15988.448347,-3524.039291
289.303528,-4441.235652,-14211.954086,-1225.752797
289.303850,-5477.523971,-11547.212695,153.219100
289.304173,-5255.462188,-9178.553681,76.609550
289.304495,-4441.235652,-6513.812290,1072.533697
289.304817,-4219.173869,-3997.112087,2298.286494
289.305140,-3997.112087,-1628.453072,3217.601092
289.305462,-3404.947333,-370.102971,3140.991542
289.305785,-1554.432478,-962.267725,1225.752797
289.306107,-148.041188,-2590.720797,-1149.143247
289.306430,296.082377,-5329.482782,-2681.334243
289.306752,666.185348,-8808.450710,-4290.134789
289.307074,1036.288319,-12139.377449,-4366.744339
289.307397,1110.308913,-14434.015869,-4290.134789
289.307719,814.226536,-16284.530724,-5286.058936
289.308042,-296.082377,-17024.736666,-5745.716235
289.308364,-1628.453072,-16728.654289,-4366.744339
289.308687,-2886.803174,-15618.345376,-2834.553343
289.309009,-3552.988522,-13767.830521,-1532.190996
289.309331,-3478.967927,-10881.027347,-153.219100
289.309654,-2368.659014,-8216.285956,1455.581446
289.309976,-666.185348,-6217.729913,2374.896044
289.310299,592.164754,-4515.256246,2451.505594
289.310621,1036.288319,-2812.782580,2221.676944
289.310944,1406.391290,-1628.453072,1915.238745
289.311266,2072.576638,-2590.720797,-153.219100
289.311588,2220.617826,-5107.421000,-2528.115143
289.311911,740.205942,-8882.471304,-3907.087040
289.312233,814.226536,-12583.501014,-4673.182538
289.312556,-370.102971,-14878.139434,-4903.011187
289.312878,-962.267725,-16432.571912,-5209.449386
289.313201,-1554.432478,-16358.551318,-5209.449386
289.313523,-2072.576638,-14952.160028,-3983.696590
289.313845,-2146.597232,-14211.954086,-2987.772442
289.314168,-2368.659014,-11991.336260,-1149.143247
289.314490,-2146.597232,-9770.718434,-842.705048
289.314813,-1258.350101,-7698.141797,0.000000
289.315135,-962.267725,-5551.544565,1762.019645
289.315458,-962.267725,-3923.091493,2911.162892
289.315780,-888.247130,-2442.679609,2757.943793
289.316102,0.000000,-2368.659014,1685.410096
289.316425,1332.370696,-2368.659014,-536.266849
289.316747,3256.906145,-3775.050304,-2451.505594
289.317070,4885.359217,-5699.585753,-3753.867940
289.317392,4663.297435,-8216.285956,-3600.648841
289.317715,3923.091493,-11473.192101,-3983.696590
289.318037,3256.906145,-14359.995275,-4979.620737
289.318359,1998.556043,-16950.716072,-5898.935335
289.318682,-222.061783,-18135.045579,-5439.278036
289.319004,-1998.556043,-17024.736666,-3370.820191
289.319327,-2812.782580,-15766.386565,-2221.676944
289.319649,-2516.700203,-13323.706956,-1455.581446
289.319972,-1776.494261,-10288.862594,0.000000
289.320294,-962.267725,-7179.997637,1838.629195
289.320616,-740.205942,-4293.194464,3140.991542
289.320939,0.000000,-1628.453072,2528.115143
289.321261,444.123565,-2072.576638,1532.190996
289.321584,2072.576638,-3923.091493,-306.438199
289.321906,2442.679609,-5921.647536,-2145.067394
289.322229,2738.761985,-8586.388927,-1991.848295
289.322551,2220.617826,-10584.944971,-2068.457845
289.322873,2442.679609,-12583.501014,-3217.601092
289.323196,2220.617826,-13027.624579,-4213.525239
289.323518,814.226536,-13545.768739,-4979.620737
289.323841,-1184.329507,-14211.954086,-5056.230287
289.324163,-2442.679609,-14508.036463,-3524.039291
289.324486,-3627.009116,-14063.912898,-1532.190996
289.324808,-5255.462188,-11473.192101,-612.876398
289.325130,-5329.482782,-9844.739029,0.000000
289.325453,-4367.215058,-7550.100608,1378.971896
289.325775,-3997.112087,-4737.318029,2451.505594
289.326098,-3330.926739,-2516.700203,2834.553343
289.326420,-3034.844362,-1184.329507,2987.772442
289.326743,-1924.535449,-1184.329507,1455.581446
289.327065,-518.144159,-2368.659014,-766.095498
289.327387,0.000000,-4663.297435,-2757.943793
289.327710,592.164754,-8068.244768,-4060.306139
289.328032,296.082377,-10807.006753,-4519.963438
289.328355,518.144159,-13619.789333,-4213.525239
289.328677,444.123565,-15766.386565,-4826.401637
289.329000,-444.123565,-17246.798449,-5209.449386
289.329322,-1850.514855,-17172.777854,-4979.620737
289.329644,-2960.823768,-16284.530724,-2604.724693
289.329967,-3627.009116,-13915.871710,-1762.019645
289.330289,-3997.112087,-10955.047942,-766.095498
289.330612,-2738.761985,-8290.306550,1072.533697
289.330934,-962.267725,-5551.544565,1838.629195
289.331257,666.185348,-4145.153275,2528.115143
289.331579,1628.453072,-3330.926739,2145.067394
289.331902,2220.617826,-2738.761985,2298.286494
289.332224,2664.741391,-3478.967927,612.876398
289.332546,2886.803174,-5551.544565,-2451.505594
289.332869,2664.741391,-8660.409521,-3830.477490
289.333191,1480.411884,-11177.109724,-4443.353888
289.333514,518.144159,-13397.727550,-4903.011187
289.333836,-148.041188,-15322.262999,-5056.230287
289.334159,-962.267725,-16580.613101,-5056.230287
289.334481,-1628.453072,-16284.530724,-4673.182538
289.334803,-2072.576638,-14804.118840,-2987.772442
289.335126,-2738.761985,-12657.521608,-1762.019645
289.335448,-2220.617826,-9918.759623,-1149.143247
289.335771,-1480.411884,-7328.038826,-459.657299
289.336093,-962.267725,-5329.482782,842.705048
289.336416,-1184.329507,-3256.906145,2451.505594
289.336738,-1036.288319,-2664.741391,2145.067394
289.337060,-296.082377,-2812.782580,1685.410096
289.337383,1036.288319,-3330.926739,76.609550
289.337705,2664.741391,-4441.235652,-1991.848295
289.338028,3923.091493,-5699.585753,-2374.896044
289.338350,4811.338623,-8216.285956,-3907.087040
289.338673,4441.235652,-9992.780217,-4060.306139
289.338995,3478.967927,-12509.480420,-4903.011187
289.339318,2294.638420,-15174.221811,-5515.887586
289.339641,296.082377,-17468.860231,-5592.497135
289.339963,-2146.597232,-18135.045579,-4366.744339
289.340286,-3182.885551,-17024.736666,-2374.896044
289.340608,-3108.864956,-14359.995275,-1072.533697
289.340931,-2368.659014,-10881.027347,383.047749
289.341254,-1258.350101,-7476.080014,1225.752797
289.341576,-296.082377,-4515.256246,2374.896044
289.341899,-666.185348,-1924.535449,3064.381992
289.342221,-592.164754,-1184.329507,2221.676944
289.342544,740.205942,-3256.906145,306.438199
289.342867,2368.659014,-5995.668130,-1838.629195
289.343189,2664.741391,-8142.265362,-2374.896044
289.343512,2072.576638,-10807.006753,-2451.505594
289.343834,2368.659014,-13027.624579,-2528.115143
289.344157,2442.679609,-13693.809927,-3677.258390
289.344480,1702.473667,-13323.706956,-4903.011187
289.344802,-222.061783,-13619.789333,-5056.230287
289.345125,-2368.659014,-13767.830521,-3524.039291
289.345447,-3701.029710,-14359.995275,-2451.505594
289.345770,-4293.194464,-13175.665768,-995.924147
289.346093,-4367.215058,-10955.047942,0.000000
289.346415,-3404.947333,-8512.368333,1302.362347
289.346738,-2590.720797,-5625.565159,2834.553343
289.347060,-2664.741391,-2886.803174,3677.258390
289.347383,-2368.659014,-1258.350101,3524.039291
289.347706,-1998.556043,-370.102971,1762.019645
289.348028,-1258.350101,-1258.350101,-536.266849
289.348351,-1036.288319,-3775.050304,-2528.115143
289.348673,0.000000,-7105.977043,-3830.477490
289.348996,0.000000,-10288.862594,-4213.525239
289.349319,222.061783,-13249.686362,-4136.915689
289.349641,370.102971,-15396.283594,-4903.011187
289.349964,-518.144159,-16358.551318,-5822.325785
289.350286,-1850.514855,-16728.654289,-4979.620737
289.350609,-3108.864956,-16580.613101,-4060.306139
289.350931,-4071.132681,-14804.118840,-2528.115143
289.351254,-4515.256246,-11695.253884,-1225.752797
289.351577,-3701.029710,-9178.553681,383.047749
289.351899,-1850.514855,-6883.915261,1838.629195
289.352222,296.082377,-4737.318029,2681.334243
289.352544,1332.370696,-3775.050304,2681.334243
289.352867,2368.659014,-3108.864956,2068.457845
289.353190,3478.967927,-3034.844362,919.314598
289.353512,4589.276840,-4663.297435,-1072.533697
289.353835,3923.091493,-6883.915261,-2911.162892
289.354157,2368.659014,-9992.780217,-3600.648841
289.354480,370.102971,-11917.315666,-4290.134789
289.354803,-592.164754,-14137.933492,-5286.058936
289.355125,-1258.350101,-16506.592507,-6281.983084
289.355448,-1628.453072,-17542.880825,-5745.716235
289.355770,-2442.679609,-16580.613101,-3753.867940
289.356093,-3034.844362,-13989.892304,-2068.457845
289.356416,-2664.741391,-11251.130318,-919.314598
289.356738,-1850.514855,-8660.409521,-1072.533697
289.357061,-1332.370696,-6217.729913,76.609550
289.357383,-1628.453072,-4145.153275,995.924147
289.357706,-1924.535449,-2738.761985,2374.896044
289.358029,-1258.350101,-2516.700203,2221.676944
289.358351,0.000000,-2664.741391,689.485948
289.358674,1554.432478,-3108.864956,-1072.533697
289.358996,3552.988522,-4885.359217,-2451.505594
289.359319,4367.215058,-6661.853478,-3677.258390
289.359642,4441.235652,-9474.636058,-3983.696590
289.359964,3627.009116,-11991.336260,-3983.696590
289.360287,2664.741391,-14656.077652,-4673.182538
289.360609,1332.370696,-17098.757260,-5592.497135
289.360932,-518.144159,-18135.045579,-4673.182538
289.361255,-2220.617826,-17468.860231,-2604.724693
289.361577,-2368.659014,-15174.221811,-1302.362347
289.361900,-1850.514855,-11843.295072,0.000000
289.362222,-148.041188,-8734.430116,689.485948
289.362545,666.185348,-6217.729913,1838.629195
289.362868,592.164754,-4515.256246,2681.334243
289.363190,296.082377,-2146.597232,3677.258390
289.363513,0.000000,-1554.432478,2221.676944
289.363835,814.226536,-3330.926739,-995.924147
289.364158,1406.391290,-6365.771101,-2451.505594
289.364480,1332.370696,-8734.430116,-3217.601092
289.364803,740.205942,-11251.130318,-3600.648841
289.365126,1036.288319,-13693.809927,-4060.306139
289.365448,1184.329507,-14730.098246,-3907.087040
289.365771,148.041188,-14137.933492,-3830.477490
289.366093,-888.247130,-13767.830521,-4443.353888
289.366416,-2960.823768,-14434.015869,-2987.772442
289.366739,-3997.112087,-14359.995275,-1685.410096
289.367061,-3923.091493,-11843.295072,-689.485948
289.367384,-3330.926739,-9326.594869,995.924147
289.367706,-2442.679609,-6809.894666,1838.629195
289.368029,-1924.535449,-4515.256246,2757.943793
289.368352,-1850.514855,-1850.514855,3983.696590
289.368674,-2294.638420,-518.144159,3370.820191
289.368997,-1776.494261,-1110.308913,1072.533697
289.369319,-1036.288319,-2442.679609,-1915.238745
289.369642,-814.226536,-5033.400406,-3217.601092
289.369965,-592.164754,-8142.265362,-4290.134789
289.370287,-666.185348,-11177.109724,-4673.182538
289.370610,-148.041188,-14804.118840,-4673.182538
289.370932,-370.102971,-16876.695478,-4979.620737
289.371255,-2368.659014,-17320.819043,-5362.668486
289.371578,-4145.153275,-17764.942608,-4979.620737
289.371900,-4885.359217,-16580.613101,-3677.258390
289.372223,-4737.318029,-13619.789333,-2451.505594
289.372545,-3997.112087,-10066.800811,-842.705048
289.372868,-2516.700203,-7105.977043,153.219100
289.373191,-444.123565,-5255.462188,1915.238745
289.373513,518.144159,-4293.194464,2987.772442
289.373836,1554.432478,-3997.112087,2451.505594
289.374158,2220.617826,-3923.091493,766.095498
289.374481,2664.741391,-4219.173869,-1455.581446
289.374804,2960.823768,-5477.523971,-2145.067394
289.375126,2072.576638,-8512.368333,-2528.115143
289.375449,1480.411884,-10510.924376,-3370.820191
289.375771,1110.308913,-12805.562797,-4673.182538
289.376094,962.267725,-15470.304188,-5592.497135
289.376417,-222.061783,-17172.777854,-4903.011187
289.376739,-1406.391290,-17098.757260,-3524.039291
289.377062,-2220.617826,-14952.160028,-2221.676944
289.377384,-2220.617826,-11991.336260,-842.705048
289.377707,-1776.494261,-8882.471304,-689.485948
289.378029,-1480.411884,-5773.606348,0.000000
289.378352,-2220.617826,-3701.029710,1302.362347
289.378675,-2442.679609,-2738.761985,2145.067394
289.378997,-2294.638420,-2516.700203,1838.629195
289.379320,-962.267725,-3256.906145,612.876398
289.379642,518.144159,-4071.132681,-536.266849
289.379965,2738.761985,-5107.421000,-2221.676944
289.380288,3775.050304,-6587.832884,-2604.724693
289.380610,3997.112087,-8142.265362,-3753.867940
289.380933,3923.091493,-10436.903782,-4443.353888
289.381255,3330.926739,-13101.645173,-5132.839837
289.381578,2294.638420,-16062.468941,-5898.935335
289.381901,888.247130,-18357.107362,-4749.792088
289.382223,-370.102971,-18653.189738,-2451.505594
289.382546,-1258.350101,-16802.674883,-459.657299
289.382868,-962.267725,-13323.706956,612.876398
289.383191,-370.102971,-9178.553681,1838.629195
289.383514,-148.041188,-6069.688724,1685.410096
289.383836,296.082377,-3330.926739,1532.190996
289.384159,74.020594,-1554.432478,1762.019645
289.384481,296.082377,-1924.535449,2068.457845
289.384804,222.061783,-3404.947333,1225.752797
289.385127,666.185348,-6513.812290,-995.924147
289.385449,444.123565,-9252.574275,-2604.724693
289.385772,296.082377,-11621.233289,-4060.306139
289.386094,444.123565,-13175.665768,-5286.058936
289.386417,0.000000,-13545.768739,-4979.620737
289.386740,-1110.308913,-13841.851115,-4903.011187
289.387062,-1776.494261,-14508.036463,-4903.011187
289.387385,-2368.659014,-15100.201217,-4443.353888
289.387707,-3182.885551,-14656.077652,-2221.676944
289.388030,-4441.235652,-12731.542202,-919.314598
289.388353,-4145.153275,-10584.944971,689.485948
289.388675,-3034.844362,-7550.100608,2068.457845
289.388998,-2516.700203,-3627.009116,2681.334243
289.389320,-2368.659014,-1258.350101,2757.943793
289.389643,-1998.556043,-222.061783,2528.115143
289.389966,-1184.329507,-518.144159,1225.752797
289.390288,0.000000,-2590.720797,-842.705048
289.390611,666.185348,-5625.565159,-2834.553343
289.390933,1258.350101,-8290.306550,-3830.477490
289.391256,1332.370696,-10658.965565,-4673.182538
289.391578,740.205942,-13249.686362,-4903.011187
289.391901,0.000000,-15988.448347,-6052.154434
289.392224,-1776.494261,-16950.716072,-6128.763984
289.392546,-3627.009116,-17394.839637,-5822.325785
289.392869,-5181.441594,-16728.654289,-4519.963438
289.393191,-5847.626942,-14804.118840,-3064.381992
289.393514,-4737.318029,-11843.295072,-1225.752797
289.393837,-3182.885551,-8290.306550,229.828649
289.394159,-1036.288319,-5921.647536,1838.629195
289.394482,444.123565,-3627.009116,2145.067394
289.394804,1406.391290,-2442.679609,2298.286494
289.395127,1998.556043,-2516.700203,2374.896044
289.395450,2886.803174,-3404.947333,76.609550
289.395772,3330.926739,-5255.462188,-2221.676944
289.396095,2886.803174,-8068.244768,-3140.991542
289.396417,2294.638420,-10658.965565,-2604.724693
289.396740,1924.535449,-13175.665768,-3830.477490
289.397063,1406.391290,-15174.221811,-4749.792088
289.397385,1036.288319,-17098.757260,-5286.058936
289.397708,-296.082377,-16728.654289,-4749.792088
289.398030,-1702.473667,-15248.242405,-2757.943793
289.398353,-2294.638420,-12805.562797,-995.924147
289.398676,-2368.659014,-9622.677246,0.000000
289.398998,-2442.679609,-7402.059420,0.000000
289.399321,-2516.700203,-5773.606348,766.095498
289.399643,-2664.741391,-3997.112087,2221.676944
289.399966,-2368.659014,-2146.597232,1838.629195
289.400289,-1258.350101,-1998.556043,1072.533697
289.400611,814.226536,-2590.720797,153.219100
289.400934,2072.576638,-3701.029710,-1302.362347
289.401256,3034.844362,-5625.565159,-2145.067394
289.401579,3404.947333,-7772.162391,-3140.991542
289.401902,3552.988522,-10214.842000,-4749.792088
289.402224,3256.906145,-13175.665768,-4749.792088
289.402547,2812.782580,-15766.386565,-5209.449386
289.402869,740.205942,-17764.942608,-4366.744339
289.403192,-592.164754,-18357.107362,-3064.381992
289.403515,-1702.473667,-16654.633695,-1072.533697
289.403837,-2072.576638,-13693.809927,0.000000
289.404160,-1924.535449,-9844.739029,766.095498
289.404482,-888.247130,-7105.977043,1838.629195
289.404805,148.041188,-4293.194464,2298.286494
289.405127,296.082377,-1850.514855,2451.505594
289.405450,888.247130,-1776.494261,1838.629195
289.405773,1702.473667,-3256.906145,1302.362347
289.406095,1702.473667,-5921.647536,-536.266849
289.406418,1184.329507,-7846.182985,-1762.019645
289.406740,148.041188,-9918.759623,-3140.991542
289.407063,148.041188,-11843.295072,-4749.792088
289.407386,0.000000,-12657.521608,-5822.325785
289.407708,-370.102971,-13915.871710,-5898.935335
289.408031,-1480.411884,-14878.139434,-5056.230287
289.408353,-1924.535449,-15840.407159,-3983.696590
289.408676,-3182.885551,-15618.345376,-2681.334243
289.408999,-4367.215058,-13915.871710,-1378.971896
289.409321,-5403.503377,-10807.006753,-536.266849
289.409644,-4737.318029,-8068.244768,459.657299
289.409966,-4293.194464,-5181.441594,1225.752797
289.410289,-3701.029710,-2294.638420,2374.896044
289.410612,-3108.864956,0.000000,2757.943793
289.410934,-1628.453072,-296.082377,1685.410096
289.411257,0.000000,-1998.556043,-306.438199
289.411579,1258.350101,-4589.276840,-1915.238745
289.411902,1776.494261,-7402.059420,-3294.210641
289.412225,1924.535449,-10436.903782,-4290.134789
289.412547,1924.535449,-13101.645173,-4596.572988
289.412870,1406.391290,-15396.283594,-4979.620737
289.413192,-148.041188,-16654.633695,-6205.373534
289.413515,-1702.473667,-17172.777854,-6128.763984
289.413838,-2812.782580,-17024.736666,-4213.525239
289.414160,-3849.070898,-15322.262999,-2298.286494
289.414483,-4071.132681,-13101.645173,-153.219100
289.414805,-3256.906145,-9770.718434,306.438199
289.415128,-2072.576638,-7031.956449,1532.190996
289.415451,-370.102971,-4589.276840,2221.676944
289.415773,518.144159,-2368.659014,2298.286494
289.416096,1924.535449,-1702.473667,1762.019645
289.416418,3108.864956,-1850.514855,1225.752797
289.416741,3849.070898,-4367.215058,-766.095498
289.417064,3552.988522,-7328.038826,-1915.238745
289.417386,2368.659014,-10288.862594,-2298.286494
289.417709,1554.432478,-12657.521608,-3907.087040
289.418031,1258.350101,-14804.118840,-4979.620737
289.418354,370.102971,-16358.551318,-5898.935335
289.418677,-444.123565,-16654.633695,-4596.572988
289.418999,-1628.453072,-15618.345376,-2757.943793
289.419322,-2368.659014,-13915.871710,-1225.752797
289.419644,-2664.741391,-10436.903782,-383.047749
289.419967,-2368.659014,-8808.450710,-612.876398
289.420289,-2146.597232,-6735.874072,919.314598
289.420612,-2442.679609,-4219.173869,2451.505594
289.420935,-2664.741391,-2368.659014,2757.943793
289.421257,-1924.535449,-1406.391290,2451.505594
289.421580,148.041188,-1554.432478,689.485948
289.421902,1406.391290,-2664.741391,-1532.190996
289.422225,2738.761985,-4589.276840,-2604.724693
289.422548,3701.029710,-7550.100608,-3140.991542
289.422870,4145.153275,-10658.965565,-3907.087040
289.423193,3997.112087,-13471.748144,-3677.258390
289.423515,3034.844362,-15988.448347,-5439.278036
289.423838,1332.370696,-17172.777854,-5362.668486
289.424161,-962.267725,-17468.860231,-4596.572988
289.424483,-2590.720797,-16284.530724,-2681.334243
289.424806,-3404.947333,-14359.995275,-1149.143247
289.425128,-3034.844362,-11103.089130,0.000000
289.425451,-2516.700203,-8512.368333,1225.752797
289.425774,-1480.411884,-5995.668130,2068.457845
289.426096,-370.102971,-4145.153275,2528.115143
289.426419,74.020594,-2738.761985,2451.505594
289.426741,740.205942,-2812.782580,2068.457845
289.427064,1776.494261,-3330.926739,153.219100
289.427387,1924.535449,-5551.544565,-2221.676944
289.427709,1702.473667,-8956.491898,-3370.820191
289.428032,1406.391290,-11621.233289,-4213.525239
289.428354,1628.453072,-13323.706956,-4596.572988
289.428677,962.267725,-14582.057057,-5056.230287
289.429000,74.020594,-15840.407159,-5286.058936
289.429322,-518.144159,-16358.551318,-5056.230287
289.429645,-1258.350101,-15766.386565,-3524.039291
289.429967,-3182.885551,-13397.727550,-1302.362347
289.430290,-4219.173869,-11029.068536,-153.219100
289.430613,-4589.276840,-8660.409521,766.095498
289.430935,-4219.173869,-5551.544565,1991.848295
289.431258,-4293.194464,-2590.720797,2145.067394
289.431580,-4219.173869,-1110.308913,2298.286494
289.431903,-3478.967927,-444.123565,1685.410096
289.432226,-1702.473667,-1332.370696,536.266849
289.432548,74.020594,-2886.803174,-1302.362347
289.432871,1332.370696,-5329.482782,-3064.381992
289.433193,1850.514855,-8734.430116,-4903.011187
289.433516,1480.411884,-11769.274478,-4903.011187
289.433838,814.226536,-14211.954086,-4673.182538
289.434161,222.061783,-17098.757260,-5898.935335
289.434484,-592.164754,-18061.024985,-6511.811733
289.434806,-2072.576638,-17838.963202,-4979.620737
289.435129,-2812.782580,-15914.427753,-2528.115143
289.435451,-3330.926739,-13323.706956,-1455.581446
289.435774,-2442.679609,-10584.944971,-153.219100
289.436097,-1554.432478,-7550.100608,1532.190996
289.436419,-222.061783,-4737.318029,2451.505594
289.436742,814.226536,-2590.720797,2451.505594
289.437064,1776.494261,-2294.638420,2604.724693
289.437387,3182.885551,-2516.700203,1762.019645
289.437710,4145.153275,-4071.132681,229.828649
289.438032,4367.215058,-6291.750507,-1838.629195
289.438355,2738.761985,-9178.553681,-2451.505594
289.438677,1258.350101,-12139.377449,-2911.162892
289.439000,1036.288319,-14508.036463,-5132.839837
289.439323,-666.185348,-15914.427753,-6511.811733
289.439645,-1480.411884,-16876.695478,-6205.373534
289.439968,-2146.597232,-16506.592507,-4290.134789
289.440291,-2738.761985,-15322.262999,-2298.286494
289.440613,-2738.761985,-11917.315666,-383.047749
289.440936,-2886.803174,-9696.697840,-229.828649
289.441258,-2368.659014,-7105.977043,76.609550
289.441581,-2368.659014,-4441.235652,1378.971896
289.441904,-2886.803174,-2220.617826,2681.334243
289.442226,-2516.700203,-1332.370696,2834.553343
289.442549,-1332.370696,-1406.391290,1762.019645
289.442871,1184.329507,-2368.659014,0.000000
289.443194,3330.926739,-4145.153275,-1915.238745
289.443517,4589.276840,-6291.750507,-2528.115143
289.443839,4367.215058,-9326.594869,-2987.772442
289.444162,4071.132681,-12139.377449,-2834.553343
289.444485,2664.741391,-14285.974681,-4443.353888
289.444807,1184.329507,-16580.613101,-5362.668486
289.445130,-814.226536,-17838.963202,-5209.449386
289.445452,-2590.720797,-17098.757260,-3294.210641
289.445775,-3182.885551,-15174.221811,-1532.190996
289.446098,-2738.761985,-12731.542202,-306.438199
289.446420,-1702.473667,-9844.739029,1072.533697
289.446743,-740.205942,-7105.977043,2145.067394
289.447066,-444.123565,-4219.173869,2145.067394
289.447388,-296.082377,-2072.576638,2374.896044
289.447711,518.144159,-2368.659014,2221.676944
289.448033,962.267725,-3404.947333,229.828649
289.448356,1628.453072,-5477.523971,-1762.019645
289.448679,1776.494261,-8364.327145,-2834.553343
289.449001,1850.514855,-10214.842000,-3294.210641
289.449324,1702.473667,-12287.418637,-4443.353888
289.449646,1332.370696,-14063.912898,-4749.792088
289.449969,592.164754,-15322.262999,-5286.058936
289.450292,-444.123565,-15544.324782,-5439.278036
289.450614,-1702.473667,-15248.242405,-3907.087040
289.450937,-2738.761985,-14211.954086,-1455.581446
289.451260,-4367.215058,-11621.233289,-842.705048
289.451582,-4145.153275,-9104.533087,-306.438199
289.451905,-3923.091493,-6143.709319,1455.581446
289.452227,-3627.009116,-3923.091493,1762.019645
289.452550,-3701.029710,-1998.556043,2068.457845
289.452873,-2960.823768,-962.267725,2451.505594
289.453195,-2146.597232,-1702.473667,689.485948
289.453518,-444.123565,-2960.823768,-1762.019645
289.453841,1036.288319,-4959.379811,-3447.429741
289.454163,1628.453072,-7920.203579,-4366.744339
289.454486,1702.473667,-10658.965565,-4903.011187
289.454808,1554.432478,-14137.933492,-5056.230287
289.455131,814.226536,-17098.757260,-5592.497135
289.455454,0.000000,-18135.045579,-6281.983084
289.455776,-1702.473667,-18061.024985,-5439.278036
289.456099,-2664.741391,-16580.613101,-3600.648841
289.456421,-2960.823768,-13471.748144,-1455.581446
289.456744,-2516.700203,-10732.986159,76.609550
289.457067,-1702.473667,-7550.100608,1685.410096
289.457389,-518.144159,-5181.441594,2911.162892
289.457712,592.164754,-2812.782580,3217.601092
289.458035,1258.350101,-2072.576638,3064.381992
289.458357,2072.576638,-2294.638420,1838.629195
289.458680,2886.803174,-3330.926739,76.609550
289.459002,3478.967927,-5329.482782,-1455.581446
289.459325,2368.659014,-8142.265362,-2145.067394
289.459648,740.205942,-10658.965565,-2834.553343
289.459970,-518.144159,-13175.665768,-4826.401637
289.460293,-1554.432478,-15470.304188,-6281.983084
289.460615,-2442.679609,-17542.880825,-6511.811733
289.460938,-2664.741391,-18061.024985,-4826.401637
289.461261,-3330.926739,-16432.571912,-2604.724693
289.461583,-2368.659014,-13619.789333,-1225.752797
289.461906,-2146.597232,-10362.883188,-229.828649
289.462229,-1184.329507,-7920.203579,76.609550
289.462551,-962.267725,-4959.379811,1455.581446
289.462874,-1406.391290,-2220.617826,3447.429741
289.463196,-1406.391290,-814.226536,3753.867940
289.463519,0.000000,-666.185348,2451.505594
289.463842,1110.308913,-1406.391290,1072.533697
289.464164,2590.720797,-2886.803174,-842.705048
289.464487,3552.988522,-5625.565159,-2298.286494
289.464810,3404.947333,-8068.244768,-3064.381992
289.465132,2886.803174,-11473.192101,-3983.696590
289.465455,2220.617826,-14359.995275,-4673.182538
289.465777,1036.288319,-16950.716072,-5669.106685
289.466100,-740.205942,-18283.086767,-5898.935335
289.466423,-2664.741391,-18061.024985,-4519.963438
289.466745,-3182.885551,-16580.613101,-2298.286494
289.467068,-2738.761985,-13915.871710,-1532.190996
289.467390,-1406.391290,-10881.027347,0.000000
289.467713,-222.061783,-8216.285956,1378.971896
289.468036,148.041188,-5403.503377,2451.505594
289.468358,370.102971,-2664.741391,3370.820191
289.468681,444.123565,-962.267725,2451.505594
289.469004,962.267725,-1702.473667,536.266849
289.469326,2072.576638,-4219.173869,-1532.190996
289.469649,2072.576638,-6661.853478,-3064.381992
289.469971,1776.494261,-9474.636058,-2987.772442
289.470294,2368.659014,-13101.645173,-3753.867940
289.470617,1776.494261,-14582.057057,-4290.134789
289.470939,814.226536,-15470.304188,-4903.011187
289.471262,-740.205942,-15618.345376,-4826.401637
289.471585,-2442.679609,-15100.201217,-3907.087040
289.471907,-3552.988522,-14508.036463,-2987.772442
289.472230,-3775.050304,-13323.706956,-2068.457845
289.472552,-3108.864956,-10288.862594,-383.047749
289.472875,-2812.782580,-7179.997637,689.485948
289.473198,-2442.679609,-5033.400406,2221.676944
289.473520,-2072.576638,-3108.864956,3677.258390
289.473843,-2368.659014,-1258.350101,3140.991542
289.474165,-2442.679609,-592.164754,1455.581446
289.474488,-1924.535449,-1480.411884,-995.924147
289.474811,-1110.308913,-3849.070898,-2911.162892
289.475133,-370.102971,-6069.688724,-3753.867940
289.475456,-370.102971,-9474.636058,-4519.963438
289.475779,0.000000,-12953.603985,-4826.401637
289.476101,222.061783,-16506.592507,-5515.887586
289.476424,-592.164754,-18505.148550,-5745.716235
289.476746,-2146.597232,-18653.189738,-4903.011187
289.477069,-3330.926739,-17468.860231,-3830.477490
289.477392,-3701.029710,-15248.242405,-2834.553343
289.477714,-3330.926739,-11695.253884,-1225.752797
289.478037,-2294.638420,-8068.244768,153.219100
289.478360,-1110.308913,-5329.482782,2145.067394
289.478682,592.164754,-3849.070898,3140.991542
289.479005,1554.432478,-3552.988522,3140.991542
289.479327,2294.638420,-3034.844362,2068.457845
289.479650,2664.741391,-3330.926739,842.705048
289.479973,2886.803174,-5107.421000,-1072.533697
289.480295,2738.761985,-7105.977043,-2145.067394
289.480618,1776.494261,-9918.759623,-2604.724693
289.480940,666.185348,-12065.356855,-3983.696590
289.481263,-592.164754,-14359.995275,-5132.839837
289.481586,-1332.370696,-16580.613101,-5209.449386
289.481908,-2146.597232,-16802.674883,-4826.401637
289.482231,-2590.720797,-16432.571912,-3524.039291
289.482554,-2368.659014,-14359.995275,-2145.067394
289.482876,-1924.535449,-11547.212695,-995.924147
289.483199,-1036.288319,-8586.388927,0.000000
289.483521,-962.267725,-5403.503377,1685.410096
289.483844,-1258.350101,-2664.741391,3064.381992
289.484167,-1406.391290,-740.205942,2451.505594
289.484489,-1036.288319,-1332.370696,1838.629195
289.484812,0.000000,-1702.473667,536.266849
289.485134,1480.411884,-3182.885551,-1149.143247
289.485457,2886.803174,-5255.462188,-2451.505594
289.485780,3849.070898,-7698.141797,-3830.477490
289.486102,3552.988522,-10436.903782,-3830.477490
289.486425,2442.679609,-13175.665768,-4290.134789
289.486748,1702.473667,-15988.448347,-5209.449386
289.487070,0.000000,-17987.004391,-5745.716235
289.487393,-1628.453072,-18653.189738,-4979.620737
289.487715,-2294.638420,-17542.880825,-3140.991542
289.488038,-2516.700203,-14656.077652,-995.924147
289.488361,-1850.514855,-11251.130318,76.609550
289.488683,-592.164754,-8068.244768,1378.971896
289.489006,296.082377,-5107.421000,2451.505594
289.489329,666.185348,-3552.988522,1991.848295
289.489651,444.123565,-2294.638420,2451.505594
289.489974,444.123565,-2664.741391,1838.629195
289.490296,814.226536,-3923.091493,-612.876398
289.490619,1184.329507,-6661.853478,-2757.943793
289.490942,1776.494261,-9548.656652,-3524.039291
289.491264,1480.411884,-11843.295072,-3830.477490
289.491587,814.226536,-13545.768739,-4749.792088
289.491909,74.020594,-14730.098246,-4443.353888
289.492232,-740.205942,-15248.242405,-4596.572988
289.492555,-1258.350101,-16062.468941,-5362.668486
289.492877,-2368.659014,-15396.283594,-3753.867940
289.493200,-3478.967927,-14211.954086,-2145.067394
289.493523,-3775.050304,-11399.171507,-612.876398
289.493845,-3775.050304,-7846.182985,995.924147
289.494168,-3182.885551,-5181.441594,2528.115143
289.494490,-3108.864956,-2368.659014,2451.505594
289.494813,-3552.988522,-740.205942,2221.676944
289.495136,-3182.885551,-296.082377,1762.019645
289.495458,-2072.576638,-1480.411884,153.219100
289.495781,-444.123565,-3701.029710,-1915.238745
289.496104,1036.288319,-5699.585753,-3600.648841
289.496426,1628.453072,-8438.347739,-4213.525239
289.496749,1924.535449,-11843.295072,-4290.134789
289.497071,1554.432478,-15026.180623,-4749.792088
289.497394,518.144159,-17468.860231,-5132.839837
289.497717,-962.267725,-18135.045579,-4903.011187
289.498039,-2368.659014,-18061.024985,-4673.182538
289.498362,-3330.926739,-15840.407159,-2757.943793
289.498684,-3034.844362,-12731.542202,-1455.581446
289.499007,-2220.617826,-9178.553681,0.000000
289.499330,-1110.308913,-6661.853478,1608.800546
289.499652,148.041188,-3997.112087,2604.724693
289.499975,888.247130,-2368.659014,2911.162892
289.500298,1258.350101,-2590.720797,1915.238745
289.500620,1480.411884,-3182.885551,459.657299
289.500943,2146.597232,-4367.215058,-919.314598
289.501265,1480.411884,-6513.812290,-2145.067394
289.501588,592.164754,-9474.636058,-2451.505594
289.501911,148.041188,-12583.501014,-3830.477490
289.502233,-296.082377,-14285.974681,-4826.401637
289.502556,-962.267725,-16062.468941,-5439.278036
289.502878,-1554.432478,-17098.757260,-4903.011187
289.503201,-1702.473667,-16580.613101,-4366.744339
289.503524,-1776.494261,-14508.036463,-2374.896044
289.503846,-1628.453072,-11325.150913,-612.876398
289.504169,-1406.391290,-8734.430116,153.219100
289.504492,-1110.308913,-6291.750507,766.095498
289.504814,-1406.391290,-3775.050304,2374.896044
289.505137,-2072.576638,-1554.432478,2451.505594
289.505459,-1998.556043,-1776.494261,2145.067394
289.505782,-888.247130,-2368.659014,1302.362347
289.506105,740.205942,-3182.885551,-612.876398
289.506427,2368.659014,-4515.256246,-1991.848295
289.506750,3552.988522,-6661.853478,-3217.601092
289.507073,3701.029710,-9474.636058,-4213.525239
289.507395,3108.864956,-12287.418637,-4749.792088
289.507718,2072.576638,-15396.283594,-4903.011187
289.508040,814.226536,-17912.983796,-5515.887586
289.508363,-962.267725,-18801.230927,-4903.011187
289.508686,-2146.597232,-17912.983796,-3753.867940
289.509008,-2368.659014,-15544.324782,-1991.848295
289.509331,-1850.514855,-12435.459826,-306.438199
289.509653,-296.082377,-8808.450710,919.314598
289.509976,1110.308913,-5773.606348,1685.410096
289.510299,1110.308913,-3182.885551,1915.238745
289.510621,592.164754,-1924.535449,3294.210641
289.510944,370.102971,-1628.453072,2911.162892
289.511267,666.185348,-2590.720797,-229.828649
289.511589,1480.411884,-5477.523971,-2528.115143
289.511912,1480.411884,-7994.224174,-3064.381992
289.512234,1036.288319,-10807.006753,-3447.429741
289.512557,592.164754,-13249.686362,-3983.696590
289.512880,296.082377,-14804.118840,-4366.744339
289.513202,0.000000,-15322.262999,-5439.278036
289.513525,-1258.350101,-15470.304188,-5745.716235
289.513848,-2220.617826,-15692.365970,-4979.620737
289.514170,-3034.844362,-14730.098246,-2221.676944
289.514493,-3627.009116,-11991.336260,-612.876398
289.514815,-3552.988522,-8364.327145,459.657299
289.515138,-3034.844362,-5403.503377,1762.019645
289.515461,-2886.803174,-3034.844362,2145.067394
289.515783,-3108.864956,-1406.391290,2528.115143
289.516106,-3182.885551,-592.164754,2604.724693
289.516428,-2368.659014,-962.267725,1072.533697
289.516751,-888.247130,-2590.720797,-1302.362347
289.517074,370.102971,-5107.421000,-2834.553343
289.517396,962.267725,-7994.224174,-3677.258390
289.517719,888.247130,-11177.109724,-4443.353888
289.518042,1110.308913,-14582.057057,-4903.011187
289.518364,740.205942,-17468.860231,-5286.058936
289.518687,-296.082377,-18431.127956,-5898.935335
289.519009,-1924.535449,-18209.066173,-4749.792088
289.519332,-2368.659014,-16950.716072,-3294.210641
289.519655,-2516.700203,-14211.954086,-1608.800546
289.519977,-2146.597232,-10436.903782,0.000000
289.520300,-1406.391290,-7402.059420,1762.019645
289.520622,-592.164754,-4737.318029,2298.286494
289.520945,518.144159,-2960.823768,2911.162892
289.521268,814.226536,-2072.576638,2221.676944
289.521590,1406.391290,-2294.638420,919.314598
289.521913,2146.597232,-3849.070898,-229.828649
289.522236,1702.473667,-5551.544565,-1838.629195
289.522558,962.267725,-8216.285956,-2221.676944
289.522881,0.000000,-11325.150913,-3217.601092
289.523203,-962.267725,-13915.871710,-4673.182538
289.523526,-1332.370696,-15840.407159,-6435.202183
289.523849,-1776.494261,-16654.633695,-6052.154434
289.524171,-1702.473667,-16580.613101,-3830.477490
289.524494,-1850.514855,-15248.242405,-2221.676944
289.524817,-1110.308913,-12287.418637,-995.924147
289.525139,-370.102971,-9696.697840,-383.047749
289.525462,0.000000,-7105.977043,612.876398
289.525784,-666.185348,-4737.318029,1838.629195
289.526107,-1628.453072,-2442.679609,2681.334243
289.526430,-2146.597232,-1184.329507,2757.943793
289.526752,-1406.391290,-888.247130,1762.019645
289.527075,370.102971,-1480.411884,-383.047749
289.527397,1850.514855,-3404.947333,-1608.800546
289.527720,2590.720797,-5995.668130,-2911.162892
289.528043,3182.885551,-9104.533087,-3677.258390
289.528365,3182.885551,-11917.315666,-4290.134789
289.528688,2442.679609,-14878.139434,-4903.011187
289.529011,1036.288319,-17246.798449,-6128.763984
289.529333,-444.123565,-18209.066173,-6665.030833
289.529656,-2146.597232,-17838.963202,-4903.011187
289.529978,-2368.659014,-16580.613101,-2834.553343
289.530301,-1850.514855,-13619.789333,-1302.362347
289.530624,-814.226536,-10584.944971,383.047749
289.530946,666.185348,-7550.100608,1685.410096
289.531269,1554.432478,-5477.523971,1991.848295
289.531592,1332.370696,-3701.029710,2451.505594
289.531914,592.164754,-1924.535449,3447.429741
289.532237,370.102971,-1184.329507,1225.752797
289.532559,444.123565,-3404.947333,-1991.848295
289.532882,962.267725,-6661.853478,-3830.477490
289.533205,1258.350101,-9844.739029,-3907.087040
289.533527,1184.329507,-13027.624579,-3983.696590
289.533850,1036.288319,-15470.304188,-3830.477490
289.534172,888.247130,-16950.716072,-3600.648841
289.534495,148.041188,-16210.510130,-4366.744339
289.534818,-1776.494261,-15174.221811,-4596.572988
289.535140,-2960.823768,-14211.954086,-2834.553343
289.535463,-3182.885551,-11843.295072,-1685.410096
289.535786,-2516.700203,-8438.347739,-995.924147
289.536108,-1702.473667,-6513.812290,1225.752797
289.536431,-1554.432478,-4811.338623,2987.772442
289.536753,-1702.473667,-3108.864956,4136.915689
289.537076,-2368.659014,-1628.453072,3294.210641
289.537399,-2516.700203,-1258.350101,1838.629195
289.537721,-1628.453072,-1406.391290,-383.047749
289.538044,-1110.308913,-2960.823768,-2757.943793
289.538366,-592.164754,-5773.606348,-3677.258390
289.538689,0.000000,-8956.491898,-4290.134789
289.539011,296.082377,-12657.521608,-4826.401637
289.539334,222.061783,-16284.530724,-4749.792088
289.539656,-962.267725,-18727.210333,-4673.182538
289.539979,-2664.741391,-19393.395680,-4826.401637
289.540301,-3701.029710,-18357.107362,-4213.525239
289.540624,-3701.029710,-15322.262999,-2987.772442
289.540946,-3256.906145,-11103.089130,-1532.190996
289.541269,-1628.453072,-7179.997637,76.609550
289.541591,-666.185348,-4367.215058,1532.190996
289.541914,518.144159,-3108.864956,2298.286494
289.542236,1036.288319,-3182.885551,2681.334243
289.542559,1776.494261,-3997.112087,1608.800546
289.542881,2072.576638,-4885.359217,612.876398
289.543204,2442.679609,-5921.647536,-1378.971896
289.543526,2146.597232,-7698.141797,-2451.505594
289.543849,962.267725,-9622.677246,-3140.991542
289.544171,222.061783,-11843.295072,-4213.525239
289.544494,-370.102971,-14434.015869,-5286.058936
289.544816,-1332.370696,-16580.613101,-5515.887586
289.545139,-1628.453072,-17542.880825,-4519.963438
289.545461,-1850.514855,-16654.633695,-2911.162892
289.545784,-1924.535449,-13915.871710,-1072.533697
289.546106,-1480.411884,-10214.842000,0.000000
289.546429,-1628.453072,-6883.915261,536.266849
289.546751,-1628.453072,-4219.173869,1225.752797
289.547074,-2368.659014,-2146.597232,1685.410096
289.547396,-2664.741391,-1776.494261,1762.019645
289.547719,-2072.576638,-2294.638420,1225.752797
289.548041,-444.123565,-2960.823768,383.047749
289.548364,1628.453072,-4219.173869,-1072.533697
289.548686,3182.885551,-6291.750507,-2221.676944
289.549009,4071.132681,-8438.347739,-3370.820191
289.549331,3775.050304,-10510.924376,-4596.572988
289.549654,2812.782580,-13175.665768,-4903.011187
289.549976,1924.535449,-15544.324782,-5209.449386
289.550299,592.164754,-17764.942608,-5822.325785
289.550621,-444.123565,-18727.210333,-4060.306139
289.550944,-740.205942,-17468.860231,-2221.676944
289.551266,-296.082377,-14804.118840,-459.657299
289.551589,222.061783,-11399.171507,1149.143247
289.551911,740.205942,-7402.059420,1685.410096
289.552234,888.247130,-4441.235652,2221.676944
289.552556,370.102971,-2146.597232,2145.067394
289.552879,0.000000,-1480.411884,2451.505594
289.553201,444.123565,-2294.638420,1149.143247
289.553524,1036.288319,-3997.112087,-842.705048
289.553846,1184.329507,-7031.956449,-2911.162892
289.554169,1036.288319,-9918.759623,-3217.601092
289.554491,962.267725,-12361.439231,-4213.525239
289.554813,222.061783,-14434.015869,-5669.106685
289.555136,-888.247130,-15470.304188,-5439.278036
289.555458,-1480.411884,-15248.242405,-5515.887586
289.555781,-2294.638420,-15174.221811,-5209.449386
289.556103,-2590.720797,-14952.160028,-4060.306139
289.556426,-2886.803174,-13767.830521,-2221.676944
289.556748,-2146.597232,-11103.089130,-153.219100
289.557071,-1480.411884,-7105.977043,1762.019645
289.557393,-1924.535449,-4515.256246,2911.162892
289.557716,-2146.597232,-2442.679609,3140.991542
289.558038,-2368.659014,-1036.288319,2681.334243
289.558361,-2294.638420,-518.144159,1915.238745
289.558683,-1554.432478,-1036.288319,612.876398
289.559006,-962.267725,-2960.823768,-1991.848295
289.559328,222.061783,-5921.647536,-3370.820191
289.559651,814.226536,-8734.430116,-3753.867940
289.559973,666.185348,-12213.398043,-4290.134789
289.560296,370.102971,-15766.386565,-4903.011187
289.560618,-1036.288319,-18209.066173,-6281.983084
289.560941,-2516.700203,-18801.230927,-5822.325785
289.561263,-3627.009116,-18431.127956,-4979.620737
289.561586,-3627.009116,-16506.592507,-3447.429741
289.561908,-3552.988522,-12805.562797,-1685.410096
289.562231,-2368.659014,-8586.388927,229.828649
289.562553,-1184.329507,-5625.565159,1608.800546
289.562876,0.000000,-3849.070898,2987.772442
289.563198,518.144159,-2590.720797,3064.381992
289.563521,888.247130,-2294.638420,2451.505594
289.563843,1776.494261,-2812.782580,1685.410096
289.564166,1998.556043,-3478.967927,-612.876398
289.564488,1480.411884,-5995.668130,-2374.896044
289.564811,592.164754,-9104.533087,-2374.896044
289.565133,-518.144159,-12065.356855,-3600.648841
289.565456,-888.247130,-14285.974681,-4749.792088
289.565778,-518.144159,-16950.716072,-6052.154434
289.566101,-1110.308913,-18209.066173,-5132.839837
289.566423,-1258.350101,-17172.777854,-3677.258390
289.566746,-962.267725,-14582.057057,-2068.457845
289.567068,-592.164754,-11251.130318,-766.095498
289.567391,0.000000,-7920.203579,0.000000
289.567713,296.082377,-5699.585753,766.095498
289.568036,-740.205942,-3330.926739,1991.848295
289.568358,-1628.453072,-2072.576638,2528.115143
289.568681,-1628.453072,-1998.556043,2374.896044
289.569003,-444.123565,-2368.659014,1072.533697
289.569326,1036.288319,-2664.741391,-383.047749
289.569648,1998.556043,-4219.173869,-2221.676944
289.569971,2442.679609,-6809.894666,-3217.601092
289.570293,2368.659014,-9548.656652,-4060.306139
289.570616,1776.494261,-12287.418637,-5056.230287
289.570938,1110.308913,-15174.221811,-5515.887586
289.571261,370.102971,-17987.004391,-6052.154434
289.571583,-592.164754,-18949.272115,-5209.449386
289.571906,-888.247130,-18061.024985,-3524.039291
289.572228,-518.144159,-15914.427753,-1991.848295
289.572551,370.102971,-12583.501014,306.438199
289.572873,1332.370696,-9474.636058,1455.581446
289.573196,2072.576638,-5847.626942,2145.067394
289.573518,1998.556043,-3404.947333,2145.067394
289.573841,1702.473667,-2368.659014,2757.943793
289.574163,1628.453072,-2516.700203,2451.505594
289.574486,1628.453072,-2886.803174,536.266849
289.574808,1628.453072,-5403.503377,-1532.190996
289.575131,888.247130,-8142.265362,-2451.505594
289.575453,814.226536,-10658.965565,-3600.648841
289.575775,74.020594,-13101.645173,-4749.792088
289.576098,-814.226536,-14878.139434,-4903.011187
289.576420,-1702.473667,-15914.427753,-4903.011187
289.576743,-2516.700203,-16062.468941,-4596.572988
289.577065,-3849.070898,-14952.160028,-3753.867940
289.577388,-3923.091493,-13915.871710,-2987.772442
289.577710,-3256.906145,-12065.356855,-2221.676944
289.578033,-2368.659014,-8882.471304,0.000000
289.578355,-2294.638420,-5625.565159,1915.238745
289.578678,-2590.720797,-3330.926739,2911.162892
289.579000,-2960.823768,-1628.453072,3294.210641
289.579323,-2886.803174,-740.205942,2298.286494
289.579645,-2886.803174,-888.247130,76.609550
289.579968,-2072.576638,-2590.720797,-1608.800546
289.580290,-888.247130,-5033.400406,-2987.772442
289.580613,0.000000,-7994.224174,-3294.210641
289.580935,370.102971,-10955.047942,-3600.648841
289.581258,370.102971,-14656.077652,-3983.696590
289.581580,-370.102971,-17246.798449,-5286.058936
289.581903,-1480.411884,-18727.210333,-5669.106685
289.582225,-3034.844362,-18727.210333,-4749.792088
289.582548,-3404.947333,-17172.777854,-3600.648841
289.582870,-2960.823768,-14211.954086,-1685.410096
289.583193,-1702.473667,-10288.862594,153.219100
289.583515,-518.144159,-6957.935855,1378.971896
289.583838,0.000000,-4145.153275,2374.896044
289.584160,444.123565,-2368.659014,2604.724693
289.584483,666.185348,-1924.535449,2681.334243
289.584805,814.226536,-2442.679609,1072.533697
289.585128,1110.308913,-4293.194464,-1225.752797
289.585450,740.205942,-6217.729913,-2451.505594
289.585773,0.000000,-8660.409521,-2757.943793
289.586095,-814.226536,-11695.253884,-3447.429741
289.586418,-888.247130,-13767.830521,-4519.963438
289.586740,-1628.453072,-15914.427753,-5056.230287
289.587063,-1628.453072,-16876.695478,-5132.839837
289.587385,-1406.391290,-16654.633695,-4213.525239
289.587708,-814.226536,-15100.201217,-2528.115143
289.588030,370.102971,-11769.274478,-919.314598
289.588353,1036.288319,-8438.347739,229.828649
289.588675,888.247130,-5921.647536,1532.190996
289.588998,222.061783,-3849.070898,2604.724693
289.589320,-814.226536,-2220.617826,2451.505594
289.589643,-1628.453072,-1702.473667,1838.629195
289.589965,-1258.350101,-1924.535449,689.485948
289.590288,296.082377,-3330.926739,-536.266849
289.590610,1554.432478,-4589.276840,-2145.067394
289.590933,2442.679609,-6809.894666,-2834.553343
289.591255,2960.823768,-9622.677246,-3983.696590
289.591578,2516.700203,-12287.418637,-4826.401637
289.591900,2220.617826,-15766.386565,-5362.668486
289.592223,518.144159,-17690.922014,-5822.325785
289.592545,-518.144159,-18653.189738,-5822.325785
289.592868,-888.247130,-18135.045579,-3983.696590
289.593190,-592.164754,-16580.613101,-1915.238745
289.593513,296.082377,-13027.624579,536.266849
289.593835,1480.411884,-9474.636058,1685.410096
289.594158,2368.659014,-6143.709319,2221.676944
289.594480,2664.741391,-3552.988522,2757.943793
289.594803,2146.597232,-1554.432478,3370.820191
289.595125,1924.535449,-1480.411884,3140.991542
289.595448,1184.329507,-2368.659014,229.828649
289.595770,814.226536,-5033.400406,-1762.019645
289.596093,0.000000,-7624.121203,-2451.505594
289.596415,-962.267725,-10436.903782,-3294.210641
289.596737,-1184.329507,-12583.501014,-4213.525239
289.597060,-1628.453072,-14508.036463,-5362.668486
289.597382,-1998.556043,-16210.510130,-5592.497135
289.597705,-3404.947333,-16284.530724,-5132.839837
289.598027,-4811.338623,-15766.386565,-3524.039291
289.598350,-5329.482782,-14211.954086,-2298.286494
289.598672,-4811.338623,-11177.109724,-2298.286494
289.598995,-3701.029710,-8808.450710,-1378.971896
289.599317,-2664.741391,-5921.647536,383.047749
289.599640,-2146.597232,-3701.029710,2221.676944
289.599962,-1850.514855,-2146.597232,3524.039291
289.600285,-1554.432478,-1332.370696,3217.601092
289.600607,-888.247130,-1110.308913,1378.971896
289.600930,-518.144159,-2664.741391,-995.924147
289.601252,0.000000,-5107.421000,-2757.943793
289.601575,0.000000,-7624.121203,-3447.429741
289.601897,222.061783,-10436.903782,-3753.867940
289.602220,444.123565,-13323.706956,-4749.792088
289.602542,0.000000,-16506.592507,-5362.668486
289.602865,-962.267725,-18431.127956,-5209.449386
289.603187,-2664.741391,-18801.230927,-4826.401637
289.603510,-3478.967927,-17542.880825,-3524.039291
289.603832,-3108.864956,-15026.180623,-2451.505594
289.604155,-2590.720797,-10881.027347,-919.314598
289.604477,-1554.432478,-7179.997637,536.266849
289.604800,-370.102971,-4515.256246,1455.581446
289.605122,0.000000,-2442.679609,2298.286494
289.605445,296.082377,-1628.453072,2374.896044
289.605767,740.205942,-1480.411884,919.314598
289.606090,666.185348,-3701.029710,-1225.752797
289.606412,1036.288319,-6587.832884,-2834.553343
289.606735,814.226536,-9178.553681,-3830.477490
289.607057,444.123565,-11843.295072,-4290.134789
289.607380,222.061783,-13915.871710,-3983.696590
289.607702,444.123565,-15988.448347,-4673.182538
289.608025,222.061783,-16580.613101,-4903.011187
289.608347,0.000000,-16506.592507,-3907.087040
289.608670,-148.041188,-14878.139434,-1838.629195
289.608992,518.144159,-12065.356855,-842.705048
289.609315,1480.411884,-9326.594869,-229.828649
289.609637,2220.617826,-6513.812290,1302.362347
289.609960,1776.494261,-4293.194464,2604.724693
289.610282,888.247130,-2738.761985,3677.258390
289.610605,0.000000,-1924.535449,3370.820191
289.610927,-444.123565,-1406.391290,1991.848295
289.611250,0.000000,-2220.617826,-383.047749
289.611572,592.164754,-4367.215058,-2374.896044
289.611895,1184.329507,-6883.915261,-3447.429741
289.612217,1036.288319,-9548.656652,-4826.401637
289.612540,1258.350101,-12213.398043,-4903.011187
289.612862,1258.350101,-15396.283594,-5898.935335
289.613185,518.144159,-17616.901420,-6511.811733
289.613507,-1036.288319,-18727.210333,-6205.373534
289.613830,-1702.473667,-18505.148550,-4290.134789
289.614152,-1480.411884,-16654.633695,-2451.505594
289.614475,-814.226536,-13397.727550,-1072.533697
289.614797,-222.061783,-9474.636058,995.924147
289.615120,444.123565,-5699.585753,2451.505594
289.615442,1258.350101,-3034.844362,3140.991542
289.615765,1702.473667,-1332.370696,3524.039291
289.616087,1924.535449,-1036.288319,3217.601092
289.616410,2146.597232,-2294.638420,1455.581446
289.616732,2294.638420,-4293.194464,-689.485948
289.617055,1406.391290,-7328.038826,-1685.410096
289.617377,592.164754,-10510.924376,-3064.381992
289.617700,370.102971,-13027.624579,-4519.963438
289.618022,0.000000,-14582.057057,-5822.325785
289.618344,-1184.329507,-16210.510130,-5822.325785
289.618667,-2146.597232,-16654.633695,-5439.278036
289.618989,-3108.864956,-16580.613101,-4213.525239
289.619312,-3849.070898,-14878.139434,-1991.848295
289.619634,-4293.194464,-12435.459826,-1915.238745
289.619957,-3849.070898,-9474.636058,-842.705048
289.620279,-3182.885551,-6587.832884,536.266849
289.620602,-3034.844362,-3775.050304,2068.457845
289.620924,-3182.885551,-1480.411884,3524.039291
289.621247,-3256.906145,-222.061783,2911.162892
289.621569,-2738.761985,-296.082377,1915.238745
289.621892,-2072.576638,-1776.494261,-459.657299
289.622214,-1332.370696,-4145.153275,-2528.115143
289.622537,-1184.329507,-7476.080014,-3294.210641
289.622859,-1036.288319,-10066.800811,-4290.134789
289.623182,-222.061783,-13249.686362,-4979.620737
289.623504,-592.164754,-15914.427753,-6205.373534
289.623827,-740.205942,-17838.963202,-6665.030833
289.624149,-1554.432478,-18431.127956,-5822.325785
289.624472,-1554.432478,-17764.942608,-4060.306139
289.624794,-1184.329507,-15618.345376,-3217.601092
289.625117,-1184.329507,-12361.439231,-995.924147
289.625439,-222.061783,-9252.574275,842.705048
289.625762,148.041188,-5995.668130,2221.676944
289.626084,222.061783,-3404.947333,2528.115143
289.626407,148.041188,-2072.576638,2681.334243
289.626729,370.102971,-740.205942,1532.190996
289.627052,1406.391290,-1184.329507,-229.828649
289.627374,2072.576638,-3849.070898,-2298.286494
289.627697,1998.556043,-7476.080014,-3140.991542
289.628019,1110.308913,-11177.109724,-3217.601092
289.628342,222.061783,-13989.892304,-4519.963438
289.628664,-148.041188,-16728.654289,-4903.011187
289.628987,-296.082377,-18061.024985,-5439.278036
289.629309,-666.185348,-17320.819043,-5132.839837
289.629632,-666.185348,-15322.262999,-2757.943793
289.629954,-222.061783,-12657.521608,-536.266849
289.630277,1258.350101,-10066.800811,-689.485948
289.630599,1998.556043,-7328.038826,229.828649
289.630922,1628.453072,-5107.421000,2145.067394
289.631244,148.041188,-3478.967927,3370.820191
289.631567,-962.267725,-2516.700203,3447.429741
289.631889,-2072.576638,-1850.514855,2374.896044
289.632212,-1184.329507,-1998.556043,229.828649
289.632534,-222.061783,-3108.864956,-1838.629195
289.632857,444.123565,-5329.482782,-2451.505594
289.633179,222.061783,-7772.162391,-2757.943793
289.633502,1110.308913,-11251.130318,-4443.353888
289.633824,1406.391290,-14434.015869,-5132.839837
289.634147,1036.288319,-17246.798449,-6435.202183
289.634469,74.020594,-18875.251521,-6435.202183
289.634792,-1036.288319,-19245.354492,-4519.963438
289.635114,-1406.391290,-17542.880825,-2528.115143
289.635437,-444.123565,-14952.160028,-995.924147
289.635759,296.082377,-11399.171507,76.609550
289.636082,1036.288319,-7624.121203,1608.800546
289.636404,1332.370696,-4737.318029,2987.772442
289.636727,1406.391290,-2294.638420,4060.306139
289.637049,1628.453072,-1184.329507,3753.867940
289.637372,1924.535449,-1480.411884,2145.067394
289.637694,2146.597232,-2590.720797,76.609550
289.638017,1702.473667,-5181.441594,-1685.410096
289.638332,592.164754,-7994.224174,-2757.943793
289.638654,74.020594,-11473.192101,-3140.991542
289.638977,-962.267725,-13545.768739,-4826.401637
289.639299,-1184.329507,-15840.407159,-5745.716235
289.639622,-2294.638420,-16802.674883,-5592.497135
289.639944,-3108.864956,-16432.571912,-4596.572988
289.640267,-3552.988522,-14434.015869,-2834.553343
289.640589,-3256.906145,-12805.562797,-2528.115143
289.640911,-2516.700203,-10510.924376,-1378.971896
289.641234,-2368.659014,-6957.935855,383.047749
289.641556,-2442.679609,-4737.318029,1838.629195
289.641879,-2812.782580,-3775.050304,2451.505594
289.642201,-3182.885551,-2368.659014,2757.943793
289.642524,-3182.885551,-962.267725,1762.019645
289.642846,-2368.659014,-1258.350101,-153.219100
289.643169,-1628.453072,-3034.844362,-1762.019645
289.643491,-814.226536,-5921.647536,-3064.381992
289.643814,0.000000,-8734.430116,-3217.601092
289.644136,222.061783,-11473.192101,-4290.134789
289.644459,0.000000,-15026.180623,-5592.497135
289.644781,-370.102971,-17838.963202,-6281.983084
289.645104,-1184.329507,-19023.292709,-5898.935335
289.645426,-2072.576638,-18727.210333,-4826.401637
289.645748,-1850.514855,-16728.654289,-2987.772442
289.646071,-1332.370696,-13323.706956,-1608.800546
289.646393,-814.226536,-9178.553681,0.000000
289.646716,-148.041188,-5773.606348,1455.581446
289.647038,0.000000,-3627.009116,2068.457845
289.647361,74.020594,-2072.576638,2374.896044
289.647683,296.082377,-1406.391290,1532.190996
289.648006,444.123565,-1998.556043,0.000000
289.648328,1184.329507,-4071.132681,-1915.238745
289.648651,1036.288319,-7105.977043,-3064.381992
289.648973,-222.061783,-9844.739029,-2757.943793
289.649296,-148.041188,-12509.480420,-4136.915689
289.649618,-592.164754,-15396.283594,-4979.620737
289.649941,-740.205942,-17468.860231,-5362.668486
289.650263,-888.247130,-17394.839637,-5056.230287
289.650585,-962.267725,-15544.324782,-3370.820191
289.650908,-370.102971,-13175.665768,-1378.971896
289.651230,962.267725,-10881.027347,-766.095498
289.651553,1924.535449,-8734.430116,-459.657299
289.651875,1924.535449,-5921.647536,1762.019645
289.652198,814.226536,-3923.091493,3294.210641
289.652520,-814.226536,-2886.803174,3064.381992
289.652843,-888.247130,-2368.659014,2374.896044
289.653165,-814.226536,-2072.576638,612.876398
289.653488,148.041188,-2738.761985,-1149.143247
289.653810,740.205942,-4515.256246,-2374.896044
289.654133,1554.432478,-6883.915261,-2221.676944
289.654455,1850.514855,-9622.677246,-4213.525239
289.654778,1776.494261,-13027.624579,-4903.011187
289.655100,1184.329507,-16358.551318,-5745.716235
289.655423,222.061783,-18801.230927,-5975.544884
289.655745,-666.185348,-19615.457463,-5209.449386
289.656067,-888.247130,-18135.045579,-2987.772442
289.656390,-518.144159,-15618.345376,-1378.971896
289.656712,148.041188,-11917.315666,76.609550
289.657035,962.267725,-8216.285956,1685.410096
289.657357,1776.494261,-4959.379811,2757.943793
289.657680,1924.535449,-2516.700203,3064.381992
289.658002,888.247130,-1554.432478,3294.210641
289.658325,1258.350101,-1850.514855,2604.724693
289.658647,1258.350101,-2812.782580,612.876398
289.658970,1036.288319,-4811.338623,-1225.752797
289.659292,370.102971,-7698.141797,-1991.848295
289.659615,-222.061783,-10362.883188,-3600.648841
289.659937,-1110.308913,-12953.603985,-4749.792088
289.660260,-1776.494261,-15026.180623,-5362.668486
289.660582,-2516.700203,-16358.551318,-5362.668486
289.660904,-3108.864956,-16432.571912,-5056.230287
289.661227,-2886.803174,-16284.530724,-4213.525239
289.661549,-3256.906145,-14137.933492,-2451.505594
289.661872,-2516.700203,-11473.192101,-1072.533697
289.662194,-2442.679609,-8068.244768,306.438199
289.662517,-2442.679609,-5181.441594,1915.238745
289.662839,-2442.679609,-3552.988522,2298.286494
289.663162,-2738.761985,-1850.514855,2221.676944
289.663484,-3108.864956,-962.267725,2298.286494
289.663807,-2812.782580,-1628.453072,919.314598
289.664129,-2072.576638,-2960.823768,-995.924147
289.664452,-888.247130,-5181.441594,-2451.505594
289.664774,-444.123565,-7402.059420,-3600.648841
289.665097,-296.082377,-10955.047942,-4443.353888
289.665419,-222.061783,-14211.954086,-5286.058936
289.665741,-296.082377,-17172.777854,-6052.154434
289.666064,-962.267725,-18653.189738,-5669.106685
289.666386,-888.247130,-18727.210333,-4979.620737
289.666709,-1554.432478,-17320.819043,-3217.601092
289.667031,-1258.350101,-14211.954086,-1685.410096
289.667354,-518.144159,-10066.800811,-153.219100
289.667676,444.123565,-6809.894666,1072.533697
289.667999,1036.288319,-4293.194464,2221.676944
289.668321,370.102971,-2368.659014,3064.381992
289.668644,222.061783,-1110.308913,2374.896044
289.668966,444.123565,-1184.329507,995.924147
289.669289,814.226536,-3108.864956,-1685.410096
289.669611,1036.288319,-6069.688724,-2987.772442
289.669934,518.144159,-8882.471304,-3370.820191
289.670256,-296.082377,-11917.315666,-4596.572988
289.670578,-740.205942,-14878.139434,-5132.839837
289.670901,-592.164754,-17542.880825,-5669.106685
289.671223,-518.144159,-18135.045579,-5745.716235
289.671546,-666.185348,-16654.633695,-4826.401637
289.671868,-518.144159,-14285.974681,-2374.896044
289.672191,666.185348,-11917.315666,-536.266849
289.672513,1850.514855,-8734.430116,0.000000
289.672836,2294.638420,-6069.688724,1149.143247
289.673158,1406.391290,-3923.091493,1991.848295
289.673481,0.000000,-2516.700203,4060.306139
289.673803,-666.185348,-2294.638420,3370.820191
289.674126,-1036.288319,-1924.535449,1991.848295
289.674448,-370.102971,-2146.597232,76.609550
289.674771,666.185348,-3775.050304,-1685.410096
289.675093,1036.288319,-6143.709319,-2451.505594
289.675416,1110.308913,-9178.553681,-4060.306139
289.675738,740.205942,-11991.336260,-4903.011187
289.676060,592.164754,-15544.324782,-5515.887586
289.676383,0.000000,-18135.045579,-6205.373534
289.676705,-1184.329507,-19171.333898,-5898.935335
289.677028,-1850.514855,-18949.272115,-4673.182538
289.677350,-1554.432478,-17320.819043,-2298.286494
289.677673,-666.185348,-14211.954086,-383.047749
289.677995,0.000000,-9696.697840,1149.143247
289.678318,518.144159,-5995.668130,2298.286494
289.678640,1406.391290,-2590.720797,3524.039291
289.678963,1036.288319,-888.247130,3524.039291
289.679285,1184.329507,-888.247130,2987.772442
289.679608,1554.432478,-1776.494261,1838.629195
289.679930,1924.535449,-4071.132681,0.000000
289.680253,1628.453072,-6735.874072,-1072.533697
289.680575,666.185348,-9770.718434,-2374.896044
289.680897,296.082377,-12583.501014,-3753.867940
289.681220,0.000000,-14434.015869,-4826.401637
289.681542,-1184.329507,-15988.448347,-5286.058936
289.681865,-2146.597232,-16358.551318,-4213.525239
289.682187,-2516.700203,-15914.427753,-4060.306139
289.682510,-3108.864956,-14285.974681,-3064.381992
289.682832,-3034.844362,-12583.501014,-1685.410096
289.683155,-2516.700203,-9474.636058,-459.657299
289.683477,-2442.679609,-6291.750507,842.705048
289.683800,-2368.659014,-4145.153275,2374.896044
289.684122,-3034.844362,-2442.679609,2681.334243
289.684445,-2960.823768,-1110.308913,2298.286494
289.684767,-3108.864956,-740.205942,995.924147
289.685090,-2442.679609,-2072.576638,-995.924147
289.685412,-1258.350101,-4293.194464,-2451.505594
289.685734,-370.102971,-7179.997637,-3447.429741
289.686057,0.000000,-9992.780217,-4060.306139
289.686379,222.061783,-13915.871710,-4903.011187
289.686702,444.123565,-17098.757260,-5439.278036
289.687024,0.000000,-18727.210333,-6281.983084
289.687347,-666.185348,-18949.272115,-5669.106685
289.687669,-1184.329507,-17542.880825,-4060.306139
289.687992,-814.226536,-15100.201217,-2451.505594
289.688314,-592.164754,-11325.150913,-689.485948
289.688637,-296.082377,-7772.162391,1149.143247
289.688959,74.020594,-4663.297435,1762.019645
289.689282,222.061783,-2960.823768,2145.067394
289.689604,-592.164754,-1332.370696,2374.896044
289.689927,-888.247130,-1184.329507,995.924147
289.690249,-222.061783,-2442.679609,-1455.581446
289.690572,666.185348,-5403.503377,-2834.553343
289.690894,296.082377,-7994.224174,-3983.696590
289.691216,-666.185348,-11621.233289,-4443.353888
289.691539,-1332.370696,-14434.015869,-4903.011187
289.691861,-1480.411884,-16580.613101,-5439.278036
289.692184,-1628.453072,-17912.983796,-6435.202183
289.692506,-1258.350101,-17468.860231,-5515.887586
289.692829,-1332.370696,-15396.283594,-3294.210641
289.693151,0.000000,-12509.480420,-1225.752797
289.693474,1258.350101,-9400.615463,0.000000
289.693796,1850.514855,-6365.771101,995.924147
289.694119,1628.453072,-4293.194464,2604.724693
289.694441,-296.082377,-2664.741391,3524.039291
289.694764,-1554.432478,-2294.638420,3370.820191
289.695086,-1850.514855,-2072.576638,2145.067394
289.695409,-888.247130,-2146.597232,229.828649
289.695731,592.164754,-2960.823768,-1378.971896
289.696053,1998.556043,-5329.482782,-2374.896044
289.696376,2072.576638,-8142.265362,-3217.601092
289.696698,1850.514855,-11695.253884,-4443.353888
289.697021,1406.391290,-14878.139434,-5056.230287
289.697343,814.226536,-18431.127956,-6128.763984
289.697666,-1110.308913,-19837.519246,-5975.544884
289.697988,-1924.535449,-19837.519246,-4749.792088
289.698311,-1850.514855,-17616.901420,-2451.505594
289.698633,-1184.329507,-14211.954086,-459.657299
289.698956,0.000000,-9770.718434,1149.143247
289.699278,1110.308913,-5921.647536,2451.505594
289.699601,1406.391290,-2664.741391,3140.991542
289.699923,888.247130,-1850.514855,3983.696590
289.700246,296.082377,-1184.329507,3524.039291
289.700568,888.247130,-2294.638420,1991.848295
289.700890,1184.329507,-3923.091493,0.000000
289.701213,666.185348,-6069.688724,-1149.143247
289.701535,0.000000,-9030.512492,-2374.896044
289.701858,-148.041188,-11547.212695,-3447.429741
289.702180,-296.082377,-13989.892304,-4903.011187
289.702503,-814.226536,-15544.324782,-5286.058936
289.702825,-1702.473667,-16432.571912,-4903.011187
289.703148,-2368.659014,-15692.365970,-3907.087040
289.703470,-2590.720797,-15322.262999,-2681.334243
289.703793,-2368.659014,-13249.686362,-1455.581446
289.704115,-1850.514855,-10066.800811,-229.828649
289.704438,-1554.432478,-6365.771101,306.438199
289.704760,-1258.350101,-4071.132681,1762.019645
289.705083,-1554.432478,-2516.700203,2911.162892
289.705405,-2072.576638,-1184.329507,2834.553343
289.705728,-2368.659014,-888.247130,1991.848295
289.706050,-1776.494261,-1850.514855,0.000000
289.706372,-888.247130,-3552.988522,-2451.505594
289.706695,-370.102971,-6217.729913,-3064.381992
289.707017,-296.082377,-9104.533087,-3907.087040
289.707340,-444.123565,-12287.418637,-4596.572988
289.707662,-296.082377,-15544.324782,-5362.668486
289.707985,-1036.288319,-18135.045579,-6205.373534
289.708307,-1776.494261,-18949.272115,-5745.716235
289.708630,-2072.576638,-18653.189738,-4673.182538
289.708952,-1702.473667,-16432.571912,-2987.772442
289.709275,-1110.308913,-12805.562797,-1149.143247
289.709597,-222.061783,-8438.347739,766.095498
289.709920,666.185348,-4959.379811,1991.848295
289.710242,888.247130,-3330.926739,1302.362347
289.710565,666.185348,-1998.556043,1915.238745
289.710887,74.020594,-1628.453072,1532.190996
289.711209,148.041188,-2516.700203,-612.876398
289.711532,1036.288319,-4737.318029,-2681.334243
289.711854,666.185348,-7846.182985,-3140.991542
289.712177,-148.041188,-10584.944971,-4060.306139
289.712499,-1184.329507,-13175.665768,-4213.525239
289.712822,-1184.329507,-15840.407159,-4903.011187
289.713144,-1184.329507,-17468.860231,-5822.325785
289.713467,-1480.411884,-17320.819043,-5209.449386
289.713789,-1554.432478,-15988.448347,-3524.039291
289.714112,-666.185348,-13397.727550,-1838.629195
289.714434,1036.288319,-10881.027347,-919.314598
289.714757,1776.494261,-7846.182985,76.609550
289.715079,1036.288319,-4589.276840,2451.505594
289.715402,-222.061783,-3404.947333,2834.553343
289.715724,-1332.370696,-2738.761985,2757.943793
289.716046,-2368.659014,-2442.679609,1991.848295
289.716369,-2368.659014,-2072.576638,76.609550
289.716691,-1776.494261,-2664.741391,-1915.238745
289.717014,-296.082377,-5107.421000,-2604.724693
289.717336,518.144159,-8068.244768,-3600.648841
289.717659,444.123565,-10658.965565,-4213.525239
289.717981,888.247130,-13915.871710,-4826.401637
289.718304,444.123565,-16802.674883,-5056.230287
289.718626,444.123565,-19245.354492,-6128.763984
289.718949,-814.226536,-19245.354492,-4673.182538
289.719271,-592.164754,-17320.819043,-2298.286494
289.719594,296.082377,-14285.974681,-383.047749
289.719916,1702.473667,-10362.883188,1149.143247
289.720239,2960.823768,-6661.853478,2451.505594
289.720561,3552.988522,-3849.070898,2911.162892
289.720884,2960.823768,-2072.576638,3907.087040
289.721206,2368.659014,-1628.453072,3753.867940
289.721528,2146.597232,-1850.514855,2451.505594
289.721851,1628.453072,-3478.967927,536.266849
289.722173,888.247130,-6143.709319,-1455.581446
289.722496,-518.144159,-8216.285956,-2451.505594
289.722818,-1110.308913,-10584.944971,-3830.477490
289.723141,-962.267725,-13249.686362,-5132.839837
289.723463,-962.267725,-15248.242405,-5592.497135
289.723786,-1850.514855,-16062.468941,-5209.449386
289.724108,-2960.823768,-16284.530724,-3983.696590
289.724431,-3182.885551,-15766.386565,-2834.553343
289.724753,-3256.906145,-13693.809927,-2298.286494
289.725076,-2664.741391,-10955.047942,-1838.629195
289.725398,-2294.638420,-7179.997637,-536.266849
289.725721,-1332.370696,-4737.318029,1915.238745
289.726043,-1258.350101,-2960.823768,2757.943793
289.726365,-1332.370696,-1480.411884,3294.210641
289.726688,-1036.288319,-888.247130,2145.067394
289.727010,-296.082377,-1184.329507,229.828649
289.727333,-222.061783,-3478.967927,-2068.457845
289.727655,-740.205942,-6735.874072,-2757.943793
289.727978,-1036.288319,-9252.574275,-3983.696590
289.728300,-814.226536,-12139.377449,-4903.011187
289.728623,-666.185348,-14878.139434,-5669.106685
289.728945,-592.164754,-17246.798449,-6665.030833
289.729268,-1332.370696,-18653.189738,-5898.935335
289.729590,-1850.514855,-18505.148550,-4519.963438
289.729913,-1776.494261,-17172.777854,-3064.381992
289.730235,-1036.288319,-14211.954086,-1762.019645
289.730558,-740.205942,-9918.759623,-229.828649
289.730880,370.102971,-5847.626942,1072.533697
289.731202,296.082377,-3108.864956,1991.848295
289.731525,222.061783,-1258.350101,2145.067394
289.731847,0.000000,-1036.288319,1532.190996
289.732170,518.144159,-2146.597232,0.000000
289.732492,518.144159,-4145.153275,-2068.457845
289.732815,0.000000,-7402.059420,-3064.381992
289.733137,-888.247130,-10732.986159,-3600.648841
289.733460,-1480.411884,-13323.706956,-4060.306139
289.733782,-1776.494261,-15100.201217,-4903.011187
289.734105,-1776.494261,-16062.468941,-5286.058936
289.734427,-2072.576638,-16432.571912,-5515.887586
289.734750,-1850.514855,-15618.345376,-4136.915689
289.735072,-888.247130,-13841.851115,-1915.238745
289.735395,296.082377,-10881.027347,-766.095498
289.735717,1850.514855,-8438.347739,-306.438199
289.736040,1332.370696,-6143.709319,1762.019645
289.736362,740.205942,-4219.173869,3217.601092
289.736684,-740.205942,-2738.761985,3294.210641
289.737007,-1554.432478,-2146.597232,2298.286494
289.737329,-1628.453072,-1702.473667,459.657299
289.737652,-814.226536,-2368.659014,-919.314598
289.737974,0.000000,-4219.173869,-2681.334243
289.738297,814.226536,-7476.080014,-3447.429741
289.738619,1184.329507,-10955.047942,-4366.744339
289.738941,1480.411884,-14285.974681,-4596.572988
289.739264,1332.370696,-16506.592507,-4979.620737
289.739586,222.061783,-18357.107362,-5592.497135
289.739909,-296.082377,-18949.272115,-5362.668486
289.740231,-592.164754,-17764.942608,-3217.601092
289.740553,-518.144159,-14730.098246,-842.705048
289.740876,296.082377,-11177.109724,842.705048
289.741198,1258.350101,-7402.059420,2145.067394
289.741521,1924.535449,-4515.256246,2681.334243
289.741843,1998.556043,-2442.679609,3294.210641
289.742165,1628.453072,-1480.411884,3370.820191
289.742488,1702.473667,-1480.411884,2374.896044
289.742810,2072.576638,-2960.823768,766.095498
289.743132,1702.473667,-5403.503377,-919.314598
289.743455,518.144159,-8290.306550,-1991.848295
289.743777,0.000000,-10881.027347,-3524.039291
289.744100,-296.082377,-13249.686362,-4903.011187
289.744422,-370.102971,-15100.201217,-5515.887586
289.744744,-962.267725,-16432.571912,-5822.325785
289.745067,-1554.432478,-16580.613101,-4443.353888
289.745389,-2220.617826,-15840.407159,-2987.772442
289.745712,-1998.556043,-13915.871710,-1455.581446
289.746034,-1702.473667,-11103.089130,-1149.143247
289.746356,-1332.370696,-7031.956449,0.000000
289.746679,-1406.391290,-4737.318029,1378.971896
289.747001,-1702.473667,-3256.906145,2834.553343
289.747323,-2146.597232,-1850.514855,3600.648841
289.747646,-2072.576638,-1110.308913,2604.724693
289.747968,-1850.514855,-1184.329507,689.485948
289.748291,-1110.308913,-3182.885551,-1225.752797
289.748613,-666.185348,-5995.668130,-3140.991542
289.748935,-592.164754,-8956.491898,-4213.525239
289.749258,-444.123565,-11769.274478,-4903.011187
289.749580,-148.041188,-14878.139434,-5439.278036
289.749903,-518.144159,-17616.901420,-5975.544884
289.750225,-1184.329507,-18949.272115,-6128.763984
289.750547,-1850.514855,-18949.272115,-4979.620737
289.750870,-2294.638420,-17320.819043,-3447.429741
289.751192,-1776.494261,-14211.954086,-1838.629195
289.751514,-1258.350101,-9622.677246,-383.047749
289.751837,-370.102971,-5033.400406,1149.143247
289.752159,296.082377,-2960.823768,1762.019645
289.752482,222.061783,-1628.453072,1991.848295
289.752804,-370.102971,-1110.308913,1991.848295
289.753126,-444.123565,-1702.473667,536.266849
289.753449,0.000000,-4071.132681,-1915.238745
289.753771,148.041188,-7254.018232,-3447.429741
289.754094,-962.267725,-9918.759623,-4136.915689
289.754416,-1850.514855,-12509.480420,-4443.353888
289.754738,-2146.597232,-14878.139434,-4903.011187
289.755061,-2294.638420,-16506.592507,-5745.716235
289.755383,-2072.576638,-17320.819043,-5975.544884
289.755705,-1776.494261,-16654.633695,-4903.011187
289.756028,-1110.308913,-14952.160028,-2757.943793
289.756350,0.000000,-12435.459826,-842.705048
289.756673,1480.411884,-9326.594869,229.828649
289.756995,1554.432478,-6069.688724,1838.629195
289.757317,444.123565,-3849.070898,2987.772442
289.757640,-1036.288319,-2590.720797,3447.429741
289.757962,-2220.617826,-1702.473667,2834.553343
289.758285,-2368.659014,-1406.391290,689.485948
289.758607,-1628.453072,-2072.576638,-306.438199
289.758929,-222.061783,-3923.091493,-1838.629195
289.759252,814.226536,-6587.832884,-2757.943793
289.759574,1480.411884,-9548.656652,-4213.525239
289.759896,1628.453072,-13175.665768,-4749.792088
289.760219,1258.350101,-16136.489536,-4443.353888
289.760541,814.226536,-18653.189738,-6128.763984
289.760864,-296.082377,-19541.436869,-5822.325785
289.761186,-666.185348,-18727.210333,-3830.477490
289.761508,0.000000,-15988.448347,-1532.190996
289.761831,1036.288319,-11917.315666,459.657299
289.762153,2590.720797,-7772.162391,1608.800546
289.762476,3182.885551,-4293.194464,2681.334243
289.762798,3256.906145,-2220.617826,3447.429741
289.763120,2590.720797,-962.267725,4060.306139
289.763443,2072.576638,-1184.329507,3217.601092
289.763765,1480.411884,-2072.576638,1915.238745
289.764087,1850.514855,-5033.400406,-612.876398
289.764410,740.205942,-7476.080014,-1915.238745
289.764732,-148.041188,-9844.739029,-3447.429741
289.765055,0.000000,-12509.480420,-4366.744339
289.765377,-296.082377,-14582.057057,-4903.011187
289.765699,-370.102971,-16062.468941,-5515.887586
289.766022,-1110.308913,-16950.716072,-5132.839837
289.766344,-1850.514855,-16580.613101,-3830.477490
289.766667,-2294.638420,-15174.221811,-2221.676944
289.766989,-1998.556043,-12139.377449,-1149.143247
289.767311,-962.267725,-8512.368333,-995.924147
289.767634,-962.267725,-5477.523971,689.485948
289.767956,-1110.308913,-3552.988522,2757.943793
289.768278,-1480.411884,-2072.576638,4060.306139
289.768601,-2220.617826,-1184.329507,3294.210641
289.768923,-2516.700203,-666.185348,1762.019645
289.769246,-2368.659014,-2072.576638,-383.047749
289.769568,-2220.617826,-4219.173869,-2451.505594
289.769890,-2220.617826,-6957.935855,-4290.134789
289.770213,-2294.638420,-10140.821405,-5286.058936
289.770535,-1850.514855,-13841.851115,-5898.935335
289.770858,-1850.514855,-17172.777854,-6358.592633
289.771180,-2590.720797,-19393.395680,-6588.421283
289.771502,-2960.823768,-19911.539840,-5898.935335
289.771825,-2442.679609,-18949.272115,-4519.963438
289.772147,-1776.494261,-16062.468941,-2451.505594
289.772469,-740.205942,-11547.212695,-153.219100
289.772792,148.041188,-7031.956449,1072.533697
289.773114,1036.288319,-3775.050304,1762.019645
289.773437,888.247130,-2072.576638,2604.724693
289.773759,222.061783,-1480.411884,2604.724693
289.774081,-444.123565,-1332.370696,1608.800546
289.774404,-222.061783,-3182.885551,-1072.533697
289.774726,-222.061783,-5625.565159,-2221.676944
289.775049,-814.226536,-8216.285956,-3140.991542
289.775371,-1702.473667,-10955.047942,-4290.134789
289.775693,-2220.617826,-13323.706956,-5056.230287
289.776016,-1702.473667,-15544.324782,-5132.839837
289.776338,-1924.535449,-17172.777854,-5975.544884
289.776660,-1702.473667,-17690.922014,-5439.278036
289.776983,-888.247130,-16580.613101,-3677.258390
289.777305,814.226536,-14285.974681,-1532.190996
289.777628,2072.576638,-10362.883188,0.000000
289.777950,2886.803174,-7254.018232,689.485948
289.778272,1998.556043,-4145.153275,2374.896044
289.778595,74.020594,-2590.720797,3294.210641
289.778917,-1406.391290,-1702.473667,3140.991542
289.779240,-2294.638420,-1702.473667,1608.800546
289.779562,-2146.597232,-1480.411884,-306.438199
289.779884,-962.267725,-3404.947333,-1762.019645
289.780207,518.144159,-5773.606348,-2451.505594
289.780529,1776.494261,-8808.450710,-3370.820191
289.780851,1998.556043,-12139.377449,-3907.087040
289.781174,2294.638420,-14730.098246,-4519.963438
289.781496,1776.494261,-17246.798449,-5362.668486
289.781819,740.205942,-18875.251521,-5822.325785
289.782141,370.102971,-18505.148550,-4596.572988
289.782463,518.144159,-16432.571912,-2145.067394
289.782786,1184.329507,-13397.727550,459.657299
289.783108,2072.576638,-9474.636058,1378.971896
289.783431,3034.844362,-6439.791695,2757.943793
289.783753,3034.844362,-3404.947333,3753.867940
289.784075,2590.720797,-1702.473667,3907.087040
289.784398,1258.350101,-666.185348,3294.210641
289.784720,1332.370696,-1480.411884,1915.238745
289.785042,1110.308913,-3108.864956,229.828649
289.785365,444.123565,-6069.688724,-1685.410096
289.785687,-666.185348,-8808.450710,-3600.648841
289.786010,-962.267725,-11843.295072,-4596.572988
289.786332,-814.226536,-14508.036463,-5286.058936
289.786654,-1184.329507,-16654.633695,-5515.887586
289.786977,-2072.576638,-17394.839637,-5362.668486
289.787299,-2590.720797,-16580.613101,-4060.306139
289.787622,-2368.659014,-15100.201217,-2604.724693
289.787944,-2146.597232,-12731.542202,-1915.238745
289.788266,-1702.473667,-9622.677246,-842.705048
289.788589,-1554.432478,-6291.750507,459.657299
289.788911,-1702.473667,-4071.132681,2145.067394
289.789233,-2072.576638,-2960.823768,3447.429741
289.789556,-2960.823768,-2072.576638,3600.648841
289.789878,-3256.906145,-814.226536,2374.896044
289.790201,-3108.864956,-1554.432478,-536.266849
289.790523,-2516.700203,-3627.009116,-2221.676944
289.790845,-2368.659014,-6587.832884,-3447.429741
289.791168,-2072.576638,-9474.636058,-4596.572988
289.791490,-1702.473667,-12435.459826,-5132.839837
289.791813,-962.267725,-15914.427753,-5898.935335
289.792135,-1480.411884,-19023.292709,-6665.030833
289.792457,-2072.576638,-19911.539840,-6052.154434
289.792780,-2442.679609,-19541.436869,-4596.572988
289.793102,-2072.576638,-16654.633695,-2451.505594
289.793424,-1258.350101,-12509.480420,-766.095498
289.793747,-296.082377,-8290.306550,153.219100
289.794069,296.082377,-4589.276840,1378.971896
289.794392,592.164754,-2294.638420,2221.676944
289.794714,0.000000,-1110.308913,2451.505594
289.795036,0.000000,-888.247130,2451.505594
289.795359,0.000000,-2516.700203,76.609550
289.795681,74.020594,-4811.338623,-1991.848295
289.796004,-222.061783,-7624.121203,-2987.772442
289.796326,-962.267725,-10288.862594,-3753.867940
289.796648,-1184.329507,-12879.583391,-4749.792088
289.796971,-1036.288319,-15470.304188,-5286.058936
289.797293,-962.267725,-17098.757260,-5669.106685
289.797615,-962.267725,-17098.757260,-5439.278036
289.797938,-222.061783,-16358.551318,-4290.134789
289.798260,1184.329507,-14434.015869,-1991.848295
289.798583,2516.700203,-11029.068536,-536.266849
289.798905,3034.844362,-7920.203579,612.876398
289.799227,2590.720797,-5255.462188,2068.457845
289.799550,888.247130,-3627.009116,3217.601092
289.799872,-814.226536,-2368.659014,3064.381992
289.800195,-2220.617826,-1998.556043,1991.848295
289.800517,-2368.659014,-1406.391290,0.000000
289.800839,-740.205942,-2516.700203,-1762.019645
289.801162,1036.288319,-4589.276840,-2451.505594
289.801484,1776.494261,-7402.059420,-2911.162892
289.801806,2072.576638,-11177.109724,-3830.477490
289.802129,1850.514855,-14434.015869,-4749.792088
289.802451,1258.350101,-17246.798449,-5898.935335
289.802774,296.082377,-18949.272115,-6205.373534
289.803096,-296.082377,-19245.354492,-5056.230287
289.803418,-518.144159,-17394.839637,-2451.505594
289.803741,-222.061783,-13989.892304,0.000000
289.804063,1406.391290,-10214.842000,1225.752797
289.804386,2368.659014,-6365.771101,2451.505594
289.804708,2738.761985,-3478.967927,2911.162892
289.805030,1924.535449,-1850.514855,3294.210641
289.805353,814.226536,-1332.370696,3907.087040
289.805675,444.123565,-2146.597232,2451.505594
289.805997,0.000000,-3701.029710,153.219100
289.806320,-222.061783,-5995.668130,-1532.190996
289.806642,-1036.288319,-8290.306550,-3064.381992
289.806965,-1332.370696,-10955.047942,-4060.306139
289.807287,-814.226536,-13175.665768,-4290.134789
289.807609,-592.164754,-15470.304188,-4903.011187
289.807932,-1184.329507,-16506.592507,-5515.887586
289.808254,-2368.659014,-16728.654289,-4673.182538
289.808577,-2516.700203,-15988.448347,-3064.381992
289.808899,-3034.844362,-13101.645173,-2068.457845
289.809221,-2442.679609,-10807.006753,-919.314598
289.809544,-2294.638420,-7105.977043,306.438199
289.809866,-2072.576638,-4071.132681,1532.190996
289.810188,-2146.597232,-2812.782580,2451.505594
289.810511,-2220.617826,-1924.535449,3447.429741
289.810833,-2516.700203,-1776.494261,1991.848295
289.811156,-2220.617826,-1554.432478,229.828649
289.811478,-1924.535449,-3256.906145,-1915.238745
289.811800,-1628.453072,-6291.750507,-3294.210641
289.812123,-1998.556043,-9104.533087,-4366.744339
289.812445,-1776.494261,-12213.398043,-4903.011187
289.812768,-1480.411884,-15174.221811,-6052.154434
289.813090,-1628.453072,-17987.004391,-6971.469032
289.813412,-1850.514855,-19541.436869,-6358.592633
289.813735,-1998.556043,-19467.416275,-4749.792088
289.814057,-1036.288319,-17542.880825,-2757.943793
289.814379,0.000000,-14063.912898,-1838.629195
289.814702,888.247130,-9548.656652,0.000000
289.815024,1554.432478,-5403.503377,1378.971896
289.815347,1332.370696,-2738.761985,1991.848295
289.815669,888.247130,-1924.535449,2757.943793
289.815991,0.000000,-1036.288319,2145.067394
289.816314,222.061783,-1998.556043,0.000000
289.816636,296.082377,-4219.173869,-1915.238745
289.816959,592.164754,-7105.977043,-2987.772442
289.817281,-370.102971,-9770.718434,-3524.039291
289.817603,-962.267725,-12065.356855,-4213.525239
289.817926,-1258.350101,-14508.036463,-4519.963438
289.818248,-1258.350101,-16506.592507,-5286.058936
289.818570,-1628.453072,-16950.716072,-5669.106685
289.818893,-1480.411884,-16432.571912,-4366.744339
289.819215,222.061783,-15100.201217,-2298.286494
289.819538,2072.576638,-11843.295072,-459.657299
289.819860,3108.864956,-8734.430116,612.876398
289.820182,2960.823768,-5699.585753,2145.067394
289.820505,1332.370696,-3701.029710,3524.039291
289.820827,-444.123565,-2590.720797,2987.772442
289.821150,-1998.556043,-1850.514855,2911.162892
289.821472,-2368.659014,-1850.514855,306.438199
289.821794,-1628.453072,-2220.617826,-842.705048
289.822117,-148.041188,-3849.070898,-1915.238745
289.822439,1036.288319,-6809.894666,-2911.162892
289.822761,1702.473667,-10140.821405,-3524.039291
289.823084,1850.514855,-13915.871710,-4366.744339
289.823406,1110.308913,-16358.551318,-5209.449386
289.823729,0.000000,-18357.107362,-5975.544884
289.824051,-740.205942,-19097.313304,-5362.668486
289.824373,-740.205942,-18283.086767,-3217.601092
289.824696,-592.164754,-14952.160028,-1072.533697
289.825018,296.082377,-11251.130318,76.609550
289.825341,1406.391290,-7328.038826,1685.410096
289.825663,2664.741391,-4589.276840,2451.505594
289.825985,2368.659014,-2590.720797,3217.601092
289.826308,1184.329507,-1406.391290,3983.696590
289.826630,444.123565,-1776.494261,2528.115143
289.826952,666.185348,-3034.844362,383.047749
289.827275,222.061783,-4663.297435,-1685.410096
289.827597,-740.205942,-6809.894666,-2681.334243
289.827920,-1332.370696,-9326.594869,-3830.477490
289.828242,-1998.556043,-12435.459826,-5132.839837
289.828564,-1480.411884,-15174.221811,-5286.058936
289.828887,-1702.473667,-16876.695478,-6128.763984
289.829209,-2294.638420,-17542.880825,-5439.278036
289.829532,-2368.659014,-16210.510130,-3370.820191
289.829854,-1776.494261,-14359.995275,-1991.848295
289.830176,-1184.329507,-11843.295072,-1225.752797
289.830499,-814.226536,-8216.285956,-383.047749
289.830821,-888.247130,-4885.359217,995.924147
289.831143,-1184.329507,-3182.885551,2298.286494
289.831466,-1850.514855,-2442.679609,3140.991542
289.831788,-2146.597232,-2368.659014,2068.457845
289.832111,-2146.597232,-2072.576638,383.047749
289.832433,-1628.453072,-2812.782580,-1072.533697
289.832755,-1110.308913,-5181.441594,-2528.115143
289.833078,-1332.370696,-7328.038826,-3217.601092
289.833400,-1258.350101,-10732.986159,-4673.182538
289.833723,-1702.473667,-13841.851115,-5669.106685
289.834045,-1850.514855,-17024.736666,-6205.373534
289.834367,-2368.659014,-19023.292709,-6665.030833
289.834690,-2516.700203,-19393.395680,-5286.058936
289.835012,-1480.411884,-18431.127956,-3600.648841
289.835334,-666.185348,-15026.180623,-1302.362347
289.835657,666.185348,-10881.027347,153.219100
289.835979,1628.453072,-6291.750507,1225.752797
289.836302,1850.514855,-3034.844362,1915.238745
289.836624,1406.391290,-1628.453072,2451.505594
289.836946,814.226536,-1332.370696,1838.629195
289.837269,518.144159,-1924.535449,919.314598
289.837591,592.164754,-4145.153275,-995.924147
289.837914,518.144159,-6735.874072,-1991.848295
289.838236,0.000000,-9326.594869,-2374.896044
289.838558,-592.164754,-11473.192101,-3677.258390
289.838881,-370.102971,-13767.830521,-4366.744339
289.839203,-592.164754,-15618.345376,-4519.963438
289.839525,-1036.288319,-16358.551318,-4903.011187
289.839848,-1110.308913,-16210.510130,-4366.744339
289.840170,-370.102971,-15100.201217,-2221.676944
289.840493,740.205942,-12509.480420,-766.095498
289.840815,1406.391290,-9548.656652,306.438199
289.841137,1110.308913,-6809.894666,1378.971896
289.841460,296.082377,-4663.297435,2834.553343
289.841782,-814.226536,-3034.844362,2757.943793
289.842105,-1850.514855,-2368.659014,2068.457845
289.842427,-2886.803174,-1850.514855,995.924147
289.842750,-2146.597232,-1998.556043,-995.924147
289.843072,-814.226536,-3404.947333,-2451.505594
289.843395,148.041188,-6291.750507,-3524.039291
289.843717,1184.329507,-9770.718434,-3753.867940
289.844039,1258.350101,-13101.645173,-4366.744339
289.844362,1110.308913,-15766.386565,-4673.182538
289.844684,814.226536,-17838.963202,-5592.497135
289.845007,370.102971,-19097.313304,-5209.449386
289.845329,0.000000,-18431.127956,-3370.820191
289.845652,518.144159,-15766.386565,-1072.533697
289.845974,814.226536,-11621.233289,383.047749
289.846297,1776.494261,-7698.141797,1608.800546
289.846619,2442.679609,-4737.318029,2145.067394
289.846941,2072.576638,-3034.844362,2911.162892
289.847264,1406.391290,-2220.617826,2757.943793
289.847586,888.247130,-1998.556043,2451.505594
289.847909,666.185348,-2960.823768,842.705048
289.848231,592.164754,-4737.318029,-1455.581446
289.848554,0.000000,-6661.853478,-2987.772442
289.848876,-592.164754,-9178.553681,-4366.744339
289.849199,-666.185348,-12435.459826,-4826.401637
289.849521,-1036.288319,-14508.036463,-5515.887586
289.849843,-1332.370696,-16580.613101,-5975.544884
289.850166,-2146.597232,-17320.819043,-5515.887586
289.850488,-2368.659014,-17098.757260,-3907.087040
289.850811,-2738.761985,-14730.098246,-1915.238745
289.851133,-2294.638420,-11991.336260,-1225.752797
289.851456,-1702.473667,-8364.327145,-612.876398
289.851778,-1406.391290,-5255.462188,536.266849
289.852101,-1184.329507,-3330.926739,2298.286494
289.852423,-1332.370696,-2368.659014,3447.429741
289.852745,-2516.700203,-1628.453072,3217.601092
289.853068,-2294.638420,-1480.411884,1532.190996
289.853390,-1924.535449,-2368.659014,-459.657299
289.853713,-1554.432478,-4663.297435,-2528.115143
289.854035,-1184.329507,-7698.141797,-4749.792088
289.854358,-1480.411884,-10658.965565,-4596.572988
289.854680,-962.267725,-13767.830521,-5515.887586
289.855003,-1036.288319,-16876.695478,-6052.154434
289.855325,-1480.411884,-19097.313304,-6511.811733
289.855647,-1998.556043,-19763.498651,-6052.154434
289.855970,-1258.350101,-18653.189738,-4443.353888
289.856292,-740.205942,-15914.427753,-2451.505594
289.856615,0.000000,-11621.233289,-612.876398
289.856937,814.226536,-7105.977043,842.705048
289.857260,1184.329507,-3256.906145,1838.629195
289.857582,1258.350101,-2072.576638,2298.286494
289.857905,592.164754,-1110.308913,2528.115143
289.858227,222.061783,-1406.391290,1532.190996
289.858549,222.061783,-2886.803174,-383.047749
289.858872,518.144159,-5699.585753,-1378.971896
289.859194,148.041188,-8438.347739,-2681.334243
289.859517,-666.185348,-10436.903782,-2757.943793
289.859839,-1406.391290,-13027.624579,-4366.744339
289.860162,-1702.473667,-15396.283594,-4903.011187
289.860484,-1776.494261,-16654.633695,-5669.106685
289.860807,-2146.597232,-17024.736666,-4979.620737
289.861129,-1776.494261,-16358.551318,-3447.429741
289.861451,-370.102971,-14434.015869,-1608.800546
289.861774,1110.308913,-11177.109724,-536.266849
289.862096,2220.617826,-7994.224174,536.266849
289.862419,1702.473667,-5033.400406,2374.896044
289.862741,666.185348,-3478.967927,3447.429741
289.863064,-1036.288319,-2072.576638,3370.820191
289.863386,-1850.514855,-1702.473667,1685.410096
289.863709,-1850.514855,-1776.494261,-229.828649
289.864031,-444.123565,-2886.803174,-1302.362347
289.864353,222.061783,-4737.318029,-1991.848295
289.864676,1554.432478,-7772.162391,-3294.210641
289.864998,1702.473667,-11769.274478,-3753.867940
289.865321,1480.411884,-14656.077652,-4519.963438
289.865643,814.226536,-17172.777854,-5362.668486
289.865966,-444.123565,-18727.210333,-5745.716235
289.866288,-1406.391290,-18801.230927,-5132.839837
289.866611,-1554.432478,-16506.592507,-2298.286494
289.866933,-1110.308913,-13027.624579,-689.485948
289.867255,148.041188,-9400.615463,153.219100
289.867578,1480.411884,-5921.647536,1302.362347
289.867900,2442.679609,-3404.947333,2681.334243
289.868223,2220.617826,-2146.597232,3140.991542
289.868545,1480.411884,-1850.514855,3140.991542
289.868868,1184.329507,-2220.617826,1762.019645
289.869190,814.226536,-4293.194464,-459.657299
289.869513,74.020594,-6661.853478,-2221.676944
289.869835,-1554.432478,-8660.409521,-3217.601092
289.870157,-1332.370696,-10658.965565,-4749.792088
289.870480,-1036.288319,-13545.768739,-5209.449386
289.870802,-666.185348,-15766.386565,-5592.497135
289.871125,-1036.288319,-17024.736666,-5515.887586
289.871447,-1776.494261,-17098.757260,-3907.087040
289.871770,-1554.432478,-16210.510130,-2757.943793
289.872092,-1258.350101,-13767.830521,-1685.410096
289.872415,-444.123565,-10362.883188,-919.314598
289.872737,-518.144159,-6587.832884,306.438199
289.873059,-444.123565,-3997.112087,2451.505594
289.873382,-592.164754,-2960.823768,2528.115143
289.873704,-1702.473667,-2072.576638,2757.943793
289.874027,-1924.535449,-1998.556043,1532.190996
289.874349,-2072.576638,-2442.679609,-306.438199
289.874672,-1776.494261,-4515.256246,-2221.676944
289.874994,-1850.514855,-6661.853478,-3217.601092
289.875317,-1924.535449,-9326.594869,-4443.353888
289.875639,-1924.535449,-12065.356855,-5745.716235
289.875961,-1776.494261,-15396.283594,-6281.983084
289.876284,-1702.473667,-18061.024985,-6818.249932
289.876606,-2072.576638,-19023.292709,-5669.106685
289.876929,-2220.617826,-18949.272115,-4366.744339
289.877251,-1406.391290,-17098.757260,-1991.848295
289.877574,-296.082377,-12731.542202,-306.438199
289.877896,888.247130,-7698.141797,766.095498
289.878219,1924.535449,-4219.173869,1455.581446
289.878541,2220.617826,-1776.494261,2451.505594
289.878863,1924.535449,-888.247130,3294.210641
289.879186,1480.411884,-1110.308913,2451.505594
289.879508,1110.308913,-2960.823768,995.924147
289.879831,962.267725,-5403.503377,-536.266849
289.880153,222.061783,-7179.997637,-1838.629195
289.880476,-444.123565,-10214.842000,-3294.210641
289.880798,-1406.391290,-12287.418637,-4519.963438
289.881121,-1406.391290,-14508.036463,-5056.230287
289.881443,-1628.453072,-16062.468941,-5209.449386
289.881765,-2294.638420,-17024.736666,-4979.620737
289.882088,-2368.659014,-16876.695478,-3830.477490
289.882410,-1554.432478,-15470.304188,-2451.505594
289.882733,-222.061783,-12657.521608,-1149.143247
289.883055,666.185348,-9178.553681,-153.219100
289.883378,888.247130,-5625.565159,1378.971896
289.883700,222.061783,-3182.885551,2834.553343
289.884023,-444.123565,-1480.411884,3524.039291
289.884345,-1480.411884,-1036.288319,2374.896044
289.884667,-2072.576638,-1406.391290,689.485948
289.884990,-1628.453072,-2812.782580,-1072.533697
289.885312,-444.123565,-5329.482782,-2221.676944
289.885635,1110.308913,-8290.306550,-3447.429741
289.885957,1702.473667,-11251.130318,-3677.258390
289.886280,1702.473667,-13841.851115,-3983.696590
289.886602,1554.432478,-16062.468941,-4749.792088
289.886925,592.164754,-17690.922014,-4979.620737
289.887247,-444.123565,-18283.086767,-4443.353888
289.887569,-962.267725,-17468.860231,-2987.772442
289.887892,-740.205942,-14434.015869,-1378.971896
289.888214,0.000000,-10732.986159,0.000000
289.888537,1110.308913,-7402.059420,1608.800546
289.888859,2294.638420,-3997.112087,2834.553343
289.889182,1628.453072,-2072.576638,3524.039291
289.889504,740.205942,-1036.288319,3447.429741
289.889827,222.061783,-1110.308913,1532.190996
289.890149,222.061783,-3034.844362,-383.047749
289.890471,-296.082377,-5625.565159,-1991.848295
289.890794,-666.185348,-8438.347739,-3753.867940
289.891116,-1036.288319,-10584.944971,-4213.525239
289.891439,-148.041188,-13545.768739,-4749.792088
289.891761,148.041188,-15396.283594,-5439.278036
289.892084,-222.061783,-16728.654289,-5592.497135
289.892406,-1036.288319,-16876.695478,-4673.182538
289.892729,-1110.308913,-15914.427753,-2911.162892
289.893051,-888.247130,-13619.789333,-1915.238745
289.893373,-592.164754,-10658.965565,-1378.971896
289.893696,-592.164754,-7402.059420,383.047749
289.894018,-370.102971,-5255.462188,2298.286494
289.894341,-888.247130,-3256.906145,3600.648841
289.894663,-2072.576638,-2516.700203,3370.820191
289.894986,-2590.720797,-1776.494261,1762.019645
289.895308,-3108.864956,-1702.473667,0.000000
289.895631,-2516.700203,-3256.906145,-2374.896044
289.895953,-1998.556043,-6217.729913,-3830.477490
289.896275,-1554.432478,-9326.594869,-5286.058936
289.896598,-1406.391290,-12435.459826,-5515.887586
289.896920,-888.247130,-15618.345376,-5898.935335
289.897243,-814.226536,-18505.148550,-6435.202183
289.897565,-1258.350101,-19837.519246,-6052.154434
289.897888,-1406.391290,-19615.457463,-4749.792088
289.898210,-1554.432478,-16876.695478,-2834.553343
289.898533,-1036.288319,-13027.624579,-995.924147
289.898855,-222.061783,-8438.347739,306.438199
289.899177,1110.308913,-4811.338623,1608.800546
289.899500,888.247130,-2442.679609,2298.286494
289.899822,962.267725,-1332.370696,3217.601092
289.900145,444.123565,-962.267725,2834.553343
289.900467,296.082377,-1998.556043,1302.362347
289.900790,518.144159,-4293.194464,0.000000
289.901112,814.226536,-7031.956449,-2145.067394
289.901435,-370.102971,-9178.553681,-3830.477490
289.901757,-666.185348,-11843.295072,-4826.401637
289.902079,-1036.288319,-14359.995275,-4519.963438
289.902402,-1036.288319,-16580.613101,-5132.839837
289.902724,-1480.411884,-17690.922014,-5592.497135
289.903047,-2368.659014,-16950.716072,-4443.353888
289.903369,-1998.556043,-15692.365970,-2451.505594
289.903692,-592.164754,-12731.542202,-1149.143247
289.904014,222.061783,-9030.512492,76.609550
289.904337,814.226536,-5847.626942,1685.410096
289.904659,370.102971,-3108.864956,3524.039291
289.904981,-592.164754,-1924.535449,3830.477490
289.905304,-1702.473667,-1480.411884,3370.820191
289.905626,-2442.679609,-1480.411884,1685.410096
289.905949,-1850.514855,-2368.659014,-459.657299
289.906271,-148.041188,-4145.153275,-1378.971896
289.906594,1258.350101,-6735.874072,-3447.429741
289.906916,1850.514855,-9548.656652,-4060.306139
289.907239,1776.494261,-12953.603985,-4596.572988
289.907561,1628.453072,-16062.468941,-4826.401637
289.907883,888.247130,-18357.107362,-5592.497135
289.908206,0.000000,-19319.375086,-5132.839837
289.908528,-666.185348,-19097.313304,-3600.648841
289.908851,-518.144159,-16136.489536,-1838.629195
289.909173,296.082377,-11769.274478,76.609550
289.909496,1776.494261,-7254.018232,1455.581446
289.909818,2960.823768,-3997.112087,2451.505594
289.910141,2590.720797,-2072.576638,2757.943793
289.910463,1554.432478,-1480.411884,3524.039291
289.910785,740.205942,-1924.535449,2681.334243
289.911108,222.061783,-3330.926739,459.657299
289.911430,-148.041188,-5477.523971,-1608.800546
289.911753,-666.185348,-7179.997637,-3370.820191
289.912075,-1184.329507,-9696.697840,-4366.744339
289.912398,-962.267725,-12361.439231,-4903.011187
289.912720,-666.185348,-14434.015869,-5362.668486
289.913043,-814.226536,-16284.530724,-6128.763984
289.913365,-1776.494261,-16876.695478,-5592.497135
289.913687,-2146.597232,-17024.736666,-4060.306139
289.914010,-1850.514855,-15544.324782,-2528.115143
289.914332,-1258.350101,-12435.459826,-1302.362347
289.914655,-592.164754,-8660.409521,0.000000
289.914977,-518.144159,-5107.421000,1378.971896
289.915300,-962.267725,-3256.906145,2911.162892
289.915622,-2072.576638,-2664.741391,3524.039291
289.915945,-2812.782580,-2146.597232,2528.115143
289.916267,-3256.906145,-1554.432478,842.705048
289.916589,-2516.700203,-2368.659014,-1072.533697
289.916912,-1998.556043,-3923.091493,-2757.943793
289.917234,-1258.350101,-7254.018232,-4290.134789
289.917557,-1184.329507,-10436.903782,-5286.058936
289.917879,-1184.329507,-14137.933492,-5515.887586
289.918202,-1036.288319,-17246.798449,-6052.154434
289.918524,-1628.453072,-19393.395680,-6511.811733
289.918847,-2294.638420,-19837.519246,-5822.325785
289.919169,-2220.617826,-18653.189738,-3753.867940
289.919491,-1332.370696,-15322.262999,-1532.190996
289.919814,222.061783,-10658.965565,0.000000
289.920136,1258.350101,-5551.544565,1302.362347
289.920459,2368.659014,-2664.741391,1915.238745
289.920781,2072.576638,-1406.391290,2681.334243
289.921104,1258.350101,-1332.370696,2987.772442
289.921426,444.123565,-2072.576638,1838.629195
289.921749,148.041188,-3701.029710,-842.705048
289.922071,444.123565,-6217.729913,-1762.019645
289.922393,-592.164754,-8438.347739,-3064.381992
289.922716,-1184.329507,-10955.047942,-4213.525239
289.923038,-1406.391290,-13397.727550,-4673.182538
289.923361,-1332.370696,-15840.407159,-5362.668486
289.923683,-1332.370696,-17246.798449,-5592.497135
289.924006,-1776.494261,-17616.901420,-5286.058936
289.924328,-1554.432478,-16876.695478,-3140.991542
289.924651,-148.041188,-14656.077652,-1225.752797
289.924973,1258.350101,-10881.027347,0.000000
289.925295,2220.617826,-7031.956449,1302.362347
289.925618,1850.514855,-3849.070898,2681.334243
289.925940,444.123565,-2368.659014,4213.525239
289.926263,-962.267725,-1628.453072,3600.648841
289.926585,-2146.597232,-1480.411884,1991.848295
289.926908,-2220.617826,-1406.391290,612.876398
289.927230,-1258.350101,-2442.679609,-689.485948
289.927553,592.164754,-4885.359217,-2757.943793
289.927875,1924.535449,-7920.203579,-3447.429741
289.928197,1998.556043,-11473.192101,-3830.477490
289.928520,1776.494261,-14582.057057,-4366.744339
289.928842,740.205942,-16876.695478,-5439.278036
289.929165,-370.102971,-19171.333898,-5669.106685
289.929487,-1184.329507,-19467.416275,-4443.353888
289.929810,-1184.329507,-17098.757260,-2604.724693
289.930132,-444.123565,-13249.686362,-766.095498
289.930455,1184.329507,-8438.347739,1302.362347
289.930777,2664.741391,-4885.359217,2604.724693
289.931099,3108.864956,-2738.761985,3140.991542
289.931422,2072.576638,-1628.453072,3524.039291
289.931744,1184.329507,-1332.370696,2911.162892
289.932067,296.082377,-2812.782580,1915.238745
289.932389,148.041188,-4663.297435,-1302.362347
289.932712,-592.164754,-6661.853478,-2604.724693
289.933034,-1332.370696,-8882.471304,-4136.915689
289.933357,-1332.370696,-11251.130318,-4366.744339
289.933679,-962.267725,-13767.830521,-5056.230287
289.934001,-814.226536,-15840.407159,-5975.544884
289.934324,-1480.411884,-17246.798449,-6435.202183
289.934646,-2294.638420,-17690.922014,-4903.011187
289.934969,-2368.659014,-16580.613101,-3064.381992
289.935291,-1628.453072,-13989.892304,-1762.019645
289.935614,-962.267725,-9918.759623,-1302.362347
289.935936,-370.102971,-6439.791695,153.219100
289.936259,-666.185348,-3849.070898,2298.286494
289.936581,-962.267725,-2664.741391,3064.381992
289.936903,-1702.473667,-2220.617826,2604.724693
289.937226,-2368.659014,-1924.535449,1302.362347
289.937548,-2220.617826,-1776.494261,0.000000
289.937871,-1702.473667,-3775.050304,-1991.848295
289.938193,-1554.432478,-5995.668130,-3600.648841
289.938516,-1554.432478,-8956.491898,-4903.011187
289.938838,-1554.432478,-12287.418637,-5515.887586
289.939161,-1702.473667,-15766.386565,-5669.106685
289.939483,-1628.453072,-18579.169144,-6511.811733
289.939805,-2220.617826,-19689.478057,-6128.763984
289.940128,-1998.556043,-19541.436869,-4443.353888
289.940450,-1258.350101,-16950.716072,-2221.676944
289.940773,-444.123565,-13027.624579,-689.485948
289.941095,888.247130,-7920.203579,459.657299
289.941418,1776.494261,-4293.194464,1685.410096
289.941740,1850.514855,-1924.535449,2451.505594
289.942062,1036.288319,-740.205942,2681.334243
289.942385,0.000000,-1480.411884,2145.067394
289.942707,0.000000,-3108.864956,229.828649
289.943030,148.041188,-4885.359217,-1532.190996
289.943352,222.061783,-7698.141797,-2757.943793
289.943674,-148.041188,-10066.800811,-3983.696590
289.943997,-444.123565,-12657.521608,-3983.696590
289.944319,-222.061783,-15026.180623,-4290.134789
289.944642,-740.205942,-16136.489536,-5056.230287
289.944964,-1850.514855,-16728.654289,-5209.449386
289.945286,-2146.597232,-16210.510130,-4366.744339
289.945609,-1258.350101,-14952.160028,-2374.896044
289.945931,296.082377,-12065.356855,-995.924147
289.946253,1776.494261,-8438.347739,536.266849
289.946576,1554.432478,-5625.565159,1915.238745
289.946898,148.041188,-3627.009116,3294.210641
289.947221,-666.185348,-2368.659014,3524.039291
289.947543,-2146.597232,-1628.453072,1608.800546
289.947865,-2738.761985,-1184.329507,-153.219100
289.948188,-2146.597232,-2220.617826,-1608.800546
289.948510,-444.123565,-4145.153275,-2911.162892
289.948833,740.205942,-7105.977043,-4290.134789
289.949155,1480.411884,-10807.006753,-4366.744339
289.949477,1258.350101,-13989.892304,-3907.087040
289.949800,1036.288319,-17098.757260,-4596.572988
289.950122,74.020594,-18949.272115,-5439.278036
289.950445,-888.247130,-19097.313304,-5132.839837
289.950767,-1184.329507,-17320.819043,-3064.381992
289.951089,-592.164754,-13989.892304,-1149.143247
289.951412,1110.308913,-9622.677246,306.438199
289.951734,1998.556043,-6069.688724,1915.238745
289.952057,2442.679609,-3627.009116,2681.334243
289.952379,2072.576638,-2368.659014,3294.210641
289.952701,1110.308913,-1998.556043,3294.210641
289.953024,518.144159,-2590.720797,2145.067394
289.953346,592.164754,-4367.215058,229.828649
289.953668,740.205942,-6069.688724,-2068.457845
289.953991,370.102971,-8216.285956,-2911.162892
289.954313,-222.061783,-10510.924376,-3677.258390
289.954636,0.000000,-13101.645173,-4213.525239
289.954958,296.082377,-15322.262999,-4979.620737
289.955280,-962.267725,-16580.613101,-5209.449386
289.955603,-1998.556043,-17246.798449,-4136.915689
289.955925,-2738.761985,-16432.571912,-2221.676944
289.956248,-2664.741391,-13915.871710,-1455.581446
289.956570,-1924.535449,-10584.944971,-1225.752797
289.956892,-1702.473667,-7550.100608,0.000000
289.957215,-1332.370696,-4515.256246,1762.019645
289.957537,-1998.556043,-2442.679609,3064.381992
289.957860,-2368.659014,-1850.514855,3524.039291
289.958182,-2220.617826,-1776.494261,2528.115143
289.958504,-1554.432478,-1776.494261,153.219100
289.958827,-1184.329507,-3404.947333,-2145.067394
289.959149,-1110.308913,-5921.647536,-3140.991542
289.959471,-962.267725,-9178.553681,-3907.087040
289.959794,-740.205942,-11991.336260,-4673.182538
289.960116,-296.082377,-14804.118840,-5898.935335
289.960439,-962.267725,-17320.819043,-6665.030833
289.960761,-1406.391290,-19245.354492,-6281.983084
289.961083,-1702.473667,-19319.375086,-4749.792088
289.961406,-1480.411884,-17394.839637,-2911.162892
289.961728,-666.185348,-14063.912898,-766.095498
