#time,accel_x,accel_y,accel_z
527.047155,-296.082377,-9548.656652,-1455.581446
527.047478,-296.082377,-9474.636058,-1608.800546
527.047800,-370.102971,-9400.615463,-1838.629195
527.048122,-148.041188,-9474.636058,-1302.362347
527.048445,-592.164754,-9474.636058,-1608.800546
527.048767,-518.144159,-9474.636058,-1608.800546
527.049089,-666.185348,-9400.615463,-1762.019645
527.049412,-444.123565,-9400.615463,-1455.581446
527.049734,-148.041188,-9474.636058,-1685.410096
527.050057,-814.226536,-8956.491898,-1302.362347
527.050379,-370.102971,-9548.656652,-1685.410096
527.050701,-222.061783,-9400.615463,-1685.410096
527.051024,-370.102971,-9400.615463,-1762.019645
527.051346,-296.082377,-8882.471304,-1532.190996
527.051669,-740.205942,-8882.471304,-1608.800546
527.051991,-444.123565,-9178.553681,-1455.581446
527.052313,-370.102971,-8956.491898,-1532.190996
527.052636,-296.082377,-9030.512492,-1532.190996
527.052958,-444.123565,-9178.553681,-1302.362347
527.053280,-370.102971,-9474.636058,-1072.533697
527.053603,-222.061783,-9622.677246,-1302.362347
527.053925,-444.123565,-9474.636058,-1455.581446
527.054248,-444.123565,-9326.594869,-1455.581446
527.054570,-444.123565,-9400.615463,-1608.800546
527.054892,0.000000,-9474.636058,-1685.410096
527.055215,-222.061783,-8956.491898,-1225.752797
527.055537,-222.061783,-9400.615463,-1532.190996
527.055860,-444.123565,-9474.636058,-1532.190996
527.056182,-592.164754,-9400.615463,-1685.410096
527.056504,-592.164754,-9548.656652,-1455.581446
527.056827,-370.102971,-9474.636058,-1378.971896
527.057149,-444.123565,-9474.636058,-1838.629195
527.057471,-444.123565,-9326.594869,-1532.190996
527.057794,-444.123565,-9252.574275,-1532.190996
527.058116,-370.102971,-9326.594869,-1608.800546
527.058439,-296.082377,-9178.553681,-1608.800546
527.058761,-370.102971,-9474.636058,-1455.581446
527.059083,-592.164754,-9474.636058,-1532.190996
527.059406,-666.185348,-9622.677246,-1608.800546
527.059728,-370.102971,-9770.718434,-1608.800546
527.060051,-370.102971,-9770.718434,-1532.190996
527.060373,0.000000,-9326.594869,-1608.800546
527.060695,-222.061783,-9474.636058,-1838.629195
527.061018,-296.082377,-9252.574275,-1532.190996
527.061340,-370.102971,-9474.636058,-1608.800546
527.061663,-444.123565,-9474.636058,-1532.190996
527.061985,-148.041188,-9474.636058,-1455.581446
527.062307,-296.082377,-9400.615463,-1608.800546
527.062630,-444.123565,-9474.636058,-1455.581446
527.062952,-444.123565,-9400.615463,-1532.190996
527.063274,-296.082377,-9178.553681,-1532.190996
527.063597,-148.041188,-9030.512492,-1302.362347
527.063919,-222.061783,-9252.574275,-1532.190996
527.064242,-222.061783,-9326.594869,-1838.629195
527.064564,-370.102971,-9400.615463,-1532.190996
527.064886,-444.123565,-9474.636058,-1532.190996
527.065209,-666.185348,-9400.615463,-1072.533697
527.065531,-444.123565,-9104.533087,-1991.848295
527.065854,-666.185348,-8956.491898,-1532.190996
527.066176,-444.123565,-9104.533087,-1532.190996
527.066498,-444.123565,-9104.533087,-1455.581446
527.066821,-296.082377,-9252.574275,-1608.800546
527.067143,-296.082377,-9178.553681,-1915.238745
527.067465,-444.123565,-9474.636058,-1532.190996
527.067788,-370.102971,-9252.574275,-1532.190996
527.068110,-296.082377,-9474.636058,-1532.190996
527.068433,-518.144159,-9474.636058,-1608.800546
527.068755,0.000000,-9178.553681,-1455.581446
527.069077,-222.061783,-9178.553681,-1915.238745
527.069400,-148.041188,-9400.615463,-1685.410096
527.069722,-296.082377,-9326.594869,-1378.971896
527.070045,-370.102971,-9474.636058,-1378.971896
527.070367,-444.123565,-9548.656652,-1608.800546
527.070689,-148.041188,-9548.656652,-1762.019645
527.071012,-370.102971,-9474.636058,-1838.629195
527.071334,-518.144159,-9474.636058,-1608.800546
527.071656,-592.164754,-9770.718434,-1455.581446
527.071979,-666.185348,-9474.636058,-1455.581446
527.072301,0.000000,-9400.615463,-1762.019645
527.072624,-518.144159,-9178.553681,-1685.410096
527.072946,-592.164754,-9474.636058,-1685.410096
527.073268,-592.164754,-9622.677246,-1532.190996
527.073591,-592.164754,-9548.656652,-1532.190996
527.073913,-592.164754,-9474.636058,-1608.800546
527.074236,-592.164754,-9400.615463,-1915.238745
527.074558,-592.164754,-9252.574275,-1685.410096
527.074880,-666.185348,-9400.615463,-1608.800546
527.075203,-518.144159,-9178.553681,-1378.971896
527.075525,-370.102971,-9474.636058,-1378.971896
527.075848,-296.082377,-9326.594869,-1532.190996
527.076170,-370.102971,-9474.636058,-1378.971896
527.076492,444.123565,-9400.615463,-1915.238745
527.076815,1776.494261,-9992.780217,-2145.067394
527.077137,2442.679609,-9548.656652,-1149.143247
527.077459,2442.679609,-8660.409521,306.438199
527.077782,1480.411884,-7994.224174,0.000000
527.078104,444.123565,-8512.368333,-1838.629195
527.078427,-814.226536,-9104.533087,-2221.676944
527.078749,-2368.659014,-9474.636058,-1762.019645
527.079071,-3627.009116,-9770.718434,-1838.629195
527.079394,-3775.050304,-9474.636058,-2451.505594
527.079716,-2220.617826,-9252.574275,-2451.505594
527.080039,814.226536,-10732.986159,-2145.067394
527.080361,2516.700203,-10584.944971,-842.705048
527.080683,2590.720797,-9030.512492,229.828649
527.081006,2368.659014,-8068.244768,-229.828649
527.081328,2368.659014,-8512.368333,-1608.800546
527.081650,2590.720797,-9918.759623,-2221.676944
527.081973,1850.514855,-9770.718434,-1685.410096
527.082295,296.082377,-8512.368333,-306.438199
527.082618,0.000000,-7476.080014,-229.828649
527.082940,1554.432478,-8216.285956,-1991.848295
527.083262,2072.576638,-9918.759623,-2681.334243
527.083585,370.102971,-9622.677246,-536.266849
527.083907,-1184.329507,-8734.430116,0.000000
527.084230,-740.205942,-9400.615463,-2528.115143
527.084552,-222.061783,-8808.450710,-3753.867940
527.084874,222.061783,-9622.677246,-2374.896044
527.085197,0.000000,-10658.965565,-842.705048
527.085519,1406.391290,-10288.862594,-1762.019645
527.085841,2738.761985,-9104.533087,-2528.115143
527.086164,4145.153275,-9770.718434,-1762.019645
527.086486,4293.194464,-11473.192101,-229.828649
527.086809,3404.947333,-10732.986159,-689.485948
527.087131,2294.638420,-8660.409521,-1532.190996
527.087453,2294.638420,-8216.285956,-1532.190996
527.087776,2516.700203,-8586.388927,-1455.581446
527.088098,2072.576638,-8216.285956,-1455.581446
527.088421,1332.370696,-7624.121203,-1685.410096
527.088743,1554.432478,-9178.553681,-766.095498
527.089065,2442.679609,-10584.944971,-689.485948
527.089388,2886.803174,-10214.842000,-1608.800546
527.089710,2072.576638,-9030.512492,-1838.629195
527.090032,2812.782580,-10288.862594,-1762.019645
527.090355,3108.864956,-9770.718434,-766.095498
527.090677,3256.906145,-9474.636058,-1991.848295
527.091000,2960.823768,-9104.533087,-2145.067394
527.091322,2516.700203,-10066.800811,-919.314598
527.091644,3034.844362,-9326.594869,-459.657299
527.091967,3256.906145,-9622.677246,-1378.971896
527.092289,2590.720797,-9622.677246,-1838.629195
527.092612,2294.638420,-9178.553681,-612.876398
527.092934,1628.453072,-8216.285956,-153.219100
527.093256,666.185348,-7402.059420,-536.266849
527.093579,-296.082377,-7846.182985,-1838.629195
527.093901,-370.102971,-8882.471304,-2145.067394
527.094224,-666.185348,-9622.677246,-1225.752797
527.094546,-666.185348,-10436.903782,-1225.752797
527.094868,-370.102971,-11547.212695,-1302.362347
527.095191,592.164754,-11547.212695,-1225.752797
527.095513,1480.411884,-11177.109724,-459.657299
527.095835,1924.535449,-10066.800811,-919.314598
527.096158,1998.556043,-8808.450710,-1532.190996
527.096480,1998.556043,-8068.244768,-1532.190996
527.096803,1480.411884,-7476.080014,-766.095498
527.097125,1480.411884,-8290.306550,-1149.143247
527.097447,1184.329507,-8586.388927,-1532.190996
527.097770,1406.391290,-8808.450710,-1838.629195
527.098092,1628.453072,-9252.574275,-1608.800546
527.098415,1702.473667,-8734.430116,-1608.800546
527.098737,1776.494261,-8438.347739,-1991.848295
527.099059,2072.576638,-8882.471304,-2298.286494
527.099382,2146.597232,-9622.677246,-1991.848295
527.099704,1332.370696,-9770.718434,-1455.581446
527.100026,666.185348,-9992.780217,-1991.848295
527.100349,296.082377,-10658.965565,-2451.505594
527.100671,444.123565,-11547.212695,-2068.457845
527.100994,592.164754,-11325.150913,-1302.362347
527.101316,814.226536,-10658.965565,-1225.752797
527.101638,740.205942,-9696.697840,-1302.362347
527.101961,1036.288319,-9104.533087,-229.828649
527.102283,1332.370696,-8364.327145,-536.266849
527.102606,1258.350101,-7846.182985,-1149.143247
527.102928,2220.617826,-7624.121203,-1915.238745
527.103250,4145.153275,-7920.203579,-2604.724693
527.103573,5477.523971,-8068.244768,-2528.115143
527.103895,6217.729913,-9474.636058,-1762.019645
527.104217,5847.626942,-9844.739029,-766.095498
527.104540,5181.441594,-10658.965565,-1685.410096
527.104862,3775.050304,-11029.068536,-2604.724693
527.105185,2368.659014,-11621.233289,-2604.724693
527.105507,814.226536,-11843.295072,-2451.505594
527.105829,148.041188,-11103.089130,-1991.848295
527.106152,0.000000,-9474.636058,-459.657299
527.106474,0.000000,-8216.285956,306.438199
527.106797,222.061783,-6883.915261,459.657299
527.107119,814.226536,-6143.709319,306.438199
527.107441,592.164754,-5551.544565,-689.485948
527.107764,1406.391290,-5699.585753,-612.876398
527.108086,1554.432478,-6883.915261,-383.047749
527.108408,1184.329507,-8142.265362,-459.657299
527.108731,740.205942,-9400.615463,-766.095498
527.109053,148.041188,-9770.718434,-1378.971896
527.109376,222.061783,-10658.965565,-2604.724693
527.109698,444.123565,-10658.965565,-3140.991542
527.110020,148.041188,-10436.903782,-3753.867940
527.110343,0.000000,-11103.089130,-3370.820191
527.110665,-666.185348,-11991.336260,-2374.896044
527.110988,-1998.556043,-12583.501014,-1915.238745
527.111310,-2812.782580,-12583.501014,-1991.848295
527.111632,-3330.926739,-11843.295072,-1991.848295
527.111955,-2516.700203,-10955.047942,-1685.410096
527.112277,-962.267725,-9696.697840,-1149.143247
527.112600,518.144159,-8068.244768,0.000000
527.112922,2368.659014,-6661.853478,766.095498
527.113244,4885.359217,-5995.668130,229.828649
527.113567,6587.832884,-6069.688724,-536.266849
527.113889,6883.915261,-6809.894666,-383.047749
527.114211,6513.812290,-6587.832884,-536.266849
527.114534,5995.668130,-7624.121203,-1685.410096
527.114856,6143.709319,-10658.965565,-3447.429741
527.115179,5773.606348,-13027.624579,-3064.381992
527.115501,4367.215058,-13175.665768,-1762.019645
527.115823,1480.411884,-11547.212695,-383.047749
527.116146,-1184.329507,-10510.924376,0.000000
527.116468,-2368.659014,-10214.842000,-1915.238745
527.116791,-4441.235652,-9770.718434,-3524.039291
527.117113,-6587.832884,-9178.553681,-2451.505594
527.117435,-7772.162391,-8142.265362,-229.828649
527.117758,-7105.977043,-6809.894666,-1149.143247
527.118080,-3923.091493,-7846.182985,-1762.019645
527.118402,888.247130,-8586.388927,-2374.896044
527.118725,4959.379811,-8734.430116,-3140.991542
527.119047,8586.388927,-10510.924376,-2374.896044
527.119370,11695.253884,-10584.944971,766.095498
527.119692,14137.933492,-10214.842000,536.266849
527.120014,14878.139434,-9178.553681,-1378.971896
527.120337,13619.789333,-7920.203579,-842.705048
527.120659,10510.924376,-7698.141797,0.000000
527.120982,6735.874072,-9474.636058,-1762.019645
527.121304,3627.009116,-11547.212695,-1915.238745
527.121626,-370.102971,-11547.212695,-995.924147
527.121949,-3627.009116,-11399.171507,-536.266849
527.122271,-5329.482782,-11991.336260,536.266849
527.122594,-8438.347739,-10140.821405,1455.581446
527.122916,-9548.656652,-6587.832884,2374.896044
527.123239,-9252.574275,-2516.700203,-842.705048
527.123562,-6439.791695,-3330.926739,-2987.772442
527.123884,-1554.432478,-6217.729913,-4136.915689
527.124207,2664.741391,-8216.285956,-4826.401637
527.124529,5625.565159,-11473.192101,-4213.525239
527.124852,8734.430116,-14952.160028,-1608.800546
527.125175,11177.109724,-15914.427753,-1378.971896
527.125497,11029.068536,-13471.748144,-3064.381992
527.125820,8142.265362,-10288.862594,-3983.696590
527.126143,4515.256246,-7772.162391,-3983.696590
527.126465,1110.308913,-5699.585753,-4903.011187
527.126788,-1554.432478,-6735.874072,-4903.011187
527.127110,-4811.338623,-10510.924376,-3064.381992
527.127433,-8364.327145,-12139.377449,1532.190996
527.127756,-8438.347739,-11399.171507,4443.353888
527.128078,-6217.729913,-9548.656652,689.485948
527.128401,-3627.009116,-10732.986159,-1838.629195
527.128724,666.185348,-9474.636058,-919.314598
527.129046,5551.544565,-6365.771101,76.609550
527.129369,9696.697840,-5847.626942,-612.876398
527.129691,13471.748144,-6883.915261,-1532.190996
527.130014,13397.727550,-10732.986159,-1149.143247
527.130337,10881.027347,-11769.274478,1302.362347
527.130659,5699.585753,-11991.336260,459.657299
527.130982,1332.370696,-12287.418637,-4903.011187
527.131304,-1036.288319,-13619.789333,-7048.078582
527.131627,-3552.988522,-10807.006753,-2834.553343
527.131950,-7031.956449,-6365.771101,383.047749
527.132272,-9622.677246,-4293.194464,-612.876398
527.132595,-8142.265362,-5551.544565,-919.314598
527.132918,-5181.441594,-5847.626942,-2604.724693
527.133240,-3478.967927,-7105.977043,-1838.629195
527.133563,-2368.659014,-9400.615463,459.657299
527.133885,-222.061783,-8808.450710,2068.457845
527.134208,2368.659014,-8438.347739,459.657299
527.134531,3997.112087,-8660.409521,-995.924147
527.134853,3997.112087,-10140.821405,-2145.067394
527.135176,3108.864956,-11029.068536,-3294.210641
527.135499,2886.803174,-11695.253884,-3447.429741
527.135821,5033.400406,-11695.253884,-3217.601092
527.136144,7624.121203,-10510.924376,-4136.915689
527.136466,8808.450710,-9474.636058,-3064.381992
527.136789,6809.894666,-10362.883188,1072.533697
527.137112,3478.967927,-10140.821405,2911.162892
527.137434,0.000000,-10658.965565,-459.657299
527.137757,-2368.659014,-11547.212695,-3524.039291
527.138080,-2812.782580,-11769.274478,-2374.896044
527.138402,-1850.514855,-10214.842000,153.219100
527.138725,962.267725,-8882.471304,1838.629195
527.139047,4663.297435,-6883.915261,2145.067394
527.139370,8142.265362,-6365.771101,1225.752797
527.139693,9178.553681,-7105.977043,1915.238745
527.140015,7476.080014,-7328.038826,1302.362347
527.140338,5625.565159,-7179.997637,-2145.067394
527.140660,3997.112087,-7920.203579,-3907.087040
527.140983,2738.761985,-9326.594869,-3600.648841
527.141306,592.164754,-10140.821405,-3753.867940
527.141628,-2294.638420,-10732.986159,-4366.744339
527.141951,-4071.132681,-11843.295072,-4290.134789
527.142274,-3701.029710,-11547.212695,-2145.067394
527.142596,-3034.844362,-10584.944971,-3217.601092
527.142919,-3256.906145,-10362.883188,-5209.449386
527.143241,-3552.988522,-10658.965565,-2757.943793
527.143564,-888.247130,-10955.047942,76.609550
527.143887,2590.720797,-10955.047942,229.828649
527.144209,4885.359217,-10140.821405,-229.828649
527.144532,5699.585753,-9770.718434,229.828649
527.144855,6365.771101,-9178.553681,2681.334243
527.145177,7105.977043,-8734.430116,4826.401637
527.145500,9104.533087,-5773.606348,3294.210641
527.145822,9770.718434,-5107.421000,-766.095498
527.146145,10658.965565,-5329.482782,-2528.115143
527.146468,9474.636058,-7476.080014,0.000000
527.146790,6735.874072,-7624.121203,2145.067394
527.147113,3256.906145,-7624.121203,229.828649
527.147436,-444.123565,-10436.903782,-2757.943793
527.147758,-5033.400406,-10214.842000,-4060.306139
527.148081,-9326.594869,-8512.368333,-4673.182538
527.148403,-10510.924376,-9252.574275,-6052.154434
527.148726,-9548.656652,-13175.665768,-6435.202183
527.149049,-7550.100608,-13619.789333,-4519.963438
527.149371,-5921.647536,-11251.130318,-2604.724693
527.149694,-4441.235652,-9252.574275,-689.485948
527.150017,-2294.638420,-11695.253884,-1378.971896
527.150339,-666.185348,-12287.418637,-2451.505594
527.150662,-814.226536,-10510.924376,-3830.477490
527.150984,-1036.288319,-7624.121203,-1608.800546
527.151307,1998.556043,-7402.059420,229.828649
527.151630,5995.668130,-7179.997637,76.609550
527.151952,8808.450710,-5847.626942,-229.828649
527.152275,9918.759623,-4441.235652,-612.876398
527.152597,10807.006753,-7624.121203,76.609550
527.152920,10732.986159,-11473.192101,1532.190996
527.153243,6365.771101,-11399.171507,612.876398
527.153565,-296.082377,-10214.842000,-1685.410096
527.153888,-2294.638420,-10214.842000,-2528.115143
527.154211,-1258.350101,-10881.027347,-4366.744339
527.154533,-1184.329507,-11473.192101,-6128.763984
527.154856,-3330.926739,-10140.821405,-3907.087040
527.155178,-4515.256246,-9918.759623,306.438199
527.155501,-3701.029710,-12657.521608,459.657299
527.155824,-3034.844362,-14952.160028,-1915.238745
527.156146,-5625.565159,-12065.356855,-2987.772442
527.156469,-6957.935855,-7698.141797,-2451.505594
527.156792,-3182.885551,-5699.585753,-1532.190996
527.157114,2442.679609,-5625.565159,-2145.067394
527.157437,5181.441594,-5033.400406,-2911.162892
527.157759,5403.503377,-4219.173869,-459.657299
527.158082,5921.647536,-6513.812290,2681.334243
527.158405,6291.750507,-8956.491898,842.705048
527.158727,4145.153275,-10214.842000,-3064.381992
527.159050,962.267725,-10066.800811,-3753.867940
527.159373,370.102971,-9474.636058,-1455.581446
527.159695,1628.453072,-9770.718434,-1915.238745
527.160018,1924.535449,-10362.883188,-3140.991542
527.160340,370.102971,-9178.553681,-1838.629195
527.160663,-444.123565,-9252.574275,766.095498
527.160986,296.082377,-13693.809927,0.000000
527.161308,-592.164754,-17098.757260,-689.485948
527.161631,-2294.638420,-16432.571912,229.828649
527.161953,-1480.411884,-11325.150913,2298.286494
527.162276,2072.576638,-6883.915261,1455.581446
527.162599,5255.462188,-3701.029710,-766.095498
527.162921,5255.462188,-1480.411884,-995.924147
527.163244,3923.091493,-2294.638420,766.095498
527.163567,2516.700203,-6217.729913,1072.533697
527.163889,296.082377,-9992.780217,-1838.629195
527.164212,-3627.009116,-12139.377449,-4826.401637
527.164534,-5551.544565,-12879.583391,-4903.011187
527.164857,-4885.359217,-12805.562797,-5056.230287
527.165180,-4367.215058,-10658.965565,-4519.963438
527.165502,-6957.935855,-8216.285956,-4213.525239
527.165825,-8734.430116,-9696.697840,-2528.115143
527.166148,-8660.409521,-12509.480420,-2374.896044
527.166470,-7846.182985,-13841.851115,-1915.238745
527.166793,-6365.771101,-13175.665768,-2451.505594
527.167115,-3552.988522,-9474.636058,-2374.896044
527.167438,1480.411884,-7105.977043,-383.047749
527.167761,5995.668130,-4071.132681,2145.067394
527.168083,8586.388927,-2442.679609,3064.381992
527.168406,8142.265362,-2294.638420,2834.553343
527.168729,6217.729913,-3627.009116,842.705048
527.169051,2294.638420,-6883.915261,-3140.991542
527.169374,-1850.514855,-10807.006753,-4519.963438
527.169696,-4663.297435,-11399.171507,-2911.162892
527.170019,-4589.276840,-12361.439231,-3677.258390
527.170342,-2516.700203,-13249.686362,-6128.763984
527.170664,-3330.926739,-12213.398043,-6281.983084
527.170987,-4219.173869,-12583.501014,-2298.286494
527.171309,-5033.400406,-13397.727550,-536.266849
527.171632,-4737.318029,-15174.221811,-2374.896044
527.171955,-3923.091493,-14656.077652,-2834.553343
527.172277,-1850.514855,-11473.192101,-1991.848295
527.172600,2146.597232,-9178.553681,383.047749
527.172923,6439.791695,-7994.224174,2987.772442
527.173245,9178.553681,-3627.009116,3753.867940
527.173568,9770.718434,-740.205942,3140.991542
527.173890,10214.842000,0.000000,1378.971896
527.174213,7920.203579,-3997.112087,-919.314598
527.174536,2368.659014,-7031.956449,-1915.238745
527.174858,-3330.926739,-8438.347739,-1225.752797
527.175181,-5921.647536,-9992.780217,-2987.772442
527.175504,-6365.771101,-11103.089130,-7584.345430
527.175826,-6809.894666,-10881.027347,-9269.755526
527.176149,-6883.915261,-13841.851115,-6971.469032
527.176471,-6291.750507,-16358.551318,-2528.115143
527.176794,-5625.565159,-17024.736666,0.000000
527.177117,-5329.482782,-14952.160028,-612.876398
527.177439,-2886.803174,-13249.686362,-2068.457845
527.177762,2442.679609,-11917.315666,-2757.943793
527.178085,6365.771101,-8882.471304,-1149.143247
527.178407,8808.450710,-4145.153275,2987.772442
527.178730,10288.862594,-666.185348,6971.469032
527.179052,11621.233289,-740.205942,4136.915689
527.179375,10510.924376,-4515.256246,536.266849
527.179698,5033.400406,-6069.688724,383.047749
527.180020,-814.226536,-7772.162391,536.266849
527.180343,-3997.112087,-9770.718434,-2987.772442
527.180666,-5033.400406,-9918.759623,-5209.449386
527.180988,-6291.750507,-8808.450710,-5056.230287
527.181311,-8512.368333,-9622.677246,-4596.572988
527.181633,-8808.450710,-13989.892304,-3447.429741
527.181956,-8512.368333,-17764.942608,-2604.724693
527.182279,-8660.409521,-16950.716072,-2987.772442
527.182601,-5995.668130,-15544.324782,-3447.429741
527.182924,-1332.370696,-14434.015869,-3064.381992
527.183246,2516.700203,-10732.986159,-1149.143247
527.183569,4071.132681,-4145.153275,1762.019645
527.183892,4737.318029,518.144159,3217.601092
527.184214,4959.379811,592.164754,842.705048
527.184537,2294.638420,-1850.514855,-1532.190996
527.184860,-1924.535449,-5699.585753,-1302.362347
527.185182,-3923.091493,-9030.512492,-1532.190996
527.185505,-3330.926739,-10955.047942,-3294.210641
527.185827,-2738.761985,-10807.006753,-4596.572988
527.186150,-2590.720797,-10732.986159,-2757.943793
527.186473,-3923.091493,-11177.109724,-1838.629195
527.186795,-4367.215058,-13989.892304,-1991.848295
527.187118,-5699.585753,-14359.995275,-2834.553343
527.187441,-5107.421000,-13915.871710,-2911.162892
527.187763,-2220.617826,-13471.748144,-3064.381992
527.188086,3182.885551,-13397.727550,-2681.334243
527.188408,7772.162391,-12583.501014,306.438199
527.188731,10140.821405,-7476.080014,4519.963438
527.189054,9992.780217,-1850.514855,5669.106685
527.189376,7624.121203,-740.205942,2374.896044
527.189699,3330.926739,-2738.761985,-1838.629195
527.190022,-2294.638420,-4219.173869,-2451.505594
527.190344,-7105.977043,-5181.441594,-2911.162892
527.190667,-8660.409521,-7550.100608,-4903.011187
527.190989,-8142.265362,-9474.636058,-7354.516781
527.191312,-7698.141797,-10658.965565,-6128.763984
527.191635,-7328.038826,-13619.789333,-3064.381992
527.191957,-6661.853478,-16432.571912,-2834.553343
527.192280,-5699.585753,-16284.530724,-4366.744339
527.192602,-3923.091493,-15840.407159,-4290.134789
527.192925,0.000000,-13619.789333,-3600.648841
527.193248,5773.606348,-11843.295072,-2834.553343
527.193570,9844.739029,-9178.553681,0.000000
527.193893,12287.418637,-5921.647536,3907.087040
527.194216,13027.624579,-3552.988522,5362.668486
527.194538,11177.109724,-1924.535449,3600.648841
527.194861,6883.915261,-3552.988522,842.705048
527.195183,1036.288319,-5625.565159,0.000000
527.195506,-3775.050304,-5921.647536,-229.828649
527.195829,-6587.832884,-6291.750507,-2834.553343
527.196151,-7179.997637,-7402.059420,-5439.278036
527.196474,-8290.306550,-8808.450710,-5592.497135
527.196797,-7550.100608,-12953.603985,-3677.258390
527.197119,-6513.812290,-17172.777854,-2528.115143
527.197442,-5329.482782,-17764.942608,-2374.896044
527.197764,-2886.803174,-16580.613101,-4213.525239
527.198087,1776.494261,-16506.592507,-4443.353888
527.198410,4367.215058,-13767.830521,-2068.457845
527.198732,4293.194464,-8512.368333,995.924147
527.199055,5403.503377,-4145.153275,1302.362347
527.199378,7402.059420,-3701.029710,306.438199
527.199700,6439.791695,-3627.009116,0.000000
527.200023,1406.391290,-3627.009116,229.828649
527.200345,-3330.926739,-5255.462188,919.314598
527.200668,-3775.050304,-6735.874072,306.438199
527.200991,-3330.926739,-7476.080014,-2528.115143
527.201313,-4959.379811,-7179.997637,-4596.572988
527.201636,-8290.306550,-7624.121203,-3983.696590
527.201958,-8956.491898,-11473.192101,-1991.848295
527.202281,-8068.244768,-14582.057057,-3217.601092
527.202604,-6143.709319,-14434.015869,-3677.258390
527.202926,-3256.906145,-14952.160028,-5132.839837
527.203249,1998.556043,-16136.489536,-3983.696590
527.203572,6883.915261,-15174.221811,-306.438199
527.203894,8956.491898,-11991.336260,2911.162892
527.204217,8734.430116,-7179.997637,3830.477490
527.204539,8142.265362,-3478.967927,1532.190996
527.204862,5181.441594,-2072.576638,-536.266849
527.205185,962.267725,-3108.864956,-995.924147
527.205507,-2812.782580,-4885.359217,153.219100
527.205830,-4071.132681,-6365.771101,-536.266849
527.206153,-4293.194464,-6735.874072,-2604.724693
527.206475,-5107.421000,-6809.894666,-1915.238745
527.206798,-7698.141797,-8586.388927,-2221.676944
527.207120,-8660.409521,-13027.624579,-2911.162892
527.207443,-9326.594869,-14730.098246,-4596.572988
527.207766,-8364.327145,-14804.118840,-5056.230287
527.208088,-5255.462188,-14211.954086,-4519.963438
527.208411,518.144159,-14063.912898,-3447.429741
527.208734,5477.523971,-12953.603985,-2451.505594
527.209056,8142.265362,-10140.821405,-229.828649
527.209379,9548.656652,-7772.162391,3140.991542
527.209701,9844.739029,-5107.421000,2528.115143
527.210024,6735.874072,-4219.173869,-1225.752797
527.210347,1924.535449,-4219.173869,-2221.676944
527.210669,-1258.350101,-5107.421000,-842.705048
527.210992,-1998.556043,-6587.832884,-1225.752797
527.211315,-2886.803174,-7920.203579,-2834.553343
527.211637,-5255.462188,-7772.162391,-2298.286494
527.211960,-6735.874072,-8808.450710,-1149.143247
527.212282,-5329.482782,-13027.624579,-1915.238745
527.212605,-4219.173869,-15766.386565,-3753.867940
527.212928,-3775.050304,-14878.139434,-4136.915689
527.213250,-1332.370696,-12879.583391,-3064.381992
527.213573,3849.070898,-12657.521608,-2681.334243
527.213895,8808.450710,-12805.562797,-995.924147
527.214218,9992.780217,-9622.677246,536.266849
527.214541,8734.430116,-5995.668130,1838.629195
527.214863,7105.977043,-5625.565159,2987.772442
527.215186,3552.988522,-5773.606348,459.657299
527.215509,-888.247130,-5403.503377,-3217.601092
527.215831,-4959.379811,-5847.626942,-3677.258390
527.216154,-7254.018232,-5107.421000,-2221.676944
527.216476,-8438.347739,-5033.400406,-2604.724693
527.216799,-10436.903782,-7105.977043,-4903.011187
527.217122,-10955.047942,-10140.821405,-3983.696590
527.217444,-9918.759623,-14730.098246,-3677.258390
527.217767,-8956.491898,-17024.736666,-3370.820191
527.218090,-6883.915261,-15026.180623,-3217.601092
527.218412,-1702.473667,-13101.645173,-2911.162892
527.218735,4885.359217,-12065.356855,-4136.915689
527.219057,9844.739029,-11251.130318,-1149.143247
527.219380,11325.150913,-9252.574275,2757.943793
527.219703,9844.739029,-5033.400406,4366.744339
527.220025,8586.388927,-4441.235652,2834.553343
527.220348,5477.523971,-6291.750507,-612.876398
527.220671,2368.659014,-7772.162391,-1608.800546
527.220993,-1258.350101,-7476.080014,-459.657299
527.221316,-3701.029710,-6069.688724,229.828649
527.221638,-5181.441594,-4737.318029,-1225.752797
527.221961,-5995.668130,-5033.400406,-3064.381992
527.222284,-7328.038826,-7476.080014,-4060.306139
527.222606,-8068.244768,-12583.501014,-3830.477490
527.222929,-7994.224174,-17024.736666,-4290.134789
527.223252,-5921.647536,-18061.024985,-4213.525239
527.223574,-1332.370696,-16876.695478,-3140.991542
527.223897,4071.132681,-15396.283594,-2451.505594
527.224219,7105.977043,-11843.295072,-383.047749
527.224542,7550.100608,-7476.080014,1532.190996
527.224865,7698.141797,-3108.864956,1455.581446
527.225187,6513.812290,-2146.597232,-536.266849
527.225510,3552.988522,-4145.153275,-2068.457845
527.225833,-1406.391290,-6217.729913,76.609550
527.226155,-4145.153275,-7772.162391,536.266849
527.226478,-3923.091493,-8364.327145,-766.095498
527.226801,-3775.050304,-7179.997637,-2221.676944
527.227123,-4959.379811,-6587.832884,-3064.381992
527.227446,-6735.874072,-8586.388927,-1455.581446
527.227768,-5847.626942,-11991.336260,-2298.286494
527.228091,-4737.318029,-15544.324782,-3217.601092
527.228414,-2738.761985,-15174.221811,-3140.991542
527.228736,1406.391290,-13915.871710,-3140.991542
527.229059,6365.771101,-13545.768739,-2834.553343
527.229382,8882.471304,-12065.356855,0.000000
527.229704,8438.347739,-8512.368333,3294.210641
527.230027,7105.977043,-5033.400406,3140.991542
527.230350,5995.668130,-3256.906145,-306.438199
527.230672,4219.173869,-4515.256246,-3447.429741
527.230995,-148.041188,-5995.668130,-1991.848295
527.231318,-3849.070898,-6513.812290,0.000000
527.231640,-6513.812290,-6735.874072,-689.485948
527.231963,-8290.306550,-6883.915261,-1532.190996
527.232285,-10510.924376,-7698.141797,-2987.772442
527.232608,-11325.150913,-10436.903782,-4290.134789
527.232931,-10140.821405,-14952.160028,-5439.278036
527.233253,-8438.347739,-16284.530724,-6052.154434
527.233576,-4441.235652,-15618.345376,-5209.449386
527.233899,2812.782580,-15544.324782,-3064.381992
527.234221,9548.656652,-13915.871710,-1685.410096
527.234544,13175.665768,-11177.109724,-766.095498
527.234867,13323.706956,-6957.935855,2681.334243
527.235189,11695.253884,-3923.091493,4290.134789
527.235512,8438.347739,-3552.988522,919.314598
527.235834,4737.318029,-6069.688724,-2757.943793
527.236157,-444.123565,-6291.750507,-536.266849
527.236480,-4071.132681,-5995.668130,1072.533697
527.236802,-5551.544565,-7105.977043,-1072.533697
527.237125,-6365.771101,-8956.491898,-1915.238745
527.237448,-9474.636058,-9104.533087,-1149.143247
527.237770,-10955.047942,-9400.615463,-1838.629195
527.238093,-10362.883188,-12657.521608,-3753.867940
527.238416,-8956.491898,-15174.221811,-4673.182538
527.238738,-5329.482782,-14508.036463,-5056.230287
527.239061,148.041188,-13989.892304,-5209.449386
527.239383,4959.379811,-14434.015869,-2145.067394
527.239706,8290.306550,-12879.583391,919.314598
527.240029,9696.697840,-8734.430116,1455.581446
527.240351,9770.718434,-4885.359217,0.000000
527.240674,7698.141797,-4589.276840,-1685.410096
527.240997,3923.091493,-5033.400406,-2221.676944
527.241319,-518.144159,-6217.729913,-766.095498
527.241642,-3256.906145,-5329.482782,459.657299
527.241965,-4959.379811,-5699.585753,-842.705048
527.242287,-7105.977043,-5995.668130,-2145.067394
527.242610,-8734.430116,-7920.203579,-1762.019645
527.242932,-9178.553681,-10362.883188,-1685.410096
527.243255,-8808.450710,-13767.830521,-2451.505594
527.243578,-6587.832884,-14656.077652,-2604.724693
527.243900,-2146.597232,-13027.624579,-3294.210641
527.244223,3849.070898,-12065.356855,-4290.134789
527.244546,9400.615463,-12879.583391,-1685.410096
527.244868,12879.583391,-12583.501014,1302.362347
527.245191,11769.274478,-8512.368333,4060.306139
527.245514,9474.636058,-4737.318029,3524.039291
527.245836,6735.874072,-5329.482782,-995.924147
527.246159,3034.844362,-6883.915261,-4060.306139
527.246482,-2368.659014,-7031.956449,-2374.896044
527.246804,-6143.709319,-5403.503377,-766.095498
527.247127,-8512.368333,-4293.194464,-1915.238745
527.247449,-8808.450710,-6587.832884,-3294.210641
527.247772,-10066.800811,-8438.347739,-3447.429741
527.248095,-11621.233289,-12065.356855,-3294.210641
527.248417,-10955.047942,-15618.345376,-3983.696590
527.248740,-7328.038826,-16950.716072,-4596.572988
527.249063,-2664.741391,-14804.118840,-4290.134789
527.249385,3627.009116,-13175.665768,-2681.334243
527.249708,8586.388927,-11177.109724,-919.314598
527.250031,10955.047942,-8142.265362,1149.143247
527.250353,11917.315666,-5477.523971,1378.971896
527.250676,11103.089130,-4515.256246,76.609550
527.250998,8290.306550,-5921.647536,-1915.238745
527.251321,3552.988522,-7402.059420,0.000000
527.251644,-1184.329507,-9178.553681,459.657299
527.251966,-3849.070898,-9400.615463,-612.876398
527.252289,-6217.729913,-7476.080014,-2451.505594
527.252612,-8808.450710,-6883.915261,-2604.724693
527.252934,-10584.944971,-5995.668130,-2451.505594
527.253257,-10658.965565,-9474.636058,-2145.067394
527.253580,-8882.471304,-13693.809927,-3677.258390
527.253902,-5477.523971,-15470.304188,-4903.011187
527.254225,-962.267725,-15470.304188,-2987.772442
527.254547,5773.606348,-14508.036463,-842.705048
527.254870,10288.862594,-12213.398043,229.828649
527.255193,10658.965565,-8142.265362,1608.800546
527.255515,8808.450710,-4737.318029,2911.162892
527.255838,7772.162391,-3552.988522,153.219100
527.256161,5625.565159,-5107.421000,-4290.134789
527.256483,1332.370696,-5921.647536,-3140.991542
527.256806,-2368.659014,-7031.956449,-306.438199
527.257129,-4515.256246,-8068.244768,0.000000
527.257451,-5255.462188,-9918.759623,-919.314598
527.257774,-9030.512492,-9252.574275,-766.095498
527.258097,-12361.439231,-9326.594869,-1685.410096
527.258419,-11843.295072,-10955.047942,-4673.182538
527.258742,-9622.677246,-13027.624579,-5209.449386
527.259064,-6143.709319,-13619.789333,-4519.963438
527.259387,-962.267725,-13101.645173,-3064.381992
527.259710,5477.523971,-13841.851115,-995.924147
527.260032,10732.986159,-12953.603985,1149.143247
527.260355,11843.295072,-9400.615463,2681.334243
527.260678,10807.006753,-5625.565159,2834.553343
527.261000,9326.594869,-4071.132681,229.828649
527.261323,6069.688724,-4885.359217,-3294.210641
527.261646,2072.576638,-6735.874072,-1685.410096
527.261968,-1924.535449,-6217.729913,1149.143247
527.262291,-4367.215058,-6513.812290,-536.266849
527.262613,-6957.935855,-7772.162391,-2757.943793
527.262936,-9326.594869,-10288.862594,-1991.848295
527.263259,-12139.377449,-10510.924376,-2451.505594
527.263581,-11917.315666,-12879.583391,-3830.477490
527.263904,-9918.759623,-15026.180623,-5286.058936
527.264227,-6143.709319,-14952.160028,-4443.353888
527.264549,-1480.411884,-11991.336260,-2451.505594
527.264872,5329.482782,-10955.047942,-1378.971896
527.265195,11843.295072,-11325.150913,-995.924147
527.265517,14359.995275,-9918.759623,689.485948
527.265840,12361.439231,-5921.647536,4136.915689
527.266162,9474.636058,-3701.029710,2911.162892
527.266485,6217.729913,-5033.400406,-2374.896044
527.266808,2368.659014,-6587.832884,-3753.867940
527.267130,-2590.720797,-6291.750507,-1072.533697
527.267453,-6735.874072,-5477.523971,-1532.190996
527.267776,-9030.512492,-6587.832884,-3064.381992
527.268098,-11843.295072,-7772.162391,-3447.429741
527.268421,-13693.809927,-11177.109724,-2911.162892
527.268744,-11843.295072,-15100.201217,-4366.744339
527.269066,-10214.842000,-16136.489536,-4596.572988
527.269389,-6587.832884,-15396.283594,-4290.134789
527.269712,-296.082377,-11917.315666,-3294.210641
527.270034,6957.935855,-10807.006753,-1838.629195
527.270357,12287.418637,-9918.759623,76.609550
527.270679,13619.789333,-6957.935855,2528.115143
527.271002,11917.315666,-3923.091493,2604.724693
527.271325,9770.718434,-4071.132681,536.266849
527.271647,7550.100608,-7179.997637,-1838.629195
527.271970,3404.947333,-8438.347739,-1608.800546
527.272293,-1184.329507,-7698.141797,-919.314598
527.272615,-4145.153275,-7994.224174,-1838.629195
527.272938,-5995.668130,-8216.285956,-1762.019645
527.273261,-10436.903782,-7031.956449,-1838.629195
527.273583,-12805.562797,-8882.471304,-3217.601092
527.273906,-12287.418637,-13545.768739,-5362.668486
527.274228,-10288.862594,-16876.695478,-5439.278036
527.274551,-5995.668130,-16284.530724,-3447.429741
527.274874,370.102971,-13323.706956,-2374.896044
527.275196,7402.059420,-11991.336260,-1608.800546
527.275519,11769.274478,-10140.821405,995.924147
527.275842,11621.233289,-6587.832884,3753.867940
527.276164,9992.780217,-3552.988522,3370.820191
527.276487,8734.430116,-3404.947333,-306.438199
527.276810,5329.482782,-6291.750507,-3447.429741
527.277132,1776.494261,-7920.203579,-1455.581446
527.277455,-2146.597232,-7624.121203,842.705048
527.277777,-3478.967927,-7698.141797,-766.095498
527.278100,-3849.070898,-9918.759623,-2068.457845
527.278423,-7254.018232,-9548.656652,-2145.067394
527.278745,-10732.986159,-10807.006753,-1532.190996
527.279068,-12361.439231,-12139.377449,-2374.896044
527.279391,-11325.150913,-13989.892304,-3524.039291
527.279713,-8734.430116,-13915.871710,-3677.258390
527.280036,-2664.741391,-11991.336260,-3753.867940
527.280359,3627.009116,-11547.212695,-2911.162892
527.280681,8586.388927,-10362.883188,1532.190996
527.281004,10658.965565,-7402.059420,4519.963438
527.281327,10658.965565,-4885.359217,3294.210641
527.281649,9030.512492,-4515.256246,-306.438199
527.281972,4959.379811,-6143.709319,-3140.991542
527.282294,0.000000,-7550.100608,-3064.381992
527.282617,-4219.173869,-7105.977043,-1072.533697
527.282940,-5625.565159,-6513.812290,-2145.067394
527.283262,-6439.791695,-7624.121203,-4596.572988
527.283585,-7254.018232,-11177.109724,-3370.820191
527.283908,-9474.636058,-12509.480420,0.000000
527.284230,-11177.109724,-13101.645173,0.000000
527.284553,-9844.739029,-12879.583391,-3294.210641
527.284876,-6143.709319,-12139.377449,-4213.525239
527.285198,-814.226536,-11029.068536,-3753.867940
527.285521,5107.421000,-9770.718434,-2221.676944
527.285843,9252.574275,-9252.574275,229.828649
527.286166,11695.253884,-7698.141797,3677.258390
527.286489,11177.109724,-5551.544565,3677.258390
527.286811,9400.615463,-4885.359217,383.047749
527.287134,5033.400406,-7179.997637,-2834.553343
527.287457,666.185348,-9252.574275,-3983.696590
527.287779,-2664.741391,-9326.594869,-3983.696590
527.288102,-4959.379811,-8216.285956,-3753.867940
527.288425,-6439.791695,-8216.285956,-3217.601092
527.288747,-8808.450710,-9030.512492,-3140.991542
527.289070,-9326.594869,-11547.212695,-3064.381992
527.289392,-8216.285956,-14656.077652,-3677.258390
527.289715,-6883.915261,-16284.530724,-2987.772442
527.290038,-4071.132681,-14285.974681,-1991.848295
527.290360,814.226536,-10881.027347,-2145.067394
527.290683,6439.791695,-8808.450710,-1532.190996
527.291006,10140.821405,-7846.182985,995.924147
527.291328,11103.089130,-5329.482782,3217.601092
527.291651,9252.574275,-1628.453072,2604.724693
527.291974,6661.853478,-2664.741391,76.609550
527.292296,3775.050304,-7550.100608,-2604.724693
527.292619,888.247130,-10658.965565,-3140.991542
527.292942,-2368.659014,-9474.636058,-2757.943793
527.293264,-4293.194464,-9918.759623,-3294.210641
527.293587,-7031.956449,-9548.656652,-3064.381992
527.293909,-9844.739029,-8290.306550,-2528.115143
527.294232,-11843.295072,-9918.759623,-3370.820191
527.294555,-11769.274478,-13989.892304,-5669.106685
527.294877,-9770.718434,-15766.386565,-5056.230287
527.295200,-6217.729913,-14211.954086,-3600.648841
527.295523,444.123565,-12583.501014,-3370.820191
527.295845,8438.347739,-11547.212695,-995.924147
527.296168,12731.542202,-10214.842000,4213.525239
527.296491,12509.480420,-4515.256246,6205.373534
527.296813,10288.862594,370.102971,3217.601092
527.297136,7254.018232,-814.226536,-1991.848295
527.297458,4589.276840,-6587.832884,-3600.648841
527.297781,222.061783,-9178.553681,-1532.190996
527.298104,-3034.844362,-7698.141797,-766.095498
527.298426,-4145.153275,-10066.800811,-2374.896044
527.298749,-3256.906145,-11917.315666,-2451.505594
527.299072,-6735.874072,-10807.006753,-2451.505594
527.299394,-9548.656652,-11917.315666,-2911.162892
527.299717,-10214.842000,-14211.954086,-4290.134789
527.300040,-8882.471304,-14063.912898,-3907.087040
527.300362,-6069.688724,-12583.501014,-4903.011187
527.300685,-1554.432478,-12139.377449,-4213.525239
527.301007,2812.782580,-12361.439231,-1608.800546
527.301330,6217.729913,-10140.821405,2681.334243
527.301653,7476.080014,-5181.441594,5362.668486
527.301975,7698.141797,-1628.453072,4060.306139
527.302298,6217.729913,-2738.761985,-995.924147
527.302621,2294.638420,-5033.400406,-2221.676944
527.302943,-888.247130,-7476.080014,-306.438199
527.303266,-2516.700203,-7550.100608,-995.924147
527.303589,-2812.782580,-8512.368333,-2834.553343
527.303911,-3923.091493,-10436.903782,-2374.896044
527.304234,-6291.750507,-11843.295072,-766.095498
527.304557,-7402.059420,-14211.954086,-1072.533697
527.304879,-7624.121203,-15618.345376,-2757.943793
527.305202,-6661.853478,-14508.036463,-3600.648841
527.305524,-4145.153275,-11399.171507,-3753.867940
527.305847,148.041188,-9474.636058,-2681.334243
527.306170,4737.318029,-9178.553681,-689.485948
527.306492,6513.812290,-8290.306550,1762.019645
527.306815,6439.791695,-6291.750507,3370.820191
527.307138,6365.771101,-4737.318029,1225.752797
527.307460,5551.544565,-5329.482782,-2451.505594
527.307783,2146.597232,-7105.977043,-3294.210641
527.308106,-1850.514855,-8142.265362,-919.314598
527.308428,-3256.906145,-7994.224174,-1378.971896
527.308751,-3404.947333,-7105.977043,-3830.477490
527.309073,-5107.421000,-7920.203579,-4749.792088
527.309396,-6661.853478,-11399.171507,-3140.991542
527.309719,-7920.203579,-12953.603985,-2528.115143
527.310041,-7402.059420,-14804.118840,-3983.696590
527.310364,-5329.482782,-15396.283594,-4979.620737
527.310687,-1184.329507,-13619.789333,-3600.648841
527.311009,2886.803174,-11177.109724,-1991.848295
527.311332,7402.059420,-8808.450710,383.047749
527.311655,10214.842000,-7105.977043,2987.772442
527.311977,11325.150913,-4145.153275,3370.820191
527.312300,10658.965565,-3478.967927,1915.238745
527.312622,7031.956449,-5255.462188,-766.095498
527.312945,2516.700203,-6883.915261,-2221.676944
527.313268,-2146.597232,-8068.244768,-2451.505594
527.313590,-5107.421000,-8882.471304,-3294.210641
527.313913,-6069.688724,-10288.862594,-4903.011187
527.314236,-8068.244768,-10140.821405,-5515.887586
527.314558,-9400.615463,-10436.903782,-5056.230287
527.314881,-9104.533087,-12509.480420,-3447.429741
527.315204,-7772.162391,-16136.489536,-3907.087040
527.315526,-6217.729913,-14656.077652,-4060.306139
527.315849,-3034.844362,-13397.727550,-4443.353888
527.316171,1850.514855,-12361.439231,-3370.820191
527.316494,6809.894666,-11621.233289,-229.828649
527.316817,8216.285956,-8068.244768,3140.991542
527.317139,7846.182985,-2146.597232,3907.087040
527.317462,7476.080014,-518.144159,2604.724693
527.317785,5995.668130,-4219.173869,-766.095498
527.318107,2590.720797,-7328.038826,-1149.143247
527.318430,-1184.329507,-7254.018232,0.000000
527.318753,-1702.473667,-8290.306550,-1838.629195
527.319075,-1924.535449,-9918.759623,-2987.772442
527.319398,-4663.297435,-9770.718434,-1455.581446
527.319721,-8808.450710,-9178.553681,-1762.019645
527.320043,-10066.800811,-11695.253884,-4136.915689
527.320366,-8586.388927,-15100.201217,-6588.421283
527.320688,-6587.832884,-16062.468941,-5362.668486
527.321011,-4737.318029,-14804.118840,-3753.867940
527.321334,-296.082377,-13249.686362,-1762.019645
527.321656,4071.132681,-10881.027347,76.609550
527.321979,6661.853478,-8068.244768,2374.896044
527.322302,6735.874072,-4293.194464,3064.381992
527.322624,5699.585753,-2072.576638,689.485948
527.322946,3849.070898,-2442.679609,-1915.238745
527.323269,1258.350101,-6365.771101,-612.876398
527.323591,-444.123565,-9400.615463,1608.800546
527.323914,-1036.288319,-8438.347739,0.000000
527.324236,-1702.473667,-7698.141797,-3217.601092
527.324558,-1998.556043,-9030.512492,-2911.162892
527.324881,-3034.844362,-11177.109724,-1685.410096
527.325203,-3478.967927,-13545.768739,-2298.286494
527.325526,-4293.194464,-13989.892304,-3370.820191
527.325848,-3552.988522,-14211.954086,-3064.381992
527.326170,-444.123565,-12435.459826,-2757.943793
527.326493,3330.926739,-11251.130318,-3370.820191
527.326815,4589.276840,-10362.883188,-1302.362347
527.327138,4071.132681,-7476.080014,2987.772442
527.327460,4293.194464,-4071.132681,3753.867940
527.327782,4663.297435,-3701.029710,-995.924147
527.328105,1850.514855,-5329.482782,-2911.162892
527.328427,-2146.597232,-6291.750507,-1532.190996
527.328750,-4589.276840,-7105.977043,-1302.362347
527.329072,-4663.297435,-8438.347739,-2604.724693
527.329394,-4589.276840,-9252.574275,-2681.334243
527.329717,-7179.997637,-8882.471304,-2987.772442
527.330039,-9548.656652,-10732.986159,-3064.381992
527.330362,-8068.244768,-13767.830521,-4826.401637
527.330684,-4885.359217,-16284.530724,-5975.544884
527.331006,-2368.659014,-15248.242405,-5439.278036
527.331329,1184.329507,-12879.583391,-2451.505594
527.331651,5921.647536,-11991.336260,153.219100
527.331974,8586.388927,-10140.821405,1532.190996
527.332296,8290.306550,-7402.059420,3370.820191
527.332618,7328.038826,-3923.091493,3064.381992
527.332941,6809.894666,-2590.720797,-1225.752797
527.333263,4959.379811,-4219.173869,-3140.991542
527.333586,2368.659014,-6513.812290,-536.266849
527.333908,-592.164754,-7846.182985,766.095498
527.334230,-2368.659014,-8956.491898,-383.047749
527.334553,-3997.112087,-9770.718434,-1532.190996
527.334875,-7179.997637,-9622.677246,-3064.381992
527.335198,-9918.759623,-10732.986159,-4749.792088
527.335520,-10066.800811,-13989.892304,-5975.544884
527.335842,-8438.347739,-15248.242405,-5822.325785
527.336165,-5033.400406,-14359.995275,-4749.792088
527.336487,0.000000,-12879.583391,-2911.162892
527.336809,4959.379811,-12065.356855,-1455.581446
527.337132,7994.224174,-10436.903782,0.000000
527.337454,7772.162391,-7476.080014,2145.067394
527.337777,6217.729913,-4367.215058,2681.334243
527.338099,4737.318029,-3701.029710,-536.266849
527.338421,3701.029710,-4959.379811,-3600.648841
527.338744,1036.288319,-6957.935855,-1608.800546
527.339066,-2072.576638,-6957.935855,1225.752797
527.339389,-2738.761985,-7476.080014,229.828649
527.339711,-2960.823768,-9474.636058,-1378.971896
527.340033,-5181.441594,-9326.594869,-2681.334243
527.340356,-6957.935855,-10214.842000,-2987.772442
527.340678,-7105.977043,-12953.603985,-4060.306139
527.341001,-5033.400406,-15396.283594,-3830.477490
527.341323,-2294.638420,-14434.015869,-2987.772442
527.341645,2294.638420,-12805.562797,-2834.553343
527.341968,5847.626942,-11177.109724,-306.438199
527.342290,7624.121203,-10066.800811,2068.457845
527.342613,7105.977043,-6661.853478,3140.991542
527.342935,5255.462188,-4145.153275,1608.800546
527.343257,3849.070898,-4737.318029,-1915.238745
527.343580,1184.329507,-5921.647536,-2528.115143
527.343902,-1554.432478,-6735.874072,-1302.362347
527.344225,-4589.276840,-6365.771101,-612.876398
527.344547,-4959.379811,-7624.121203,-1762.019645
527.344869,-6217.729913,-9104.533087,-2911.162892
527.345192,-7254.018232,-9622.677246,-3370.820191
527.345514,-8956.491898,-11325.150913,-3140.991542
527.345837,-9474.636058,-13989.892304,-3983.696590
527.346159,-8438.347739,-15322.262999,-3370.820191
527.346481,-4811.338623,-13545.768739,-2987.772442
527.346804,0.000000,-11843.295072,-4443.353888
527.347126,4737.318029,-11399.171507,-2681.334243
527.347449,7476.080014,-10510.924376,2451.505594
527.347771,8956.491898,-6661.853478,4366.744339
527.348093,8808.450710,-3478.967927,1685.410096
527.348416,8512.368333,-4219.173869,-2068.457845
527.348738,5625.565159,-6143.709319,-2681.334243
527.349061,1628.453072,-7846.182985,-1302.362347
527.349383,-2516.700203,-7698.141797,459.657299
527.349705,-4219.173869,-7994.224174,-1455.581446
527.350028,-4737.318029,-9252.574275,-4443.353888
527.350350,-6587.832884,-9474.636058,-4366.744339
527.350673,-7105.977043,-12361.439231,-1915.238745
527.350995,-7105.977043,-13249.686362,-1302.362347
527.351317,-5181.441594,-14211.954086,-2834.553343
527.351640,-2072.576638,-13619.789333,-3217.601092
527.351962,1702.473667,-11473.192101,-2681.334243
527.352285,4737.318029,-11325.150913,-2911.162892
527.352607,5403.503377,-9252.574275,689.485948
527.352929,5921.647536,-6365.771101,3524.039291
527.353252,7254.018232,-2664.741391,1072.533697
527.353574,6513.812290,-3404.947333,-3370.820191
527.353897,3775.050304,-7994.224174,-2757.943793
527.354219,222.061783,-10436.903782,0.000000
527.354541,-2664.741391,-9252.574275,-459.657299
527.354864,-3478.967927,-7994.224174,-2681.334243
527.355186,-5477.523971,-7772.162391,-4443.353888
527.355509,-7105.977043,-8808.450710,-3830.477490
527.355831,-7254.018232,-11621.233289,-3447.429741
527.356153,-6439.791695,-14656.077652,-3064.381992
527.356476,-4515.256246,-14878.139434,-2834.553343
527.356798,-1036.288319,-14063.912898,-2298.286494
527.357120,2886.803174,-11769.274478,-689.485948
527.357443,6217.729913,-8882.471304,306.438199
527.357765,7105.977043,-7772.162391,1532.190996
527.358088,8142.265362,-4737.318029,1915.238745
527.358410,7550.100608,-2368.659014,0.000000
527.358732,5403.503377,-3404.947333,-1378.971896
527.359055,1332.370696,-6735.874072,-766.095498
527.359377,-3108.864956,-9696.697840,-459.657299
527.359700,-5181.441594,-9844.739029,-842.705048
527.360022,-5921.647536,-9400.615463,-3983.696590
527.360344,-6957.935855,-10214.842000,-5898.935335
527.360667,-9400.615463,-10288.862594,-3600.648841
527.360989,-11991.336260,-11473.192101,-1838.629195
527.361312,-11399.171507,-13323.706956,-2298.286494
527.361634,-8216.285956,-14063.912898,-4213.525239
527.361956,-2516.700203,-12953.603985,-6588.421283
527.362279,3404.947333,-11991.336260,-5669.106685
527.362601,8734.430116,-11103.089130,459.657299
527.362924,11621.233289,-9622.677246,6128.763984
527.363246,11917.315666,-5921.647536,6358.592633
527.363568,10732.986159,-3034.844362,2374.896044
527.363891,7994.224174,-3701.029710,-1838.629195
527.364213,2960.823768,-6365.771101,-2451.505594
527.364536,-1776.494261,-7846.182985,306.438199
527.364858,-3849.070898,-7698.141797,-842.705048
527.365180,-3923.091493,-8660.409521,-3140.991542
527.365503,-5107.421000,-9178.553681,-2451.505594
527.365825,-6217.729913,-10436.903782,-1455.581446
527.366148,-8438.347739,-11103.089130,-3140.991542
527.366470,-8438.347739,-15026.180623,-5592.497135
527.366792,-6883.915261,-15692.365970,-5209.449386
527.367115,-3923.091493,-12953.603985,-4979.620737
527.367437,0.000000,-10807.006753,-3907.087040
527.367760,4071.132681,-10140.821405,-1455.581446
527.368082,7254.018232,-8512.368333,1915.238745
527.368404,8068.244768,-4737.318029,3370.820191
527.368727,7698.141797,-2442.679609,1149.143247
527.369049,6143.709319,-4885.359217,-2298.286494
527.369372,2886.803174,-7698.141797,-1838.629195
527.369694,-592.164754,-7550.100608,1762.019645
527.370016,-2738.761985,-7476.080014,-383.047749
527.370339,-3849.070898,-8142.265362,-2757.943793
527.370661,-6069.688724,-8956.491898,-2987.772442
527.370984,-9548.656652,-9622.677246,-2221.676944
527.371306,-10658.965565,-11547.212695,-2451.505594
527.371628,-8586.388927,-14359.995275,-3907.087040
527.371951,-5403.503377,-15470.304188,-4366.744339
527.372273,-962.267725,-13545.768739,-3753.867940
527.372596,5181.441594,-11695.253884,-2604.724693
527.372918,10362.883188,-11251.130318,0.000000
527.373240,13249.686362,-9918.759623,2681.334243
527.373563,13249.686362,-5773.606348,3753.867940
527.373885,11695.253884,-2738.761985,1225.752797
527.374208,7402.059420,-4959.379811,-1608.800546
527.374530,1332.370696,-8142.265362,-1072.533697
527.374852,-3627.009116,-8364.327145,-459.657299
527.375175,-6883.915261,-7624.121203,-2451.505594
527.375497,-7105.977043,-7994.224174,-4290.134789
527.375820,-7624.121203,-9474.636058,-3294.210641
527.376142,-9696.697840,-10066.800811,-2145.067394
527.376464,-10584.944971,-11473.192101,-2528.115143
527.376787,-8438.347739,-14508.036463,-3064.381992
527.377109,-5847.626942,-15248.242405,-4903.011187
527.377431,-2368.659014,-12435.459826,-6205.373534
527.377754,2146.597232,-10658.965565,-3600.648841
527.378076,6143.709319,-9178.553681,919.314598
527.378399,8364.327145,-6809.894666,2528.115143
527.378721,9104.533087,-4663.297435,2374.896044
527.379043,8734.430116,-4959.379811,-229.828649
527.379366,5255.462188,-7105.977043,-2374.896044
527.379688,74.020594,-7698.141797,-689.485948
527.380011,-2442.679609,-8364.327145,306.438199
527.380333,-3849.070898,-8364.327145,-1838.629195
527.380655,-5255.462188,-7846.182985,-3447.429741
527.380978,-8068.244768,-8956.491898,-3064.381992
527.381300,-10288.862594,-10362.883188,-1455.581446
527.381623,-10955.047942,-12805.562797,-1991.848295
527.381945,-8734.430116,-14656.077652,-4136.915689
527.382267,-5699.585753,-14285.974681,-3677.258390
527.382590,-370.102971,-13101.645173,-3140.991542
527.382912,5329.482782,-11325.150913,-2145.067394
527.383235,9104.533087,-10066.800811,1225.752797
527.383557,10436.903782,-7772.162391,3677.258390
527.383879,10362.883188,-4071.132681,2681.334243
527.384202,9326.594869,-2812.782580,-1378.971896
527.384524,5329.482782,-5699.585753,-2681.334243
527.384847,74.020594,-7994.224174,-1149.143247
527.385169,-3923.091493,-8882.471304,-229.828649
527.385491,-4959.379811,-9474.636058,-2145.067394
527.385814,-5921.647536,-9696.697840,-4060.306139
527.386136,-7476.080014,-9400.615463,-3217.601092
527.386459,-9326.594869,-10066.800811,-1991.848295
527.386781,-10288.862594,-12139.377449,-2298.286494
527.387103,-8438.347739,-14063.912898,-3600.648841
527.387426,-5477.523971,-13767.830521,-3217.601092
527.387748,-1184.329507,-11547.212695,-3294.210641
527.388071,4737.318029,-10584.944971,-2911.162892
527.388393,8586.388927,-9770.718434,0.000000
527.388715,10436.903782,-7476.080014,3753.867940
527.389038,11769.274478,-4145.153275,3447.429741
527.389360,10881.027347,-3034.844362,0.000000
527.389683,7328.038826,-5847.626942,-1762.019645
527.390005,2220.617826,-8512.368333,0.000000
527.390327,-2146.597232,-8364.327145,76.609550
527.390650,-3997.112087,-8216.285956,-1991.848295
527.390972,-4737.318029,-9104.533087,-3370.820191
527.391295,-7254.018232,-9030.512492,-4060.306139
527.391617,-8956.491898,-10288.862594,-3140.991542
527.391939,-7920.203579,-13915.871710,-3294.210641
527.392262,-5625.565159,-16358.551318,-2911.162892
527.392584,-2960.823768,-15100.201217,-3983.696590
527.392907,666.185348,-11843.295072,-2987.772442
527.393229,4589.276840,-9992.780217,-612.876398
527.393551,7105.977043,-8660.409521,689.485948
527.393874,8660.409521,-5773.606348,1991.848295
527.394196,8808.450710,-2442.679609,1762.019645
527.394519,7105.977043,-2220.617826,0.000000
527.394841,3627.009116,-5773.606348,-1838.629195
527.395163,-814.226536,-8438.347739,-459.657299
527.395486,-4589.276840,-8734.430116,-536.266849
527.395808,-6365.771101,-8956.491898,-3370.820191
527.396130,-7846.182985,-10140.821405,-4903.011187
527.396453,-10066.800811,-10584.944971,-5286.058936
527.396775,-11695.253884,-11029.068536,-3983.696590
527.397098,-11621.233289,-13619.789333,-4136.915689
527.397420,-9844.739029,-15026.180623,-3600.648841
527.397742,-5773.606348,-15396.283594,-5515.887586
527.398065,-222.061783,-13693.809927,-5745.716235
527.398387,6661.853478,-12287.418637,-3217.601092
527.398710,11473.192101,-10658.965565,1302.362347
527.399032,13175.665768,-6513.812290,5132.839837
527.399354,12583.501014,-1924.535449,4443.353888
527.399677,10807.006753,-1480.411884,0.000000
527.399999,6143.709319,-5033.400406,-2298.286494
527.400322,296.082377,-7920.203579,766.095498
527.400644,-3552.988522,-7402.059420,689.485948
527.400966,-5181.441594,-8660.409521,-2987.772442
527.401289,-5921.647536,-10362.883188,-3830.477490
527.401611,-7994.224174,-10881.027347,-1762.019645
527.401934,-10288.862594,-13101.645173,-1378.971896
527.402256,-10362.883188,-13841.851115,-3447.429741
527.402578,-8068.244768,-13619.789333,-4979.620737
527.402901,-4071.132681,-12879.583391,-5745.716235
527.403223,-370.102971,-11473.192101,-4596.572988
527.403546,2812.782580,-11177.109724,-1149.143247
527.403868,4811.338623,-9252.574275,2068.457845
527.404190,6661.853478,-5995.668130,2604.724693
527.404513,8586.388927,-3404.947333,306.438199
527.404835,7772.162391,-3182.885551,-2834.553343
527.405158,3627.009116,-5921.647536,-1838.629195
527.405480,-370.102971,-7994.224174,1838.629195
527.405802,-2368.659014,-7550.100608,612.876398
527.406125,-2664.741391,-7994.224174,-3217.601092
527.406447,-6069.688724,-8438.347739,-4749.792088
527.406770,-8808.450710,-10584.944971,-3064.381992
527.407092,-9252.574275,-12953.603985,-1762.019645
527.407414,-7402.059420,-15174.221811,-2911.162892
527.407737,-4811.338623,-14508.036463,-3064.381992
527.408059,-1850.514855,-11769.274478,-2604.724693
527.408382,2812.782580,-10140.821405,-1685.410096
527.408704,7254.018232,-9622.677246,0.000000
527.409026,9474.636058,-8660.409521,2451.505594
527.409349,9918.759623,-4737.318029,2834.553343
527.409671,9400.615463,-3552.988522,1149.143247
527.409994,7476.080014,-6883.915261,-1225.752797
527.410316,3182.885551,-8660.409521,-1225.752797
527.410638,-1036.288319,-8364.327145,-612.876398
527.410961,-3182.885551,-8438.347739,-2451.505594
527.411283,-3701.029710,-9696.697840,-4519.963438
527.411606,-6439.791695,-10140.821405,-4136.915689
527.411928,-9548.656652,-9770.718434,-3217.601092
527.412250,-10584.944971,-12583.501014,-3064.381992
527.412573,-9178.553681,-15840.407159,-3983.696590
527.412895,-6587.832884,-14656.077652,-3830.477490
527.413218,-4663.297435,-11547.212695,-4136.915689
527.413540,-148.041188,-10066.800811,-3064.381992
527.413862,5847.626942,-10584.944971,612.876398
527.414185,8956.491898,-8956.491898,2911.162892
527.414507,9326.594869,-3256.906145,3600.648841
527.414830,9622.677246,-814.226536,1685.410096
527.415152,7624.121203,-3034.844362,-689.485948
527.415474,3775.050304,-6661.853478,-612.876398
527.415797,-592.164754,-8438.347739,306.438199
527.416119,-2590.720797,-9178.553681,-2451.505594
527.416441,-3108.864956,-10214.842000,-4673.182538
527.416764,-4367.215058,-11843.295072,-3140.991542
527.417086,-8808.450710,-11917.315666,-2451.505594
527.417409,-9474.636058,-14211.954086,-2911.162892
527.417731,-8068.244768,-16506.592507,-4290.134789
527.418053,-5477.523971,-14434.015869,-3983.696590
527.418376,-2738.761985,-10955.047942,-3677.258390
527.418698,1184.329507,-9104.533087,-2451.505594
527.419021,4885.359217,-8734.430116,306.438199
527.419343,7105.977043,-7476.080014,3370.820191
527.419665,7920.203579,-4663.297435,4673.182538
527.419988,7772.162391,-1702.473667,1225.752797
527.420310,4811.338623,-2886.803174,-2145.067394
527.420633,962.267725,-6069.688724,-1225.752797
527.420955,-1924.535449,-8364.327145,0.000000
527.421277,-3182.885551,-8882.471304,-3140.991542
527.421600,-3404.947333,-9992.780217,-5592.497135
527.421922,-5403.503377,-11103.089130,-4443.353888
527.422245,-8660.409521,-11917.315666,-2528.115143
527.422567,-9400.615463,-14730.098246,-3064.381992
527.422889,-9030.512492,-16358.551318,-4519.963438
527.423212,-7105.977043,-14656.077652,-4290.134789
527.423534,-3552.988522,-12213.398043,-4060.306139
527.423856,592.164754,-9622.677246,-2757.943793
527.424178,4737.318029,-8586.388927,0.000000
527.424501,7179.997637,-7179.997637,2528.115143
527.424823,8142.265362,-4885.359217,3907.087040
527.425145,8660.409521,-2738.761985,1991.848295
527.425468,6957.935855,-4811.338623,-1685.410096
527.425790,3182.885551,-7772.162391,-1455.581446
527.426112,-296.082377,-8216.285956,1149.143247
527.426435,-2516.700203,-7402.059420,-995.924147
527.426757,-4367.215058,-7772.162391,-5132.839837
527.427079,-6439.791695,-9770.718434,-6665.030833
527.427401,-7846.182985,-13027.624579,-4596.572988
527.427724,-7994.224174,-15396.283594,-3064.381992
527.428046,-6809.894666,-17764.942608,-2681.334243
527.428368,-3775.050304,-16506.592507,-2987.772442
527.428691,1480.411884,-13101.645173,-2451.505594
527.429013,5551.544565,-10066.800811,-1455.581446
527.429335,7698.141797,-7476.080014,2221.676944
527.429658,8438.347739,-3256.906145,4673.182538
527.429980,8882.471304,-740.205942,3753.867940
527.430302,7920.203579,-2072.576638,383.047749
527.430625,4515.256246,-5847.626942,-1225.752797
527.430947,-740.205942,-7698.141797,-689.485948
527.431269,-3849.070898,-7920.203579,-153.219100
527.431591,-3552.988522,-8586.388927,-2604.724693
527.431914,-3256.906145,-8956.491898,-6281.983084
527.432236,-5033.400406,-10436.903782,-5745.716235
527.432558,-7994.224174,-11843.295072,-3677.258390
527.432881,-8734.430116,-16358.551318,-3600.648841
527.433203,-8216.285956,-17542.880825,-4366.744339
527.433525,-6587.832884,-15322.262999,-5209.449386
527.433848,-3108.864956,-12805.562797,-5056.230287
527.434170,2146.597232,-11399.171507,-3140.991542
527.434492,6217.729913,-9844.739029,919.314598
527.434814,8586.388927,-5477.523971,4903.011187
527.435137,9622.677246,0.000000,4979.620737
527.435459,9474.636058,444.123565,1762.019645
527.435781,7179.997637,-3552.988522,-1378.971896
527.436104,1258.350101,-7328.038826,229.828649
527.436426,-3849.070898,-7772.162391,995.924147
527.436748,-4737.318029,-9178.553681,-2681.334243
527.437071,-4293.194464,-11473.192101,-5362.668486
527.437393,-5477.523971,-12213.398043,-4596.572988
527.437715,-9918.759623,-11473.192101,-2987.772442
527.438037,-10510.924376,-13989.892304,-3140.991542
527.438360,-8216.285956,-16580.613101,-5132.839837
527.438682,-5551.544565,-16506.592507,-5439.278036
527.439004,-2960.823768,-13471.748144,-5898.935335
527.439327,0.000000,-11917.315666,-4290.134789
527.439649,3404.947333,-11029.068536,-306.438199
527.439971,6365.771101,-8512.368333,3677.258390
527.440294,8142.265362,-3627.009116,3140.991542
527.440616,8734.430116,-592.164754,-536.266849
527.440938,6587.832884,-1628.453072,-995.924147
527.441261,1480.411884,-4885.359217,1532.190996
527.441583,-1628.453072,-6809.894666,1608.800546
527.441905,-2738.761985,-8216.285956,-2681.334243
527.442227,-3256.906145,-9474.636058,-5286.058936
527.442550,-4441.235652,-10510.924376,-3447.429741
527.442872,-4219.173869,-13693.809927,-2528.115143
527.443194,-4663.297435,-15174.221811,-2757.943793
527.443517,-4293.194464,-16210.510130,-2757.943793
527.443839,-2812.782580,-14359.995275,-2451.505594
527.444161,444.123565,-11843.295072,-3753.867940
527.444484,2960.823768,-9844.739029,-2911.162892
527.444806,4515.256246,-8512.368333,-229.828649
527.445128,5181.441594,-6143.709319,4060.306139
527.445450,6957.935855,-3182.885551,4519.963438
527.445773,6883.915261,-2664.741391,1302.362347
527.446095,4219.173869,-4959.379811,-766.095498
527.446417,148.041188,-6513.812290,383.047749
527.446740,-3108.864956,-7105.977043,842.705048
527.447062,-4219.173869,-7772.162391,-1532.190996
527.447384,-5107.421000,-7550.100608,-4366.744339
527.447707,-6957.935855,-8364.327145,-5132.839837
527.448029,-7476.080014,-11325.150913,-5132.839837
527.448351,-7105.977043,-15100.201217,-4903.011187
527.448674,-5699.585753,-17468.860231,-4290.134789
527.448996,-3552.988522,-17172.777854,-3753.867940
527.449318,74.020594,-14211.954086,-3140.991542
527.449640,3923.091493,-12509.480420,-2987.772442
527.449963,5033.400406,-8882.471304,229.828649
527.450285,6883.915261,-5551.544565,4213.525239
527.450607,8808.450710,-1776.494261,2145.067394
527.450930,8734.430116,-296.082377,0.000000
527.451252,5551.544565,-3701.029710,1608.800546
527.451574,666.185348,-6809.894666,3064.381992
527.451897,-1850.514855,-7920.203579,1072.533697
527.452219,-3182.885551,-10362.883188,-3447.429741
527.452541,-4737.318029,-11695.253884,-3983.696590
527.452863,-8364.327145,-10362.883188,-2681.334243
527.453186,-9844.739029,-10658.965565,-3907.087040
527.453508,-9696.697840,-12361.439231,-5286.058936
527.453830,-7624.121203,-15322.262999,-5669.106685
527.454153,-5329.482782,-14878.139434,-5898.935335
527.454475,-592.164754,-13693.809927,-5898.935335
527.454797,4145.153275,-12731.542202,-3217.601092
527.455120,7105.977043,-11547.212695,1608.800546
527.455442,7698.141797,-8216.285956,5286.058936
527.455764,7254.018232,-3404.947333,3217.601092
527.456086,5773.606348,-888.247130,-2145.067394
527.456409,2590.720797,-3182.885551,-2528.115143
527.456731,-1850.514855,-5477.523971,919.314598
527.457053,-4959.379811,-6217.729913,306.438199
527.457376,-5403.503377,-8734.430116,-3140.991542
527.457698,-4293.194464,-10881.027347,-3140.991542
527.458020,-4737.318029,-11177.109724,-1915.238745
527.458343,-6587.832884,-10214.842000,-1762.019645
527.458665,-6217.729913,-13545.768739,-3064.381992
527.458987,-4367.215058,-14063.912898,-3600.648841
527.459310,-1998.556043,-12731.542202,-4519.963438
527.459632,518.144159,-11399.171507,-3524.039291
527.459954,3256.906145,-11695.253884,-1225.752797
527.460276,5255.462188,-10658.965565,766.095498
527.460599,6883.915261,-7920.203579,2681.334243
527.460921,7328.038826,-5255.462188,2451.505594
527.461243,6587.832884,-6291.750507,-229.828649
527.461566,3330.926739,-7105.977043,-1149.143247
527.461888,-1332.370696,-5477.523971,0.000000
527.462210,-4145.153275,-4885.359217,-995.924147
527.462533,-4885.359217,-7031.956449,-3907.087040
527.462855,-6291.750507,-9030.512492,-4136.915689
527.463177,-10214.842000,-9400.615463,-3447.429741
527.463499,-12065.356855,-11843.295072,-2451.505594
527.463822,-10362.883188,-14804.118840,-3217.601092
527.464144,-7550.100608,-15544.324782,-4443.353888
527.464466,-5329.482782,-13175.665768,-4443.353888
527.464789,-2220.617826,-10214.842000,-3064.381992
527.465111,2220.617826,-9622.677246,-1149.143247
527.465433,5995.668130,-9548.656652,0.000000
527.465756,7031.956449,-7254.018232,2374.896044
527.466078,6957.935855,-5329.482782,2221.676944
527.466400,6587.832884,-5921.647536,-1455.581446
527.466722,3849.070898,-7476.080014,-2298.286494
527.467045,-1036.288319,-8216.285956,689.485948
527.467367,-3849.070898,-7698.141797,842.705048
527.467689,-4145.153275,-7105.977043,-3140.991542
527.468012,-4367.215058,-7624.121203,-5056.230287
527.468334,-7105.977043,-8734.430116,-2834.553343
527.468656,-10732.986159,-10658.965565,-1378.971896
527.468979,-10066.800811,-14656.077652,-2221.676944
527.469301,-7994.224174,-16210.510130,-3753.867940
527.469623,-5329.482782,-13175.665768,-3753.867940
527.469946,-2960.823768,-9474.636058,-1685.410096
527.470268,888.247130,-8438.347739,919.314598
527.470590,3923.091493,-8290.306550,383.047749
527.470912,5255.462188,-6587.832884,689.485948
527.471235,5329.482782,-4441.235652,1455.581446
527.471557,4589.276840,-4515.256246,-383.047749
527.471879,2368.659014,-7328.038826,-1762.019645
527.472202,-2368.659014,-9696.697840,-306.438199
527.472524,-7254.018232,-9400.615463,919.314598
527.472846,-9104.533087,-8216.285956,-1915.238745
527.473169,-7402.059420,-9030.512492,-5669.106685
527.473491,-8068.244768,-9918.759623,-6818.249932
527.473813,-9918.759623,-10288.862594,-4596.572988
527.474135,-9992.780217,-11325.150913,-1455.581446
527.474458,-6957.935855,-13693.809927,-2068.457845
527.474780,-3997.112087,-15100.201217,-4136.915689
527.475102,-3256.906145,-13397.727550,-2987.772442
527.475425,-3034.844362,-9474.636058,-306.438199
527.475747,0.000000,-6365.771101,536.266849
527.476069,4737.318029,-6069.688724,0.000000
527.476392,6735.874072,-4959.379811,-536.266849
527.476714,5847.626942,-4145.153275,612.876398
527.477036,4515.256246,-4441.235652,2451.505594
527.477358,3923.091493,-6513.812290,995.924147
527.477681,962.267725,-8882.471304,-2374.896044
527.478003,-3701.029710,-10362.883188,-4749.792088
527.478325,-7476.080014,-12287.418637,-5286.058936
527.478648,-9548.656652,-14211.954086,-5515.887586
527.478970,-9178.553681,-13841.851115,-4213.525239
527.479292,-7994.224174,-12805.562797,-4136.915689
527.479615,-6883.915261,-10807.006753,-4903.011187
527.479937,-5107.421000,-11473.192101,-2987.772442
527.480259,-2072.576638,-11843.295072,-919.314598
527.480582,-888.247130,-10732.986159,-1608.800546
527.480904,-888.247130,-9992.780217,-1991.848295
527.481226,-1480.411884,-8512.368333,1302.362347
527.481548,-1332.370696,-6365.771101,4443.353888
527.481871,740.205942,-2664.741391,2604.724693
527.482193,2590.720797,-2516.700203,-536.266849
527.482515,3923.091493,-5847.626942,-1302.362347
527.482838,3552.988522,-7994.224174,76.609550
527.483160,2294.638420,-7476.080014,766.095498
527.483482,222.061783,-7920.203579,-383.047749
527.483805,-1036.288319,-10658.965565,-2451.505594
527.484127,-1998.556043,-11251.130318,-5592.497135
527.484449,-6143.709319,-11251.130318,-6971.469032
527.484771,-10066.800811,-12879.583391,-4596.572988
527.485094,-10658.965565,-14878.139434,-2451.505594
527.485416,-8512.368333,-13619.789333,-2834.553343
527.485738,-5403.503377,-10584.944971,-3983.696590
527.486061,-3923.091493,-8290.306550,-3064.381992
527.486383,-1554.432478,-7846.182985,-383.047749
527.486705,-222.061783,-7402.059420,3600.648841
527.487028,0.000000,-5921.647536,4060.306139
527.487350,-1480.411884,-3775.050304,-689.485948
527.487672,-2516.700203,-4663.297435,-3600.648841
527.487994,-3256.906145,-8660.409521,-2068.457845
527.488317,-4663.297435,-10140.821405,-153.219100
527.488639,-6069.688724,-10584.944971,-689.485948
527.488961,-4441.235652,-11473.192101,-1149.143247
527.489284,-962.267725,-11473.192101,-1378.971896
527.489606,1184.329507,-10584.944971,-2834.553343
527.489928,1184.329507,-10881.027347,-3217.601092
527.490251,1184.329507,-10955.047942,-2681.334243
527.490573,1924.535449,-11843.295072,-2221.676944
527.490895,2368.659014,-11029.068536,-1225.752797
527.491218,1184.329507,-9992.780217,-229.828649
527.491540,-1036.288319,-9400.615463,-689.485948
527.491862,-2812.782580,-9252.574275,-919.314598
527.492184,-4589.276840,-8512.368333,-459.657299
527.492507,-6143.709319,-6365.771101,-919.314598
527.492829,-7105.977043,-4219.173869,-1608.800546
527.493151,-6365.771101,-4441.235652,-4060.306139
527.493474,-5995.668130,-5995.668130,-4519.963438
527.493796,-6143.709319,-8956.491898,-3217.601092
527.494118,-6217.729913,-10436.903782,-1991.848295
527.494441,-5551.544565,-12139.377449,-1915.238745
527.494763,-3108.864956,-13175.665768,-3677.258390
527.495085,-2220.617826,-13545.768739,-4749.792088
527.495407,-2368.659014,-12879.583391,-3753.867940
527.495730,-2368.659014,-11177.109724,-1072.533697
527.496052,-814.226536,-9992.780217,229.828649
527.496374,592.164754,-9474.636058,-1072.533697
527.496697,74.020594,-9030.512492,-459.657299
527.497019,-666.185348,-7920.203579,1302.362347
527.497341,-518.144159,-6735.874072,1915.238745
527.497664,814.226536,-6587.832884,689.485948
527.497986,2220.617826,-6069.688724,0.000000
527.498308,2368.659014,-4959.379811,0.000000
527.498630,1184.329507,-4737.318029,-1072.533697
527.498953,592.164754,-7179.997637,-1915.238745
527.499275,-592.164754,-9918.759623,-2451.505594
527.499597,-2738.761985,-11177.109724,-3753.867940
527.499920,-4367.215058,-11473.192101,-5056.230287
527.500242,-4737.318029,-12805.562797,-5592.497135
527.500564,-4367.215058,-14211.954086,-5745.716235
527.500887,-3923.091493,-15174.221811,-4366.744339
527.501209,-5995.668130,-13915.871710,-2528.115143
527.501531,-7254.018232,-11177.109724,-766.095498
527.501854,-7994.224174,-8068.244768,-1762.019645
527.502176,-7105.977043,-5995.668130,-3064.381992
527.502498,-5329.482782,-5551.544565,-3140.991542
527.502820,-2960.823768,-6069.688724,-2298.286494
527.503143,-1628.453072,-6217.729913,-153.219100
527.503465,592.164754,-7772.162391,2451.505594
527.503787,3034.844362,-9178.553681,4290.134789
527.504110,5625.565159,-9400.615463,153.219100
527.504432,6069.688724,-9918.759623,-3907.087040
527.504754,4145.153275,-10881.027347,-1915.238745
527.505077,1036.288319,-9992.780217,383.047749
527.505399,-2812.782580,-9474.636058,-1608.800546
527.505721,-5551.544565,-10584.944971,-2834.553343
527.506043,-8216.285956,-11843.295072,-2987.772442
527.506366,-10658.965565,-10732.986159,-3907.087040
527.506688,-12879.583391,-9326.594869,-3064.381992
527.507010,-11843.295072,-9030.512492,-1685.410096
527.507333,-7179.997637,-7772.162391,-1915.238745
527.507655,-2812.782580,-7031.956449,-2604.724693
527.507977,-666.185348,-5699.585753,-1685.410096
527.508300,518.144159,-5921.647536,-995.924147
527.508622,222.061783,-7254.018232,-766.095498
527.508944,-148.041188,-9104.533087,-995.924147
527.509267,-962.267725,-9770.718434,-2757.943793
527.509589,-592.164754,-10362.883188,-3677.258390
527.509911,0.000000,-11473.192101,-3217.601092
527.510233,666.185348,-11843.295072,-1302.362347
527.510556,296.082377,-11547.212695,0.000000
527.510878,-1184.329507,-10584.944971,153.219100
527.511200,-2960.823768,-9844.739029,459.657299
527.511523,-4885.359217,-8882.471304,229.828649
527.511845,-6513.812290,-7772.162391,-1608.800546
527.512167,-6513.812290,-8438.347739,-2221.676944
527.512490,-4589.276840,-8808.450710,-689.485948
527.512812,-2368.659014,-8068.244768,689.485948
527.513134,222.061783,-7772.162391,1532.190996
527.513456,1998.556043,-7328.038826,1378.971896
527.513779,3034.844362,-7179.997637,-383.047749
527.514101,2886.803174,-8290.306550,-2451.505594
527.514423,1628.453072,-9548.656652,-3217.601092
527.514746,-296.082377,-9770.718434,-3447.429741
527.515068,-1850.514855,-10584.944971,-4213.525239
527.515390,-3330.926739,-10881.027347,-4903.011187
527.515713,-4589.276840,-11473.192101,-4519.963438
527.516035,-5477.523971,-12583.501014,-4136.915689
527.516357,-6587.832884,-13249.686362,-3064.381992
527.516679,-5921.647536,-13323.706956,-2374.896044
527.517002,-5551.544565,-11473.192101,-1685.410096
527.517324,-5181.441594,-9252.574275,229.828649
527.517646,-5329.482782,-6143.709319,-229.828649
527.517969,-4071.132681,-4219.173869,-919.314598
527.518291,-2812.782580,-3627.009116,-1378.971896
527.518613,-2368.659014,-4219.173869,-995.924147
527.518936,-1702.473667,-6883.915261,1072.533697
527.519258,-666.185348,-9548.656652,459.657299
527.519580,296.082377,-12435.459826,-1838.629195
527.519903,740.205942,-14582.057057,-2911.162892
527.520225,370.102971,-13915.871710,-1302.362347
527.520547,-148.041188,-11029.068536,-153.219100
527.520869,-1258.350101,-8882.471304,-1149.143247
527.521192,-1776.494261,-8068.244768,-1915.238745
527.521514,-3256.906145,-7698.141797,-2145.067394
527.521836,-5477.523971,-7179.997637,-2604.724693
527.522159,-6883.915261,-7698.141797,-2221.676944
527.522481,-6069.688724,-8438.347739,-1991.848295
527.522803,-5403.503377,-8290.306550,-2145.067394
527.523126,-4885.359217,-7328.038826,-1762.019645
527.523448,-5033.400406,-7328.038826,-1378.971896
527.523770,-4515.256246,-8068.244768,-1762.019645
527.524092,-3775.050304,-8882.471304,-2681.334243
527.524415,-3330.926739,-9474.636058,-4826.401637
527.524737,-3330.926739,-10288.862594,-4903.011187
527.525059,-2664.741391,-11991.336260,-3524.039291
527.525382,-1554.432478,-13175.665768,-2145.067394
527.525704,-518.144159,-12953.603985,-842.705048
527.526026,888.247130,-11473.192101,-1455.581446
527.526349,1332.370696,-9992.780217,-1762.019645
527.526671,1628.453072,-8364.327145,-1378.971896
527.526994,1110.308913,-7179.997637,-536.266849
527.527316,296.082377,-6291.750507,-153.219100
527.527638,518.144159,-6439.791695,-153.219100
527.527961,0.000000,-7254.018232,-1072.533697
527.528283,-740.205942,-8290.306550,-842.705048
527.528605,-962.267725,-9252.574275,-766.095498
527.528928,-888.247130,-9918.759623,-1302.362347
527.529250,-444.123565,-10732.986159,-2221.676944
527.529572,148.041188,-10510.924376,-2834.553343
527.529895,-666.185348,-10881.027347,-2451.505594
527.530217,-1776.494261,-11399.171507,-2068.457845
527.530540,-2738.761985,-11843.295072,-1608.800546
527.530862,-3478.967927,-11251.130318,-2068.457845
527.531184,-3404.947333,-10436.903782,-2145.067394
527.531507,-3182.885551,-10658.965565,-1685.410096
527.531829,-2886.803174,-9548.656652,-919.314598
527.532151,-2738.761985,-8512.368333,0.000000
527.532474,-2516.700203,-7105.977043,689.485948
527.532796,-2146.597232,-5699.585753,76.609550
527.533119,-3034.844362,-5773.606348,-1762.019645
527.533441,-4219.173869,-6069.688724,-1991.848295
527.533763,-5255.462188,-6587.832884,-2451.505594
527.534086,-5033.400406,-7846.182985,-3447.429741
527.534408,-4811.338623,-9326.594869,-3294.210641
527.534730,-4663.297435,-10288.862594,-2604.724693
527.535053,-4589.276840,-11103.089130,-2987.772442
527.535375,-3997.112087,-12213.398043,-3447.429741
527.535697,-3108.864956,-12657.521608,-2681.334243
527.536020,-2886.803174,-11695.253884,-1838.629195
527.536342,-2368.659014,-9992.780217,-2298.286494
527.536665,-2590.720797,-9178.553681,-2145.067394
527.536987,-2738.761985,-8808.450710,-1455.581446
527.537309,-3627.009116,-9104.533087,153.219100
527.537632,-4515.256246,-8808.450710,919.314598
527.537954,-5033.400406,-7698.141797,229.828649
527.538276,-4515.256246,-7105.977043,-1149.143247
527.538599,-3849.070898,-6883.915261,-1455.581446
527.538921,-2812.782580,-7772.162391,-689.485948
527.539244,-2146.597232,-8142.265362,-995.924147
527.539566,-1110.308913,-8364.327145,-1762.019645
527.539888,0.000000,-9474.636058,-2604.724693
527.540211,444.123565,-11843.295072,-3447.429741
527.540533,148.041188,-13323.706956,-3064.381992
527.540855,-296.082377,-13619.789333,-2451.505594
527.541178,0.000000,-13323.706956,-2834.553343
527.541500,666.185348,-13841.851115,-3140.991542
527.541823,1110.308913,-12435.459826,-1608.800546
527.542145,0.000000,-10214.842000,0.000000
527.542467,-296.082377,-8586.388927,1225.752797
527.542790,518.144159,-7550.100608,689.485948
527.543112,1036.288319,-6587.832884,536.266849
527.543434,962.267725,-6291.750507,1455.581446
527.543757,1184.329507,-7698.141797,2068.457845
527.544079,1776.494261,-8068.244768,1991.848295
527.544401,2516.700203,-8364.327145,1225.752797
527.544724,3182.885551,-9178.553681,842.705048
527.545046,3182.885551,-10140.821405,536.266849
527.545369,3108.864956,-11547.212695,689.485948
527.545691,2442.679609,-11843.295072,995.924147
527.546013,1850.514855,-12287.418637,919.314598
527.546336,1110.308913,-12287.418637,919.314598
527.546658,740.205942,-12139.377449,2145.067394
527.546980,-518.144159,-9918.759623,2451.505594
527.547303,-518.144159,-8660.409521,2528.115143
527.547625,-592.164754,-7772.162391,2757.943793
527.547948,-888.247130,-6957.935855,3524.039291
527.548270,-2146.597232,-6217.729913,4060.306139
527.548592,-2812.782580,-5847.626942,4596.572988
527.548915,-2886.803174,-6661.853478,4443.353888
527.549237,-2960.823768,-7476.080014,3524.039291
527.549559,-2886.803174,-8142.265362,3524.039291
527.549882,-2886.803174,-9104.533087,3600.648841
527.550204,-2664.741391,-9548.656652,3830.477490
527.550526,-2590.720797,-9844.739029,3370.820191
527.550849,-2516.700203,-10584.944971,3140.991542
527.551171,-2812.782580,-11177.109724,3217.601092
527.551494,-3034.844362,-10807.006753,2757.943793
527.551816,-3478.967927,-10584.944971,2604.724693
527.552138,-2516.700203,-10732.986159,3064.381992
527.552461,-2368.659014,-10140.821405,3907.087040
527.552783,-2146.597232,-9474.636058,4596.572988
527.553105,-1776.494261,-8882.471304,4596.572988
527.553428,-666.185348,-8438.347739,4749.792088
527.553750,-592.164754,-7550.100608,3753.867940
527.554073,-518.144159,-7179.997637,2911.162892
527.554395,-814.226536,-7550.100608,2451.505594
527.554717,-888.247130,-8586.388927,1838.629195
527.555040,-1628.453072,-9548.656652,919.314598
527.555362,-2664.741391,-10881.027347,0.000000
527.555684,-3997.112087,-11251.130318,-536.266849
527.556007,-3627.009116,-11621.233289,-995.924147
527.556329,-3182.885551,-10658.965565,-1302.362347
527.556652,-2590.720797,-9844.739029,-1915.238745
527.556974,-1776.494261,-9474.636058,-2145.067394
527.557296,-888.247130,-9474.636058,-2604.724693
527.557619,370.102971,-10140.821405,-2145.067394
527.557941,1998.556043,-10436.903782,-1532.190996
527.558263,3627.009116,-9844.739029,-1225.752797
527.558586,5255.462188,-8364.327145,-1532.190996
527.558908,6439.791695,-7254.018232,-1685.410096
527.559230,7402.059420,-7624.121203,-2068.457845
527.559553,6513.812290,-8438.347739,-2528.115143
527.559875,3849.070898,-8512.368333,-2757.943793
527.560198,0.000000,-8586.388927,-2757.943793
527.560520,-3478.967927,-8882.471304,-3447.429741
527.560842,-5403.503377,-10881.027347,-6052.154434
527.561165,-5773.606348,-12139.377449,-5975.544884
527.561487,-4219.173869,-11769.274478,-6435.202183
527.561809,-1258.350101,-12287.418637,-5745.716235
527.562132,1554.432478,-13397.727550,-2911.162892
527.562454,4663.297435,-13767.830521,153.219100
527.562777,5477.523971,-11621.233289,689.485948
527.563099,6217.729913,-9178.553681,-306.438199
527.563421,8290.306550,-8364.327145,-1608.800546
527.563744,8364.327145,-7772.162391,-1608.800546
527.564066,5921.647536,-6069.688724,-536.266849
527.564388,1628.453072,-3997.112087,2757.943793
527.564711,-3108.864956,-3775.050304,1838.629195
527.565033,-6587.832884,-5995.668130,-2145.067394
527.565355,-9918.759623,-8438.347739,-5745.716235
527.565678,-11769.274478,-11399.171507,-5439.278036
527.566000,-11843.295072,-11177.109724,-4979.620737
527.566323,-9178.553681,-12509.480420,-3830.477490
527.566645,-5181.441594,-14211.954086,-4290.134789
527.566967,-1776.494261,-15470.304188,-2528.115143
527.567290,-518.144159,-13767.830521,-1762.019645
527.567612,592.164754,-11325.150913,-2451.505594
527.567934,148.041188,-10214.842000,-2834.553343
527.568257,296.082377,-10066.800811,-1532.190996
527.568579,-740.205942,-8956.491898,842.705048
527.568902,-1332.370696,-7994.224174,2834.553343
527.569224,-962.267725,-7994.224174,4749.792088
527.569546,-666.185348,-8512.368333,4136.915689
527.569869,-370.102971,-9178.553681,4443.353888
527.570191,-592.164754,-8956.491898,5209.449386
527.570513,-592.164754,-9030.512492,6894.859482
527.570836,-1702.473667,-7476.080014,5822.325785
527.571158,-2146.597232,-6439.791695,4290.134789
527.571481,-2664.741391,-5181.441594,2374.896044
527.571803,-2294.638420,-5847.626942,689.485948
527.572125,-592.164754,-8364.327145,459.657299
527.572448,1110.308913,-11695.253884,1608.800546
527.572770,2812.782580,-12509.480420,3447.429741
527.573092,2738.761985,-12583.501014,4136.915689
527.573415,2220.617826,-12731.542202,4136.915689
527.573737,1036.288319,-12139.377449,4213.525239
527.574059,-592.164754,-9474.636058,3907.087040
527.574382,-3330.926739,-6365.771101,2911.162892
527.574704,-5033.400406,-6069.688724,4519.963438
527.575027,-4737.318029,-7698.141797,5439.278036
527.575349,-3034.844362,-8882.471304,5745.716235
527.575671,-592.164754,-10066.800811,5822.325785
527.575994,1702.473667,-10807.006753,7431.126331
527.576316,3775.050304,-10510.924376,7737.564530
527.576638,6217.729913,-9030.512492,6665.030833
527.576961,8142.265362,-7920.203579,5132.839837
527.577283,8216.285956,-8068.244768,4290.134789
527.577606,7328.038826,-6883.915261,4749.792088
527.577928,7105.977043,-4367.215058,5898.935335
527.578250,7328.038826,-3478.967927,2604.724693
527.578573,7698.141797,-9030.512492,-2834.553343
527.578895,6661.853478,-16284.530724,-1915.238745
527.579217,2294.638420,-14878.139434,2068.457845
527.579540,-5403.503377,-11843.295072,2681.334243
527.579862,-10436.903782,-13397.727550,1915.238745
527.580184,-11991.336260,-14730.098246,-1685.410096
527.580507,-13471.748144,-12361.439231,-7967.393179
527.580829,-17542.880825,-10732.986159,-6205.373534
527.581152,-18653.189738,-9474.636058,1685.410096
527.581474,-13693.809927,-5995.668130,1762.019645
527.581796,-5847.626942,-4885.359217,-4060.306139
527.582119,666.185348,-7624.121203,-4673.182538
527.582441,5773.606348,-9252.574275,-4060.306139
527.582763,7772.162391,-9918.759623,-3677.258390
527.583086,10214.842000,-9474.636058,995.924147
527.583408,11547.212695,-7254.018232,1225.752797
527.583731,10955.047942,-6735.874072,-5745.716235
527.584053,8660.409521,-11547.212695,-7354.516781
527.584375,4293.194464,-14804.118840,-2068.457845
527.584698,-3552.988522,-14285.974681,459.657299
527.585020,-10732.986159,-15692.365970,-766.095498
527.585342,-14359.995275,-14434.015869,919.314598
527.585665,-16284.530724,-9622.677246,-2451.505594
527.585987,-13619.789333,-6883.915261,-6894.859482
527.586310,-7920.203579,-5995.668130,-4979.620737
527.586632,-2664.741391,-4293.194464,-766.095498
527.586954,2294.638420,-2368.659014,1991.848295
527.587277,6809.894666,-2368.659014,2221.676944
527.587599,10066.800811,-5255.462188,-536.266849
527.587921,10436.903782,-8734.430116,-3907.087040
527.588244,9474.636058,-10362.883188,-3140.991542
527.588566,7105.977043,-11103.089130,-1762.019645
527.588888,4367.215058,-11399.171507,-2681.334243
527.589211,888.247130,-13175.665768,-2604.724693
527.589533,-2220.617826,-13397.727550,-2068.457845
527.589856,-3256.906145,-13397.727550,-2987.772442
527.590178,-3478.967927,-13027.624579,-5209.449386
527.590500,-1258.350101,-12583.501014,-4213.525239
527.590823,-888.247130,-9770.718434,-766.095498
527.591145,-1554.432478,-5551.544565,2834.553343
527.591467,-1998.556043,-5329.482782,2987.772442
527.591790,-1850.514855,-6291.750507,383.047749
527.592112,-1776.494261,-6439.791695,-2757.943793
527.592435,-2442.679609,-6587.832884,-3447.429741
527.592757,-3256.906145,-8808.450710,-536.266849
527.593079,-2960.823768,-11769.274478,2681.334243
527.593402,-666.185348,-13767.830521,3600.648841
527.593724,1184.329507,-12953.603985,2451.505594
527.594046,3627.009116,-12509.480420,-383.047749
527.594369,2812.782580,-9918.759623,76.609550
527.594691,1776.494261,-10658.965565,2681.334243
527.595013,74.020594,-10732.986159,3753.867940
527.595336,-740.205942,-10807.006753,2757.943793
527.595658,-1110.308913,-12287.418637,2221.676944
527.595981,-1554.432478,-11991.336260,3830.477490
527.596303,-3256.906145,-11991.336260,6358.592633
527.596625,-4071.132681,-10510.924376,7967.393179
527.596948,-2442.679609,-8512.368333,7507.735880
527.597270,0.000000,-5403.503377,5592.497135
527.597592,1628.453072,-1850.514855,3983.696590
527.597915,2664.741391,-222.061783,3907.087040
527.598237,2516.700203,-1110.308913,2681.334243
527.598560,1998.556043,-6439.791695,2298.286494
527.598882,0.000000,-11991.336260,3217.601092
527.599204,-2442.679609,-15174.221811,4213.525239
527.599527,-5477.523971,-15026.180623,2681.334243
527.599849,-6735.874072,-14137.933492,536.266849
527.600171,-5551.544565,-13693.809927,-536.266849
527.600494,-4515.256246,-11843.295072,2145.067394
527.600816,-3701.029710,-8808.450710,3907.087040
527.601139,-3330.926739,-6291.750507,6511.811733
527.601461,-2738.761985,-5403.503377,4366.744339
527.601783,-592.164754,-6809.894666,383.047749
527.602106,1480.411884,-9696.697840,-306.438199
527.602428,1036.288319,-10732.986159,2221.676944
527.602750,222.061783,-9104.533087,4979.620737
527.603073,814.226536,-8364.327145,4903.011187
527.603395,3478.967927,-7772.162391,2068.457845
527.603717,4737.318029,-8142.265362,-459.657299
527.604040,3849.070898,-7846.182985,-612.876398
527.604362,3256.906145,-9030.512492,-2451.505594
527.604685,3034.844362,-10362.883188,-2987.772442
527.605007,2960.823768,-13323.706956,-1608.800546
527.605329,-222.061783,-14508.036463,-229.828649
527.605652,-5107.421000,-15470.304188,0.000000
527.605974,-7476.080014,-14878.139434,-2221.676944
527.606296,-6069.688724,-12065.356855,-4443.353888
527.606619,-2960.823768,-9770.718434,-5286.058936
527.606941,-666.185348,-8216.285956,-1915.238745
527.607264,592.164754,-7476.080014,3753.867940
527.607586,2368.659014,-5403.503377,4596.572988
527.607908,2812.782580,-5181.441594,689.485948
527.608231,1554.432478,-7920.203579,-1532.190996
527.608553,-1702.473667,-8734.430116,-612.876398
527.608875,-2368.659014,-7476.080014,-1532.190996
527.609198,518.144159,-6439.791695,-3753.867940
527.609520,4367.215058,-8068.244768,-3830.477490
527.609842,6661.853478,-9104.533087,-2987.772442
527.610165,6069.688724,-8956.491898,-2987.772442
527.610487,4145.153275,-10288.862594,-3217.601092
527.610810,814.226536,-12213.398043,-3294.210641
527.611132,-3997.112087,-14063.912898,-4136.915689
527.611454,-8586.388927,-14211.954086,-4826.401637
527.611777,-10362.883188,-14063.912898,-5669.106685
527.612099,-8512.368333,-12361.439231,-4979.620737
527.612421,-5329.482782,-9474.636058,-1762.019645
527.612744,-2368.659014,-7031.956449,1149.143247
527.613066,-444.123565,-4737.318029,1378.971896
527.613389,1258.350101,-3627.009116,383.047749
527.613711,2146.597232,-4885.359217,0.000000
527.614033,1702.473667,-6513.812290,-229.828649
527.614356,1924.535449,-6809.894666,-1149.143247
527.614678,2368.659014,-6809.894666,-2604.724693
527.615000,2886.803174,-9030.512492,-1378.971896
527.615323,3182.885551,-11325.150913,612.876398
527.615645,2516.700203,-11991.336260,-1532.190996
527.615968,1184.329507,-11695.253884,-4519.963438
527.616290,-740.205942,-12731.542202,-4596.572988
527.616612,-4071.132681,-13915.871710,-2987.772442
527.616935,-7328.038826,-12953.603985,-2221.676944
527.617257,-8808.450710,-11843.295072,-2987.772442
527.617579,-7994.224174,-10955.047942,-2911.162892
527.617902,-5625.565159,-9474.636058,-1302.362347
527.618224,-3256.906145,-8956.491898,229.828649
527.618546,-2960.823768,-8142.265362,2221.676944
527.618869,-2664.741391,-7105.977043,4826.401637
527.619191,-1702.473667,-7105.977043,4826.401637
527.619514,814.226536,-7402.059420,1455.581446
527.619836,3478.967927,-6587.832884,-842.705048
527.620158,3701.029710,-3552.988522,0.000000
527.620481,5181.441594,-2368.659014,1225.752797
527.620803,7994.224174,-5477.523971,-612.876398
527.621125,9104.533087,-11103.089130,-2528.115143
527.621448,5847.626942,-13989.892304,-1532.190996
527.621770,0.000000,-15396.283594,612.876398
527.622093,-3404.947333,-17690.922014,-995.924147
527.622415,-3552.988522,-17542.880825,-4366.744339
527.622737,-2812.782580,-13027.624579,-4213.525239
527.623060,-3256.906145,-7179.997637,383.047749
527.623382,-2960.823768,-5551.544565,2068.457845
527.623704,-1480.411884,-6587.832884,3294.210641
527.624027,-1702.473667,-7624.121203,2911.162892
527.624349,-3627.009116,-9104.533087,2451.505594
527.624671,-3108.864956,-11399.171507,1838.629195
527.624994,1110.308913,-10955.047942,766.095498
527.625316,4811.338623,-5699.585753,612.876398
527.625639,6439.791695,-1850.514855,2298.286494
527.625961,6957.935855,-2664.741391,3064.381992
527.626283,6513.812290,-5403.503377,1072.533697
527.626605,2368.659014,-8142.265362,-1225.752797
527.626928,-3182.885551,-12435.459826,-1838.629195
527.627250,-6513.812290,-15766.386565,-3753.867940
527.627572,-6069.688724,-18357.107362,-6205.373534
527.627895,-5329.482782,-16506.592507,-3753.867940
527.628217,-4663.297435,-12435.459826,1225.752797
527.628539,-4959.379811,-9030.512492,2528.115143
527.628862,-4071.132681,-7476.080014,459.657299
527.629184,-5033.400406,-6365.771101,-536.266849
527.629506,-6809.894666,-6143.709319,229.828649
527.629829,-4737.318029,-7105.977043,459.657299
527.630151,296.082377,-7846.182985,383.047749
527.630473,4737.318029,-4959.379811,1149.143247
527.630796,6439.791695,-2442.679609,2757.943793
527.631118,7624.121203,-3849.070898,1225.752797
527.631440,9104.533087,-7105.977043,-2834.553343
527.631762,8068.244768,-8586.388927,-6052.154434
527.632085,4071.132681,-11251.130318,-6128.763984
527.632407,592.164754,-14285.974681,-4979.620737
527.632729,-740.205942,-17098.757260,-5132.839837
527.633052,-2368.659014,-18061.024985,-3983.696590
527.633374,-3923.091493,-15470.304188,-1378.971896
527.633696,-5699.585753,-10214.842000,-3140.991542
527.634019,-4737.318029,-6735.874072,-5515.887586
527.634341,-3701.029710,-5403.503377,-6435.202183
527.634663,-3627.009116,-7402.059420,-3524.039291
527.634986,-2664.741391,-10436.903782,-919.314598
527.635308,-444.123565,-10140.821405,0.000000
527.635630,2368.659014,-7179.997637,-1838.629195
527.635952,2516.700203,-4663.297435,-3907.087040
527.636275,2812.782580,-4367.215058,-4903.011187
527.636597,2368.659014,-4515.256246,-5439.278036
527.636919,0.000000,-6735.874072,-6281.983084
527.637242,-4737.318029,-11029.068536,-6205.373534
527.637564,-8586.388927,-14656.077652,-6971.469032
527.637886,-9178.553681,-16580.613101,-8733.488677
527.638209,-8956.491898,-17098.757260,-9422.974625
527.638531,-6883.915261,-15766.386565,-7507.735880
527.638853,-3997.112087,-11769.274478,-4903.011187
527.639176,-962.267725,-8586.388927,-3907.087040
527.639498,666.185348,-7698.141797,-459.657299
527.639820,1110.308913,-8068.244768,2451.505594
527.640143,2368.659014,-8216.285956,1991.848295
527.640465,5107.421000,-6069.688724,-306.438199
527.640787,8956.491898,-3330.926739,-689.485948
527.641109,11473.192101,-2072.576638,1915.238745
527.641432,12879.583391,-1776.494261,3830.477490
527.641754,10955.047942,-1924.535449,2604.724693
527.642076,5625.565159,-4441.235652,612.876398
527.642399,-296.082377,-9696.697840,-1608.800546
527.642721,-4219.173869,-14952.160028,-6741.640382
527.643043,-6291.750507,-17987.004391,-10035.851024
527.643366,-7179.997637,-18949.272115,-7277.907231
527.643688,-6587.832884,-15470.304188,-1608.800546
527.644010,-4663.297435,-12805.562797,1072.533697
527.644333,-3182.885551,-10807.006753,0.000000
527.644655,-4441.235652,-10066.800811,-1455.581446
527.644977,-6439.791695,-10288.862594,-2068.457845
527.645300,-4663.297435,-10732.986159,-1455.581446
527.645622,-148.041188,-8956.491898,-612.876398
527.645944,2590.720797,-5033.400406,1685.410096
527.646266,4959.379811,-888.247130,5286.058936
527.646589,5921.647536,-518.144159,5132.839837
527.646911,4885.359217,-4515.256246,3064.381992
527.647233,592.164754,-8586.388927,2451.505594
527.647556,-3330.926739,-10214.842000,612.876398
527.647878,-4515.256246,-10955.047942,-2604.724693
527.648200,-2368.659014,-13249.686362,-3447.429741
527.648523,-1332.370696,-14804.118840,-689.485948
527.648845,-2368.659014,-13027.624579,2834.553343
527.649167,-1998.556043,-12509.480420,3140.991542
527.649490,-592.164754,-14656.077652,766.095498
527.649812,-1258.350101,-12879.583391,306.438199
527.650134,-3108.864956,-8216.285956,459.657299
527.650456,-1258.350101,-6291.750507,612.876398
527.650779,4367.215058,-5033.400406,1608.800546
527.651101,8142.265362,-2590.720797,3907.087040
527.651423,8142.265362,-1850.514855,4136.915689
527.651746,6809.894666,-5699.585753,3830.477490
527.652068,3849.070898,-8586.388927,1762.019645
527.652390,-1258.350101,-8438.347739,-1378.971896
527.652713,-5995.668130,-9918.759623,-4826.401637
527.653035,-7624.121203,-11843.295072,-6128.763984
527.653357,-5773.606348,-12065.356855,-6358.592633
527.653680,-5699.585753,-10955.047942,-4366.744339
527.654002,-5033.400406,-11325.150913,-1225.752797
527.654324,-4367.215058,-12287.418637,-2451.505594
527.654647,-4515.256246,-13101.645173,-4213.525239
527.654969,-5329.482782,-13027.624579,-4290.134789
527.655291,-4589.276840,-12065.356855,-3064.381992
527.655613,74.020594,-11473.192101,-3217.601092
527.655936,5995.668130,-8734.430116,-3524.039291
527.656258,8808.450710,-5033.400406,-1072.533697
527.656580,8808.450710,-3034.844362,1302.362347
527.656903,7402.059420,-2738.761985,383.047749
527.657225,4071.132681,-4737.318029,-2451.505594
527.657547,-1776.494261,-6883.915261,-4903.011187
527.657870,-7846.182985,-9548.656652,-5975.544884
527.658192,-9548.656652,-13027.624579,-7277.907231
527.658514,-8586.388927,-14211.954086,-7814.174080
527.658837,-6661.853478,-13989.892304,-7507.735880
527.659159,-5699.585753,-12509.480420,-4979.620737
527.659481,-4293.194464,-10362.883188,-2145.067394
527.659804,-2146.597232,-9252.574275,-3370.820191
527.660126,-1924.535449,-9770.718434,-4749.792088
527.660448,-740.205942,-11843.295072,-3447.429741
527.660770,2220.617826,-9548.656652,-3677.258390
527.661093,7254.018232,-4145.153275,-2604.724693
527.661415,12731.542202,-1110.308913,-2451.505594
527.661737,15914.427753,-2812.782580,-2145.067394
527.662060,14730.098246,-5625.565159,766.095498
527.662382,9326.594869,-5551.544565,2681.334243
527.662704,1110.308913,-8586.388927,-153.219100
527.663027,-4441.235652,-13619.789333,-4979.620737
527.663349,-7476.080014,-15248.242405,-8656.879127
527.663671,-8512.368333,-12287.418637,-9959.241474
527.663994,-9844.739029,-10510.924376,-8350.440928
527.664316,-6883.915261,-13175.665768,-3217.601092
527.664638,-3182.885551,-14137.933492,-1608.800546
527.664960,-2590.720797,-13693.809927,-1915.238745
527.665283,-5403.503377,-13397.727550,-919.314598
527.665605,-5255.462188,-13397.727550,-1915.238745
527.665927,-1776.494261,-11695.253884,-4136.915689
527.666250,2886.803174,-6069.688724,-2757.943793
527.666572,5625.565159,0.000000,0.000000
527.666894,7550.100608,518.144159,459.657299
527.667217,9030.512492,-3552.988522,2451.505594
527.667539,6069.688724,-6957.935855,2987.772442
527.667861,-962.267725,-9400.615463,536.266849
527.668184,-6143.709319,-13841.851115,-1302.362347
527.668506,-7402.059420,-17098.757260,-3064.381992
527.668828,-7254.018232,-15544.324782,-3983.696590
527.669151,-6735.874072,-11177.109724,-2221.676944
527.669473,-4737.318029,-6809.894666,536.266849
527.669795,-2442.679609,-6661.853478,1225.752797
527.670117,0.000000,-6883.915261,536.266849
527.670440,-1184.329507,-8734.430116,1685.410096
527.670762,-2368.659014,-11843.295072,2528.115143
527.671084,888.247130,-13841.851115,3217.601092
527.671407,5403.503377,-11325.150913,3907.087040
527.671729,8734.430116,-4219.173869,2757.943793
527.672051,10510.924376,-518.144159,2068.457845
527.672374,11399.171507,148.041188,3753.867940
527.672696,7328.038826,-370.102971,3907.087040
527.673018,370.102971,-4885.359217,2298.286494
527.673341,-5403.503377,-11325.150913,-383.047749
527.673663,-7994.224174,-16136.489536,-3830.477490
527.673985,-8216.285956,-18061.024985,-5132.839837
527.674308,-8438.347739,-16358.551318,-3140.991542
527.674630,-7328.038826,-13175.665768,-919.314598
527.674952,-5107.421000,-10510.924376,-229.828649
527.675274,-4811.338623,-8808.450710,-689.485948
527.675597,-7624.121203,-9104.533087,-153.219100
527.675919,-7920.203579,-10881.027347,-2298.286494
527.676241,-3849.070898,-10584.944971,-5056.230287
527.676564,1554.432478,-7476.080014,-4749.792088
527.676886,6069.688724,-4737.318029,-1378.971896
527.677208,8956.491898,-4441.235652,612.876398
527.677531,10658.965565,-6291.750507,1455.581446
527.677853,8216.285956,-7772.162391,76.609550
527.678175,1776.494261,-8734.430116,-2757.943793
527.678498,-3404.947333,-11029.068536,-5209.449386
527.678820,-4811.338623,-12657.521608,-7431.126331
527.679142,-3923.091493,-12953.603985,-7967.393179
527.679464,-3034.844362,-13397.727550,-5592.497135
527.679787,-2146.597232,-13471.748144,-1072.533697
527.680109,-1480.411884,-13249.686362,229.828649
527.680431,-1184.329507,-11991.336260,0.000000
527.680754,-1110.308913,-9770.718434,-1072.533697
527.681076,518.144159,-8734.430116,-3600.648841
527.681398,5551.544565,-7846.182985,-5515.887586
527.681721,10066.800811,-4589.276840,-2528.115143
527.682043,11621.233289,-592.164754,1608.800546
527.682365,9622.677246,-518.144159,2757.943793
527.682688,7105.977043,-4071.132681,689.485948
527.683010,592.164754,-6661.853478,-2451.505594
527.683332,-5995.668130,-8660.409521,-6588.421283
527.683655,-9548.656652,-12361.439231,-10495.508323
527.683977,-8956.491898,-16358.551318,-11414.822920
527.684299,-7994.224174,-16950.716072,-7890.783629
527.684621,-8438.347739,-13767.830521,-2451.505594
527.684944,-9400.615463,-13175.665768,-995.924147
527.685266,-9474.636058,-12583.501014,-2681.334243
527.685588,-7920.203579,-10510.924376,-5209.449386
527.685911,-7698.141797,-9252.574275,-6818.249932
527.686233,-4737.318029,-9178.553681,-4903.011187
527.686555,2442.679609,-7179.997637,459.657299
527.686878,9400.615463,-2368.659014,3064.381992
527.687200,13693.809927,-222.061783,1072.533697
527.687522,14656.077652,-4959.379811,2451.505594
527.687845,12509.480420,-7031.956449,3140.991542
527.688167,5477.523971,-5181.441594,1302.362347
527.688489,-1036.288319,-7846.182985,-1072.533697
527.688812,-2960.823768,-11991.336260,-2681.334243
527.689134,-3034.844362,-11769.274478,-5362.668486
527.689456,-4589.276840,-10881.027347,-5439.278036
527.689778,-8216.285956,-12287.418637,-1608.800546
527.690101,-7772.162391,-16654.633695,612.876398
527.690423,-5551.544565,-17912.983796,-2604.724693
527.690745,-6069.688724,-14730.098246,-2834.553343
527.691068,-7105.977043,-9622.677246,-1149.143247
527.691390,-3701.029710,-7846.182985,-2604.724693
527.691712,2960.823768,-6217.729913,-2757.943793
527.692035,6365.771101,-2146.597232,0.000000
527.692357,5551.544565,-1776.494261,1072.533697
527.692679,5773.606348,-6661.853478,1838.629195
527.693002,6587.832884,-11843.295072,2451.505594
527.693324,3849.070898,-10807.006753,536.266849
527.693646,-296.082377,-9622.677246,-919.314598
527.693968,-740.205942,-10732.986159,-2451.505594
527.694291,444.123565,-10214.842000,-3294.210641
527.694613,296.082377,-11843.295072,-3217.601092
527.694935,-3849.070898,-12657.521608,689.485948
527.695258,-6069.688724,-14508.036463,1302.362347
527.695580,-5551.544565,-15396.283594,-1149.143247
527.695902,-4071.132681,-14508.036463,-689.485948
527.696225,-2664.741391,-11547.212695,1225.752797
527.696547,0.000000,-9400.615463,1378.971896
527.696869,5033.400406,-6143.709319,1762.019645
527.697192,8512.368333,-1406.391290,2987.772442
527.697514,7624.121203,2442.679609,2681.334243
527.697836,6143.709319,814.226536,689.485948
527.698159,4145.153275,-3701.029710,-1532.190996
527.698481,0.000000,-7624.121203,-1838.629195
527.698803,-4515.256246,-11547.212695,-1378.971896
527.699125,-7476.080014,-15544.324782,-2221.676944
527.699448,-7772.162391,-16580.613101,-3217.601092
527.699770,-7772.162391,-13915.871710,-3677.258390
527.700092,-8142.265362,-11325.150913,-2757.943793
527.700415,-8956.491898,-7994.224174,-1378.971896
527.700737,-7402.059420,-7846.182985,-2757.943793
527.701059,-5477.523971,-8586.388927,-3907.087040
527.701382,-3108.864956,-9844.739029,-2451.505594
527.701704,-518.144159,-9696.697840,1149.143247
527.702026,4219.173869,-7031.956449,2911.162892
527.702349,8956.491898,-4589.276840,2987.772442
527.702671,11843.295072,-3256.906145,612.876398
527.702993,12139.377449,-5699.585753,-1608.800546
527.703316,10584.944971,-6143.709319,-229.828649
527.703638,5699.585753,-5329.482782,0.000000
527.703960,0.000000,-7772.162391,-1608.800546
527.704282,-2664.741391,-12213.398043,-4519.963438
527.704605,-4071.132681,-12805.562797,-7354.516781
527.704927,-6143.709319,-13841.851115,-8427.050478
527.705249,-7254.018232,-17024.736666,-5592.497135
527.705572,-6809.894666,-19245.354492,-3983.696590
527.705894,-6365.771101,-17542.880825,-4060.306139
527.706216,-8438.347739,-13619.789333,-2834.553343
527.706539,-8512.368333,-10140.821405,-1991.848295
527.706861,-4811.338623,-9178.553681,-4749.792088
527.707183,2294.638420,-5699.585753,-4596.572988
527.707506,5773.606348,-2516.700203,-4366.744339
527.707828,7550.100608,-4367.215058,-1455.581446
527.708150,8808.450710,-7772.162391,3294.210641
527.708472,8068.244768,-8068.244768,3753.867940
527.708795,2590.720797,-6587.832884,-842.705048
527.709117,-1332.370696,-8660.409521,-4903.011187
527.709439,-2664.741391,-9252.574275,-6894.859482
527.709762,-2664.741391,-9030.512492,-7660.954980
527.710084,-3627.009116,-11103.089130,-4060.306139
527.710406,-3775.050304,-13767.830521,-689.485948
527.710729,-3108.864956,-15544.324782,-919.314598
527.711051,-3552.988522,-14359.995275,-1838.629195
527.711373,-5107.421000,-11325.150913,-995.924147
527.711696,-5329.482782,-10732.986159,-1302.362347
527.712018,-1924.535449,-9252.574275,-1378.971896
527.712340,2368.659014,-4959.379811,153.219100
527.712663,4959.379811,666.185348,1991.848295
527.712985,6809.894666,1554.432478,1455.581446
527.713307,9696.697840,-2220.617826,153.219100
527.713629,7846.182985,-5255.462188,995.924147
527.713952,2368.659014,-6291.750507,1532.190996
527.714274,-2368.659014,-9252.574275,229.828649
527.714596,-3404.947333,-13545.768739,-2987.772442
527.714919,-3404.947333,-13915.871710,-4519.963438
527.715241,-5107.421000,-13027.624579,-3753.867940
527.715563,-7846.182985,-13101.645173,-2987.772442
527.715886,-7105.977043,-14211.954086,-1225.752797
527.716208,-4959.379811,-13397.727550,-1225.752797
527.716530,-4737.318029,-11177.109724,-995.924147
527.716853,-4663.297435,-10955.047942,-766.095498
527.717175,-1332.370696,-11843.295072,-612.876398
527.717497,1702.473667,-10584.944971,306.438199
527.717820,3775.050304,-6365.771101,3140.991542
527.718142,5033.400406,-3627.009116,2681.334243
527.718464,7105.977043,-3923.091493,0.000000
527.718786,8808.450710,-4737.318029,0.000000
527.719109,5551.544565,-5551.544565,76.609550
527.719431,1554.432478,-9770.718434,-995.924147
527.719753,-1184.329507,-15840.407159,-2834.553343
527.720076,-3182.885551,-18949.272115,-3294.210641
527.720398,-5255.462188,-18949.272115,-2528.115143
527.720720,-7105.977043,-16802.674883,-3217.601092
527.721043,-6661.853478,-13767.830521,-2987.772442
527.721365,-4441.235652,-10881.027347,-2374.896044
527.721687,-2886.803174,-8438.347739,-536.266849
527.722010,-3256.906145,-7698.141797,1608.800546
527.722332,-1406.391290,-8290.306550,1685.410096
527.722654,1332.370696,-7550.100608,2528.115143
527.722976,3552.988522,-4367.215058,3140.991542
527.723299,5847.626942,-2146.597232,1838.629195
527.723621,8734.430116,-1850.514855,919.314598
527.723943,9252.574275,-1628.453072,1685.410096
527.724266,5255.462188,-2812.782580,2987.772442
527.724588,296.082377,-6291.750507,2145.067394
527.724910,-2590.720797,-10288.862594,-1072.533697
527.725233,-4145.153275,-12731.542202,-4903.011187
527.725555,-5329.482782,-13545.768739,-4979.620737
527.725878,-6365.771101,-14137.933492,-3983.696590
527.726200,-6365.771101,-11843.295072,-1838.629195
527.726522,-4811.338623,-10807.006753,-1072.533697
527.726845,-4663.297435,-11103.089130,-1072.533697
527.727167,-5403.503377,-11473.192101,-1762.019645
527.727490,-4811.338623,-11177.109724,-2451.505594
527.727812,-1628.453072,-8438.347739,-2221.676944
527.728134,3404.947333,-5625.565159,-2681.334243
527.728457,8142.265362,-5181.441594,-995.924147
527.728779,10362.883188,-3330.926739,1685.410096
527.729102,7698.141797,-222.061783,2528.115143
527.729424,2590.720797,-1998.556043,0.000000
527.729747,-1332.370696,-7846.182985,-4826.401637
527.730069,-4367.215058,-12583.501014,-10725.336972
527.730391,-7105.977043,-15840.407159,-11568.042020
527.730714,-7328.038826,-19023.292709,-5439.278036
527.731036,-5847.626942,-20281.642811,-3907.087040
527.731359,-2738.761985,-18949.272115,-4366.744339
527.731681,-2294.638420,-13545.768739,-3217.601092
527.732004,-3701.029710,-9548.656652,-2374.896044
527.732326,-3404.947333,-9474.636058,-4136.915689
527.732648,-296.082377,-9400.615463,-5286.058936
527.732971,2516.700203,-6143.709319,-3217.601092
527.733293,5625.565159,-3997.112087,-536.266849
527.733616,9474.636058,-5477.523971,76.609550
527.733938,11991.336260,-8364.327145,1991.848295
527.734260,9918.759623,-6809.894666,3140.991542
527.734583,3997.112087,-6217.729913,1762.019645
527.734905,-518.144159,-9030.512492,-2221.676944
527.735228,-2368.659014,-11103.089130,-6358.592633
527.735550,-3182.885551,-9030.512492,-7967.393179
527.735873,-4663.297435,-7920.203579,-5975.544884
527.736195,-3775.050304,-10732.986159,-3524.039291
527.736517,-3478.967927,-14804.118840,-2221.676944
527.736840,-5995.668130,-15766.386565,-229.828649
527.737162,-9844.739029,-15470.304188,1072.533697
527.737485,-9474.636058,-15322.262999,-1532.190996
527.737807,-5107.421000,-12879.583391,-4903.011187
527.738130,-1184.329507,-6439.791695,-1532.190996
527.738452,1628.453072,1776.494261,3140.991542
527.738774,5625.565159,4367.215058,4136.915689
527.739097,9178.553681,2368.659014,3140.991542
527.739419,7772.162391,-1110.308913,2757.943793
527.739742,2368.659014,-5699.585753,1762.019645
527.740064,-1924.535449,-12657.521608,-153.219100
527.740386,-2590.720797,-18949.272115,-995.924147
527.740709,-1998.556043,-19097.313304,-689.485948
527.741031,-2368.659014,-14211.954086,-459.657299
527.741354,-1628.453072,-9104.533087,-306.438199
527.741676,1628.453072,-7698.141797,-1838.629195
527.741999,1924.535449,-6735.874072,-1149.143247
527.742321,-1406.391290,-10584.944971,76.609550
527.742643,-4071.132681,-14508.036463,1685.410096
527.742966,-1628.453072,-16432.571912,536.266849
527.743288,962.267725,-13841.851115,153.219100
527.743611,2664.741391,-9400.615463,2604.724693
527.743933,2738.761985,-4589.276840,3907.087040
527.744256,2368.659014,888.247130,2145.067394
527.744578,666.185348,1332.370696,0.000000
527.744900,-2664.741391,-3330.926739,-919.314598
527.745223,-5625.565159,-8142.265362,-4366.744339
527.745545,-6439.791695,-12139.377449,-6588.421283
527.745868,-6217.729913,-15248.242405,-4749.792088
527.746190,-4737.318029,-17172.777854,-1838.629195
527.746513,-3849.070898,-16950.716072,-1532.190996
527.746835,-2738.761985,-15692.365970,-2221.676944
527.747157,-3478.967927,-13693.809927,-1685.410096
527.747480,-4071.132681,-11473.192101,-1685.410096
527.747802,-1480.411884,-10288.862594,-4136.915689
527.748125,4145.153275,-7476.080014,-4366.744339
527.748447,9844.739029,-4441.235652,-2757.943793
527.748769,12065.356855,-3034.844362,536.266849
527.749092,13027.624579,-6513.812290,4673.182538
527.749414,10584.944971,-5847.626942,6052.154434
527.749737,4071.132681,-3849.070898,2451.505594
527.750059,-2442.679609,-5107.421000,-1532.190996
527.750382,-5255.462188,-7254.018232,-5362.668486
527.750704,-5329.482782,-7476.080014,-8963.317327
527.751026,-3701.029710,-8216.285956,-7124.688131
527.751349,-3849.070898,-8660.409521,-2221.676944
527.751671,-2442.679609,-10807.006753,-1072.533697
527.751994,-2368.659014,-12509.480420,-3753.867940
527.752316,-5329.482782,-14211.954086,-4749.792088
527.752639,-9918.759623,-15248.242405,-4979.620737
527.752961,-10362.883188,-16136.489536,-5822.325785
527.753283,-5551.544565,-13101.645173,-4136.915689
527.753606,296.082377,-6143.709319,-2145.067394
527.753928,4959.379811,-1406.391290,-1532.190996
527.754251,9474.636058,-2442.679609,0.000000
527.754573,11103.089130,-3627.009116,1685.410096
527.754895,6587.832884,-3256.906145,0.000000
527.755218,0.000000,-7105.977043,-2604.724693
527.755540,-3404.947333,-12361.439231,-5056.230287
527.755863,-3404.947333,-14137.933492,-6971.469032
527.756185,-3775.050304,-13323.706956,-6665.030833
527.756508,-4219.173869,-12287.418637,-3907.087040
527.756830,-2072.576638,-12139.377449,-2528.115143
527.757152,296.082377,-11917.315666,-3983.696590
527.757475,0.000000,-12879.583391,-4060.306139
527.757797,-2442.679609,-14434.015869,-2451.505594
527.758120,-2368.659014,-15692.365970,-2604.724693
527.758442,1184.329507,-13323.706956,-2451.505594
527.758765,3849.070898,-7772.162391,-1608.800546
527.759087,4367.215058,-4219.173869,-306.438199
527.759409,4441.235652,-1554.432478,919.314598
527.759732,3478.967927,-2294.638420,1302.362347
527.760054,-222.061783,-5033.400406,459.657299
527.760377,-4071.132681,-9474.636058,-2221.676944
527.760699,-6291.750507,-12435.459826,-3830.477490
527.761021,-4737.318029,-13027.624579,-3677.258390
527.761344,-2960.823768,-12213.398043,-3140.991542
527.761666,-1480.411884,-11103.089130,-1378.971896
527.761989,-740.205942,-9696.697840,-612.876398
527.762311,-1998.556043,-8956.491898,383.047749
527.762634,-4071.132681,-9844.739029,766.095498
527.762956,-4663.297435,-11991.336260,-459.657299
527.763278,-2368.659014,-12435.459826,-1915.238745
527.763601,2294.638420,-9548.656652,0.000000
527.763923,5921.647536,-4737.318029,3140.991542
527.764246,8438.347739,-2886.803174,4979.620737
527.764568,8660.409521,-2664.741391,5439.278036
527.764891,4737.318029,-1332.370696,3753.867940
527.765213,-1480.411884,-3256.906145,1532.190996
527.765535,-4737.318029,-7476.080014,-2145.067394
527.765858,-4737.318029,-10881.027347,-6511.811733
527.766180,-3849.070898,-12065.356855,-6818.249932
527.766503,-2516.700203,-12805.562797,-1838.629195
527.766825,-2368.659014,-13397.727550,1225.752797
527.767148,-1924.535449,-14730.098246,-842.705048
527.767470,-3552.988522,-15026.180623,-2451.505594
527.767792,-6957.935855,-13397.727550,-2374.896044
527.768115,-7328.038826,-11843.295072,-4136.915689
527.768437,-2516.700203,-10436.903782,-5209.449386
527.768760,3849.070898,-7179.997637,-3064.381992
527.769082,7920.203579,-4959.379811,1149.143247
527.769404,9696.697840,-5403.503377,4366.744339
527.769727,9474.636058,-7254.018232,4366.744339
527.770049,5625.565159,-7476.080014,1378.971896
527.770372,0.000000,-7328.038826,-995.924147
527.770694,-2812.782580,-8364.327145,-3677.258390
527.771017,-3182.885551,-9326.594869,-6741.640382
527.771339,-2146.597232,-10066.800811,-6358.592633
527.771661,-1850.514855,-11103.089130,-1378.971896
527.771984,-2294.638420,-11325.150913,383.047749
527.772306,-2294.638420,-12805.562797,-2221.676944
527.772629,-3182.885551,-13767.830521,-4136.915689
527.772951,-5921.647536,-13767.830521,-3830.477490
527.773274,-7179.997637,-13989.892304,-2451.505594
527.773596,-3256.906145,-13249.686362,-2987.772442
527.773918,1924.535449,-8586.388927,-2221.676944
527.774241,3923.091493,-2146.597232,306.438199
527.774563,4959.379811,-444.123565,1991.848295
527.774886,5921.647536,-2294.638420,0.000000
527.775208,5255.462188,-4515.256246,-2221.676944
527.775530,1406.391290,-6513.812290,-2298.286494
527.775853,-2368.659014,-9918.759623,-1532.190996
527.776175,-4293.194464,-13175.665768,-2834.553343
527.776498,-3775.050304,-13841.851115,-3600.648841
527.776820,-3330.926739,-12583.501014,-3217.601092
527.777143,-4071.132681,-10214.842000,-3830.477490
527.777465,-2368.659014,-9918.759623,-3677.258390
527.777787,-222.061783,-9622.677246,-3830.477490
527.778110,0.000000,-10066.800811,-2451.505594
527.778432,666.185348,-11843.295072,-1225.752797
527.778755,3034.844362,-12953.603985,-383.047749
527.779077,4737.318029,-9918.759623,-383.047749
527.779400,3775.050304,-5921.647536,612.876398
527.779722,2220.617826,-4663.297435,1762.019645
527.780044,1924.535449,-4589.276840,0.000000
527.780367,296.082377,-3404.947333,-2451.505594
527.780689,-3034.844362,-5329.482782,-3140.991542
527.781012,-5255.462188,-9622.677246,-3064.381992
527.781334,-5255.462188,-13249.686362,-4903.011187
527.781657,-4589.276840,-13989.892304,-4443.353888
527.781979,-3849.070898,-13915.871710,-2911.162892
527.782301,-3701.029710,-12435.459826,-2604.724693
527.782624,-3034.844362,-12065.356855,-3600.648841
527.782946,-2812.782580,-12583.501014,-2374.896044
527.783269,-4515.256246,-12805.562797,-306.438199
527.783591,-3478.967927,-12287.418637,-306.438199
527.783913,1628.453072,-10584.944971,-919.314598
527.784236,7624.121203,-5699.585753,-995.924147
527.784558,11103.089130,-1332.370696,-919.314598
527.784881,11621.233289,-3108.864956,1302.362347
527.785203,9400.615463,-3775.050304,3370.820191
527.785526,2664.741391,-4219.173869,1991.848295
527.785848,-4145.153275,-8808.450710,76.609550
527.786170,-7994.224174,-12435.459826,-3370.820191
527.786493,-9252.574275,-13619.789333,-8120.612279
527.786815,-7402.059420,-13175.665768,-7354.516781
527.787138,-5477.523971,-12435.459826,-2681.334243
527.787460,-2146.597232,-11325.150913,0.000000
527.787783,740.205942,-10362.883188,-1072.533697
527.788105,-444.123565,-10362.883188,-995.924147
527.788427,-2886.803174,-10288.862594,-1378.971896
527.788750,-3701.029710,-10436.903782,-4060.306139
527.789072,814.226536,-8586.388927,-5209.449386
527.789395,5995.668130,-5625.565159,-4366.744339
527.789717,9030.512492,-4515.256246,-383.047749
527.790039,10436.903782,-6957.935855,5209.449386
527.790362,8068.244768,-7846.182985,6894.859482
527.790684,1776.494261,-7550.100608,2451.505594
527.791007,-4737.318029,-9030.512492,-2451.505594
527.791329,-7254.018232,-9400.615463,-6818.249932
527.791652,-6883.915261,-8882.471304,-9806.022374
527.791974,-6069.688724,-9178.553681,-6741.640382
527.792296,-5033.400406,-10955.047942,919.314598
527.792619,-4589.276840,-12361.439231,1762.019645
527.792941,-4219.173869,-14285.974681,-1072.533697
527.793264,-5551.544565,-14582.057057,-2068.457845
527.793586,-7402.059420,-12879.583391,-2451.505594
527.793909,-4441.235652,-10732.986159,-3753.867940
527.794231,1924.535449,-7846.182985,-2757.943793
527.794553,7550.100608,-2664.741391,0.000000
527.794876,9918.759623,148.041188,1762.019645
527.795198,10584.944971,-4367.215058,1838.629195
527.795521,7846.182985,-8438.347739,1225.752797
527.795843,1702.473667,-9474.636058,229.828649
527.796165,-3627.009116,-11251.130318,-1149.143247
527.796488,-4589.276840,-12509.480420,-3600.648841
527.796810,-2812.782580,-11473.192101,-6435.202183
527.797133,-1850.514855,-8808.450710,-4443.353888
527.797455,-3330.926739,-8882.471304,-383.047749
527.797778,-3701.029710,-11473.192101,919.314598
527.798100,-3330.926739,-14211.954086,-2145.067394
527.798422,-4145.153275,-13619.789333,-2451.505594
527.798745,-3923.091493,-12213.398043,-1378.971896
527.799067,74.020594,-11769.274478,-2911.162892
527.799390,6661.853478,-8216.285956,-1838.629195
527.799712,9548.656652,-4515.256246,76.609550
527.800035,9104.533087,-3256.906145,2145.067394
527.800357,7031.956449,-4959.379811,2681.334243
527.800679,4737.318029,-6217.729913,-383.047749
527.801002,-666.185348,-6809.894666,-3983.696590
527.801324,-5477.523971,-10140.821405,-4290.134789
527.801647,-7105.977043,-12509.480420,-4213.525239
527.801969,-7179.997637,-12879.583391,-5209.449386
527.802292,-7031.956449,-12953.603985,-4060.306139
527.802614,-7994.224174,-13619.789333,-766.095498
527.802936,-8956.491898,-11991.336260,-1762.019645
527.803259,-7476.080014,-10288.862594,-4749.792088
527.803581,-6069.688724,-9104.533087,-4979.620737
527.803904,-4367.215058,-7920.203579,-2221.676944
527.804226,1184.329507,-8364.327145,-766.095498
527.804548,7476.080014,-8512.368333,-1608.800546
527.804871,10807.006753,-7698.141797,-383.047749
527.805193,10732.986159,-7105.977043,2987.772442
527.805516,8290.306550,-5847.626942,4136.915689
527.805838,4515.256246,-4737.318029,995.924147
527.806161,1036.288319,-5181.441594,-2221.676944
527.806483,-2590.720797,-6143.709319,-4443.353888
527.806805,-4811.338623,-7772.162391,-6205.373534
527.807128,-6069.688724,-10955.047942,-5515.887586
527.807450,-5181.441594,-14508.036463,-3064.381992
527.807773,-5033.400406,-17394.839637,-2374.896044
527.808095,-5847.626942,-18283.086767,-1225.752797
527.808418,-6069.688724,-13915.871710,0.000000
527.808740,-5995.668130,-9918.759623,-1608.800546
527.809062,-3404.947333,-7402.059420,-2757.943793
527.809385,1110.308913,-6587.832884,-3447.429741
527.809707,5107.421000,-3478.967927,-2451.505594
527.810030,7698.141797,-1332.370696,2145.067394
527.810352,8586.388927,-3849.070898,3217.601092
527.810674,7846.182985,-7402.059420,842.705048
527.810997,5921.647536,-11177.109724,-153.219100
527.811319,1924.535449,-11473.192101,-536.266849
527.811642,-1776.494261,-9844.739029,-1991.848295
527.811964,-3478.967927,-10584.944971,-4060.306139
527.812287,-3108.864956,-9770.718434,-3983.696590
527.812609,-4885.359217,-8216.285956,-3294.210641
527.812931,-7550.100608,-10214.842000,-1762.019645
527.813254,-7328.038826,-15174.221811,-536.266849
527.813576,-4885.359217,-16876.695478,-1149.143247
527.813899,-3997.112087,-13767.830521,-1532.190996
527.814221,-3182.885551,-9548.656652,0.000000
527.814544,1702.473667,-7624.121203,919.314598
527.814866,8290.306550,-5181.441594,1072.533697
527.815188,11917.315666,-1924.535449,919.314598
527.815511,9548.656652,-1332.370696,1378.971896
527.815833,5551.544565,-2886.803174,2757.943793
527.816156,3108.864956,-4885.359217,1149.143247
527.816478,-148.041188,-7698.141797,-1455.581446
527.816800,-4071.132681,-11029.068536,-4443.353888
527.817123,-6735.874072,-14285.974681,-6511.811733
527.817445,-8586.388927,-16136.489536,-4366.744339
527.817768,-9030.512492,-18135.045579,-1532.190996
527.818090,-8364.327145,-17024.736666,-842.705048
527.818413,-7328.038826,-14063.912898,-4136.915689
527.818735,-6809.894666,-9696.697840,-4903.011187
527.819057,-4515.256246,-6513.812290,-2911.162892
527.819380,-2072.576638,-6439.791695,-306.438199
527.819702,3256.906145,-7328.038826,842.705048
527.820025,7402.059420,-8364.327145,0.000000
527.820347,7920.203579,-7105.977043,306.438199
527.820670,8364.327145,-7328.038826,2374.896044
527.820992,8808.450710,-8290.306550,2298.286494
527.821314,5847.626942,-6587.832884,0.000000
527.821637,518.144159,-5847.626942,-766.095498
527.821959,-3552.988522,-6365.771101,-1838.629195
527.822282,-3849.070898,-7920.203579,-4749.792088
527.822604,-3701.029710,-10362.883188,-7048.078582
527.822927,-5403.503377,-13915.871710,-5975.544884
527.823249,-7846.182985,-16506.592507,-3447.429741
527.823571,-7550.100608,-16506.592507,-1149.143247
527.823894,-6143.709319,-14063.912898,-459.657299
527.824216,-5107.421000,-11695.253884,-1685.410096
527.824539,-3256.906145,-9326.594869,-2757.943793
527.824861,1184.329507,-7476.080014,-3830.477490
527.825183,4959.379811,-3849.070898,-2757.943793
527.825507,7105.977043,-1406.391290,536.266849
527.825830,8586.388927,-1850.514855,1532.190996
527.826152,9474.636058,-4737.318029,0.000000
527.826475,7105.977043,-5995.668130,-766.095498
527.826797,3256.906145,-7328.038826,-995.924147
527.827120,-1776.494261,-10362.883188,-2757.943793
527.827442,-3849.070898,-14582.057057,-4596.572988
527.827765,-4515.256246,-14434.015869,-4519.963438
527.828087,-6587.832884,-11917.315666,-3447.429741
527.828409,-8290.306550,-11843.295072,-2298.286494
527.828732,-6735.874072,-12583.501014,-1608.800546
527.829054,-4071.132681,-11695.253884,-3064.381992
527.829377,-3256.906145,-9548.656652,-1685.410096
527.829699,-1776.494261,-9770.718434,-306.438199
527.830022,2368.659014,-10436.903782,306.438199
527.830344,6883.915261,-7624.121203,76.609550
527.830667,8956.491898,-4663.297435,383.047749
527.830989,9326.594869,-3849.070898,-612.876398
527.831311,8956.491898,-5921.647536,-1455.581446
527.831634,7772.162391,-6735.874072,-766.095498
