#time,accel_x,accel_y,accel_z
378.067776,-444.123565,-9252.574275,-1608.800546
378.068098,-296.082377,-9252.574275,-1532.190996
378.068419,-370.102971,-9178.553681,-1302.362347
378.068741,0.000000,-9474.636058,-1072.533697
378.069063,-222.061783,-9400.615463,-1455.581446
378.069384,0.000000,-9548.656652,-1455.581446
378.069706,-222.061783,-9474.636058,-1149.143247
378.070028,-296.082377,-8882.471304,-1838.629195
378.070349,-296.082377,-9474.636058,-1608.800546
378.070671,-444.123565,-9178.553681,-1378.971896
378.070992,-444.123565,-9400.615463,-1302.362347
378.071314,-296.082377,-9400.615463,-1302.362347
378.071636,-444.123565,-9474.636058,-1225.752797
378.071957,-666.185348,-9178.553681,-1302.362347
378.072279,-888.247130,-9326.594869,-1378.971896
378.072601,-592.164754,-9178.553681,-1455.581446
378.072922,-592.164754,-9400.615463,-1455.581446
378.073244,-592.164754,-9474.636058,-1455.581446
378.073565,-370.102971,-9252.574275,-1302.362347
378.073887,-518.144159,-9622.677246,-1302.362347
378.074209,-592.164754,-9548.656652,-1378.971896
378.074530,-444.123565,-9548.656652,-1455.581446
378.074852,-592.164754,-9474.636058,-1455.581446
378.075174,-444.123565,-9326.594869,-1149.143247
378.075495,-370.102971,-9104.533087,-1838.629195
378.075817,-296.082377,-9252.574275,-1685.410096
378.076138,-444.123565,-9474.636058,-1685.410096
378.076460,-444.123565,-9474.636058,-1532.190996
378.076782,-592.164754,-9622.677246,-1455.581446
378.077103,-370.102971,-9696.697840,-1072.533697
378.077425,-592.164754,-9326.594869,-1762.019645
378.077747,-518.144159,-9474.636058,-1455.581446
378.078068,-370.102971,-9252.574275,-1685.410096
378.078390,-296.082377,-9030.512492,-1608.800546
378.078711,0.000000,-9252.574275,-1762.019645
378.079033,0.000000,-9104.533087,-1685.410096
378.079355,-296.082377,-9474.636058,-1685.410096
378.079676,-296.082377,-9548.656652,-1455.581446
378.079998,-444.123565,-9548.656652,-1532.190996
378.080319,-296.082377,-9400.615463,-1302.362347
378.080641,0.000000,-8956.491898,-1225.752797
378.080963,0.000000,-9030.512492,-1838.629195
378.081284,-74.020594,-9178.553681,-1608.800546
378.081606,0.000000,-9252.574275,-1532.190996
378.081928,-296.082377,-9474.636058,-1532.190996
378.082249,0.000000,-9622.677246,-1838.629195
378.082571,0.000000,-9326.594869,-1455.581446
378.082892,-222.061783,-9548.656652,-1225.752797
378.083214,-296.082377,-9252.574275,-1608.800546
378.083536,0.000000,-9326.594869,-1378.971896
378.083857,0.000000,-9104.533087,-1378.971896
378.084179,0.000000,-9326.594869,-1455.581446
378.084501,0.000000,-9252.574275,-1532.190996
378.084822,-222.061783,-9474.636058,-1532.190996
378.085144,296.082377,-9474.636058,-1532.190996
378.085465,962.267725,-9844.739029,-1762.019645
378.085787,1332.370696,-9474.636058,-1302.362347
378.086109,1036.288319,-9252.574275,-766.095498
378.086430,444.123565,-8882.471304,-766.095498
378.086752,74.020594,-8734.430116,-1149.143247
378.087074,-444.123565,-9178.553681,-1915.238745
378.087395,-1110.308913,-9252.574275,-1608.800546
378.087717,-1628.453072,-8512.368333,-919.314598
378.088038,-962.267725,-9030.512492,-1991.848295
378.088360,-222.061783,-9770.718434,-1991.848295
378.088682,-296.082377,-10140.821405,-995.924147
378.089003,-370.102971,-9622.677246,-842.705048
378.089325,148.041188,-9252.574275,-842.705048
378.089647,1406.391290,-10066.800811,-2374.896044
378.089968,1554.432478,-10658.965565,-1608.800546
378.090290,1036.288319,-9474.636058,-229.828649
378.090611,1406.391290,-8660.409521,-306.438199
378.090933,2960.823768,-9104.533087,-842.705048
378.091255,3849.070898,-9844.739029,-919.314598
378.091576,2886.803174,-9030.512492,-153.219100
378.091898,2368.659014,-8290.306550,229.828649
378.092219,2960.823768,-8512.368333,-536.266849
378.092541,3404.947333,-9178.553681,-766.095498
378.092863,2590.720797,-9104.533087,-229.828649
378.093184,2590.720797,-8216.285956,-842.705048
378.093506,3034.844362,-7994.224174,-2221.676944
378.093828,3923.091493,-9474.636058,-2221.676944
378.094149,4145.153275,-10658.965565,-1532.190996
378.094471,3923.091493,-10436.903782,-995.924147
378.094792,3701.029710,-10362.883188,-1072.533697
378.095114,4071.132681,-10807.006753,-1302.362347
378.095436,4145.153275,-10288.862594,-1915.238745
378.095757,3256.906145,-9252.574275,-2451.505594
378.096079,3034.844362,-8734.430116,-1838.629195
378.096401,3256.906145,-8216.285956,-995.924147
378.096722,3775.050304,-8290.306550,-1685.410096
378.097044,4293.194464,-8956.491898,-1991.848295
378.097365,4885.359217,-9474.636058,-1455.581446
378.097687,5477.523971,-9770.718434,-842.705048
378.098009,5921.647536,-9030.512492,-995.924147
378.098330,5107.421000,-8512.368333,-919.314598
378.098652,4811.338623,-8734.430116,-1685.410096
378.098974,3923.091493,-9474.636058,-2604.724693
378.099295,2368.659014,-10140.821405,-2528.115143
378.099617,1258.350101,-11843.295072,-1685.410096
378.099938,888.247130,-13175.665768,-766.095498
378.100260,444.123565,-13767.830521,76.609550
378.100582,814.226536,-12953.603985,689.485948
378.100903,1480.411884,-11399.171507,766.095498
378.101225,2220.617826,-9622.677246,1225.752797
378.101547,2146.597232,-7846.182985,1991.848295
378.101868,740.205942,-5551.544565,1378.971896
378.102190,-444.123565,-4515.256246,306.438199
378.102511,-592.164754,-4885.359217,-1225.752797
378.102833,0.000000,-5255.462188,-2451.505594
378.103155,1258.350101,-5847.626942,-3064.381992
378.103476,3034.844362,-6661.853478,-3294.210641
378.103798,4811.338623,-7624.121203,-3983.696590
378.104119,5921.647536,-9474.636058,-4749.792088
378.104441,5847.626942,-11843.295072,-4673.182538
378.104763,5033.400406,-13693.809927,-4290.134789
378.105084,4367.215058,-14285.974681,-3294.210641
378.105406,3997.112087,-14804.118840,-2068.457845
378.105728,2812.782580,-14211.954086,0.000000
378.106049,1628.453072,-12065.356855,1685.410096
378.106371,666.185348,-9918.759623,2604.724693
378.106692,1110.308913,-7105.977043,2757.943793
378.107014,962.267725,-5255.462188,2298.286494
378.107336,666.185348,-3997.112087,2451.505594
378.107657,518.144159,-3923.091493,1532.190996
378.107979,1036.288319,-5477.523971,536.266849
378.108301,1998.556043,-7476.080014,-536.266849
378.108622,1776.494261,-8364.327145,-766.095498
378.108944,1184.329507,-10288.862594,-3217.601092
378.109265,1036.288319,-11917.315666,-4673.182538
378.109587,1480.411884,-14211.954086,-5439.278036
378.109909,1258.350101,-16062.468941,-5669.106685
378.110230,592.164754,-16136.489536,-5286.058936
378.110552,370.102971,-14359.995275,-3753.867940
378.110874,1258.350101,-11325.150913,-3064.381992
378.111195,2886.803174,-9474.636058,-3140.991542
378.111517,4589.276840,-8734.430116,-2068.457845
378.111838,5033.400406,-8364.327145,1149.143247
378.112160,5329.482782,-7105.977043,2911.162892
378.112482,6587.832884,-6365.771101,3600.648841
378.112803,8142.265362,-4663.297435,2681.334243
378.113125,8216.285956,-4293.194464,1915.238745
378.113447,5403.503377,-4885.359217,3140.991542
378.113768,3775.050304,-4367.215058,3830.477490
378.114090,2812.782580,-5921.647536,-306.438199
378.114411,2738.761985,-8882.471304,-3677.258390
378.114733,1332.370696,-10288.862594,-3064.381992
378.115055,-444.123565,-10732.986159,-2604.724693
378.115376,-1258.350101,-13767.830521,-3600.648841
378.115698,-962.267725,-16432.571912,-3677.258390
378.116019,-2072.576638,-14211.954086,-4826.401637
378.116341,-2442.679609,-10955.047942,-4903.011187
378.116663,-1110.308913,-9992.780217,-3753.867940
378.116984,814.226536,-9844.739029,-3830.477490
378.117306,3182.885551,-8956.491898,-3753.867940
378.117628,5847.626942,-8586.388927,-1762.019645
378.117949,7550.100608,-9548.656652,306.438199
378.118271,7698.141797,-9770.718434,1915.238745
378.118592,7254.018232,-8808.450710,2681.334243
378.118914,6661.853478,-7476.080014,919.314598
378.119236,6069.688724,-7550.100608,-229.828649
378.119557,3997.112087,-8068.244768,612.876398
378.119879,518.144159,-7402.059420,1225.752797
378.120201,-2368.659014,-7105.977043,1149.143247
378.120522,-2368.659014,-9252.574275,229.828649
378.120844,-1480.411884,-11251.130318,-2145.067394
378.121165,-592.164754,-11621.233289,-3140.991542
378.121487,-518.144159,-10436.903782,-1838.629195
378.121809,962.267725,-10140.821405,-459.657299
378.122130,3849.070898,-9252.574275,-2604.724693
378.122452,5625.565159,-8882.471304,-3294.210641
378.122774,6069.688724,-9474.636058,-4060.306139
378.123095,5329.482782,-9622.677246,-2298.286494
378.123417,4737.318029,-9474.636058,-1608.800546
378.123738,4293.194464,-9178.553681,-1532.190996
378.124060,3404.947333,-8660.409521,-842.705048
378.124382,2146.597232,-7402.059420,-612.876398
378.124703,1480.411884,-7105.977043,-1991.848295
378.125025,1480.411884,-8808.450710,-3370.820191
378.125346,148.041188,-10584.944971,-2451.505594
378.125668,-1258.350101,-10214.842000,1072.533697
378.125990,-2146.597232,-8068.244768,2451.505594
378.126311,-1332.370696,-9474.636058,-689.485948
378.126633,370.102971,-11325.150913,-2987.772442
378.126955,1924.535449,-12435.459826,-3447.429741
378.127276,2072.576638,-13101.645173,-2374.896044
378.127598,2886.803174,-13767.830521,842.705048
378.127919,3997.112087,-12879.583391,2298.286494
378.128241,4293.194464,-9548.656652,1149.143247
378.128563,5847.626942,-6217.729913,-842.705048
378.128884,7328.038826,-7920.203579,-3830.477490
378.129206,8290.306550,-10732.986159,-4060.306139
378.129528,7846.182985,-9474.636058,-536.266849
378.129849,6291.750507,-6513.812290,3294.210641
378.130171,5033.400406,-5699.585753,3370.820191
378.130492,3997.112087,-6143.709319,1149.143247
378.130814,740.205942,-4219.173869,-2834.553343
378.131136,-3923.091493,-3775.050304,-4443.353888
378.131457,-6883.915261,-7179.997637,-2145.067394
378.131779,-7624.121203,-9474.636058,-766.095498
378.132101,-6809.894666,-8956.491898,-2528.115143
378.132422,-3849.070898,-9770.718434,-4826.401637
378.132744,-1480.411884,-14730.098246,-4519.963438
378.133065,-2220.617826,-16876.695478,-2604.724693
378.133387,-3775.050304,-13175.665768,-536.266849
378.133709,-3627.009116,-9622.677246,-1608.800546
378.134030,-814.226536,-10436.903782,-4443.353888
378.134352,1776.494261,-11843.295072,-5592.497135
378.134674,1184.329507,-11621.233289,-4903.011187
378.134996,1036.288319,-10214.842000,-536.266849
378.135317,3701.029710,-10066.800811,4749.792088
378.135639,7105.977043,-9326.594869,3064.381992
378.135961,8142.265362,-8438.347739,-1455.581446
378.136283,8290.306550,-8142.265362,-1149.143247
378.136605,7550.100608,-5847.626942,1302.362347
378.136927,4663.297435,-5255.462188,1072.533697
378.137248,1258.350101,-4737.318029,1762.019645
378.137570,-3182.885551,-4515.256246,919.314598
378.137892,-7179.997637,-6661.853478,-2911.162892
378.138214,-9474.636058,-11251.130318,-5745.716235
378.138536,-11103.089130,-12435.459826,-4903.011187
378.138858,-10807.006753,-11399.171507,-4749.792088
378.139179,-8808.450710,-11103.089130,-3753.867940
378.139501,-7105.977043,-12065.356855,-2987.772442
378.139823,-6735.874072,-13101.645173,-3600.648841
378.140145,-7179.997637,-11695.253884,-4443.353888
378.140467,-7105.977043,-9548.656652,-4136.915689
378.140789,-5699.585753,-9548.656652,-3294.210641
378.141110,-3108.864956,-10288.862594,-1762.019645
378.141432,-666.185348,-8882.471304,-995.924147
378.141754,3108.864956,-8438.347739,689.485948
378.142076,6809.894666,-6513.812290,2987.772442
378.142398,9696.697840,-5921.647536,2298.286494
378.142720,11103.089130,-5033.400406,536.266849
378.143041,10658.965565,-5107.421000,1225.752797
378.143363,8216.285956,-6735.874072,3064.381992
378.143685,3997.112087,-6513.812290,1072.533697
378.144007,1924.535449,-7179.997637,-842.705048
378.144329,962.267725,-9992.780217,-2834.553343
378.144651,-296.082377,-12583.501014,-3907.087040
378.144972,-1702.473667,-12731.542202,-2374.896044
378.145294,-1924.535449,-12583.501014,-1225.752797
378.145616,-1406.391290,-12139.377449,-1608.800546
378.145938,-1258.350101,-11547.212695,-3677.258390
378.146260,-2886.803174,-11399.171507,-4826.401637
378.146582,-4885.359217,-10955.047942,-3524.039291
378.146903,-6069.688724,-10510.924376,-1991.848295
378.147225,-6661.853478,-11251.130318,-1149.143247
378.147547,-5551.544565,-10807.006753,-1149.143247
378.147869,-3108.864956,-9474.636058,-766.095498
378.148191,-74.020594,-8734.430116,-229.828649
378.148513,2812.782580,-5995.668130,536.266849
378.148835,5921.647536,-4219.173869,536.266849
378.149156,7698.141797,-4663.297435,-229.828649
378.149478,7402.059420,-6735.874072,229.828649
378.149800,5403.503377,-7772.162391,536.266849
378.150122,3256.906145,-8586.388927,-1072.533697
378.150444,2220.617826,-10881.027347,-3140.991542
378.150766,1998.556043,-12583.501014,-3753.867940
378.151087,1924.535449,-12213.398043,-3370.820191
378.151409,2368.659014,-11177.109724,-1915.238745
378.151731,2886.803174,-10510.924376,-1608.800546
378.152053,2294.638420,-11325.150913,-2451.505594
378.152375,0.000000,-10732.986159,-2604.724693
378.152697,-2590.720797,-11547.212695,-2374.896044
378.153018,-5033.400406,-12361.439231,-2068.457845
378.153340,-7105.977043,-11325.150913,153.219100
378.153662,-7254.018232,-10066.800811,1378.971896
378.153984,-5847.626942,-8512.368333,0.000000
378.154306,-3108.864956,-7476.080014,-1532.190996
378.154628,-1480.411884,-6883.915261,-995.924147
378.154949,-518.144159,-5255.462188,536.266849
378.155271,1110.308913,-4737.318029,536.266849
378.155593,2590.720797,-5329.482782,-1838.629195
378.155915,1628.453072,-8364.327145,-1915.238745
378.156237,-1258.350101,-8364.327145,-1149.143247
378.156559,-3330.926739,-8660.409521,-2451.505594
378.156880,-3701.029710,-10584.944971,-4060.306139
378.157202,-3923.091493,-11621.233289,-4290.134789
378.157524,-4367.215058,-10807.006753,-4060.306139
378.157846,-4071.132681,-9474.636058,-3140.991542
378.158168,-2516.700203,-10436.903782,-2451.505594
378.158490,-1628.453072,-12065.356855,-2451.505594
378.158811,-2442.679609,-11103.089130,-1608.800546
378.159133,-3701.029710,-9844.739029,-1302.362347
378.159455,-4367.215058,-10140.821405,0.000000
378.159777,-4145.153275,-10362.883188,153.219100
378.160099,-2886.803174,-9474.636058,-536.266849
378.160421,-148.041188,-8808.450710,-995.924147
378.160742,2960.823768,-8956.491898,0.000000
378.161064,6291.750507,-8586.388927,1455.581446
378.161386,7846.182985,-6809.894666,1225.752797
378.161708,9400.615463,-6883.915261,153.219100
378.162030,8956.491898,-7328.038826,-689.485948
378.162352,5921.647536,-8142.265362,-1455.581446
378.162673,1628.453072,-7328.038826,-2145.067394
378.162995,-666.185348,-8068.244768,-3140.991542
378.163317,-1184.329507,-10140.821405,-5209.449386
378.163639,-1924.535449,-11769.274478,-4903.011187
378.163961,-3034.844362,-11177.109724,-3140.991542
378.164283,-3552.988522,-8808.450710,-2834.553343
378.164604,-2960.823768,-9474.636058,-3983.696590
378.164926,-2516.700203,-12213.398043,-4749.792088
378.165248,-3552.988522,-13175.665768,-3983.696590
378.165570,-4663.297435,-13027.624579,-1991.848295
378.165892,-4441.235652,-11843.295072,383.047749
378.166214,-3330.926739,-12065.356855,995.924147
378.166535,-2368.659014,-10066.800811,229.828649
378.166857,-740.205942,-8290.306550,-459.657299
378.167179,2738.761985,-7476.080014,229.828649
378.167501,6809.894666,-6883.915261,459.657299
378.167823,9622.677246,-7254.018232,536.266849
378.168145,11399.171507,-7179.997637,2068.457845
378.168466,10881.027347,-7105.977043,3294.210641
378.168788,7624.121203,-7550.100608,2374.896044
378.169110,3849.070898,-7402.059420,-459.657299
378.169432,740.205942,-8142.265362,-2528.115143
378.169754,-1702.473667,-8882.471304,-5132.839837
378.170076,-4071.132681,-10066.800811,-3753.867940
378.170398,-5255.462188,-11177.109724,-1532.190996
378.170719,-5033.400406,-11251.130318,-1532.190996
378.171041,-5181.441594,-11251.130318,-2911.162892
378.171363,-5403.503377,-12213.398043,-2834.553343
378.171685,-7772.162391,-12065.356855,-2298.286494
378.172007,-9326.594869,-11029.068536,-1915.238745
378.172329,-9696.697840,-9844.739029,-1149.143247
378.172650,-8068.244768,-9104.533087,-383.047749
378.172972,-5181.441594,-8142.265362,-995.924147
378.173294,-2738.761985,-7476.080014,-689.485948
378.173616,-148.041188,-7402.059420,919.314598
378.173938,2294.638420,-6883.915261,2068.457845
378.174260,4515.256246,-6883.915261,1302.362347
378.174581,5995.668130,-7105.977043,-612.876398
378.174903,5477.523971,-8364.327145,-689.485948
378.175225,4441.235652,-8290.306550,-842.705048
378.175547,3404.947333,-8364.327145,-2298.286494
378.175869,2516.700203,-10066.800811,-3064.381992
378.176191,1998.556043,-11473.192101,-2911.162892
378.176512,74.020594,-11991.336260,-1455.581446
378.176834,-1406.391290,-10214.842000,-1455.581446
378.177156,-1776.494261,-9992.780217,-2145.067394
378.177478,-2368.659014,-11843.295072,-3217.601092
378.177800,-4145.153275,-12509.480420,-2451.505594
378.178122,-6809.894666,-10510.924376,-612.876398
378.178443,-8290.306550,-8660.409521,-536.266849
378.178765,-7550.100608,-9992.780217,-2221.676944
378.179087,-5847.626942,-10214.842000,-3294.210641
378.179409,-4515.256246,-8438.347739,-2604.724693
378.179731,-1258.350101,-8142.265362,-536.266849
378.180053,2220.617826,-7550.100608,1915.238745
378.180374,6069.688724,-6587.832884,536.266849
378.180696,8512.368333,-6291.750507,-1838.629195
378.181018,9474.636058,-8216.285956,-1608.800546
378.181340,7402.059420,-9400.615463,-306.438199
378.181662,4293.194464,-8290.306550,383.047749
378.181984,1998.556043,-7920.203579,-1225.752797
378.182305,1332.370696,-8808.450710,-3217.601092
378.182627,1110.308913,-9770.718434,-5286.058936
378.182949,222.061783,-10881.027347,-4443.353888
378.183271,-444.123565,-9326.594869,-1685.410096
378.183593,-962.267725,-8882.471304,-689.485948
378.183915,-1332.370696,-10214.842000,-1378.971896
378.184236,-2368.659014,-11399.171507,-1838.629195
378.184558,-4219.173869,-12287.418637,-2757.943793
378.184880,-5107.421000,-12731.542202,-1838.629195
378.185202,-5255.462188,-12879.583391,-766.095498
378.185524,-4441.235652,-11399.171507,76.609550
378.185846,-2442.679609,-8956.491898,459.657299
378.186167,888.247130,-8290.306550,0.000000
378.186489,3701.029710,-6365.771101,-1302.362347
378.186811,7105.977043,-6143.709319,-2374.896044
378.187133,8586.388927,-7179.997637,-1302.362347
378.187455,7402.059420,-8216.285956,459.657299
378.187777,4737.318029,-8956.491898,766.095498
378.188098,1258.350101,-9030.512492,-612.876398
378.188420,-1184.329507,-8438.347739,-2221.676944
378.188742,-3034.844362,-8438.347739,-5209.449386
378.189064,-4219.173869,-9178.553681,-5745.716235
378.189386,-5033.400406,-9770.718434,-3524.039291
378.189708,-5551.544565,-9622.677246,-1225.752797
378.190029,-6143.709319,-9696.697840,-306.438199
378.190351,-6217.729913,-11473.192101,-1378.971896
378.190673,-6883.915261,-13101.645173,-2834.553343
378.190995,-7846.182985,-12805.562797,-3140.991542
378.191317,-8290.306550,-11251.130318,-1915.238745
378.191639,-6735.874072,-9326.594869,0.000000
378.191961,-2220.617826,-8216.285956,0.000000
378.192282,740.205942,-7550.100608,-383.047749
378.192604,3330.926739,-7105.977043,-536.266849
378.192926,5477.523971,-7179.997637,459.657299
378.193248,6957.935855,-8364.327145,1149.143247
378.193570,7031.956449,-7772.162391,1762.019645
378.193892,5551.544565,-6809.894666,1838.629195
378.194213,4441.235652,-7031.956449,-612.876398
378.194535,3034.844362,-7328.038826,-3064.381992
378.194857,148.041188,-8512.368333,-2374.896044
378.195179,-1554.432478,-9474.636058,-1302.362347
378.195501,-1924.535449,-9474.636058,-1072.533697
378.195823,-1998.556043,-9992.780217,-2068.457845
378.196144,-2960.823768,-11843.295072,-2145.067394
378.196466,-4737.318029,-11843.295072,-1685.410096
378.196788,-5921.647536,-10732.986159,-2451.505594
378.197110,-5625.565159,-11621.233289,-3753.867940
378.197432,-4515.256246,-12583.501014,-2987.772442
378.197754,-4959.379811,-11991.336260,-2145.067394
378.198075,-4959.379811,-11843.295072,-459.657299
378.198397,-2664.741391,-11103.089130,1225.752797
378.198719,592.164754,-8660.409521,153.219100
378.199041,4219.173869,-6291.750507,-1608.800546
378.199363,5921.647536,-6661.853478,0.000000
378.199685,7031.956449,-7105.977043,1838.629195
378.200006,7254.018232,-6365.771101,1072.533697
378.200328,6735.874072,-6883.915261,689.485948
378.200650,5107.421000,-7624.121203,153.219100
378.200972,2368.659014,-7846.182985,-1608.800546
378.201294,74.020594,-8734.430116,-3524.039291
378.201616,-962.267725,-10140.821405,-3064.381992
378.201937,-1480.411884,-11399.171507,-2145.067394
378.202259,-1776.494261,-9844.739029,-2681.334243
378.202581,-2368.659014,-8956.491898,-3140.991542
378.202903,-2738.761985,-11029.068536,-2757.943793
378.203225,-3034.844362,-11991.336260,-2681.334243
378.203547,-4219.173869,-12657.521608,-2987.772442
378.203868,-4663.297435,-12731.542202,-1915.238745
378.204190,-4589.276840,-11843.295072,0.000000
378.204512,-3997.112087,-10288.862594,-689.485948
378.204834,-1850.514855,-7402.059420,-612.876398
378.205156,1258.350101,-6291.750507,-459.657299
378.205478,4293.194464,-5699.585753,-995.924147
378.205799,5995.668130,-5403.503377,-459.657299
378.206121,7105.977043,-6365.771101,306.438199
378.206443,6291.750507,-6957.935855,306.438199
378.206765,4515.256246,-8216.285956,-536.266849
378.207087,1480.411884,-7624.121203,-2068.457845
378.207409,-592.164754,-8290.306550,-4060.306139
378.207730,-2072.576638,-9992.780217,-4826.401637
378.208052,-3330.926739,-11769.274478,-3830.477490
378.208374,-4219.173869,-13027.624579,-2681.334243
378.208696,-4367.215058,-11843.295072,-2834.553343
378.209018,-4293.194464,-11251.130318,-2757.943793
378.209340,-4367.215058,-11621.233289,-2528.115143
378.209661,-4811.338623,-11399.171507,-2604.724693
378.209983,-5329.482782,-11473.192101,-2987.772442
378.210305,-5181.441594,-11325.150913,-1685.410096
378.210627,-4737.318029,-10658.965565,306.438199
378.210949,-3478.967927,-8808.450710,612.876398
378.211271,-814.226536,-7031.956449,-1302.362347
378.211592,2368.659014,-7698.141797,-2068.457845
378.211914,4367.215058,-7179.997637,-612.876398
378.212236,5477.523971,-6809.894666,842.705048
378.212558,5995.668130,-6883.915261,919.314598
378.212880,5477.523971,-8216.285956,-842.705048
378.213202,3478.967927,-9548.656652,-1532.190996
378.213524,518.144159,-9178.553681,-2298.286494
378.213845,-1554.432478,-8808.450710,-2834.553343
378.214167,-2072.576638,-9030.512492,-3524.039291
378.214489,-1776.494261,-9770.718434,-3217.601092
378.214811,-2072.576638,-10288.862594,-1685.410096
378.215133,-2590.720797,-10140.821405,-1072.533697
378.215455,-2812.782580,-10362.883188,-1378.971896
378.215776,-2664.741391,-11769.274478,-2068.457845
378.216098,-3997.112087,-12139.377449,-1838.629195
378.216420,-5477.523971,-10955.047942,-766.095498
378.216742,-6735.874072,-9400.615463,306.438199
378.217064,-6143.709319,-9326.594869,229.828649
378.217386,-3627.009116,-8586.388927,-766.095498
378.217707,-666.185348,-7476.080014,-1762.019645
378.218029,1628.453072,-6735.874072,-459.657299
378.218351,4145.153275,-6217.729913,919.314598
378.218673,5995.668130,-6661.853478,536.266849
378.218995,7550.100608,-7254.018232,-1072.533697
378.219317,7105.977043,-8734.430116,-1378.971896
378.219638,4959.379811,-9548.656652,-995.924147
378.219960,2220.617826,-9770.718434,-1991.848295
378.220282,444.123565,-10807.006753,-2298.286494
378.220604,-296.082377,-11103.089130,-2451.505594
378.220926,-814.226536,-10881.027347,-3370.820191
378.221248,-962.267725,-9770.718434,-2757.943793
378.221569,-1776.494261,-10066.800811,-2221.676944
378.221891,-1628.453072,-10066.800811,-1225.752797
378.222213,-2738.761985,-9992.780217,-1149.143247
378.222535,-4145.153275,-10288.862594,-1302.362347
378.222857,-4959.379811,-10214.842000,-1455.581446
378.223179,-5625.565159,-9326.594869,-1608.800546
378.223500,-5921.647536,-8808.450710,-1225.752797
378.223822,-3849.070898,-8660.409521,-1072.533697
378.224144,-444.123565,-8808.450710,-1225.752797
378.224466,2516.700203,-7772.162391,-995.924147
378.224788,5329.482782,-7105.977043,-612.876398
378.225110,7476.080014,-7550.100608,-1915.238745
378.225431,8512.368333,-8290.306550,-2911.162892
378.225753,7476.080014,-9844.739029,-3064.381992
378.226075,4441.235652,-10140.821405,-1991.848295
378.226397,888.247130,-9104.533087,-1532.190996
378.226719,-1480.411884,-9770.718434,-2834.553343
378.227041,-2220.617826,-10955.047942,-4596.572988
378.227362,-2886.803174,-11103.089130,-3830.477490
378.227684,-2812.782580,-9622.677246,-2451.505594
378.228006,-2738.761985,-9474.636058,-1072.533697
378.228328,-2368.659014,-9770.718434,0.000000
378.228650,-2516.700203,-10066.800811,-919.314598
378.228972,-3849.070898,-11103.089130,-1762.019645
378.229293,-4959.379811,-11325.150913,-1072.533697
378.229615,-5699.585753,-10362.883188,0.000000
378.229937,-4885.359217,-9104.533087,-919.314598
378.230259,-2220.617826,-8142.265362,-1302.362347
378.230581,962.267725,-8808.450710,-1838.629195
378.230903,3627.009116,-7994.224174,-842.705048
378.231224,5551.544565,-7402.059420,-1072.533697
378.231546,6439.791695,-7920.203579,-1915.238745
378.231868,6513.812290,-8882.471304,-1838.629195
378.232190,3108.864956,-9770.718434,-1532.190996
378.232512,0.000000,-9104.533087,-1762.019645
378.232834,-2590.720797,-8142.265362,-2681.334243
378.233155,-2812.782580,-9400.615463,-4213.525239
378.233477,-2886.803174,-9548.656652,-4136.915689
378.233799,-3256.906145,-9400.615463,-2451.505594
378.234121,-3849.070898,-8660.409521,-306.438199
378.234443,-3256.906145,-9696.697840,-536.266849
378.234765,-3552.988522,-10214.842000,-1532.190996
378.235086,-4515.256246,-10732.986159,-1838.629195
378.235408,-4885.359217,-11399.171507,-842.705048
378.235730,-5551.544565,-10584.944971,0.000000
378.236052,-5181.441594,-9696.697840,459.657299
378.236374,-3404.947333,-8660.409521,-306.438199
378.236695,0.000000,-8364.327145,-1302.362347
378.237017,2886.803174,-8660.409521,-842.705048
378.237339,4589.276840,-7846.182985,-766.095498
378.237661,5625.565159,-7105.977043,-153.219100
378.237983,6513.812290,-7105.977043,-1225.752797
378.238304,6069.688724,-8438.347739,-1991.848295
378.238626,3701.029710,-9400.615463,-2221.676944
378.238948,814.226536,-8734.430116,-2681.334243
378.239270,-518.144159,-9770.718434,-3217.601092
378.239592,-1406.391290,-11251.130318,-3217.601092
378.239913,-2146.597232,-11917.315666,-2221.676944
378.240235,-2738.761985,-10732.986159,-1915.238745
378.240557,-2368.659014,-9622.677246,-1685.410096
378.240879,-1628.453072,-9770.718434,-2451.505594
378.241201,-2220.617826,-10214.842000,-2221.676944
378.241522,-3256.906145,-10362.883188,-995.924147
378.241844,-3552.988522,-10807.006753,-383.047749
378.242166,-3108.864956,-10955.047942,306.438199
378.242488,-1998.556043,-10955.047942,459.657299
378.242810,-592.164754,-9400.615463,-306.438199
378.243131,1628.453072,-7846.182985,-919.314598
378.243453,4441.235652,-6883.915261,-995.924147
378.243775,6143.709319,-6661.853478,-1225.752797
378.244097,6883.915261,-6661.853478,-612.876398
378.244419,6513.812290,-7698.141797,-1762.019645
378.244740,4811.338623,-8956.491898,-1991.848295
378.245062,2664.741391,-9992.780217,-2145.067394
378.245384,740.205942,-9992.780217,-2528.115143
378.245706,-444.123565,-10066.800811,-3677.258390
378.246028,-1776.494261,-9548.656652,-4136.915689
378.246349,-2664.741391,-9844.739029,-3370.820191
378.246671,-2812.782580,-9400.615463,-2757.943793
378.246993,-3182.885551,-9696.697840,-2757.943793
378.247315,-3775.050304,-10510.924376,-2145.067394
378.247637,-4959.379811,-11251.130318,-1072.533697
378.247958,-5181.441594,-11991.336260,-919.314598
378.248280,-5551.544565,-12139.377449,0.000000
378.248602,-5477.523971,-10807.006753,1072.533697
378.248924,-4737.318029,-8364.327145,842.705048
378.249246,-2146.597232,-6661.853478,-766.095498
378.249567,592.164754,-7105.977043,-1762.019645
378.249889,2146.597232,-6809.894666,-995.924147
378.250211,3404.947333,-6587.832884,-383.047749
378.250533,4367.215058,-7179.997637,-919.314598
378.250855,4663.297435,-8882.471304,-2451.505594
378.251176,3478.967927,-10732.986159,-2451.505594
378.251498,2072.576638,-11621.233289,-2374.896044
378.251820,74.020594,-10732.986159,-2451.505594
378.252142,-1184.329507,-10288.862594,-1991.848295
378.252464,-2294.638420,-9770.718434,-2757.943793
378.252785,-2960.823768,-9474.636058,-3600.648841
378.253107,-3849.070898,-9030.512492,-3140.991542
378.253429,-4515.256246,-9252.574275,-1378.971896
378.253751,-4737.318029,-9770.718434,-842.705048
378.254073,-4737.318029,-9992.780217,-919.314598
378.254394,-4737.318029,-11917.315666,153.219100
378.254716,-5107.421000,-11325.150913,1302.362347
378.255038,-5107.421000,-9252.574275,459.657299
378.255360,-3478.967927,-7920.203579,-919.314598
378.255682,-962.267725,-7402.059420,-1455.581446
378.256003,1554.432478,-6587.832884,-1455.581446
378.256325,3923.091493,-5995.668130,-383.047749
378.256647,6217.729913,-7031.956449,-229.828649
378.256969,7846.182985,-8882.471304,-1378.971896
378.257291,7772.162391,-9622.677246,-2757.943793
378.257612,6217.729913,-10658.965565,-2451.505594
378.257934,4071.132681,-10288.862594,-1762.019645
378.258256,2442.679609,-10362.883188,-2834.553343
378.258578,962.267725,-9992.780217,-3983.696590
378.258900,0.000000,-9844.739029,-3294.210641
378.259221,-1332.370696,-9548.656652,-2681.334243
378.259543,-1628.453072,-10214.842000,-1608.800546
378.259865,-1258.350101,-10658.965565,-306.438199
378.260187,-1924.535449,-11103.089130,229.828649
378.260509,-2220.617826,-11325.150913,229.828649
378.260830,-2886.803174,-11325.150913,229.828649
378.261152,-3552.988522,-10288.862594,766.095498
378.261474,-4737.318029,-7920.203579,1149.143247
378.261796,-3330.926739,-6587.832884,-459.657299
378.262118,-888.247130,-6957.935855,-1455.581446
378.262439,2072.576638,-8142.265362,-1532.190996
378.262761,3849.070898,-8142.265362,-689.485948
378.263083,5255.462188,-8290.306550,229.828649
378.263405,6809.894666,-9400.615463,-1685.410096
378.263727,6291.750507,-10436.903782,-3294.210641
378.264048,3775.050304,-10436.903782,-3370.820191
378.264370,74.020594,-9548.656652,-3600.648841
378.264692,-2072.576638,-9622.677246,-4290.134789
378.265014,-2516.700203,-10288.862594,-4290.134789
378.265336,-2812.782580,-10955.047942,-3753.867940
378.265657,-3627.009116,-10214.842000,-2451.505594
378.265979,-3552.988522,-9844.739029,-766.095498
378.266301,-3182.885551,-10362.883188,0.000000
378.266623,-3627.009116,-9992.780217,0.000000
378.266945,-3849.070898,-9030.512492,-229.828649
378.267266,-4367.215058,-8660.409521,0.000000
378.267588,-4441.235652,-9400.615463,842.705048
378.267910,-4367.215058,-9400.615463,1149.143247
378.268232,-3404.947333,-8068.244768,76.609550
378.268554,-888.247130,-7476.080014,-1225.752797
378.268875,1924.535449,-7624.121203,-1302.362347
378.269197,3404.947333,-7105.977043,-1072.533697
378.269519,3775.050304,-6809.894666,-919.314598
378.269841,3849.070898,-7105.977043,-2298.286494
378.270163,2886.803174,-8660.409521,-3294.210641
378.270484,-370.102971,-9844.739029,-4136.915689
378.270806,-3404.947333,-9696.697840,-3753.867940
378.271128,-4959.379811,-10510.924376,-4443.353888
378.271450,-5033.400406,-11843.295072,-4979.620737
378.271772,-4441.235652,-13027.624579,-4979.620737
378.272094,-3627.009116,-11695.253884,-2834.553343
378.272415,-3701.029710,-10288.862594,-1378.971896
378.272737,-3701.029710,-10362.883188,0.000000
378.273059,-3108.864956,-9474.636058,-459.657299
378.273381,-2738.761985,-9548.656652,-1685.410096
378.273703,-2072.576638,-9400.615463,-1608.800546
378.274024,-1850.514855,-9548.656652,1838.629195
378.274346,-666.185348,-8734.430116,2987.772442
378.274668,1406.391290,-7402.059420,1149.143247
378.274990,3775.050304,-7031.956449,0.000000
378.275312,5995.668130,-7105.977043,-459.657299
378.275633,7179.997637,-7476.080014,-689.485948
378.275955,7031.956449,-7624.121203,-995.924147
378.276277,6735.874072,-7994.224174,-1991.848295
378.276599,5107.421000,-9992.780217,-2604.724693
378.276921,2664.741391,-10436.903782,-2911.162892
378.277242,370.102971,-10510.924376,-3677.258390
378.277564,-1776.494261,-10955.047942,-3907.087040
378.277886,-2590.720797,-10807.006753,-3753.867940
378.278208,-3627.009116,-10658.965565,-3447.429741
378.278530,-3923.091493,-9918.759623,-2374.896044
378.278851,-4071.132681,-9918.759623,-1608.800546
378.279173,-2960.823768,-10362.883188,-995.924147
378.279495,-2960.823768,-10066.800811,-459.657299
378.279817,-3182.885551,-10362.883188,0.000000
378.280139,-3849.070898,-9918.759623,1838.629195
378.280460,-3849.070898,-8660.409521,2451.505594
378.280782,-2072.576638,-7328.038826,1149.143247
378.281104,592.164754,-7105.977043,-766.095498
378.281426,3182.885551,-7624.121203,-842.705048
378.281748,5033.400406,-7105.977043,-229.828649
378.282069,5995.668130,-7105.977043,229.828649
378.282391,6957.935855,-8364.327145,-689.485948
378.282713,7105.977043,-9474.636058,-1991.848295
378.283035,5847.626942,-10732.986159,-3753.867940
378.283357,2738.761985,-10658.965565,-3830.477490
378.283678,-444.123565,-10732.986159,-2911.162892
378.284000,-2960.823768,-10807.006753,-2681.334243
378.284322,-4071.132681,-10066.800811,-3294.210641
378.284644,-4367.215058,-9622.677246,-4060.306139
378.284966,-4145.153275,-9474.636058,-3447.429741
378.285287,-4811.338623,-9844.739029,-1072.533697
378.285609,-5255.462188,-9622.677246,153.219100
378.285931,-4885.359217,-9474.636058,306.438199
378.286253,-5477.523971,-9400.615463,0.000000
378.286575,-6439.791695,-9696.697840,153.219100
378.286896,-6809.894666,-8438.347739,459.657299
378.287218,-5107.421000,-7254.018232,-766.095498
378.287540,-1850.514855,-8216.285956,-1685.410096
378.287862,1184.329507,-8956.491898,-612.876398
378.288184,2886.803174,-8290.306550,229.828649
378.288505,4441.235652,-7624.121203,-689.485948
378.288827,6291.750507,-8142.265362,-2451.505594
378.289149,7105.977043,-9770.718434,-3830.477490
378.289471,5329.482782,-10510.924376,-2911.162892
378.289793,1998.556043,-9918.759623,-2145.067394
378.290114,-740.205942,-9918.759623,-1915.238745
378.290436,-1924.535449,-10140.821405,-3294.210641
378.290758,-2812.782580,-10955.047942,-4213.525239
378.291080,-3404.947333,-9992.780217,-4213.525239
378.291402,-3552.988522,-10214.842000,-2221.676944
378.291723,-3627.009116,-10288.862594,0.000000
378.292045,-3478.967927,-10658.965565,842.705048
378.292367,-3923.091493,-10807.006753,383.047749
378.292689,-4737.318029,-9622.677246,306.438199
378.293011,-5107.421000,-8660.409521,383.047749
378.293332,-4885.359217,-7920.203579,-306.438199
378.293654,-2516.700203,-7254.018232,-1378.971896
378.293976,444.123565,-7772.162391,-1378.971896
378.294298,3182.885551,-8808.450710,-536.266849
378.294620,4811.338623,-8438.347739,612.876398
378.294941,6217.729913,-7994.224174,0.000000
378.295263,7105.977043,-8364.327145,-2145.067394
378.295585,6809.894666,-9844.739029,-3217.601092
378.295907,3923.091493,-9918.759623,-2834.553343
378.296229,222.061783,-9178.553681,-2451.505594
378.296550,-1110.308913,-9770.718434,-2451.505594
378.296872,-888.247130,-10362.883188,-3140.991542
378.297194,-740.205942,-10066.800811,-3907.087040
378.297516,-1480.411884,-9474.636058,-2528.115143
378.297838,-2072.576638,-9548.656652,153.219100
378.298159,-3552.988522,-9474.636058,1072.533697
378.298481,-3182.885551,-9400.615463,306.438199
378.298803,-3701.029710,-9252.574275,-689.485948
378.299125,-3849.070898,-9400.615463,-766.095498
378.299447,-4293.194464,-9474.636058,306.438199
378.299768,-2738.761985,-9696.697840,1225.752797
378.300090,-296.082377,-8660.409521,-383.047749
378.300412,3034.844362,-9178.553681,-459.657299
378.300734,5181.441594,-8956.491898,0.000000
378.301056,5847.626942,-8068.244768,-229.828649
378.301377,6439.791695,-7254.018232,-2374.896044
378.301699,6143.709319,-7920.203579,-2298.286494
378.302021,4219.173869,-8808.450710,-3064.381992
378.302343,518.144159,-8068.244768,-3447.429741
378.302665,-1406.391290,-8956.491898,-3983.696590
378.302986,-2220.617826,-10362.883188,-4443.353888
378.303308,-2368.659014,-11769.274478,-4519.963438
378.303630,-3404.947333,-12361.439231,-3064.381992
378.303952,-3997.112087,-11547.212695,-1225.752797
378.304274,-4219.173869,-10584.944971,-766.095498
378.304595,-3552.988522,-10066.800811,-766.095498
378.304917,-2960.823768,-9400.615463,-2221.676944
378.305239,-2664.741391,-9400.615463,-1838.629195
378.305561,-3775.050304,-9696.697840,0.000000
378.305883,-4441.235652,-9548.656652,1915.238745
378.306204,-3108.864956,-9104.533087,1991.848295
378.306526,-296.082377,-8364.327145,-229.828649
378.306848,2516.700203,-8734.430116,-2068.457845
378.307170,4145.153275,-7920.203579,-1225.752797
378.307492,5403.503377,-7402.059420,-612.876398
378.307813,6883.915261,-7846.182985,-1072.533697
378.308135,6809.894666,-8808.450710,-2221.676944
378.308457,4589.276840,-9844.739029,-2528.115143
378.308779,444.123565,-9844.739029,-2604.724693
378.309101,-2294.638420,-10658.965565,-3294.210641
378.309422,-3627.009116,-11029.068536,-4673.182538
378.309744,-4293.194464,-10510.924376,-4213.525239
378.310066,-4515.256246,-9844.739029,-2911.162892
378.310388,-5181.441594,-9326.594869,-1532.190996
378.310710,-4367.215058,-10288.862594,-842.705048
378.311031,-3552.988522,-10436.903782,0.000000
378.311353,-3627.009116,-10362.883188,0.000000
378.311675,-3923.091493,-10140.821405,306.438199
378.311997,-4293.194464,-9030.512492,1225.752797
378.312319,-3627.009116,-7994.224174,1762.019645
378.312640,-1480.411884,-7402.059420,0.000000
378.312962,1110.308913,-7698.141797,-1532.190996
378.313284,2590.720797,-8364.327145,-689.485948
378.313606,3849.070898,-7920.203579,536.266849
378.313928,5181.441594,-7920.203579,0.000000
378.314249,6291.750507,-8660.409521,-2298.286494
378.314571,6069.688724,-9622.677246,-2834.553343
378.314893,3701.029710,-9844.739029,-2451.505594
378.315215,814.226536,-9104.533087,-3294.210641
378.315537,-592.164754,-9252.574275,-3294.210641
378.315858,-1924.535449,-10510.924376,-3830.477490
378.316180,-3478.967927,-11547.212695,-3447.429741
378.316502,-4219.173869,-10288.862594,-2145.067394
378.316824,-3478.967927,-9622.677246,-1762.019645
378.317146,-2220.617826,-10658.965565,-1378.971896
378.317467,-2220.617826,-10436.903782,-229.828649
378.317789,-2664.741391,-9474.636058,612.876398
378.318111,-3256.906145,-8586.388927,766.095498
378.318433,-3701.029710,-8956.491898,766.095498
378.318755,-3923.091493,-8734.430116,459.657299
378.319076,-2664.741391,-7920.203579,-229.828649
378.319398,0.000000,-8512.368333,-1455.581446
378.319720,3256.906145,-9030.512492,-995.924147
378.320042,5551.544565,-8660.409521,-306.438199
378.320364,6809.894666,-8142.265362,-919.314598
378.320685,7550.100608,-7698.141797,-1991.848295
378.321007,6957.935855,-8882.471304,-3600.648841
378.321329,4737.318029,-9918.759623,-3600.648841
378.321651,1332.370696,-9770.718434,-3753.867940
378.321973,-814.226536,-10214.842000,-3753.867940
378.322294,-1332.370696,-10732.986159,-3677.258390
378.322616,-1258.350101,-11177.109724,-3753.867940
378.322938,-2294.638420,-11177.109724,-2451.505594
378.323260,-2442.679609,-10436.903782,-842.705048
378.323582,-2368.659014,-9474.636058,76.609550
378.323903,-2220.617826,-9104.533087,-459.657299
378.324225,-2738.761985,-8734.430116,-229.828649
378.324547,-3701.029710,-7994.224174,229.828649
378.324869,-4737.318029,-7698.141797,306.438199
378.325191,-3627.009116,-8290.306550,-383.047749
378.325512,-962.267725,-8660.409521,-1225.752797
378.325834,1776.494261,-9326.594869,-612.876398
378.326156,3404.947333,-9104.533087,0.000000
378.326478,4589.276840,-8586.388927,-229.828649
378.326800,5921.647536,-9178.553681,-1762.019645
378.327121,6069.688724,-9252.574275,-3217.601092
378.327443,3478.967927,-9918.759623,-3447.429741
378.327765,74.020594,-9918.759623,-3064.381992
378.328087,-2368.659014,-10732.986159,-3907.087040
378.328409,-3404.947333,-11547.212695,-3753.867940
378.328730,-3404.947333,-11177.109724,-3524.039291
378.329052,-3478.967927,-10732.986159,-2374.896044
378.329374,-3404.947333,-9992.780217,-842.705048
378.329696,-3404.947333,-9326.594869,153.219100
378.330018,-3182.885551,-8660.409521,0.000000
378.330339,-3627.009116,-8068.244768,-153.219100
378.330661,-4589.276840,-9400.615463,-306.438199
378.330983,-5847.626942,-9104.533087,536.266849
378.331305,-4959.379811,-9178.553681,0.000000
378.331627,-2960.823768,-9178.553681,-306.438199
378.331948,0.000000,-9844.739029,-919.314598
378.332270,2442.679609,-10066.800811,-689.485948
378.332592,3849.070898,-8512.368333,-536.266849
378.332914,4959.379811,-7698.141797,-229.828649
378.333236,5773.606348,-8586.388927,-1685.410096
378.333557,5329.482782,-8660.409521,-2681.334243
378.333879,3701.029710,-8364.327145,-2987.772442
378.334201,1184.329507,-8438.347739,-2145.067394
378.334523,-1036.288319,-8956.491898,-2221.676944
378.334845,-1776.494261,-10288.862594,-2451.505594
378.335166,-2072.576638,-10510.924376,-3064.381992
378.335488,-1554.432478,-10732.986159,-2604.724693
378.335810,-1332.370696,-10140.821405,-995.924147
378.336132,-1554.432478,-9474.636058,459.657299
378.336454,-962.267725,-9326.594869,-459.657299
378.336776,-1850.514855,-9030.512492,-1072.533697
378.337097,-3478.967927,-9104.533087,-536.266849
378.337419,-5403.503377,-8660.409521,-383.047749
378.337741,-5329.482782,-9252.574275,-1685.410096
378.338063,-2812.782580,-9326.594869,-2604.724693
378.338385,888.247130,-10140.821405,-2834.553343
378.338706,3701.029710,-10881.027347,-1685.410096
378.339028,5477.523971,-10140.821405,459.657299
378.339350,6735.874072,-9844.739029,612.876398
378.339672,7328.038826,-8956.491898,-842.705048
378.339994,6143.709319,-7402.059420,-2374.896044
378.340315,3701.029710,-7846.182985,-3064.381992
378.340637,962.267725,-8734.430116,-3524.039291
378.340959,-296.082377,-9474.636058,-3140.991542
378.341281,-296.082377,-10214.842000,-2451.505594
378.341603,0.000000,-10955.047942,-1149.143247
378.341924,-518.144159,-9696.697840,-536.266849
378.342246,-1184.329507,-9770.718434,-842.705048
378.342568,-2146.597232,-9474.636058,-1302.362347
378.342890,-3330.926739,-8660.409521,-689.485948
378.343212,-4219.173869,-8142.265362,-1685.410096
378.343533,-5551.544565,-8438.347739,-1608.800546
378.343855,-5921.647536,-9252.574275,-1378.971896
378.344177,-5625.565159,-10288.862594,-919.314598
378.344499,-4071.132681,-10584.944971,-1225.752797
378.344821,-1480.411884,-10807.006753,-1149.143247
378.345142,296.082377,-10066.800811,-766.095498
378.345464,2368.659014,-8882.471304,-689.485948
378.345786,3849.070898,-7476.080014,-1225.752797
378.346108,4589.276840,-6439.791695,-2757.943793
378.346430,3775.050304,-6661.853478,-3370.820191
378.346751,1850.514855,-7402.059420,-3370.820191
378.347073,0.000000,-8956.491898,-2451.505594
378.347395,-888.247130,-10807.006753,-2145.067394
378.347717,-962.267725,-11547.212695,-2221.676944
378.348039,-814.226536,-12139.377449,-1991.848295
378.348361,-962.267725,-10732.986159,-1072.533697
378.348682,-1406.391290,-8734.430116,153.219100
378.349004,-2294.638420,-8734.430116,-612.876398
378.349326,-2960.823768,-9030.512492,-1378.971896
378.349648,-4441.235652,-9918.759623,-1072.533697
378.349970,-5995.668130,-10140.821405,0.000000
378.350291,-6217.729913,-10807.006753,995.924147
378.350613,-5329.482782,-10436.903782,0.000000
378.350935,-2960.823768,-9474.636058,-1225.752797
378.351257,-370.102971,-9252.574275,-1149.143247
378.351579,1924.535449,-8142.265362,-689.485948
378.351900,3552.988522,-7105.977043,-1225.752797
378.352222,4959.379811,-7179.997637,-1915.238745
378.352544,5847.626942,-8660.409521,-2221.676944
378.352866,4811.338623,-9622.677246,-2911.162892
378.353188,2442.679609,-9696.697840,-2451.505594
378.353509,222.061783,-9696.697840,-1915.238745
378.353831,-1554.432478,-9992.780217,-1302.362347
378.354153,-1480.411884,-9474.636058,-2604.724693
378.354475,-888.247130,-9992.780217,-3140.991542
378.354797,-370.102971,-10510.924376,-2528.115143
378.355118,-592.164754,-10288.862594,-306.438199
378.355440,-1184.329507,-8956.491898,536.266849
378.355762,-1850.514855,-8956.491898,0.000000
378.356084,-2738.761985,-9696.697840,-766.095498
378.356406,-3849.070898,-10066.800811,-536.266849
378.356727,-4737.318029,-9622.677246,-229.828649
378.357049,-3108.864956,-8734.430116,-919.314598
378.357371,0.000000,-8660.409521,-919.314598
378.357693,2368.659014,-9400.615463,-383.047749
378.358015,3552.988522,-8142.265362,229.828649
378.358336,4737.318029,-7105.977043,-612.876398
378.358658,5551.544565,-7550.100608,-2911.162892
378.358980,5329.482782,-9030.512492,-2911.162892
378.359302,2590.720797,-9474.636058,-2451.505594
378.359624,-740.205942,-8734.430116,-2221.676944
378.359946,-2146.597232,-9770.718434,-2604.724693
378.360267,-2146.597232,-10955.047942,-3294.210641
378.360589,-1850.514855,-10658.965565,-3294.210641
378.360911,-1998.556043,-9030.512492,-2145.067394
378.361233,-1776.494261,-8808.450710,-766.095498
378.361555,-1776.494261,-9548.656652,-229.828649
378.361876,-2368.659014,-9844.739029,-842.705048
378.362198,-3701.029710,-9030.512492,-383.047749
378.362520,-4737.318029,-8956.491898,-306.438199
378.362842,-4589.276840,-10362.883188,0.000000
378.363164,-4663.297435,-10510.924376,153.219100
378.363485,-3108.864956,-9474.636058,0.000000
378.363807,-370.102971,-9548.656652,-459.657299
378.364129,2442.679609,-9252.574275,-1149.143247
378.364451,4589.276840,-7846.182985,-1302.362347
378.364773,4811.338623,-6809.894666,-1915.238745
378.365094,4959.379811,-7031.956449,-2528.115143
378.365416,4071.132681,-9178.553681,-2834.553343
378.365738,1924.535449,-9770.718434,-2834.553343
378.366060,-962.267725,-9696.697840,-3677.258390
378.366382,-2368.659014,-10288.862594,-4060.306139
378.366703,-2368.659014,-11251.130318,-3830.477490
378.367025,-2442.679609,-11325.150913,-2757.943793
378.367347,-2516.700203,-10066.800811,-2068.457845
378.367669,-2368.659014,-9252.574275,-1685.410096
378.367991,-1850.514855,-9770.718434,-1608.800546
378.368312,-1776.494261,-10066.800811,-995.924147
378.368634,-2664.741391,-10436.903782,-919.314598
378.368956,-3701.029710,-10066.800811,153.219100
378.369278,-3330.926739,-10066.800811,306.438199
378.369600,-2368.659014,-10140.821405,76.609550
378.369921,-296.082377,-9178.553681,-383.047749
378.370243,1776.494261,-8364.327145,0.000000
378.370565,3627.009116,-7105.977043,-153.219100
378.370887,4515.256246,-6143.709319,-306.438199
378.371209,5847.626942,-7550.100608,-1532.190996
378.371530,5181.441594,-8882.471304,-2528.115143
378.371852,3330.926739,-9918.759623,-2681.334243
378.372174,1332.370696,-10658.965565,-2834.553343
378.372496,-370.102971,-11399.171507,-3600.648841
378.372818,-1332.370696,-11991.336260,-3524.039291
378.373140,-1998.556043,-10807.006753,-3064.381992
378.373461,-2072.576638,-10881.027347,-2528.115143
378.373783,-1332.370696,-9770.718434,-1838.629195
378.374105,-962.267725,-9252.574275,-1378.971896
378.374427,-1184.329507,-9252.574275,0.000000
378.374749,-1406.391290,-8660.409521,612.876398
378.375070,-2664.741391,-8808.450710,383.047749
378.375392,-3701.029710,-8808.450710,383.047749
378.375714,-4367.215058,-8882.471304,919.314598
378.376036,-3849.070898,-7698.141797,0.000000
378.376358,-1998.556043,-7179.997637,-459.657299
378.376679,-222.061783,-8216.285956,-383.047749
378.377001,1480.411884,-8142.265362,-153.219100
378.377323,2368.659014,-7846.182985,-919.314598
378.377645,3256.906145,-8216.285956,-1915.238745
378.377967,3701.029710,-8660.409521,-3370.820191
378.378288,2590.720797,-9918.759623,-4443.353888
378.378610,444.123565,-10362.883188,-3983.696590
378.378932,-888.247130,-11251.130318,-3907.087040
378.379254,-1332.370696,-11621.233289,-3217.601092
378.379576,-1480.411884,-12213.398043,-2604.724693
378.379897,-1480.411884,-10807.006753,-1302.362347
378.380219,-1554.432478,-9252.574275,-459.657299
378.380541,-1480.411884,-8586.388927,-766.095498
378.380863,-1628.453072,-8068.244768,-612.876398
378.381185,-2442.679609,-7920.203579,0.000000
378.381506,-3701.029710,-7624.121203,76.609550
378.381828,-4441.235652,-8660.409521,842.705048
378.382150,-4737.318029,-9770.718434,536.266849
378.382472,-3552.988522,-9844.739029,-153.219100
378.382794,-1998.556043,-9400.615463,-919.314598
378.383115,296.082377,-9030.512492,-995.924147
378.383437,2812.782580,-7846.182985,-1685.410096
378.383759,5181.441594,-8512.368333,-2681.334243
378.384081,6069.688724,-9400.615463,-3140.991542
378.384403,5255.462188,-10140.821405,-3294.210641
378.384725,3552.988522,-9918.759623,-3983.696590
378.385046,1554.432478,-10436.903782,-3524.039291
378.385368,-370.102971,-11325.150913,-3064.381992
378.385690,-1480.411884,-10881.027347,-3140.991542
378.386012,-1850.514855,-10362.883188,-3140.991542
378.386334,-1332.370696,-9992.780217,-1762.019645
378.386655,-444.123565,-9844.739029,-842.705048
378.386977,-962.267725,-8512.368333,-153.219100
378.387299,-1184.329507,-7254.018232,76.609550
378.387621,-1702.473667,-8364.327145,-383.047749
378.387943,-2960.823768,-8734.430116,0.000000
378.388264,-4441.235652,-9030.512492,1072.533697
378.388586,-4219.173869,-8586.388927,229.828649
378.388908,-1850.514855,-10214.842000,-1302.362347
378.389230,666.185348,-11251.130318,-1838.629195
378.389552,2220.617826,-9844.739029,0.000000
378.389873,3330.926739,-7994.224174,766.095498
378.390195,5181.441594,-8142.265362,-1455.581446
378.390517,6217.729913,-8364.327145,-4060.306139
378.390839,4663.297435,-9696.697840,-4673.182538
378.391161,1184.329507,-9548.656652,-3677.258390
378.391482,-1480.411884,-10140.821405,-2604.724693
378.391804,-2590.720797,-11325.150913,-1991.848295
378.392126,-2812.782580,-10658.965565,-2451.505594
378.392448,-3701.029710,-9622.677246,-2298.286494
378.392770,-3849.070898,-7846.182985,-1838.629195
378.393091,-3256.906145,-8364.327145,-1149.143247
378.393413,-2960.823768,-9400.615463,-766.095498
378.393735,-2886.803174,-7920.203579,-536.266849
378.394057,-3330.926739,-8586.388927,-1149.143247
378.394379,-3701.029710,-10140.821405,-153.219100
378.394700,-4515.256246,-11251.130318,766.095498
378.395022,-4589.276840,-10066.800811,229.828649
378.395344,-1554.432478,-9548.656652,-1532.190996
378.395666,1998.556043,-10658.965565,-1838.629195
378.395988,3701.029710,-9622.677246,-766.095498
378.396309,4663.297435,-8438.347739,0.000000
378.396631,5699.585753,-7698.141797,-1608.800546
378.396953,6661.853478,-7105.977043,-3524.039291
378.397275,5699.585753,-8586.388927,-4060.306139
378.397597,1924.535449,-8808.450710,-2681.334243
378.397919,-1924.535449,-8882.471304,-2298.286494
378.398240,-3849.070898,-9696.697840,-3064.381992
378.398562,-3923.091493,-11399.171507,-3217.601092
378.398884,-4071.132681,-11103.089130,-1685.410096
378.399206,-4071.132681,-9252.574275,-1455.581446
378.399528,-3849.070898,-8512.368333,-1072.533697
378.399849,-2812.782580,-8734.430116,-689.485948
378.400171,-2368.659014,-8438.347739,-1225.752797
378.400493,-3182.885551,-9030.512492,-919.314598
378.400815,-3923.091493,-9622.677246,0.000000
378.401137,-3997.112087,-10436.903782,153.219100
378.401458,-2738.761985,-10436.903782,-153.219100
378.401780,-518.144159,-9548.656652,-153.219100
378.402102,2590.720797,-9252.574275,-612.876398
378.402424,5477.523971,-8216.285956,-995.924147
378.402746,6883.915261,-7698.141797,-1762.019645
378.403067,7328.038826,-7328.038826,-1378.971896
378.403389,7105.977043,-8068.244768,-1838.629195
378.403711,5329.482782,-9474.636058,-2451.505594
378.404033,2664.741391,-9770.718434,-1991.848295
378.404355,296.082377,-10140.821405,-2298.286494
378.404676,-740.205942,-10955.047942,-2987.772442
378.404998,-1480.411884,-11473.192101,-2987.772442
378.405320,-2294.638420,-10807.006753,-2221.676944
378.405642,-3256.906145,-9770.718434,-1455.581446
378.405964,-3256.906145,-10140.821405,-995.924147
378.406285,-3478.967927,-9548.656652,-612.876398
378.406607,-4145.153275,-9474.636058,-995.924147
378.406929,-4737.318029,-9400.615463,-459.657299
378.407251,-5477.523971,-9178.553681,689.485948
378.407573,-5625.565159,-9030.512492,1302.362347
378.407894,-3552.988522,-8586.388927,-229.828649
378.408216,-518.144159,-8734.430116,-1072.533697
378.408538,1998.556043,-8290.306550,-1838.629195
378.408860,3775.050304,-8142.265362,-1378.971896
378.409182,4885.359217,-7846.182985,-1149.143247
378.409504,5699.585753,-7105.977043,-2068.457845
378.409825,5255.462188,-7994.224174,-2987.772442
378.410147,3478.967927,-8438.347739,-2987.772442
378.410469,666.185348,-9474.636058,-3140.991542
378.410791,-1850.514855,-10658.965565,-3447.429741
378.411113,-3182.885551,-11399.171507,-3677.258390
378.411434,-3775.050304,-11843.295072,-2451.505594
378.411756,-4367.215058,-10214.842000,-2451.505594
378.412078,-4367.215058,-9326.594869,-2221.676944
378.412400,-3849.070898,-9178.553681,-995.924147
378.412722,-3330.926739,-8956.491898,-1685.410096
378.413043,-4441.235652,-10288.862594,-689.485948
378.413365,-4737.318029,-10732.986159,536.266849
378.413687,-4737.318029,-11177.109724,1532.190996
378.414009,-3404.947333,-10362.883188,0.000000
378.414331,-740.205942,-8808.450710,-1225.752797
378.414652,2516.700203,-9252.574275,-842.705048
378.414974,4145.153275,-8068.244768,-1302.362347
378.415296,5403.503377,-7105.977043,-1149.143247
378.415618,7179.997637,-7846.182985,-1378.971896
378.415940,7772.162391,-8660.409521,-1991.848295
378.416261,6143.709319,-8882.471304,-1915.238745
378.416583,2516.700203,-8734.430116,-1838.629195
378.416905,-222.061783,-9326.594869,-2528.115143
378.417227,-2220.617826,-9622.677246,-4213.525239
378.417549,-3701.029710,-9844.739029,-4903.011187
378.417870,-4737.318029,-9992.780217,-3677.258390
378.418192,-5033.400406,-9696.697840,-2068.457845
378.418514,-4293.194464,-10658.965565,-2451.505594
378.418836,-4071.132681,-11177.109724,-1608.800546
378.419158,-4515.256246,-10584.944971,612.876398
378.419479,-4737.318029,-9326.594869,842.705048
378.419801,-4367.215058,-8216.285956,-306.438199
378.420123,-3627.009116,-8364.327145,-1072.533697
378.420445,-1554.432478,-8808.450710,-919.314598
378.420767,962.267725,-9030.512492,-1072.533697
378.421089,2812.782580,-9770.718434,-153.219100
378.421410,4737.318029,-9030.512492,2374.896044
378.421732,5995.668130,-7179.997637,1991.848295
378.422054,7328.038826,-5477.523971,-1532.190996
378.422376,7846.182985,-7254.018232,-3753.867940
378.422698,6661.853478,-9770.718434,-3830.477490
378.423019,3701.029710,-10214.842000,-2987.772442
378.423341,296.082377,-9844.739029,-1532.190996
378.423663,-962.267725,-11103.089130,-1762.019645
378.423985,-1702.473667,-11843.295072,-3294.210641
378.424307,-3256.906145,-10881.027347,-4903.011187
378.424628,-4515.256246,-10214.842000,-3447.429741
378.424950,-4589.276840,-10658.965565,-995.924147
378.425272,-4071.132681,-10732.986159,153.219100
378.425594,-3775.050304,-10658.965565,0.000000
378.425916,-3849.070898,-9548.656652,0.000000
378.426237,-4663.297435,-8808.450710,612.876398
378.426559,-4219.173869,-8808.450710,842.705048
378.426881,-3182.885551,-8512.368333,0.000000
378.427203,-814.226536,-7994.224174,-612.876398
378.427525,1702.473667,-7994.224174,-383.047749
378.427846,3701.029710,-8068.244768,-306.438199
378.428168,5329.482782,-7624.121203,0.000000
378.428490,6883.915261,-6883.915261,-1991.848295
378.428812,6809.894666,-8364.327145,-3753.867940
378.429134,5181.441594,-9844.739029,-3140.991542
378.429455,2368.659014,-9918.759623,-3064.381992
378.429777,148.041188,-10732.986159,-3600.648841
378.430099,-592.164754,-12435.459826,-4136.915689
378.430421,-1554.432478,-12287.418637,-3217.601092
378.430743,-2886.803174,-10658.965565,-2221.676944
378.431064,-4071.132681,-9770.718434,-1149.143247
378.431386,-4515.256246,-9400.615463,0.000000
378.431708,-4293.194464,-8734.430116,-229.828649
378.432030,-3775.050304,-8660.409521,-842.705048
378.432352,-4367.215058,-8882.471304,-459.657299
378.432673,-5403.503377,-9252.574275,536.266849
378.432995,-5551.544565,-8808.450710,1072.533697
378.433317,-3849.070898,-8142.265362,153.219100
378.433639,-444.123565,-8512.368333,-1378.971896
378.433961,1776.494261,-8586.388927,-2145.067394
378.434283,3701.029710,-8512.368333,-995.924147
378.434604,4959.379811,-8364.327145,-1149.143247
378.434926,6143.709319,-8734.430116,-2681.334243
378.435248,5699.585753,-10510.924376,-4290.134789
378.435570,2516.700203,-10584.944971,-3677.258390
378.435892,-518.144159,-10362.883188,-3983.696590
378.436213,-1480.411884,-10807.006753,-5286.058936
378.436535,-1628.453072,-11547.212695,-5132.839837
378.436857,-2368.659014,-11769.274478,-3217.601092
378.437179,-3627.009116,-10584.944971,-1149.143247
378.437501,-3849.070898,-9992.780217,-306.438199
378.437823,-4071.132681,-9696.697840,-612.876398
378.438145,-4145.153275,-10732.986159,-689.485948
378.438467,-4663.297435,-9918.759623,229.828649
378.438789,-4737.318029,-8216.285956,1378.971896
378.439110,-4589.276840,-7476.080014,1532.190996
378.439432,-3478.967927,-7179.997637,1302.362347
378.439754,-1258.350101,-7179.997637,-153.219100
378.440076,740.205942,-7772.162391,-1149.143247
378.440398,3404.947333,-8142.265362,0.000000
378.440720,5403.503377,-8068.244768,-612.876398
378.441042,6809.894666,-7920.203579,-1149.143247
378.441364,6883.915261,-8438.347739,-2145.067394
378.441686,5625.565159,-9030.512492,-2834.553343
378.442008,3182.885551,-8956.491898,-3983.696590
378.442330,1036.288319,-9548.656652,-3983.696590
378.442652,-1628.453072,-10436.903782,-3677.258390
378.442974,-2442.679609,-10584.944971,-3064.381992
378.443296,-2960.823768,-10436.903782,-1991.848295
378.443618,-3034.844362,-9844.739029,-1455.581446
378.443939,-2664.741391,-8956.491898,-842.705048
378.444261,-3182.885551,-8290.306550,0.000000
378.444583,-3849.070898,-8438.347739,306.438199
378.444905,-4293.194464,-8512.368333,919.314598
378.445227,-4663.297435,-8882.471304,842.705048
378.445549,-4145.153275,-9844.739029,0.000000
378.445871,-2368.659014,-9474.636058,0.000000
378.446193,740.205942,-9326.594869,-612.876398
378.446515,3775.050304,-9770.718434,-459.657299
378.446837,5773.606348,-9696.697840,383.047749
378.447159,6957.935855,-8586.388927,-383.047749
378.447481,8068.244768,-8808.450710,-2374.896044
378.447803,8660.409521,-9548.656652,-3294.210641
378.448125,6513.812290,-10658.965565,-3677.258390
378.448447,2516.700203,-10066.800811,-3064.381992
378.448768,-592.164754,-10288.862594,-2834.553343
378.449090,-1924.535449,-10807.006753,-2911.162892
378.449412,-2812.782580,-10732.986159,-4060.306139
378.449734,-3552.988522,-10288.862594,-4060.306139
378.450056,-4367.215058,-9992.780217,-1991.848295
378.450378,-4885.359217,-10288.862594,-612.876398
378.450700,-4959.379811,-10436.903782,-383.047749
378.451022,-4885.359217,-10140.821405,0.000000
378.451344,-5107.421000,-9178.553681,-306.438199
378.451666,-5107.421000,-9178.553681,-995.924147
378.451988,-3849.070898,-9400.615463,-1149.143247
378.452310,-1480.411884,-9252.574275,-306.438199
378.452632,1110.308913,-9178.553681,76.609550
378.452954,3478.967927,-9178.553681,1608.800546
378.453276,4737.318029,-8142.265362,229.828649
378.453597,5773.606348,-7105.977043,-1455.581446
378.453919,5921.647536,-7105.977043,-2374.896044
378.454241,5329.482782,-8068.244768,-2374.896044
378.454563,3404.947333,-8364.327145,-2451.505594
378.454885,1036.288319,-9030.512492,-2528.115143
378.455207,-1110.308913,-9326.594869,-2374.896044
378.455529,-2368.659014,-9844.739029,-2757.943793
378.455851,-3552.988522,-9696.697840,-3600.648841
378.456173,-4589.276840,-9770.718434,-3753.867940
378.456495,-5477.523971,-9178.553681,-2145.067394
378.456817,-6957.935855,-10288.862594,-995.924147
378.457139,-7698.141797,-11251.130318,-536.266849
378.457461,-7772.162391,-10658.965565,-1225.752797
378.457783,-7624.121203,-9844.739029,-1915.238745
378.458105,-7031.956449,-9474.636058,-842.705048
378.458426,-4589.276840,-9030.512492,-536.266849
378.458748,-1184.329507,-7994.224174,-766.095498
378.459070,2220.617826,-8956.491898,-689.485948
378.459392,4737.318029,-9178.553681,842.705048
378.459714,6735.874072,-7402.059420,842.705048
378.460036,7402.059420,-6735.874072,-766.095498
378.460358,7994.224174,-7624.121203,-1685.410096
378.460680,7031.956449,-9104.533087,-2221.676944
378.461002,4663.297435,-8956.491898,-2681.334243
378.461324,2812.782580,-9474.636058,-2911.162892
378.461646,592.164754,-10140.821405,-2757.943793
378.461968,0.000000,-11251.130318,-2604.724693
378.462290,-1628.453072,-10881.027347,-2451.505594
378.462612,-2960.823768,-10140.821405,-2911.162892
378.462934,-3701.029710,-10807.006753,-2221.676944
378.463255,-3997.112087,-11473.192101,-1838.629195
378.463577,-4737.318029,-11177.109724,-1685.410096
378.463899,-5403.503377,-9992.780217,-689.485948
378.464221,-5403.503377,-9104.533087,0.000000
378.464543,-5181.441594,-9104.533087,0.000000
378.464865,-2960.823768,-8956.491898,-689.485948
378.465187,0.000000,-8216.285956,-1302.362347
378.465509,3404.947333,-8734.430116,-919.314598
378.465831,5995.668130,-8734.430116,459.657299
378.466153,7624.121203,-7920.203579,1225.752797
378.466475,8660.409521,-7105.977043,76.609550
378.466797,8660.409521,-7254.018232,-1608.800546
378.467119,7031.956449,-8956.491898,-2374.896044
378.467441,4293.194464,-9400.615463,-3064.381992
378.467763,1924.535449,-9326.594869,-2834.553343
378.468084,148.041188,-9696.697840,-2528.115143
378.468406,-888.247130,-10362.883188,-2451.505594
378.468728,-1036.288319,-10881.027347,-1838.629195
378.469050,-2220.617826,-10066.800811,-2528.115143
378.469372,-3256.906145,-10362.883188,-2298.286494
378.469694,-4663.297435,-10955.047942,-306.438199
378.470016,-6291.750507,-10658.965565,459.657299
378.470338,-7179.997637,-10510.924376,0.000000
378.470660,-7476.080014,-9844.739029,-459.657299
378.470982,-7105.977043,-9474.636058,153.219100
378.471304,-5477.523971,-8808.450710,0.000000
378.471626,-2664.741391,-8068.244768,-306.438199
378.471948,0.000000,-7698.141797,306.438199
378.472270,2886.803174,-8068.244768,536.266849
378.472592,4663.297435,-7476.080014,-536.266849
378.472913,5477.523971,-7476.080014,-2221.676944
378.473235,5625.565159,-8586.388927,-2757.943793
378.473557,3404.947333,-9474.636058,-2681.334243
378.473879,74.020594,-9770.718434,-2451.505594
378.474201,-1702.473667,-10881.027347,-3064.381992
378.474523,-2294.638420,-11473.192101,-3294.210641
378.474845,-2072.576638,-10584.944971,-3830.477490
378.475167,-2664.741391,-9622.677246,-3524.039291
378.475489,-2738.761985,-8956.491898,-1608.800546
378.475811,-3627.009116,-9252.574275,-766.095498
378.476133,-4737.318029,-9030.512492,-1225.752797
378.476455,-5995.668130,-9178.553681,-1532.190996
378.476777,-6439.791695,-10214.842000,-2145.067394
378.477099,-6735.874072,-10288.862594,-612.876398
378.477421,-6291.750507,-9474.636058,919.314598
378.477742,-5107.421000,-8586.388927,842.705048
378.478064,-1184.329507,-7846.182985,76.609550
378.478386,2590.720797,-8216.285956,-1072.533697
378.478708,5181.441594,-7328.038826,-1532.190996
378.479030,6957.935855,-6587.832884,-1302.362347
378.479352,8734.430116,-7031.956449,-1378.971896
378.479674,8586.388927,-9178.553681,-2298.286494
378.479996,6883.915261,-10288.862594,-2451.505594
378.480318,4145.153275,-10362.883188,-3064.381992
378.480640,2072.576638,-10436.903782,-4060.306139
378.480962,888.247130,-11547.212695,-3753.867940
378.481284,-222.061783,-10732.986159,-3140.991542
378.481606,-1036.288319,-9400.615463,-2911.162892
378.481928,-1110.308913,-9474.636058,-2221.676944
378.482250,-1924.535449,-10732.986159,-1149.143247
378.482571,-3182.885551,-10362.883188,-229.828649
378.482893,-4663.297435,-10066.800811,-229.828649
378.483215,-4959.379811,-10510.924376,0.000000
378.483537,-4737.318029,-10955.047942,689.485948
378.483859,-3552.988522,-9548.656652,1225.752797
378.484181,-1184.329507,-7698.141797,229.828649
378.484503,1998.556043,-7476.080014,-612.876398
378.484825,4219.173869,-8216.285956,-306.438199
378.485147,5625.565159,-8290.306550,689.485948
378.485469,5921.647536,-7624.121203,536.266849
378.485791,6661.853478,-7698.141797,-1302.362347
378.486113,5995.668130,-9400.615463,-2451.505594
378.486435,3627.009116,-9918.759623,-3294.210641
378.486757,888.247130,-9548.656652,-3140.991542
378.487078,-1110.308913,-9696.697840,-2757.943793
378.487400,-2146.597232,-10362.883188,-3064.381992
378.487722,-3552.988522,-10214.842000,-3064.381992
378.488044,-4959.379811,-9696.697840,-2834.553343
378.488366,-5699.585753,-9622.677246,-2221.676944
378.488688,-5255.462188,-10362.883188,-1378.971896
378.489010,-5033.400406,-10140.821405,-306.438199
378.489332,-4811.338623,-9770.718434,1149.143247
378.489654,-5625.565159,-9400.615463,1608.800546
378.489976,-5477.523971,-8660.409521,1149.143247
378.490298,-4145.153275,-8586.388927,-153.219100
378.490620,-2146.597232,-8438.347739,-1072.533697
378.490942,592.164754,-8364.327145,-919.314598
378.491264,2886.803174,-8142.265362,153.219100
378.491586,4663.297435,-7920.203579,1149.143247
378.491907,5995.668130,-7698.141797,-612.876398
378.492229,6587.832884,-8290.306550,-2911.162892
378.492551,4811.338623,-9770.718434,-3140.991542
378.492873,1776.494261,-10140.821405,-2451.505594
378.493195,-1258.350101,-10807.006753,-2451.505594
378.493517,-2220.617826,-11547.212695,-3677.258390
378.493839,-2516.700203,-11473.192101,-4136.915689
378.494161,-3330.926739,-10955.047942,-3753.867940
378.494483,-3701.029710,-10362.883188,-3140.991542
378.494805,-3552.988522,-9400.615463,-2068.457845
378.495127,-3478.967927,-9326.594869,-383.047749
378.495449,-3552.988522,-9548.656652,-689.485948
378.495771,-4515.256246,-9992.780217,-766.095498
378.496093,-5847.626942,-9178.553681,459.657299
378.496415,-6735.874072,-8142.265362,612.876398
378.496736,-5033.400406,-7772.162391,-1302.362347
378.497058,-740.205942,-7550.100608,-3217.601092
378.497380,3330.926739,-8956.491898,-2987.772442
378.497702,5773.606348,-9104.533087,-842.705048
378.498024,7179.997637,-9178.553681,229.828649
378.498346,8734.430116,-9252.574275,0.000000
378.498668,8808.450710,-9770.718434,-2145.067394
378.498990,6513.812290,-9844.739029,-3140.991542
378.499312,2664.741391,-8660.409521,-3140.991542
378.499634,-222.061783,-8364.327145,-3447.429741
378.499956,-592.164754,-9104.533087,-4213.525239
378.500278,74.020594,-9992.780217,-4213.525239
378.500600,-370.102971,-9844.739029,-2604.724693
378.500922,-1776.494261,-9992.780217,0.000000
378.501244,-3256.906145,-9696.697840,536.266849
378.501565,-4589.276840,-9474.636058,229.828649
378.501887,-5033.400406,-10066.800811,-1378.971896
378.502209,-6365.771101,-10436.903782,-2145.067394
378.502531,-6365.771101,-10140.821405,-1762.019645
378.502853,-5255.462188,-9030.512492,-536.266849
378.503175,-1702.473667,-9030.512492,0.000000
378.503497,1628.453072,-9178.553681,0.000000
378.503819,3997.112087,-9030.512492,-536.266849
378.504141,4441.235652,-8956.491898,612.876398
378.504463,4811.338623,-7846.182985,995.924147
378.504785,5181.441594,-7105.977043,-995.924147
378.505107,5477.523971,-7698.141797,-3294.210641
378.505429,4441.235652,-8956.491898,-3140.991542
378.505751,2294.638420,-9622.677246,-2068.457845
378.506073,0.000000,-9770.718434,-1225.752797
378.506394,-888.247130,-10510.924376,-689.485948
378.506716,-740.205942,-10436.903782,-1072.533697
378.507038,-1110.308913,-10140.821405,-2834.553343
378.507360,-3182.885551,-9474.636058,-2145.067394
378.507682,-5033.400406,-9104.533087,-153.219100
378.508004,-5847.626942,-9030.512492,-842.705048
378.508326,-6587.832884,-9918.759623,-2451.505594
378.508648,-6587.832884,-10510.924376,-1225.752797
378.508970,-7624.121203,-9918.759623,-153.219100
378.509292,-6513.812290,-10066.800811,-1302.362347
378.509614,-2812.782580,-10436.903782,-1302.362347
378.509936,1332.370696,-9770.718434,-995.924147
378.510258,3701.029710,-8290.306550,-766.095498
378.510580,5033.400406,-7328.038826,153.219100
378.510902,6957.935855,-7402.059420,919.314598
378.511223,7179.997637,-7254.018232,-612.876398
378.511545,6143.709319,-8142.265362,-1991.848295
378.511867,4589.276840,-9548.656652,-2068.457845
378.512189,2294.638420,-10436.903782,-2604.724693
378.512511,740.205942,-10955.047942,-3217.601092
378.512833,0.000000,-10807.006753,-2834.553343
378.513155,-222.061783,-9992.780217,-1915.238745
378.513477,-518.144159,-8512.368333,-1685.410096
378.513799,-1924.535449,-8512.368333,-2145.067394
378.514121,-3923.091493,-9326.594869,-1608.800546
378.514443,-4737.318029,-10362.883188,-1378.971896
378.514765,-6143.709319,-11843.295072,-2374.896044
378.515087,-7105.977043,-11843.295072,-689.485948
378.515409,-7476.080014,-9252.574275,383.047749
378.515731,-6069.688724,-7328.038826,-612.876398
378.516052,-2294.638420,-8586.388927,-2451.505594
378.516374,1628.453072,-9400.615463,-2298.286494
378.516696,3034.844362,-7772.162391,-1149.143247
378.517018,4811.338623,-7476.080014,459.657299
378.517340,6661.853478,-8660.409521,0.000000
378.517662,7254.018232,-8808.450710,-1149.143247
378.517984,5403.503377,-8142.265362,-1685.410096
378.518306,2516.700203,-8660.409521,-2145.067394
378.518628,888.247130,-9178.553681,-3064.381992
378.518950,-222.061783,-9474.636058,-3677.258390
378.519272,-888.247130,-10584.944971,-3217.601092
378.519594,-1480.411884,-10510.924376,-1991.848295
378.519916,-1480.411884,-9252.574275,-995.924147
378.520238,-2146.597232,-9918.759623,-1838.629195
378.520560,-3256.906145,-10807.006753,-1072.533697
378.520881,-5033.400406,-10732.986159,-383.047749
378.521203,-6587.832884,-10066.800811,0.000000
378.521525,-7105.977043,-9474.636058,306.438199
378.521847,-6217.729913,-7476.080014,-153.219100
378.522169,-4441.235652,-6883.915261,-1991.848295
378.522491,-1184.329507,-8216.285956,-1762.019645
378.522813,1480.411884,-8882.471304,-612.876398
378.523135,3701.029710,-8882.471304,229.828649
378.523457,5403.503377,-8512.368333,383.047749
378.523779,6143.709319,-7920.203579,-383.047749
378.524101,5625.565159,-7476.080014,-2451.505594
378.524423,3627.009116,-8364.327145,-4060.306139
378.524745,1110.308913,-9400.615463,-3983.696590
378.525067,-444.123565,-10214.842000,-3753.867940
378.525389,-888.247130,-11547.212695,-3753.867940
378.525710,-1332.370696,-11917.315666,-2145.067394
378.526032,-1628.453072,-11621.233289,-1302.362347
378.526354,-1406.391290,-10658.965565,-1378.971896
378.526676,-1776.494261,-10584.944971,-1302.362347
378.526998,-2146.597232,-10140.821405,-459.657299
378.527320,-3330.926739,-9252.574275,-153.219100
378.527642,-4367.215058,-9400.615463,536.266849
378.527964,-4885.359217,-8512.368333,1302.362347
378.528286,-4589.276840,-7550.100608,536.266849
378.528608,-2368.659014,-7772.162391,-995.924147
378.528930,740.205942,-8586.388927,-1378.971896
378.529252,3552.988522,-8438.347739,0.000000
378.529574,4515.256246,-7624.121203,0.000000
378.529896,5699.585753,-7920.203579,-689.485948
378.530218,5921.647536,-8438.347739,-2298.286494
378.530539,5181.441594,-9696.697840,-4136.915689
378.530861,3034.844362,-10362.883188,-4749.792088
378.531183,0.000000,-9770.718434,-4826.401637
378.531505,-1036.288319,-10436.903782,-3600.648841
378.531827,-740.205942,-11991.336260,-3217.601092
378.532149,-814.226536,-11695.253884,-2987.772442
378.532471,-1110.308913,-9844.739029,-2298.286494
378.532793,-1480.411884,-9030.512492,-383.047749
378.533115,-2812.782580,-9770.718434,459.657299
378.533437,-4441.235652,-9326.594869,536.266849
378.533759,-5699.585753,-8586.388927,306.438199
378.534081,-6661.853478,-8586.388927,612.876398
378.534403,-6143.709319,-8882.471304,459.657299
378.534725,-4219.173869,-8586.388927,459.657299
378.535047,-1332.370696,-8364.327145,-612.876398
378.535368,2220.617826,-9474.636058,-459.657299
378.535690,4293.194464,-9622.677246,1149.143247
378.536012,4959.379811,-7920.203579,919.314598
378.536334,5477.523971,-6365.771101,-2068.457845
378.536656,5699.585753,-8142.265362,-4673.182538
378.536978,4737.318029,-11177.109724,-4903.011187
378.537300,1776.494261,-11399.171507,-3830.477490
378.537622,-888.247130,-11399.171507,-2451.505594
378.537944,-1554.432478,-11325.150913,-2451.505594
378.538266,-1924.535449,-11103.089130,-2757.943793
378.538588,-2368.659014,-9992.780217,-3217.601092
378.538910,-3923.091493,-8290.306550,-2528.115143
378.539232,-4145.153275,-7698.141797,-1302.362347
378.539554,-4219.173869,-8290.306550,-153.219100
378.539876,-4293.194464,-8586.388927,76.609550
378.540198,-5773.606348,-8660.409521,-153.219100
378.540519,-6217.729913,-9622.677246,0.000000
378.540841,-6143.709319,-10066.800811,689.485948
378.541163,-5033.400406,-8882.471304,0.000000
378.541485,-2220.617826,-8068.244768,-1225.752797
378.541807,1110.308913,-7994.224174,-1149.143247
378.542129,3775.050304,-7994.224174,-1608.800546
378.542451,5773.606348,-7550.100608,-2604.724693
378.542773,7402.059420,-8586.388927,-3217.601092
378.543095,8142.265362,-10066.800811,-1915.238745
378.543417,6291.750507,-10955.047942,-1072.533697
378.543739,3627.009116,-10807.006753,-2221.676944
378.544061,1776.494261,-11399.171507,-3524.039291
378.544383,740.205942,-11621.233289,-3983.696590
378.544705,-222.061783,-10436.903782,-3907.087040
378.545027,-1776.494261,-8438.347739,-2145.067394
378.545349,-1776.494261,-7031.956449,612.876398
378.545671,-1184.329507,-8364.327145,-995.924147
378.545993,-2442.679609,-9622.677246,-1455.581446
378.546314,-4589.276840,-10140.821405,536.266849
378.546636,-6735.874072,-10362.883188,842.705048
378.546958,-6735.874072,-10510.924376,-306.438199
378.547280,-6439.791695,-10066.800811,-1225.752797
378.547602,-3997.112087,-9400.615463,-1838.629195
378.547924,-592.164754,-8734.430116,-2298.286494
378.548246,3034.844362,-8808.450710,-1991.848295
378.548568,5477.523971,-8956.491898,-383.047749
378.548890,7105.977043,-8438.347739,0.000000
378.549212,7476.080014,-7994.224174,-1608.800546
378.549534,6587.832884,-8956.491898,-2604.724693
378.549856,4589.276840,-10658.965565,-2834.553343
378.550178,1406.391290,-9992.780217,-3140.991542
378.550500,-148.041188,-9252.574275,-3294.210641
378.550822,-1110.308913,-9252.574275,-2374.896044
378.551144,-1702.473667,-9622.677246,-1608.800546
378.551466,-2294.638420,-9400.615463,-1838.629195
378.551788,-2960.823768,-9030.512492,-1072.533697
378.552109,-2960.823768,-9622.677246,76.609550
378.552431,-4219.173869,-10362.883188,612.876398
378.552753,-5255.462188,-9770.718434,153.219100
378.553075,-6069.688724,-9696.697840,0.000000
378.553397,-6291.750507,-9400.615463,383.047749
378.553719,-5625.565159,-8290.306550,0.000000
378.554041,-3256.906145,-8290.306550,-1072.533697
378.554363,-740.205942,-9326.594869,-842.705048
378.554685,1628.453072,-8882.471304,0.000000
378.555007,3108.864956,-7846.182985,-229.828649
378.555329,4441.235652,-7550.100608,-842.705048
378.555651,5181.441594,-7920.203579,-2528.115143
378.555973,4441.235652,-9104.533087,-3677.258390
378.556295,2072.576638,-9992.780217,-3600.648841
378.556617,0.000000,-11029.068536,-2681.334243
378.556939,-1184.329507,-11843.295072,-2757.943793
378.557261,-962.267725,-12139.377449,-2834.553343
378.557583,-1924.535449,-11103.089130,-2757.943793
378.557904,-2590.720797,-9474.636058,-1532.190996
378.558226,-2368.659014,-8438.347739,-1378.971896
378.558548,-1924.535449,-8586.388927,-766.095498
378.558870,-1924.535449,-8882.471304,536.266849
378.559192,-2960.823768,-9474.636058,919.314598
378.559514,-3923.091493,-9400.615463,536.266849
378.559836,-4293.194464,-9992.780217,1072.533697
378.560158,-3478.967927,-9844.739029,306.438199
378.560480,-1702.473667,-8142.265362,-689.485948
378.560802,592.164754,-7031.956449,-1685.410096
378.561124,2886.803174,-7179.997637,-1225.752797
378.561446,4663.297435,-6883.915261,-1149.143247
378.561768,5403.503377,-6809.894666,-2911.162892
378.562090,5403.503377,-8438.347739,-4136.915689
378.562412,3775.050304,-10584.944971,-3677.258390
378.562734,296.082377,-11547.212695,-3983.696590
378.563056,-3182.885551,-12213.398043,-3983.696590
378.563377,-4737.318029,-12879.583391,-4060.306139
378.563699,-4885.359217,-11621.233289,-4519.963438
378.564021,-4663.297435,-10214.842000,-4060.306139
378.564343,-4515.256246,-8216.285956,-2451.505594
378.564665,-4367.215058,-8290.306550,0.000000
378.564987,-4737.318029,-8438.347739,306.438199
378.565309,-5033.400406,-8882.471304,-536.266849
378.565631,-5033.400406,-9474.636058,0.000000
378.565953,-5551.544565,-9400.615463,612.876398
378.566275,-5329.482782,-8438.347739,766.095498
378.566597,-4441.235652,-7698.141797,459.657299
378.566919,-2368.659014,-7698.141797,-612.876398
378.567241,0.000000,-8142.265362,-1149.143247
378.567563,1998.556043,-8290.306550,-1455.581446
378.567885,2664.741391,-8068.244768,-1915.238745
378.568207,3034.844362,-8364.327145,-2757.943793
378.568529,2812.782580,-9548.656652,-3983.696590
378.568851,740.205942,-10584.944971,-4673.182538
378.569172,-2072.576638,-11177.109724,-4519.963438
378.569494,-5181.441594,-11029.068536,-4290.134789
378.569816,-7846.182985,-11399.171507,-4443.353888
378.570138,-9400.615463,-11251.130318,-4136.915689
378.570460,-9992.780217,-10658.965565,-2987.772442
378.570782,-9548.656652,-9400.615463,-1915.238745
378.571104,-7920.203579,-8808.450710,-1225.752797
378.571426,-6883.915261,-8142.265362,229.828649
378.571748,-5477.523971,-7254.018232,1378.971896
378.572070,-4219.173869,-6809.894666,919.314598
378.572392,-2664.741391,-7402.059420,-612.876398
378.572714,-1554.432478,-8882.471304,-1072.533697
378.573036,-1480.411884,-11769.274478,229.828649
378.573358,-1776.494261,-12287.418637,1455.581446
378.573680,-2072.576638,-10584.944971,536.266849
378.574002,-1480.411884,-9474.636058,-689.485948
378.574324,-1036.288319,-8734.430116,-2068.457845
378.574646,-1258.350101,-7550.100608,-3217.601092
378.574967,-2072.576638,-7254.018232,-3524.039291
378.575289,-1924.535449,-8808.450710,-2834.553343
378.575611,-2368.659014,-9992.780217,-1838.629195
378.575933,-3404.947333,-9474.636058,-2374.896044
378.576255,-4441.235652,-9474.636058,-2987.772442
378.576577,-5255.462188,-9548.656652,-3524.039291
378.576899,-5477.523971,-10066.800811,-3753.867940
378.577221,-5181.441594,-9622.677246,-3294.210641
378.577543,-4737.318029,-9770.718434,-1302.362347
378.577865,-4293.194464,-9844.739029,689.485948
378.578187,-4367.215058,-8512.368333,995.924147
378.578509,-4737.318029,-7402.059420,-306.438199
378.578831,-4367.215058,-7476.080014,-1608.800546
378.579153,-3256.906145,-8660.409521,-1608.800546
378.579475,-2590.720797,-9178.553681,-612.876398
378.579797,-1924.535449,-8512.368333,689.485948
378.580119,444.123565,-8586.388927,1225.752797
378.580441,3330.926739,-9252.574275,-919.314598
378.580762,4959.379811,-9696.697840,-1915.238745
378.581084,4737.318029,-9030.512492,-1455.581446
378.581406,3034.844362,-8586.388927,-1225.752797
378.581728,962.267725,-9474.636058,-1149.143247
378.582050,-2294.638420,-10658.965565,-1455.581446
378.582372,-5699.585753,-10955.047942,-2757.943793
378.582694,-8438.347739,-11029.068536,-4290.134789
378.583016,-10732.986159,-11177.109724,-4060.306139
378.583338,-12139.377449,-10732.986159,-2451.505594
378.583660,-12361.439231,-8586.388927,-2221.676944
378.583982,-11177.109724,-7105.977043,-3600.648841
378.584304,-8438.347739,-7624.121203,-4673.182538
378.584626,-6143.709319,-8956.491898,-4136.915689
378.584948,-5477.523971,-9030.512492,-1532.190996
378.585270,-4737.318029,-9178.553681,0.000000
378.585592,-3108.864956,-9474.636058,-1072.533697
378.585914,-370.102971,-10066.800811,-1915.238745
378.586235,2072.576638,-10214.842000,-3600.648841
378.586557,3701.029710,-9622.677246,-3830.477490
378.586879,4737.318029,-8882.471304,-1915.238745
378.587201,4293.194464,-8512.368333,0.000000
378.587523,1924.535449,-8586.388927,0.000000
378.587845,-1036.288319,-9548.656652,-995.924147
378.588167,-3849.070898,-10510.924376,-1991.848295
378.588489,-5995.668130,-11695.253884,-2834.553343
378.588811,-8142.265362,-11769.274478,-1685.410096
378.589133,-9474.636058,-10510.924376,919.314598
378.589455,-9104.533087,-8808.450710,995.924147
378.589777,-7476.080014,-7328.038826,-1225.752797
378.590099,-5181.441594,-6735.874072,-2987.772442
378.590421,-4367.215058,-5255.462188,-2911.162892
378.590743,-4441.235652,-5255.462188,-2451.505594
378.591065,-3997.112087,-6513.812290,-2374.896044
378.591387,-2886.803174,-8734.430116,-2374.896044
378.591709,-1702.473667,-11325.150913,-3217.601092
378.592030,-1036.288319,-13101.645173,-4519.963438
378.592352,-444.123565,-13841.851115,-3370.820191
378.592674,74.020594,-13545.768739,-1378.971896
378.592996,0.000000,-12805.562797,153.219100
378.593318,-1480.411884,-11547.212695,919.314598
378.593640,-2960.823768,-9030.512492,1532.190996
378.593962,-4737.318029,-6291.750507,-153.219100
378.594284,-5699.585753,-5477.523971,-2374.896044
378.594606,-6291.750507,-5477.523971,-1685.410096
378.594928,-6291.750507,-5921.647536,-306.438199
378.595250,-5181.441594,-6809.894666,0.000000
378.595572,-2738.761985,-8512.368333,-1225.752797
378.595894,-1480.411884,-9844.739029,-2298.286494
378.596216,-2220.617826,-10510.924376,-2528.115143
378.596538,-3849.070898,-10881.027347,-2528.115143
378.596860,-4589.276840,-12287.418637,-2604.724693
378.597182,-3923.091493,-13989.892304,-2221.676944
378.597504,-3478.967927,-14434.015869,-2757.943793
378.597825,-2146.597232,-13323.706956,-995.924147
378.598147,0.000000,-12213.398043,612.876398
378.598469,2368.659014,-12509.480420,1378.971896
378.598791,2886.803174,-11399.171507,3447.429741
378.599113,1332.370696,-8364.327145,4979.620737
378.599435,-1184.329507,-5699.585753,4673.182538
378.599757,-3923.091493,-4219.173869,3753.867940
378.600079,-7254.018232,-1998.556043,3064.381992
378.600401,-9474.636058,-962.267725,383.047749
378.600723,-10066.800811,-2960.823768,-2757.943793
378.601045,-9474.636058,-4885.359217,-3447.429741
378.601367,-8438.347739,-5033.400406,-3217.601092
378.601689,-6439.791695,-8216.285956,-4519.963438
378.602011,-4885.359217,-14508.036463,-4749.792088
378.602333,-4885.359217,-17246.798449,-3907.087040
378.602655,-5699.585753,-16654.633695,-4213.525239
378.602977,-3923.091493,-16284.530724,-3983.696590
378.603299,-666.185348,-14582.057057,-2834.553343
378.603620,370.102971,-11473.192101,-1608.800546
378.603942,-370.102971,-7698.141797,1915.238745
378.604264,-370.102971,-5551.544565,5515.887586
378.604586,0.000000,-4515.256246,5056.230287
378.604908,-444.123565,-4071.132681,2987.772442
378.605230,-1110.308913,-3701.029710,2298.286494
378.605552,-1332.370696,-4811.338623,1685.410096
378.605874,-1036.288319,-8142.265362,2528.115143
378.606196,-1332.370696,-9474.636058,2757.943793
378.606518,0.000000,-10881.027347,0.000000
378.606840,1332.370696,-10658.965565,-3217.601092
378.607162,2146.597232,-10955.047942,-4060.306139
378.607484,1184.329507,-13027.624579,-4213.525239
378.607806,-518.144159,-16654.633695,-3447.429741
378.608128,0.000000,-17912.983796,-2374.896044
378.608450,1036.288319,-16358.551318,-2757.943793
378.608772,2294.638420,-14508.036463,-2451.505594
378.609093,2146.597232,-12953.603985,459.657299
378.609415,148.041188,-9400.615463,2451.505594
378.609737,-888.247130,-4737.318029,3983.696590
378.610059,296.082377,-2590.720797,3830.477490
378.610381,1702.473667,-814.226536,1072.533697
378.610703,2442.679609,-592.164754,-459.657299
378.611025,1628.453072,-3997.112087,2298.286494
378.611347,962.267725,-7105.977043,4749.792088
378.611669,1184.329507,-8438.347739,3753.867940
378.611991,2590.720797,-11177.109724,-1608.800546
378.612313,3034.844362,-13101.645173,-5209.449386
378.612635,1406.391290,-12953.603985,-4826.401637
378.612957,-1184.329507,-13397.727550,-2145.067394
378.613279,-2368.659014,-16802.674883,383.047749
378.613601,-3330.926739,-17394.839637,383.047749
378.613923,-4441.235652,-14878.139434,-1225.752797
378.614245,-4663.297435,-12953.603985,76.609550
378.614567,-3849.070898,-11917.315666,3753.867940
378.614888,-3404.947333,-9844.739029,5209.449386
378.615210,-3997.112087,-6513.812290,7048.078582
378.615532,-4071.132681,-5033.400406,7660.954980
378.615854,-3923.091493,-6883.915261,6052.154434
378.616176,-4441.235652,-7476.080014,4903.011187
378.616498,-3849.070898,-6365.771101,5209.449386
378.616820,-370.102971,-5995.668130,3370.820191
378.617142,3997.112087,-5551.544565,2298.286494
378.617464,5181.441594,-2886.803174,2681.334243
378.617786,4441.235652,-2146.597232,1915.238745
378.618108,3701.029710,-8142.265362,-1915.238745
378.618430,2368.659014,-14359.995275,-4673.182538
378.618752,-1702.473667,-16506.592507,-4213.525239
378.619074,-7179.997637,-16950.716072,-1378.971896
378.619396,-10510.924376,-18653.189738,2528.115143
378.619718,-11251.130318,-16876.695478,4060.306139
378.620040,-11251.130318,-11769.274478,3140.991542
378.620362,-9622.677246,-9178.553681,2298.286494
378.620683,-7328.038826,-9696.697840,4213.525239
378.621005,-5477.523971,-9400.615463,6588.421283
378.621327,-4441.235652,-6217.729913,10035.851024
378.621649,-1258.350101,-666.185348,13100.233016
378.621971,3256.906145,2368.659014,9576.193725
378.622293,7476.080014,0.000000,2145.067394
378.622615,9104.533087,-2220.617826,-459.657299
378.622937,7476.080014,-5625.565159,1991.848295
378.623259,4737.318029,-11103.089130,4136.915689
378.623581,3478.967927,-19319.375086,3447.429741
378.623903,1480.411884,-21539.992912,153.219100
378.624225,-1258.350101,-18283.086767,-3677.258390
378.624547,-2294.638420,-16654.633695,-3600.648841
378.624869,-2146.597232,-14804.118840,-842.705048
378.625191,-2442.679609,-8956.491898,229.828649
378.625513,-2960.823768,-3034.844362,0.000000
378.625835,-2072.576638,-4959.379811,2145.067394
378.626157,-1480.411884,-8290.306550,3600.648841
378.626478,-3108.864956,-7624.121203,2145.067394
378.626800,-2738.761985,-7328.038826,3217.601092
378.627122,814.226536,-9030.512492,5975.544884
378.627444,3627.009116,-10140.821405,6511.811733
378.627766,3182.885551,-7254.018232,7048.078582
378.628088,5403.503377,-2368.659014,3830.477490
378.628410,9918.759623,-3404.947333,-4366.744339
378.628732,11473.192101,-6291.750507,-8120.612279
378.629054,5551.544565,-7476.080014,-3140.991542
378.629376,-888.247130,-11843.295072,306.438199
378.629698,-4515.256246,-20281.642811,-766.095498
378.630020,-6217.729913,-23760.610738,-3983.696590
378.630342,-7846.182985,-20947.828159,-7507.735880
378.630664,-6661.853478,-15174.221811,-6971.469032
378.630986,-2664.741391,-11251.130318,-3140.991542
378.631308,-1036.288319,-8142.265362,612.876398
378.631630,0.000000,-5699.585753,3370.820191
378.631952,1850.514855,-4441.235652,3447.429741
378.632273,2072.576638,-7105.977043,1149.143247
378.632595,740.205942,-9400.615463,1532.190996
378.632917,1702.473667,-7772.162391,4136.915689
378.633239,3849.070898,-6735.874072,1072.533697
378.633561,6291.750507,-9104.533087,995.924147
378.633883,6217.729913,-9696.697840,3447.429741
378.634205,1110.308913,-9548.656652,3140.991542
378.634527,-5551.544565,-9474.636058,1685.410096
378.634849,-8882.471304,-9696.697840,0.000000
378.635171,-10214.842000,-9474.636058,-6205.373534
378.635493,-11177.109724,-9474.636058,-9422.974625
378.635815,-11251.130318,-11769.274478,-5592.497135
378.636137,-9400.615463,-14211.954086,-459.657299
378.636459,-6069.688724,-14359.995275,-306.438199
378.636781,-2960.823768,-14063.912898,612.876398
378.637103,-1998.556043,-13323.706956,2221.676944
378.637425,-740.205942,-9548.656652,3907.087040
378.637746,1850.514855,-3256.906145,2068.457845
378.638068,5847.626942,370.102971,0.000000
378.638390,8956.491898,-148.041188,2298.286494
378.638712,9548.656652,-3182.885551,6971.469032
378.639034,6069.688724,-6291.750507,8427.050478
378.639356,2294.638420,-9474.636058,7814.174080
378.639678,-444.123565,-11843.295072,5515.887586
378.639989,-2146.597232,-12953.603985,1225.752797
378.640311,-2960.823768,-11621.233289,-1225.752797
378.640633,-3034.844362,-9252.574275,-612.876398
378.640955,-2516.700203,-8068.244768,536.266849
378.641276,-2368.659014,-9992.780217,2604.724693
378.641598,-3775.050304,-10807.006753,2604.724693
378.641920,-5107.421000,-10362.883188,-689.485948
378.642242,-4811.338623,-11991.336260,-3217.601092
378.642564,-3627.009116,-12953.603985,-1455.581446
378.642886,-2442.679609,-11029.068536,1149.143247
378.643208,-444.123565,-9474.636058,2911.162892
378.643530,962.267725,-9474.636058,3064.381992
378.643852,1628.453072,-9992.780217,3370.820191
378.644173,2368.659014,-9252.574275,3217.601092
378.644495,3923.091493,-7920.203579,1762.019645
378.644817,5995.668130,-7105.977043,0.000000
378.645139,7328.038826,-7179.997637,1149.143247
378.645461,6291.750507,-8808.450710,3524.039291
378.645783,3034.844362,-9918.759623,4749.792088
378.646105,0.000000,-9474.636058,2298.286494
378.646427,-2220.617826,-10732.986159,-2451.505594
378.646749,-3256.906145,-12065.356855,-4903.011187
378.647070,-3552.988522,-12213.398043,-3983.696590
378.647392,-2442.679609,-11843.295072,-1149.143247
378.647714,-296.082377,-11547.212695,689.485948
378.648036,1776.494261,-11917.315666,2374.896044
378.648358,1332.370696,-11103.089130,1532.190996
378.648680,-592.164754,-9622.677246,0.000000
378.649002,-1924.535449,-8364.327145,-1532.190996
378.649324,-2294.638420,-7698.141797,-1608.800546
378.649645,-1776.494261,-7772.162391,0.000000
378.649967,-592.164754,-6661.853478,919.314598
378.650289,74.020594,-6365.771101,-612.876398
378.650611,888.247130,-8290.306550,-612.876398
378.650933,1110.308913,-9326.594869,76.609550
378.651255,222.061783,-9104.533087,-383.047749
378.651577,-1184.329507,-8734.430116,-2068.457845
378.651899,-2738.761985,-9622.677246,-2068.457845
378.652221,-4293.194464,-9326.594869,-2221.676944
378.652542,-5255.462188,-8290.306550,-3753.867940
378.652864,-5107.421000,-7698.141797,-4979.620737
378.653186,-4219.173869,-8068.244768,-5898.935335
378.653508,-3404.947333,-9474.636058,-4979.620737
378.653830,-2368.659014,-11547.212695,-3370.820191
378.654152,-592.164754,-13545.768739,-1608.800546
378.654474,296.082377,-13693.809927,-1072.533697
378.654796,1110.308913,-11843.295072,-306.438199
378.655118,888.247130,-8956.491898,-153.219100
378.655439,1332.370696,-6365.771101,-1838.629195
378.655761,1702.473667,-5477.523971,-3140.991542
378.656083,1850.514855,-6365.771101,-2068.457845
378.656405,1998.556043,-7476.080014,-689.485948
378.656727,1776.494261,-8734.430116,-536.266849
378.657049,1628.453072,-10140.821405,-1302.362347
378.657371,814.226536,-10807.006753,-1991.848295
378.657693,222.061783,-10362.883188,-2834.553343
378.658014,-222.061783,-8956.491898,-3447.429741
378.658336,-296.082377,-8438.347739,-4290.134789
378.658658,-1036.288319,-8438.347739,-5056.230287
378.658980,-2294.638420,-8808.450710,-4979.620737
378.659302,-2960.823768,-10066.800811,-4596.572988
378.659624,-2960.823768,-10881.027347,-4673.182538
378.659946,-2590.720797,-11547.212695,-4673.182538
378.660268,-1850.514855,-12065.356855,-3907.087040
378.660590,-1258.350101,-12953.603985,-1532.190996
378.660911,-444.123565,-12361.439231,1072.533697
378.661233,-148.041188,-10584.944971,1608.800546
378.661555,74.020594,-8808.450710,1302.362347
378.661877,-148.041188,-6439.791695,0.000000
378.662199,0.000000,-5403.503377,76.609550
378.662521,1110.308913,-4737.318029,459.657299
378.662843,2590.720797,-5921.647536,76.609550
378.663165,3256.906145,-7920.203579,0.000000
378.663487,3923.091493,-11177.109724,766.095498
378.663808,2812.782580,-11473.192101,1838.629195
378.664130,2368.659014,-11399.171507,306.438199
378.664452,2516.700203,-9622.677246,-2145.067394
378.664774,2368.659014,-7994.224174,-3983.696590
378.665096,1110.308913,-7772.162391,-3217.601092
378.665418,-740.205942,-9030.512492,-2145.067394
378.665740,-3108.864956,-9844.739029,-1378.971896
378.666062,-4219.173869,-10436.903782,-1915.238745
378.666383,-4589.276840,-11547.212695,-2681.334243
378.666705,-4441.235652,-12731.542202,-1532.190996
378.667027,-4885.359217,-12509.480420,612.876398
378.667349,-4219.173869,-10362.883188,2374.896044
378.667671,-2368.659014,-8808.450710,3370.820191
378.667993,-518.144159,-7031.956449,2528.115143
378.668315,-148.041188,-5255.462188,842.705048
378.668637,-518.144159,-4885.359217,0.000000
378.668959,-740.205942,-6513.812290,1455.581446
378.669280,296.082377,-8290.306550,1991.848295
378.669602,2664.741391,-9400.615463,459.657299
378.669924,4959.379811,-12435.459826,-1149.143247
378.670246,5625.565159,-14063.912898,-306.438199
378.670568,4737.318029,-13323.706956,1762.019645
378.670890,3256.906145,-9844.739029,766.095498
378.671212,2368.659014,-7254.018232,-1762.019645
378.671534,1036.288319,-6809.894666,-3983.696590
378.671856,-2220.617826,-6735.874072,-4213.525239
378.672177,-5773.606348,-7624.121203,-2145.067394
378.672499,-7328.038826,-10066.800811,-1225.752797
378.672821,-6957.935855,-11917.315666,-995.924147
378.673143,-6217.729913,-12731.542202,-1991.848295
378.673465,-5921.647536,-12509.480420,-919.314598
378.673787,-4737.318029,-10732.986159,689.485948
378.674109,-3034.844362,-9178.553681,1149.143247
378.674431,-1776.494261,-7179.997637,153.219100
378.674752,-962.267725,-5995.668130,-612.876398
378.675074,0.000000,-5847.626942,-842.705048
378.675396,1110.308913,-6883.915261,-1149.143247
378.675718,2738.761985,-8290.306550,-1149.143247
378.676040,5329.482782,-9696.697840,-1991.848295
378.676362,8068.244768,-11769.274478,-2298.286494
378.676684,8512.368333,-13397.727550,-766.095498
378.677006,7254.018232,-11547.212695,1072.533697
378.677328,4885.359217,-8660.409521,383.047749
378.677649,3182.885551,-6883.915261,-2757.943793
378.677971,1110.308913,-5403.503377,-5056.230287
378.678293,-2220.617826,-5181.441594,-5822.325785
378.678615,-5255.462188,-6883.915261,-4596.572988
378.678937,-6365.771101,-9622.677246,-2374.896044
378.679259,-6217.729913,-12657.521608,-1762.019645
378.679581,-5403.503377,-14211.954086,-2451.505594
378.679903,-5033.400406,-14211.954086,-1915.238745
378.680225,-4219.173869,-11251.130318,-1149.143247
378.680546,-2960.823768,-8290.306550,-1608.800546
378.680868,-1702.473667,-5921.647536,-2757.943793
378.681190,-962.267725,-4663.297435,-3294.210641
378.681512,296.082377,-5477.523971,-3294.210641
378.681834,1258.350101,-8290.306550,-3524.039291
378.682156,2294.638420,-11843.295072,-3064.381992
378.682478,3478.967927,-13767.830521,-1762.019645
378.682800,4145.153275,-14434.015869,-1608.800546
378.683121,3923.091493,-13619.789333,-1072.533697
378.683443,3775.050304,-10362.883188,-1149.143247
378.683765,2664.741391,-6587.832884,-3524.039291
378.684087,1110.308913,-4071.132681,-5362.668486
378.684409,-370.102971,-4811.338623,-5362.668486
378.684731,-2664.741391,-6735.874072,-3907.087040
378.685053,-4219.173869,-8882.471304,-3524.039291
378.685375,-4589.276840,-12361.439231,-2911.162892
378.685697,-4071.132681,-16284.530724,-1838.629195
378.686018,-3701.029710,-16802.674883,-919.314598
378.686340,-3404.947333,-14359.995275,229.828649
378.686662,-2442.679609,-10288.862594,459.657299
378.686984,-740.205942,-6587.832884,-383.047749
378.687306,592.164754,-3997.112087,-2221.676944
378.687628,1332.370696,-3849.070898,-2221.676944
378.687950,1184.329507,-5477.523971,-153.219100
378.688272,1258.350101,-7179.997637,1685.410096
378.688594,2368.659014,-8808.450710,689.485948
378.688915,3997.112087,-10658.965565,-1072.533697
378.689237,5033.400406,-11991.336260,-1149.143247
378.689559,5255.462188,-11251.130318,306.438199
378.689881,3923.091493,-8808.450710,536.266849
378.690203,2516.700203,-7179.997637,-76.609550
378.690525,1036.288319,-6291.750507,-1685.410096
378.690847,-1332.370696,-6291.750507,-3140.991542
378.691169,-2886.803174,-7105.977043,-3600.648841
378.691491,-3997.112087,-8660.409521,-3140.991542
378.691812,-3256.906145,-11769.274478,-2451.505594
378.692134,-3330.926739,-14211.954086,-459.657299
378.692456,-4071.132681,-15322.262999,2451.505594
378.692778,-3923.091493,-13175.665768,3370.820191
378.693100,-3182.885551,-9918.759623,1225.752797
378.693422,-1702.473667,-7254.018232,-1608.800546
378.693744,-666.185348,-4737.318029,-1762.019645
378.694066,0.000000,-3923.091493,0.000000
378.694387,518.144159,-5773.606348,1838.629195
378.694709,1924.535449,-9474.636058,1915.238745
378.695031,2738.761985,-11621.233289,383.047749
378.695353,3849.070898,-13101.645173,-536.266849
378.695675,4811.338623,-13545.768739,-1302.362347
378.695997,5995.668130,-12435.459826,-1762.019645
378.696319,6587.832884,-9992.780217,-1149.143247
378.696641,5033.400406,-7105.977043,-842.705048
378.696963,1924.535449,-6143.709319,-1991.848295
378.697284,-1702.473667,-7994.224174,-2451.505594
378.697606,-4737.318029,-9474.636058,-2757.943793
378.697928,-7550.100608,-11029.068536,-3064.381992
378.698250,-8660.409521,-12361.439231,-2374.896044
378.698572,-7624.121203,-13175.665768,229.828649
378.698894,-5921.647536,-12583.501014,689.485948
378.699216,-4367.215058,-10955.047942,306.438199
378.699538,-3034.844362,-8882.471304,536.266849
378.699860,-2442.679609,-6069.688724,1072.533697
378.700181,-1258.350101,-4737.318029,0.000000
378.700503,-296.082377,-4737.318029,-2221.676944
378.700825,1110.308913,-6143.709319,-2757.943793
378.701147,2590.720797,-9400.615463,-2221.676944
378.701469,3478.967927,-11621.233289,-919.314598
378.701791,4293.194464,-12879.583391,0.000000
378.702113,4071.132681,-13027.624579,0.000000
378.702435,3849.070898,-11399.171507,-612.876398
378.702756,3330.926739,-7550.100608,-2911.162892
378.703078,2664.741391,-4589.276840,-5362.668486
378.703400,1702.473667,-4219.173869,-5515.887586
378.703722,-962.267725,-6217.729913,-3447.429741
378.704044,-3775.050304,-8068.244768,-2221.676944
378.704366,-4885.359217,-10214.842000,-1915.238745
378.704688,-4663.297435,-14063.912898,-2298.286494
378.705010,-4367.215058,-15618.345376,-1685.410096
378.705332,-4441.235652,-13101.645173,-766.095498
378.705653,-3330.926739,-9252.574275,153.219100
378.705975,-1110.308913,-6661.853478,-383.047749
378.706297,666.185348,-4441.235652,-1608.800546
378.706619,888.247130,-3404.947333,-2604.724693
378.706941,1184.329507,-5699.585753,-2298.286494
378.707263,888.247130,-7920.203579,-1838.629195
378.707585,1924.535449,-9770.718434,-1991.848295
378.707907,4293.194464,-11621.233289,-3064.381992
378.708229,5995.668130,-12657.521608,-3524.039291
378.708550,6217.729913,-12287.418637,-3370.820191
378.708872,5255.462188,-9918.759623,-2604.724693
378.709194,3034.844362,-8734.430116,-3064.381992
378.709516,592.164754,-8438.347739,-4596.572988
378.709838,-2220.617826,-9178.553681,-5669.106685
378.710160,-4811.338623,-9178.553681,-5132.839837
378.710482,-5773.606348,-10510.924376,-4519.963438
378.710804,-5329.482782,-11029.068536,-3064.381992
378.711125,-3627.009116,-12065.356855,-1991.848295
378.711447,-2886.803174,-13027.624579,-612.876398
378.711769,-2442.679609,-12657.521608,536.266849
378.712091,-1998.556043,-10881.027347,1149.143247
378.712413,-1406.391290,-8660.409521,995.924147
378.712735,-296.082377,-6513.812290,-612.876398
378.713057,444.123565,-4737.318029,-1455.581446
378.713379,2220.617826,-4885.359217,-1072.533697
378.713701,4145.153275,-7994.224174,-1991.848295
378.714022,5403.503377,-12213.398043,-1149.143247
378.714344,5181.441594,-14285.974681,-306.438199
378.714666,3997.112087,-14730.098246,1072.533697
378.714988,2368.659014,-13249.686362,689.485948
378.715310,1110.308913,-9548.656652,-842.705048
378.715632,0.000000,-4885.359217,-3677.258390
378.715954,-1628.453072,-3404.947333,-5286.058936
378.716276,-3552.988522,-5551.544565,-3294.210641
378.716598,-6069.688724,-8290.306550,0.000000
378.716919,-8068.244768,-10214.842000,1225.752797
378.717241,-7846.182985,-12953.603985,459.657299
378.717563,-6661.853478,-14211.954086,0.000000
378.717885,-5033.400406,-12731.542202,-459.657299
378.718207,-3775.050304,-9030.512492,1072.533697
378.718529,-2072.576638,-7105.977043,2374.896044
378.718851,-222.061783,-5403.503377,2374.896044
378.719173,1554.432478,-4959.379811,1608.800546
378.719494,1184.329507,-6143.709319,766.095498
378.719816,1776.494261,-7328.038826,842.705048
378.720138,3552.988522,-7920.203579,612.876398
378.720460,5699.585753,-9400.615463,-1378.971896
378.720782,7624.121203,-10807.006753,0.000000
378.721104,7254.018232,-10881.027347,766.095498
378.721426,5551.544565,-9918.759623,1149.143247
378.721748,3034.844362,-9400.615463,-229.828649
378.722070,740.205942,-8438.347739,-2221.676944
378.722391,-1332.370696,-7179.997637,-4290.134789
378.722713,-3330.926739,-7550.100608,-3830.477490
378.723035,-4737.318029,-7920.203579,-2374.896044
378.723357,-4663.297435,-8586.388927,-1838.629195
378.723679,-4071.132681,-10510.924376,-2911.162892
378.724001,-4145.153275,-13545.768739,-2451.505594
378.724323,-4811.338623,-15248.242405,-459.657299
378.724645,-5773.606348,-13397.727550,306.438199
378.724967,-4737.318029,-11325.150913,-459.657299
378.725288,-2738.761985,-8586.388927,-1532.190996
378.725610,-740.205942,-6217.729913,-2374.896044
378.725932,814.226536,-4737.318029,-2757.943793
378.726254,2072.576638,-5181.441594,-2298.286494
378.726576,3997.112087,-7550.100608,-1838.629195
378.726898,4959.379811,-10881.027347,-3753.867940
378.727220,5551.544565,-13915.871710,-4290.134789
378.727542,5403.503377,-14952.160028,-2451.505594
378.727863,3627.009116,-12435.459826,-1532.190996
378.728185,2072.576638,-9400.615463,-2681.334243
378.728507,1110.308913,-6957.935855,-4596.572988
378.728829,-1036.288319,-6217.729913,-5898.935335
378.729151,-3997.112087,-8068.244768,-5975.544884
378.729473,-6661.853478,-9326.594869,-3064.381992
378.729795,-7550.100608,-10658.965565,-1532.190996
378.730117,-6291.750507,-11473.192101,-1838.629195
378.730439,-4367.215058,-11917.315666,-2451.505594
378.730760,-2886.803174,-11251.130318,-1378.971896
378.731082,-1702.473667,-9844.739029,0.000000
378.731404,-1480.411884,-7920.203579,1072.533697
378.731726,-962.267725,-6143.709319,229.828649
378.732048,-222.061783,-5625.565159,-689.485948
378.732370,888.247130,-6291.750507,-1915.238745
378.732692,2368.659014,-7994.224174,-2757.943793
378.733014,3923.091493,-9104.533087,-2221.676944
378.733336,5477.523971,-10436.903782,-1072.533697
378.733657,5255.462188,-11621.233289,-153.219100
378.733979,4219.173869,-12361.439231,76.609550
378.734301,2368.659014,-10362.883188,-536.266849
378.734623,1110.308913,-7179.997637,-3140.991542
378.734945,0.000000,-5477.523971,-4903.011187
378.735267,-1998.556043,-5107.421000,-4366.744339
378.735589,-4145.153275,-5773.606348,-3064.381992
378.735911,-5329.482782,-8068.244768,-2451.505594
378.736233,-5107.421000,-11177.109724,-2145.067394
378.736554,-4589.276840,-15026.180623,-1608.800546
378.736876,-4885.359217,-16210.510130,-536.266849
378.737198,-5033.400406,-13693.809927,1149.143247
378.737520,-3849.070898,-10436.903782,1072.533697
378.737842,-1036.288319,-8068.244768,-459.657299
378.738164,1332.370696,-5921.647536,-2298.286494
378.738486,1628.453072,-4737.318029,-2068.457845
378.738808,2072.576638,-6217.729913,76.609550
378.739129,3404.947333,-8512.368333,1455.581446
378.739451,4811.338623,-11103.089130,-306.438199
378.739773,5995.668130,-12657.521608,-1762.019645
378.740095,6217.729913,-12805.562797,-459.657299
378.740417,5699.585753,-10510.924376,306.438199
378.740739,4441.235652,-7994.224174,-612.876398
378.741061,2516.700203,-6735.874072,-2374.896044
378.741382,-518.144159,-6069.688724,-3294.210641
378.741704,-3923.091493,-7105.977043,-4290.134789
378.742026,-6661.853478,-8734.430116,-3140.991542
378.742348,-7179.997637,-10288.862594,-2451.505594
378.742670,-6439.791695,-10955.047942,-3294.210641
378.742992,-5773.606348,-12583.501014,-2604.724693
378.743314,-5033.400406,-13915.871710,153.219100
378.743635,-5551.544565,-12435.459826,1532.190996
378.743957,-5329.482782,-9918.759623,919.314598
378.744279,-3849.070898,-7846.182985,-383.047749
378.744601,-2146.597232,-6735.874072,-1378.971896
378.744923,-962.267725,-5403.503377,-1608.800546
378.745245,74.020594,-5107.421000,0.000000
378.745567,2960.823768,-6291.750507,1072.533697
378.745888,6291.750507,-8734.430116,-766.095498
378.746210,7550.100608,-11695.253884,-2221.676944
378.746532,6957.935855,-12953.603985,-536.266849
378.746854,5477.523971,-11917.315666,1532.190996
378.747176,3775.050304,-9844.739029,153.219100
378.747498,2590.720797,-8142.265362,-2221.676944
378.747820,296.082377,-5329.482782,-3753.867940
378.748141,-2368.659014,-5107.421000,-4519.963438
378.748463,-5107.421000,-6735.874072,-3677.258390
378.748785,-7105.977043,-8882.471304,-1838.629195
378.749107,-6513.812290,-11621.233289,-2221.676944
378.749429,-5699.585753,-14063.912898,-2451.505594
378.749751,-4959.379811,-15766.386565,-1225.752797
378.750073,-4737.318029,-13915.871710,0.000000
378.750394,-4515.256246,-10362.883188,459.657299
378.750716,-3330.926739,-7698.141797,-153.219100
378.751038,-1702.473667,-5403.503377,-1532.190996
378.751360,-518.144159,-4293.194464,-2757.943793
378.751682,592.164754,-5625.565159,-2068.457845
378.752004,2220.617826,-7846.182985,0.000000
378.752326,3997.112087,-9030.512492,-153.219100
378.752647,6587.832884,-11251.130318,-1302.362347
378.752969,7105.977043,-13249.686362,-1762.019645
378.753291,7179.997637,-12583.501014,-766.095498
378.753613,6291.750507,-9104.533087,-1455.581446
378.753935,4663.297435,-6735.874072,-3064.381992
378.754257,1628.453072,-6587.832884,-3294.210641
378.754579,-1184.329507,-7254.018232,-2757.943793
378.754900,-3923.091493,-7994.224174,-3600.648841
378.755222,-5551.544565,-10214.842000,-3600.648841
378.755544,-5477.523971,-13397.727550,-2145.067394
378.755866,-5181.441594,-13693.809927,-919.314598
378.756188,-4293.194464,-12583.501014,-689.485948
378.756510,-3034.844362,-11177.109724,0.000000
378.756832,-2812.782580,-9400.615463,-536.266849
378.757153,-3034.844362,-7105.977043,-766.095498
378.757475,-2738.761985,-5773.606348,-1608.800546
378.757797,-2072.576638,-5403.503377,-2145.067394
378.758119,592.164754,-6661.853478,-2451.505594
378.758441,2738.761985,-9030.512492,-3370.820191
378.758763,4145.153275,-11769.274478,-1608.800546
378.759085,5403.503377,-12065.356855,459.657299
378.759406,5329.482782,-11991.336260,0.000000
378.759728,3627.009116,-10658.965565,-1072.533697
378.760050,1924.535449,-7476.080014,-2451.505594
378.760372,-222.061783,-4663.297435,-4979.620737
378.760694,-1850.514855,-4663.297435,-6128.763984
378.761016,-3775.050304,-6513.812290,-3983.696590
378.761338,-5403.503377,-8438.347739,-2757.943793
378.761659,-6883.915261,-10510.924376,-2298.286494
378.761981,-6735.874072,-14656.077652,-842.705048
378.762303,-6291.750507,-17172.777854,76.609550
378.762625,-5995.668130,-15248.242405,-919.314598
378.762947,-4811.338623,-11547.212695,-1072.533697
378.763269,-2812.782580,-8142.265362,-536.266849
378.763591,-222.061783,-5181.441594,-612.876398
378.763912,1628.453072,-3627.009116,-1991.848295
378.764234,3108.864956,-4811.338623,-2145.067394
378.764556,4663.297435,-9030.512492,-1991.848295
378.764878,4811.338623,-11843.295072,-229.828649
378.765200,4441.235652,-13249.686362,766.095498
378.765522,4219.173869,-13397.727550,689.485948
378.765844,4293.194464,-11621.233289,229.828649
378.766165,4219.173869,-7105.977043,-1991.848295
378.766487,2664.741391,-4219.173869,-4443.353888
378.766809,592.164754,-4145.153275,-4366.744339
378.767131,-1850.514855,-6439.791695,-3677.258390
378.767453,-3923.091493,-8956.491898,-3064.381992
378.767775,-4663.297435,-12361.439231,-2604.724693
378.768097,-4737.318029,-16136.489536,-2604.724693
378.768418,-5403.503377,-16506.592507,-689.485948
378.768740,-5847.626942,-13767.830521,1302.362347
378.769062,-5181.441594,-9622.677246,1991.848295
378.769384,-3034.844362,-6291.750507,459.657299
378.769706,-1036.288319,-4145.153275,-919.314598
378.770028,518.144159,-4293.194464,-1532.190996
378.770350,1850.514855,-6365.771101,-153.219100
378.770671,2664.741391,-8290.306550,1915.238745
378.770993,3256.906145,-9918.759623,2374.896044
378.771315,4293.194464,-9770.718434,1915.238745
378.771637,5329.482782,-9474.636058,766.095498
378.771959,5551.544565,-8956.491898,-919.314598
378.772281,5551.544565,-8216.285956,-1838.629195
378.772603,5181.441594,-7105.977043,-2604.724693
378.772924,4663.297435,-6957.935855,-3217.601092
378.773246,2886.803174,-8290.306550,-2834.553343
378.773568,-518.144159,-9400.615463,-1225.752797
378.773890,-3775.050304,-9770.718434,-1608.800546
378.774212,-5699.585753,-11251.130318,-3140.991542
378.774534,-6957.935855,-13101.645173,-3753.867940
378.774855,-7402.059420,-13027.624579,-2145.067394
378.775177,-7328.038826,-11769.274478,-459.657299
378.775499,-5255.462188,-9104.533087,-153.219100
378.775821,-2072.576638,-7328.038826,-612.876398
378.776143,148.041188,-6365.771101,-919.314598
378.776465,0.000000,-6143.709319,-919.314598
378.776787,-666.185348,-8068.244768,0.000000
378.777108,-1036.288319,-10066.800811,-536.266849
378.777430,-888.247130,-11621.233289,-1608.800546
378.777752,444.123565,-11917.315666,-2987.772442
378.778074,1924.535449,-11325.150913,-3830.477490
378.778396,2664.741391,-11177.109724,-2911.162892
378.778718,2590.720797,-10362.883188,-1915.238745
378.779040,1332.370696,-9474.636058,-2298.286494
378.779361,296.082377,-9252.574275,-3294.210641
378.779683,-1110.308913,-8956.491898,-4290.134789
378.780005,-2960.823768,-8882.471304,-4290.134789
378.780327,-5107.421000,-7920.203579,-4596.572988
378.780649,-5181.441594,-8660.409521,-3753.867940
378.780971,-4515.256246,-10881.027347,-2604.724693
378.781293,-3775.050304,-13249.686362,-1532.190996
378.781614,-3034.844362,-13175.665768,229.828649
378.781936,-2442.679609,-12657.521608,76.609550
378.782258,-1258.350101,-9844.739029,0.000000
378.782580,444.123565,-7179.997637,-842.705048
378.782902,1628.453072,-4737.318029,-1455.581446
378.783224,2368.659014,-3404.947333,-1838.629195
378.783546,3256.906145,-5181.441594,-1225.752797
378.783867,3627.009116,-7994.224174,-536.266849
378.784189,3997.112087,-10807.006753,-306.438199
378.784511,3849.070898,-11917.315666,-306.438199
378.784833,4145.153275,-11547.212695,0.000000
378.785155,3923.091493,-8438.347739,-459.657299
378.785477,3108.864956,-5921.647536,-2681.334243
378.785799,1998.556043,-4367.215058,-3830.477490
378.786120,0.000000,-4885.359217,-4060.306139
378.786442,-1998.556043,-6587.832884,-3600.648841
378.786764,-3552.988522,-8660.409521,-3907.087040
378.787086,-4071.132681,-11917.315666,-3524.039291
378.787408,-4367.215058,-15248.242405,-1685.410096
378.787730,-4367.215058,-15396.283594,153.219100
378.788052,-4219.173869,-12805.562797,612.876398
378.788373,-3404.947333,-10066.800811,306.438199
378.788695,-2738.761985,-6587.832884,0.000000
378.789017,-2072.576638,-4071.132681,-1378.971896
378.789339,-1036.288319,-4293.194464,-2298.286494
378.789661,518.144159,-7031.956449,-1378.971896
378.789983,1480.411884,-9622.677246,76.609550
378.790305,2590.720797,-11029.068536,1149.143247
378.790626,3478.967927,-11177.109724,995.924147
378.790948,5107.421000,-11843.295072,-153.219100
378.791270,5995.668130,-10732.986159,-2451.505594
378.791592,5995.668130,-9548.656652,-4060.306139
378.791914,4959.379811,-8364.327145,-3907.087040
378.792236,3330.926739,-8068.244768,-3140.991542
378.792558,74.020594,-9104.533087,-2068.457845
378.792879,-2516.700203,-9844.739029,-2911.162892
378.793201,-4959.379811,-10732.986159,-3524.039291
378.793523,-7105.977043,-12657.521608,-3753.867940
378.793845,-8142.265362,-13471.748144,-2145.067394
378.794167,-8216.285956,-13027.624579,-536.266849
378.794489,-6217.729913,-9844.739029,-229.828649
378.794811,-3849.070898,-9104.533087,-459.657299
378.795132,-2368.659014,-7846.182985,-306.438199
378.795454,-1924.535449,-6365.771101,459.657299
378.795776,-1998.556043,-5921.647536,-612.876398
378.796098,-296.082377,-7254.018232,-1378.971896
378.796420,1332.370696,-8808.450710,-1225.752797
378.796742,2368.659014,-10436.903782,-1991.848295
378.797064,3182.885551,-12213.398043,-1838.629195
378.797385,3330.926739,-13471.748144,-383.047749
378.797707,3923.091493,-13101.645173,0.000000
378.798029,3627.009116,-11103.089130,-995.924147
378.798351,1998.556043,-7994.224174,-2298.286494
378.798673,222.061783,-5329.482782,-2834.553343
378.798995,-1110.308913,-3182.885551,-3140.991542
378.799317,-888.247130,-3552.988522,-3907.087040
378.799638,-1332.370696,-6291.750507,-3140.991542
378.799960,-2886.803174,-10436.903782,-1072.533697
378.800282,-4737.318029,-15100.201217,1838.629195
378.800604,-5847.626942,-16950.716072,3907.087040
378.800926,-5477.523971,-13249.686362,2451.505594
378.801248,-3182.885551,-7846.182985,-306.438199
378.801570,-444.123565,-2664.741391,-1532.190996
378.801891,1406.391290,0.000000,-1225.752797
378.802213,2220.617826,-1480.411884,-229.828649
378.802535,1554.432478,-6069.688724,1072.533697
378.802857,1184.329507,-10807.006753,1149.143247
378.803179,2072.576638,-13989.892304,-306.438199
378.803501,3478.967927,-14656.077652,-3064.381992
378.803823,4811.338623,-13249.686362,-3447.429741
378.804144,5625.565159,-10288.862594,-2451.505594
378.804466,5995.668130,-8142.265362,-1685.410096
378.804788,4441.235652,-7624.121203,-2757.943793
378.805110,1036.288319,-8882.471304,-4060.306139
378.805432,-3627.009116,-9030.512492,-4443.353888
378.805754,-6587.832884,-9770.718434,-4749.792088
378.806076,-5551.544565,-11029.068536,-4903.011187
378.806397,-2738.761985,-12213.398043,-4826.401637
378.806719,-1998.556043,-12953.603985,-2528.115143
378.807041,-2664.741391,-13323.706956,1225.752797
378.807363,-3404.947333,-12583.501014,3140.991542
378.807685,-3849.070898,-10955.047942,459.657299
378.808007,-3627.009116,-8586.388927,-2604.724693
378.808329,-2812.782580,-6809.894666,-2757.943793
378.808650,-1184.329507,-4959.379811,-1991.848295
378.808972,1332.370696,-4959.379811,-1072.533697
378.809294,3997.112087,-8290.306550,-383.047749
378.809616,5403.503377,-11843.295072,0.000000
378.809938,4737.318029,-14211.954086,-919.314598
378.810260,3775.050304,-14878.139434,-842.705048
378.810581,3034.844362,-11399.171507,-1225.752797
378.810903,2220.617826,-7179.997637,-2987.772442
378.811225,592.164754,-3627.009116,-3983.696590
378.811547,-1406.391290,-2812.782580,-2604.724693
378.811869,-4293.194464,-4515.256246,-2221.676944
378.812191,-7031.956449,-7105.977043,-2834.553343
378.812513,-8216.285956,-10584.944971,-2068.457845
378.812834,-7846.182985,-12731.542202,-459.657299
378.813156,-6069.688724,-12953.603985,-766.095498
378.813478,-3256.906145,-11251.130318,0.000000
378.813800,-962.267725,-9252.574275,1378.971896
378.814122,148.041188,-6957.935855,1532.190996
378.814444,222.061783,-4737.318029,766.095498
378.814766,740.205942,-4441.235652,153.219100
378.815087,2220.617826,-5477.523971,-1378.971896
378.815409,3923.091493,-8734.430116,-2604.724693
378.815731,5403.503377,-11547.212695,-2145.067394
378.816053,6661.853478,-12731.542202,689.485948
378.816375,6587.832884,-12805.562797,1991.848295
378.816697,5551.544565,-12213.398043,1532.190996
378.817019,3701.029710,-9622.677246,-1532.190996
378.817340,1628.453072,-6735.874072,-4979.620737
378.817662,-518.144159,-6439.791695,-5975.544884
378.817984,-2442.679609,-7402.059420,-4060.306139
378.818306,-3775.050304,-7772.162391,-2298.286494
378.818628,-4367.215058,-9326.594869,-2068.457845
378.818950,-4367.215058,-12361.439231,-2911.162892
378.819272,-4663.297435,-15248.242405,-2834.553343
378.819593,-5773.606348,-15396.283594,-2298.286494
378.819915,-5921.647536,-13841.851115,-2145.067394
378.820237,-4885.359217,-11621.233289,-1455.581446
378.820559,-2812.782580,-9400.615463,-1762.019645
378.820881,-1406.391290,-7105.977043,-1991.848295
378.821203,0.000000,-6291.750507,-2451.505594
378.821525,1110.308913,-6365.771101,-2451.505594
378.821846,2960.823768,-8216.285956,-1378.971896
378.822168,4515.256246,-10436.903782,-1991.848295
378.822490,5477.523971,-12509.480420,-1685.410096
378.822812,6069.688724,-12879.583391,0.000000
378.823134,5995.668130,-11103.089130,536.266849
378.823456,4885.359217,-8438.347739,-919.314598
378.823778,2590.720797,-6809.894666,-2604.724693
378.824099,74.020594,-5181.441594,-3217.601092
378.824421,-1776.494261,-5033.400406,-3447.429741
378.824743,-2738.761985,-5995.668130,-3524.039291
378.825065,-2664.741391,-8438.347739,-2451.505594
378.825387,-3404.947333,-9844.739029,-1378.971896
378.825709,-3849.070898,-12731.542202,383.047749
378.826031,-4515.256246,-13915.871710,1762.019645
378.826352,-4589.276840,-12139.377449,919.314598
378.826674,-4071.132681,-9474.636058,-459.657299
378.826996,-3701.029710,-7031.956449,-766.095498
378.827318,-3404.947333,-4885.359217,0.000000
378.827640,-2072.576638,-3627.009116,-306.438199
378.827962,-148.041188,-4367.215058,-1225.752797
378.828284,1480.411884,-7328.038826,-1302.362347
378.828605,2220.617826,-9992.780217,-1608.800546
378.828927,2738.761985,-12139.377449,-1838.629195
378.829249,3182.885551,-13915.871710,-383.047749
378.829571,2738.761985,-12065.356855,0.000000
378.829893,2220.617826,-9474.636058,-1532.190996
378.830215,1406.391290,-7846.182985,-2757.943793
378.830537,-962.267725,-7476.080014,-3600.648841
378.830858,-3701.029710,-7624.121203,-3830.477490
378.831180,-4737.318029,-8438.347739,-2374.896044
378.831502,-3330.926739,-10288.862594,-2068.457845
378.831824,-1776.494261,-12657.521608,-2221.676944
378.832146,-1776.494261,-13693.809927,-766.095498
378.832468,-1554.432478,-14285.974681,2298.286494
378.832790,-1628.453072,-12731.542202,2681.334243
378.833111,-962.267725,-9844.739029,612.876398
378.833433,148.041188,-7624.121203,-536.266849
378.833755,814.226536,-5477.523971,-306.438199
378.834077,1850.514855,-4589.276840,-842.705048
378.834399,3478.967927,-6069.688724,-536.266849
378.834721,4737.318029,-8808.450710,76.609550
378.835043,5625.565159,-11991.336260,-612.876398
378.835364,5255.462188,-14063.912898,-1072.533697
378.835686,3849.070898,-13915.871710,153.219100
378.836008,2516.700203,-11547.212695,-995.924147
378.836330,1110.308913,-9030.512492,-2528.115143
378.836652,-740.205942,-7550.100608,-3217.601092
378.836974,-3256.906145,-6587.832884,-2604.724693
378.837296,-5181.441594,-6143.709319,-2374.896044
378.837617,-6217.729913,-6883.915261,-2451.505594
378.837939,-5181.441594,-9474.636058,-2374.896044
378.838261,-4811.338623,-11547.212695,-1302.362347
378.838583,-4589.276840,-12361.439231,612.876398
378.838905,-4293.194464,-11547.212695,2221.676944
378.839227,-3256.906145,-9770.718434,1685.410096
378.839548,-1776.494261,-7994.224174,306.438199
378.839870,-1036.288319,-5477.523971,-766.095498
378.840192,0.000000,-4071.132681,-1608.800546
378.840514,2220.617826,-4293.194464,-1685.410096
378.840836,4441.235652,-6957.935855,-1072.533697
378.841157,5921.647536,-10288.862594,-1608.800546
378.841479,5921.647536,-13101.645173,-689.485948
378.841801,4811.338623,-13915.871710,306.438199
378.842123,3182.885551,-12213.398043,0.000000
378.842445,1406.391290,-8882.471304,-2451.505594
378.842766,1184.329507,-6439.791695,-3907.087040
378.843088,-222.061783,-4737.318029,-5822.325785
378.843410,-2664.741391,-6069.688724,-5209.449386
378.843732,-5107.421000,-8142.265362,-2834.553343
378.844053,-6291.750507,-10140.821405,-1532.190996
378.844375,-6069.688724,-11991.336260,-2298.286494
378.844697,-5329.482782,-13471.748144,-3600.648841
378.845019,-4663.297435,-13175.665768,-2987.772442
378.845341,-3478.967927,-11843.295072,-1762.019645
378.845662,-2368.659014,-10436.903782,-459.657299
378.845984,-1480.411884,-8808.450710,-689.485948
378.846306,-666.185348,-7698.141797,-1915.238745
378.846628,0.000000,-7550.100608,-2757.943793
378.846950,1924.535449,-7772.162391,-3217.601092
378.847271,4145.153275,-8512.368333,-3600.648841
378.847593,6439.791695,-10807.006753,-2987.772442
378.847915,6957.935855,-13175.665768,-459.657299
378.848237,6069.688724,-12731.542202,1762.019645
378.848558,3997.112087,-10362.883188,842.705048
378.848880,2738.761985,-8216.285956,-1532.190996
378.849202,1480.411884,-5995.668130,-3830.477490
378.849524,-444.123565,-4367.215058,-5056.230287
378.849846,-2664.741391,-5403.503377,-3753.867940
378.850167,-3923.091493,-8142.265362,-1378.971896
378.850489,-4219.173869,-10362.883188,-1302.362347
378.850811,-4145.153275,-13249.686362,-2528.115143
378.851133,-4145.153275,-15174.221811,-1455.581446
378.851455,-4885.359217,-13545.768739,76.609550
378.851776,-4441.235652,-10881.027347,-306.438199
378.852098,-3108.864956,-8438.347739,-842.705048
378.852420,-1184.329507,-6291.750507,-1072.533697
378.852742,-666.185348,-5033.400406,-919.314598
378.853064,-740.205942,-5773.606348,-153.219100
378.853385,444.123565,-7402.059420,689.485948
378.853707,2146.597232,-8438.347739,383.047749
378.854029,3997.112087,-9030.512492,-229.828649
378.854351,5921.647536,-9918.759623,-306.438199
378.854672,6735.874072,-10807.006753,-306.438199
378.854994,6513.812290,-10584.944971,-766.095498
