#time,accel_x,accel_y,accel_z
310.162272,-222.061783,-9400.615463,-1608.800546
310.162594,-222.061783,-9252.574275,-1685.410096
310.162916,0.000000,-9548.656652,-2221.676944
310.163238,-518.144159,-9474.636058,-1532.190996
310.163560,-370.102971,-9400.615463,-1608.800546
310.163882,-296.082377,-9400.615463,-1685.410096
310.164204,-296.082377,-9326.594869,-1532.190996
310.164527,-666.185348,-9326.594869,-1838.629195
310.164849,-592.164754,-9474.636058,-1225.752797
310.165171,-518.144159,-9548.656652,-1532.190996
310.165493,-814.226536,-9474.636058,-1685.410096
310.165815,-518.144159,-9252.574275,-1455.581446
310.166137,-148.041188,-8956.491898,-1532.190996
310.166459,-740.205942,-9030.512492,-1149.143247
310.166781,-518.144159,-9326.594869,-1302.362347
310.167103,-666.185348,-9252.574275,-1302.362347
310.167425,-222.061783,-9474.636058,-1149.143247
310.167747,0.000000,-9030.512492,-995.924147
310.168069,-296.082377,-9474.636058,-1608.800546
310.168391,-592.164754,-9474.636058,-1149.143247
310.168714,-666.185348,-9474.636058,-1378.971896
310.169036,-370.102971,-9252.574275,-1532.190996
310.169358,-222.061783,-9326.594869,-1455.581446
310.169680,0.000000,-9474.636058,-1225.752797
310.170002,-592.164754,-9474.636058,-1455.581446
310.170324,-518.144159,-9622.677246,-1072.533697
310.170646,-592.164754,-9474.636058,-1378.971896
310.170968,-296.082377,-9400.615463,-1455.581446
310.171290,0.000000,-9030.512492,-1455.581446
310.171612,-370.102971,-8438.347739,-1762.019645
310.171934,-370.102971,-9030.512492,-1302.362347
310.172256,-296.082377,-9104.533087,-1378.971896
310.172578,-444.123565,-9252.574275,-1378.971896
310.172900,-370.102971,-9326.594869,-1532.190996
310.173223,-370.102971,-9474.636058,-2068.457845
310.173545,-296.082377,-9474.636058,-1455.581446
310.173867,-222.061783,-9474.636058,-1685.410096
310.174189,-444.123565,-9252.574275,-1762.019645
310.174511,-222.061783,-9178.553681,-1838.629195
310.174833,-370.102971,-9178.553681,-1685.410096
310.175155,-148.041188,-9400.615463,-1532.190996
310.175477,-592.164754,-9474.636058,-1532.190996
310.175799,-518.144159,-9474.636058,-1685.410096
310.176121,-518.144159,-9474.636058,-1915.238745
310.176443,-518.144159,-9104.533087,-2068.457845
310.176765,-444.123565,-8956.491898,-1532.190996
310.177087,-296.082377,-9104.533087,-1685.410096
310.177410,-296.082377,-9252.574275,-1608.800546
310.177732,-370.102971,-9474.636058,-1838.629195
310.178054,0.000000,-9178.553681,-2298.286494
310.178376,962.267725,-9696.697840,-1608.800546
310.178698,2516.700203,-10140.821405,-2298.286494
310.179020,2886.803174,-9474.636058,-689.485948
310.179342,2368.659014,-8660.409521,-383.047749
310.179664,1110.308913,-8808.450710,-1532.190996
310.179986,-444.123565,-8882.471304,-1838.629195
310.180308,-2368.659014,-8956.491898,-1838.629195
310.180630,-4071.132681,-9474.636058,-2374.896044
310.180952,-4663.297435,-9992.780217,-3140.991542
310.181274,-3256.906145,-9770.718434,-3907.087040
310.181596,-370.102971,-10214.842000,-3447.429741
310.181919,2812.782580,-11399.171507,-1685.410096
310.182241,3923.091493,-10881.027347,0.000000
310.182563,3701.029710,-9178.553681,459.657299
310.182885,2886.803174,-8142.265362,-536.266849
310.183207,2886.803174,-9104.533087,-1991.848295
310.183529,2590.720797,-9844.739029,-3370.820191
310.183851,1184.329507,-8882.471304,-995.924147
310.184173,-370.102971,-7402.059420,229.828649
310.184495,0.000000,-7254.018232,-612.876398
310.184817,1628.453072,-9326.594869,-2374.896044
310.185139,1480.411884,-10436.903782,-1302.362347
310.185461,-962.267725,-9548.656652,612.876398
310.185783,-2516.700203,-8660.409521,-1072.533697
310.186106,-1480.411884,-9400.615463,-3830.477490
310.186428,-222.061783,-9474.636058,-4136.915689
310.186750,222.061783,-10214.842000,-2451.505594
310.187072,1184.329507,-10955.047942,-1378.971896
310.187394,2590.720797,-10214.842000,-1991.848295
310.187716,4219.173869,-10288.862594,-1225.752797
310.188038,5033.400406,-11177.109724,-459.657299
310.188360,4589.276840,-11621.233289,0.000000
310.188682,2738.761985,-9696.697840,-1072.533697
310.189004,2220.617826,-7328.038826,-689.485948
310.189326,1850.514855,-7254.018232,-842.705048
310.189648,1924.535449,-7476.080014,-842.705048
310.189970,1406.391290,-6809.894666,-689.485948
310.190292,1184.329507,-7179.997637,-306.438199
310.190615,1628.453072,-9326.594869,0.000000
310.190937,2664.741391,-11103.089130,-536.266849
310.191259,2442.679609,-10362.883188,-1378.971896
310.191581,1924.535449,-9918.759623,-2298.286494
310.191903,2590.720797,-10584.944971,-1225.752797
310.192225,3108.864956,-9770.718434,-995.924147
310.192547,3404.947333,-9252.574275,-2681.334243
310.192869,2886.803174,-9326.594869,-2374.896044
310.193191,3256.906145,-10066.800811,-1455.581446
310.193513,3478.967927,-9696.697840,-919.314598
310.193835,2664.741391,-9474.636058,-1225.752797
310.194157,2442.679609,-9696.697840,-1302.362347
310.194479,1924.535449,-8956.491898,-689.485948
310.194801,1036.288319,-7254.018232,-1225.752797
310.195124,148.041188,-7031.956449,-1608.800546
310.195446,-370.102971,-7846.182985,-1455.581446
310.195768,-592.164754,-9178.553681,-842.705048
310.196090,-444.123565,-9844.739029,-766.095498
310.196412,0.000000,-11251.130318,-995.924147
310.196734,370.102971,-12065.356855,-1225.752797
310.197056,1110.308913,-11991.336260,-689.485948
310.197378,1776.494261,-10807.006753,-766.095498
310.197700,1998.556043,-9548.656652,-919.314598
310.198022,2072.576638,-8808.450710,-1762.019645
310.198344,1776.494261,-8068.244768,-1685.410096
310.198666,1258.350101,-7994.224174,-1149.143247
310.198988,962.267725,-8142.265362,-1302.362347
310.199311,592.164754,-8586.388927,-1915.238745
310.199633,592.164754,-8956.491898,-1991.848295
310.199955,666.185348,-8808.450710,-1762.019645
310.200277,888.247130,-8290.306550,-2145.067394
310.200599,814.226536,-7920.203579,-2374.896044
310.200921,740.205942,-7846.182985,-1455.581446
310.201243,148.041188,-8956.491898,-1762.019645
310.201565,-148.041188,-9844.739029,-2298.286494
310.201887,-814.226536,-10881.027347,-2451.505594
310.202209,-962.267725,-11991.336260,-2221.676944
310.202531,-444.123565,-12065.356855,-1838.629195
310.202853,74.020594,-11399.171507,-1762.019645
310.203175,444.123565,-10436.903782,-1838.629195
310.203497,518.144159,-9844.739029,-919.314598
310.203820,370.102971,-8882.471304,-383.047749
310.204142,592.164754,-7920.203579,-306.438199
310.204464,1184.329507,-7476.080014,-1225.752797
310.204786,1332.370696,-7476.080014,-1991.848295
310.205108,1924.535449,-7920.203579,-1991.848295
310.205430,2072.576638,-8586.388927,-1915.238745
310.205752,2146.597232,-9252.574275,-2298.286494
310.206074,2368.659014,-10066.800811,-2451.505594
310.206396,1628.453072,-10066.800811,-2604.724693
310.206718,740.205942,-10436.903782,-3064.381992
310.207040,-148.041188,-11843.295072,-3677.258390
310.207362,-814.226536,-12805.562797,-2451.505594
310.207684,-1406.391290,-11917.315666,-612.876398
310.208007,-1554.432478,-10658.965565,-229.828649
310.208329,-1480.411884,-9400.615463,-612.876398
310.208651,-1184.329507,-8068.244768,-536.266849
310.208973,-1184.329507,-7031.956449,0.000000
310.209295,-1332.370696,-6587.832884,766.095498
310.209617,-1332.370696,-5255.462188,1072.533697
310.209939,-1184.329507,-4737.318029,-766.095498
310.210261,-444.123565,-5625.565159,-1608.800546
310.210583,-370.102971,-7254.018232,-1838.629195
310.210905,-814.226536,-8882.471304,-2068.457845
310.211227,-962.267725,-9992.780217,-2451.505594
310.211549,-1036.288319,-9770.718434,-2681.334243
310.211871,-1554.432478,-11251.130318,-3907.087040
310.212193,-1924.535449,-12287.418637,-4136.915689
310.212516,-2442.679609,-13175.665768,-3677.258390
310.212838,-3034.844362,-13989.892304,-2604.724693
310.213160,-2960.823768,-13989.892304,-995.924147
310.213482,-2368.659014,-12805.562797,-536.266849
310.213804,-1332.370696,-10658.965565,-459.657299
310.214126,-518.144159,-8364.327145,0.000000
310.214448,444.123565,-5995.668130,1072.533697
310.214770,444.123565,-3849.070898,1608.800546
310.215092,1184.329507,-4071.132681,-536.266849
310.215414,1036.288319,-5921.647536,-1149.143247
310.215736,666.185348,-8068.244768,-1608.800546
310.216058,0.000000,-10362.883188,-2451.505594
310.216380,0.000000,-13027.624579,-2451.505594
310.216703,74.020594,-14730.098246,-1225.752797
310.217025,0.000000,-14063.912898,-919.314598
310.217347,0.000000,-11473.192101,-1149.143247
310.217669,-444.123565,-9252.574275,-1685.410096
310.217991,-740.205942,-7994.224174,-2451.505594
310.218313,-1480.411884,-7254.018232,-2451.505594
310.218635,-2368.659014,-6957.935855,-1455.581446
310.218957,-2516.700203,-7105.977043,-1225.752797
310.219279,-2146.597232,-7846.182985,-612.876398
310.219601,-888.247130,-7846.182985,-383.047749
310.219923,0.000000,-7105.977043,-229.828649
310.220245,222.061783,-5329.482782,-919.314598
310.220567,666.185348,-5699.585753,-1532.190996
310.220889,962.267725,-6661.853478,-2451.505594
310.221212,592.164754,-8068.244768,-3217.601092
310.221534,592.164754,-10066.800811,-3600.648841
310.221856,518.144159,-12953.603985,-3600.648841
310.222178,370.102971,-14878.139434,-3064.381992
310.222500,222.061783,-16062.468941,-2298.286494
310.222822,-222.061783,-15470.304188,-689.485948
310.223144,-592.164754,-12731.542202,-383.047749
310.223466,-296.082377,-9400.615463,-1991.848295
310.223788,1406.391290,-7698.141797,-3447.429741
310.224110,2886.803174,-6661.853478,-3217.601092
310.224432,3552.988522,-6291.750507,-2145.067394
310.224754,3923.091493,-7920.203579,-689.485948
310.225076,4885.359217,-10066.800811,0.000000
310.225398,4959.379811,-11917.315666,-1072.533697
310.225721,3478.967927,-12805.562797,-1608.800546
310.226043,1332.370696,-12361.439231,-1072.533697
310.226365,0.000000,-10584.944971,-612.876398
310.226687,-592.164754,-7772.162391,-1532.190996
310.227009,-296.082377,-5403.503377,-2681.334243
310.227331,-370.102971,-5699.585753,-2757.943793
310.227653,-1258.350101,-7402.059420,-1608.800546
310.227975,-2590.720797,-8660.409521,-536.266849
310.228298,-4145.153275,-9992.780217,-842.705048
310.228620,-4737.318029,-10362.883188,-459.657299
310.228942,-5403.503377,-9252.574275,-1149.143247
310.229265,-5255.462188,-7328.038826,-1915.238745
310.229587,-5033.400406,-5625.565159,-2604.724693
310.229910,-4367.215058,-5773.606348,-2911.162892
310.230232,-3701.029710,-7476.080014,-2528.115143
310.230554,-2886.803174,-9104.533087,-1915.238745
310.230877,-2220.617826,-11325.150913,-2221.676944
310.231199,-1110.308913,-12657.521608,-3140.991542
310.231521,740.205942,-13767.830521,-2451.505594
310.231844,1628.453072,-13101.645173,-1455.581446
310.232166,2220.617826,-11621.233289,0.000000
310.232489,1110.308913,-8882.471304,76.609550
310.232811,1332.370696,-8142.265362,-689.485948
310.233133,1776.494261,-7846.182985,-995.924147
310.233456,1406.391290,-7772.162391,-919.314598
310.233778,1184.329507,-8586.388927,306.438199
310.234100,1628.453072,-9548.656652,306.438199
310.234423,1332.370696,-10658.965565,919.314598
310.234745,296.082377,-11103.089130,459.657299
310.235068,-814.226536,-10066.800811,-383.047749
310.235390,-1924.535449,-8734.430116,-1532.190996
310.235712,-2146.597232,-7254.018232,-3370.820191
310.236035,-1554.432478,-7254.018232,-3907.087040
310.236357,-2072.576638,-7698.141797,-3064.381992
310.236679,-2516.700203,-8660.409521,-1762.019645
310.237002,-2812.782580,-9770.718434,-1302.362347
310.237324,-2812.782580,-9844.739029,-2451.505594
310.237646,-2442.679609,-10436.903782,-4290.134789
310.237969,-2146.597232,-9844.739029,-4136.915689
310.238291,-1554.432478,-8660.409521,-2911.162892
310.238614,-740.205942,-8068.244768,-2298.286494
310.238936,148.041188,-8216.285956,-2145.067394
310.239258,814.226536,-8142.265362,-1072.533697
310.239581,1332.370696,-9030.512492,-1302.362347
310.239903,1776.494261,-9844.739029,-1072.533697
310.240225,2516.700203,-10955.047942,-1072.533697
310.240548,3034.844362,-11843.295072,-536.266849
310.240870,2738.761985,-11695.253884,1455.581446
310.241193,2368.659014,-9770.718434,1991.848295
310.241515,1776.494261,-7624.121203,0.000000
310.241837,2220.617826,-7698.141797,-2681.334243
310.242160,3627.009116,-9474.636058,-3294.210641
310.242482,4515.256246,-9326.594869,-2528.115143
310.242804,4293.194464,-10214.842000,-2145.067394
310.243127,4589.276840,-11917.315666,-612.876398
310.243449,3997.112087,-12065.356855,-689.485948
310.243772,2738.761985,-11103.089130,-2451.505594
310.244094,666.185348,-10362.883188,-2757.943793
310.244416,-1776.494261,-9770.718434,-1378.971896
310.244739,-3701.029710,-9104.533087,-1991.848295
310.245061,-3923.091493,-8290.306550,-1608.800546
310.245383,-3552.988522,-7105.977043,-842.705048
310.245706,-3034.844362,-7105.977043,-842.705048
310.246028,-2516.700203,-7031.956449,-612.876398
310.246350,-3034.844362,-6809.894666,153.219100
310.246673,-3478.967927,-7031.956449,76.609550
310.246995,-3182.885551,-7254.018232,-383.047749
310.247318,-2516.700203,-7402.059420,-1455.581446
310.247640,-2516.700203,-7254.018232,-2757.943793
310.247962,-2664.741391,-8142.265362,-3753.867940
310.248285,-2590.720797,-10362.883188,-2987.772442
310.248607,-1850.514855,-12509.480420,-2757.943793
310.248929,-1258.350101,-13323.706956,-2757.943793
310.249252,-740.205942,-12805.562797,-3140.991542
310.249574,-518.144159,-12065.356855,-3064.381992
310.249897,-444.123565,-11843.295072,-2374.896044
310.250219,-962.267725,-11103.089130,-842.705048
310.250541,-1628.453072,-9918.759623,-383.047749
310.250864,-1628.453072,-8808.450710,-919.314598
310.251186,-740.205942,-8364.327145,-689.485948
310.251508,-148.041188,-8068.244768,-153.219100
310.251831,-296.082377,-7846.182985,306.438199
310.252153,0.000000,-7846.182985,536.266849
310.252476,0.000000,-8660.409521,-306.438199
310.252798,-1110.308913,-8808.450710,-1149.143247
310.253120,-2220.617826,-9474.636058,-1455.581446
310.253443,-3182.885551,-9844.739029,-1915.238745
310.253765,-2886.803174,-9844.739029,-3140.991542
310.254087,-2072.576638,-9622.677246,-3294.210641
310.254410,-962.267725,-8956.491898,-2528.115143
310.254732,-1036.288319,-8586.388927,-1455.581446
310.255054,-1332.370696,-8882.471304,-766.095498
310.255377,-1628.453072,-8660.409521,-1455.581446
310.255699,-1850.514855,-8586.388927,-2834.553343
310.256022,-1998.556043,-8364.327145,-3370.820191
310.256344,-1258.350101,-7624.121203,-2374.896044
310.256666,-222.061783,-7772.162391,-1608.800546
310.256989,962.267725,-7920.203579,-1072.533697
310.257311,1628.453072,-8290.306550,-1302.362347
310.257633,2220.617826,-9474.636058,-1915.238745
310.257956,2442.679609,-10955.047942,-1532.190996
310.258278,2368.659014,-11843.295072,-1991.848295
310.258601,1998.556043,-11399.171507,-1532.190996
310.258923,1924.535449,-10436.903782,-459.657299
310.259245,2294.638420,-9622.677246,-229.828649
310.259568,2220.617826,-9474.636058,-919.314598
310.259890,3627.009116,-9548.656652,-2374.896044
310.260212,4219.173869,-9252.574275,-2528.115143
310.260535,5107.421000,-10288.862594,-2221.676944
310.260857,5403.503377,-10658.965565,0.000000
310.261179,5033.400406,-10214.842000,-153.219100
310.261502,4219.173869,-9400.615463,-995.924147
310.261824,2738.761985,-9252.574275,-1532.190996
310.262147,444.123565,-9696.697840,-1532.190996
310.262469,-2220.617826,-9548.656652,-1608.800546
310.262791,-3849.070898,-8586.388927,-1225.752797
310.263114,-3552.988522,-8512.368333,-2221.676944
310.263436,-2516.700203,-9104.533087,-2221.676944
310.263758,-1850.514855,-8956.491898,-1225.752797
310.264081,-3034.844362,-7772.162391,-306.438199
310.264403,-3701.029710,-7698.141797,-536.266849
310.264726,-3552.988522,-7994.224174,-1455.581446
310.265048,-3478.967927,-8438.347739,-2221.676944
310.265370,-3923.091493,-7476.080014,-2451.505594
310.265693,-3627.009116,-8216.285956,-2987.772442
310.266015,-2590.720797,-9326.594869,-3064.381992
310.266337,-1554.432478,-10584.944971,-2298.286494
310.266660,-814.226536,-10955.047942,-2298.286494
310.266982,-962.267725,-11399.171507,-2374.896044
310.267305,-962.267725,-12139.377449,-2987.772442
310.267627,-518.144159,-12509.480420,-2604.724693
310.267949,-666.185348,-11843.295072,-2221.676944
310.268272,-1110.308913,-11029.068536,-459.657299
310.268594,-1184.329507,-9326.594869,1072.533697
310.268916,-592.164754,-8142.265362,459.657299
310.269239,-296.082377,-7550.100608,-612.876398
310.269561,-296.082377,-7402.059420,-842.705048
310.269883,-592.164754,-7476.080014,0.000000
310.270206,-888.247130,-8364.327145,-459.657299
310.270528,-1776.494261,-9400.615463,-306.438199
310.270851,-2664.741391,-9918.759623,-1225.752797
310.271173,-3775.050304,-10436.903782,-2145.067394
310.271495,-4441.235652,-10510.924376,-2681.334243
310.271818,-4737.318029,-9992.780217,-2604.724693
310.272140,-4663.297435,-8364.327145,-2911.162892
310.272462,-3108.864956,-8364.327145,-3294.210641
310.272785,-2368.659014,-8068.244768,-2298.286494
310.273107,-2368.659014,-8068.244768,-1302.362347
310.273430,-2812.782580,-8068.244768,-1608.800546
310.273752,-2368.659014,-8438.347739,-1991.848295
310.274074,-1554.432478,-9178.553681,-3064.381992
310.274397,-296.082377,-9178.553681,-2451.505594
310.274719,1110.308913,-8660.409521,-1302.362347
310.275041,2738.761985,-8438.347739,-1302.362347
310.275364,4145.153275,-8364.327145,-1378.971896
310.275686,5107.421000,-8512.368333,-1608.800546
310.276009,5329.482782,-9696.697840,-1532.190996
310.276331,4811.338623,-10658.965565,-1608.800546
310.276653,3923.091493,-11547.212695,-1532.190996
310.276976,3552.988522,-11695.253884,-689.485948
310.277298,2738.761985,-11251.130318,76.609550
310.277620,2960.823768,-10436.903782,-612.876398
310.277943,2812.782580,-10288.862594,-842.705048
310.278265,3923.091493,-9326.594869,-1608.800546
310.278587,4293.194464,-9178.553681,-1991.848295
310.278910,5107.421000,-9178.553681,-1302.362347
310.279232,4145.153275,-9104.533087,-995.924147
310.279555,3182.885551,-9474.636058,-1378.971896
310.279877,1924.535449,-9400.615463,-2298.286494
310.280199,0.000000,-9474.636058,-2221.676944
310.280522,-1554.432478,-10362.883188,-2374.896044
310.280844,-2738.761985,-10362.883188,-1991.848295
310.281166,-3701.029710,-9326.594869,-1915.238745
310.281489,-2960.823768,-8586.388927,-2145.067394
310.281811,-2368.659014,-8364.327145,-1915.238745
310.282134,-2294.638420,-8068.244768,-1149.143247
310.282456,-2738.761985,-7254.018232,-1072.533697
310.282778,-3256.906145,-7031.956449,-612.876398
310.283101,-2738.761985,-7624.121203,-1455.581446
310.283423,-1998.556043,-8512.368333,-1532.190996
310.283745,-1332.370696,-8216.285956,-1915.238745
310.284068,-592.164754,-8438.347739,-2145.067394
310.284390,0.000000,-9696.697840,-2221.676944
310.284712,0.000000,-11103.089130,-1455.581446
310.285035,-518.144159,-11473.192101,-1072.533697
310.285357,-1036.288319,-11621.233289,-2298.286494
310.285680,-1332.370696,-11325.150913,-2911.162892
310.286002,-1184.329507,-11843.295072,-2681.334243
310.286324,-2146.597232,-10732.986159,-1302.362347
310.286647,-3182.885551,-9696.697840,153.219100
310.286969,-3330.926739,-8956.491898,229.828649
310.287291,-3034.844362,-8956.491898,-766.095498
310.287614,-2516.700203,-9030.512492,-1532.190996
310.287936,-2516.700203,-8586.388927,-1225.752797
310.288259,-2886.803174,-8512.368333,-612.876398
310.288581,-2960.823768,-8586.388927,-536.266849
310.288903,-3034.844362,-9326.594869,-995.924147
310.289226,-3478.967927,-9770.718434,-1685.410096
310.289548,-4367.215058,-9844.739029,-2451.505594
310.289870,-4589.276840,-10140.821405,-2987.772442
310.290193,-3923.091493,-9696.697840,-2834.553343
310.290515,-2812.782580,-8882.471304,-2987.772442
310.290838,-1850.514855,-8290.306550,-2451.505594
310.291160,-1776.494261,-7402.059420,-1302.362347
310.291482,-1258.350101,-7476.080014,-612.876398
310.291805,-1110.308913,-7846.182985,-2145.067394
310.292127,-444.123565,-8438.347739,-2911.162892
310.292449,444.123565,-9252.574275,-2604.724693
310.292772,1332.370696,-8956.491898,-1838.629195
310.293094,2738.761985,-9178.553681,-612.876398
310.293416,3923.091493,-9104.533087,-1072.533697
310.293739,4737.318029,-9104.533087,-1225.752797
310.294061,4885.359217,-9844.739029,-1455.581446
310.294384,3849.070898,-10436.903782,-1378.971896
310.294706,2220.617826,-10584.944971,-995.924147
310.295028,1998.556043,-10807.006753,-919.314598
310.295351,1702.473667,-10510.924376,-1302.362347
310.295673,1110.308913,-10140.821405,-1072.533697
310.295995,1406.391290,-10066.800811,-842.705048
310.296318,1776.494261,-8956.491898,-536.266849
310.296640,2960.823768,-9178.553681,-2604.724693
310.296963,4071.132681,-9474.636058,-1838.629195
310.297285,4367.215058,-9326.594869,-842.705048
310.297607,3849.070898,-8956.491898,-1378.971896
310.297930,2664.741391,-8808.450710,-2145.067394
310.298252,1776.494261,-9474.636058,-2068.457845
310.298574,222.061783,-10510.924376,-2145.067394
310.298897,-962.267725,-10436.903782,-1838.629195
310.299219,-2072.576638,-9548.656652,-1302.362347
310.299542,-1998.556043,-8512.368333,-1915.238745
310.299864,-1702.473667,-7846.182985,-1149.143247
310.300186,-1110.308913,-7772.162391,-383.047749
310.300509,-2146.597232,-7698.141797,-306.438199
310.300831,-2738.761985,-7031.956449,-153.219100
310.301153,-3034.844362,-7179.997637,-842.705048
310.301476,-2590.720797,-7105.977043,-1072.533697
310.301798,-2146.597232,-8068.244768,-1455.581446
310.302120,-1628.453072,-8142.265362,-2681.334243
310.302443,-1184.329507,-9030.512492,-2451.505594
310.302765,-1036.288319,-10732.986159,-1915.238745
310.303088,-962.267725,-12509.480420,-2221.676944
310.303410,-962.267725,-12879.583391,-3370.820191
310.303732,-1702.473667,-12583.501014,-3140.991542
310.304055,-1406.391290,-12435.459826,-3370.820191
310.304377,-1406.391290,-11843.295072,-2221.676944
310.304699,-1924.535449,-10362.883188,-689.485948
310.305022,-2294.638420,-8808.450710,0.000000
310.305344,-2146.597232,-8660.409521,0.000000
310.305667,-1850.514855,-8364.327145,-612.876398
310.305989,-1998.556043,-7846.182985,-995.924147
310.306311,-2294.638420,-7550.100608,-229.828649
310.306634,-1850.514855,-7624.121203,383.047749
310.306956,-1628.453072,-8438.347739,-995.924147
310.307278,-2368.659014,-9178.553681,-1302.362347
310.307601,-3330.926739,-9918.759623,-1915.238745
310.307923,-3849.070898,-10066.800811,-2298.286494
310.308246,-3923.091493,-10140.821405,-2987.772442
310.308568,-2738.761985,-9622.677246,-3447.429741
310.308890,-2294.638420,-9326.594869,-3294.210641
310.309213,-1924.535449,-9178.553681,-2451.505594
310.309535,-1924.535449,-8734.430116,-1608.800546
310.309857,-1554.432478,-8438.347739,-1915.238745
310.310180,-1184.329507,-8660.409521,-2987.772442
310.310502,-592.164754,-8808.450710,-3217.601092
310.310824,296.082377,-8438.347739,-1838.629195
310.311147,1406.391290,-8216.285956,-1072.533697
310.311469,2590.720797,-7920.203579,-919.314598
310.311792,3330.926739,-8142.265362,-842.705048
310.312114,3701.029710,-8808.450710,-1225.752797
310.312436,3552.988522,-9918.759623,-1378.971896
310.312759,2812.782580,-10955.047942,-1532.190996
310.313081,2072.576638,-11177.109724,-1149.143247
310.313403,1480.411884,-10732.986159,-612.876398
310.313726,1628.453072,-9918.759623,-919.314598
310.314048,2146.597232,-9992.780217,-689.485948
310.314371,2960.823768,-9622.677246,-1762.019645
310.314693,3478.967927,-9178.553681,-2528.115143
310.315015,4219.173869,-9548.656652,-2374.896044
310.315338,4737.318029,-9992.780217,-1532.190996
310.315660,4441.235652,-9696.697840,-995.924147
310.315982,3849.070898,-9770.718434,-1608.800546
310.316305,2368.659014,-9844.739029,-1685.410096
310.316627,1036.288319,-10362.883188,-1685.410096
310.316949,-740.205942,-10362.883188,-1225.752797
310.317272,-2368.659014,-8808.450710,-1072.533697
310.317594,-1850.514855,-7994.224174,-1838.629195
310.317917,-1184.329507,-7846.182985,-2298.286494
310.318239,-296.082377,-7994.224174,-919.314598
310.318561,-1184.329507,-7328.038826,0.000000
310.318884,-2442.679609,-6809.894666,995.924147
310.319206,-2886.803174,-7550.100608,-383.047749
310.319528,-2812.782580,-8216.285956,-1991.848295
310.319851,-2812.782580,-8586.388927,-2528.115143
310.320173,-2886.803174,-8290.306550,-3064.381992
310.320496,-2294.638420,-9030.512492,-2757.943793
310.320818,-1258.350101,-10066.800811,-2221.676944
310.321140,-740.205942,-11325.150913,-2451.505594
310.321463,-888.247130,-11695.253884,-2681.334243
310.321785,-1184.329507,-12213.398043,-2834.553343
310.322107,-1036.288319,-12139.377449,-2987.772442
310.322430,-1036.288319,-11843.295072,-1915.238745
310.322752,-1702.473667,-10732.986159,-766.095498
310.323075,-2590.720797,-9252.574275,536.266849
310.323397,-2368.659014,-8290.306550,536.266849
310.323719,-1554.432478,-7550.100608,-383.047749
310.324042,-1258.350101,-7328.038826,-1149.143247
310.324364,-1258.350101,-7402.059420,-612.876398
310.324686,-1480.411884,-8068.244768,153.219100
310.325009,-1924.535449,-8734.430116,-306.438199
310.325331,-2368.659014,-9548.656652,-1302.362347
310.325653,-3108.864956,-10732.986159,-2068.457845
310.325976,-3997.112087,-10362.883188,-2757.943793
310.326298,-4441.235652,-10140.821405,-3370.820191
310.326621,-3552.988522,-9844.739029,-3753.867940
310.326943,-2368.659014,-9474.636058,-3600.648841
310.327265,-1480.411884,-9104.533087,-2451.505594
310.327588,-1406.391290,-8364.327145,-1149.143247
310.327910,-1702.473667,-8660.409521,-1762.019645
310.328233,-1406.391290,-8512.368333,-2604.724693
310.328555,-962.267725,-9104.533087,-2834.553343
310.328878,-444.123565,-8882.471304,-2068.457845
310.329200,814.226536,-8364.327145,-1762.019645
310.329523,2442.679609,-7624.121203,-995.924147
310.329845,3478.967927,-7772.162391,-995.924147
310.330168,4071.132681,-8364.327145,-995.924147
310.330490,4071.132681,-9474.636058,-766.095498
310.330813,3923.091493,-10955.047942,-1455.581446
310.331135,3034.844362,-11843.295072,-2451.505594
310.331458,2590.720797,-12213.398043,-1762.019645
310.331780,2146.597232,-11621.233289,0.000000
310.332103,1776.494261,-10066.800811,0.000000
310.332425,1776.494261,-9252.574275,-1302.362347
310.332748,3552.988522,-9326.594869,-2221.676944
310.333070,4293.194464,-9400.615463,-3064.381992
310.333393,4071.132681,-9400.615463,-1762.019645
310.333715,3775.050304,-9770.718434,-612.876398
310.334038,3478.967927,-10140.821405,0.000000
310.334360,3182.885551,-9474.636058,-1225.752797
310.334683,1850.514855,-8956.491898,-2221.676944
310.335005,74.020594,-9474.636058,-1685.410096
310.335328,-1702.473667,-9622.677246,-1532.190996
310.335650,-2590.720797,-8660.409521,-1149.143247
310.335973,-2590.720797,-7772.162391,-1455.581446
310.336295,-1998.556043,-7402.059420,-1991.848295
310.336618,-1406.391290,-8142.265362,-1225.752797
310.336940,-2072.576638,-7994.224174,-536.266849
310.337263,-2886.803174,-7476.080014,-383.047749
310.337585,-2812.782580,-7698.141797,-919.314598
310.337908,-2368.659014,-8512.368333,-1915.238745
310.338230,-2294.638420,-7994.224174,-1608.800546
310.338553,-2738.761985,-8068.244768,-2911.162892
310.338875,-2368.659014,-9844.739029,-2911.162892
310.339198,-1554.432478,-11621.233289,-2298.286494
310.339520,-1554.432478,-11843.295072,-1915.238745
310.339843,-1554.432478,-11769.274478,-1838.629195
310.340165,-1258.350101,-11473.192101,-2911.162892
310.340488,-1258.350101,-11325.150913,-2681.334243
310.340810,-1628.453072,-10658.965565,-1455.581446
310.341132,-2738.761985,-9622.677246,-383.047749
310.341455,-3775.050304,-8882.471304,995.924147
310.341777,-3478.967927,-8438.347739,-536.266849
310.342100,-2738.761985,-8586.388927,-1378.971896
310.342422,-2220.617826,-8586.388927,-1378.971896
310.342745,-1998.556043,-8512.368333,-842.705048
310.343067,-1924.535449,-8142.265362,-459.657299
310.343390,-2220.617826,-8586.388927,-612.876398
310.343712,-2664.741391,-9992.780217,-1378.971896
310.344035,-3330.926739,-10584.944971,-2604.724693
310.344357,-3478.967927,-10584.944971,-3600.648841
310.344680,-2960.823768,-10214.842000,-3370.820191
310.345002,-1554.432478,-9326.594869,-2987.772442
310.345325,-814.226536,-8438.347739,-1915.238745
310.345647,-592.164754,-8142.265362,-766.095498
310.345970,-962.267725,-7920.203579,-383.047749
310.346292,-1406.391290,-8290.306550,-1685.410096
310.346615,-1480.411884,-8660.409521,-3064.381992
310.346937,-888.247130,-8438.347739,-2528.115143
310.347260,518.144159,-8216.285956,-1991.848295
310.347582,1850.514855,-7994.224174,-1149.143247
310.347905,3478.967927,-8068.244768,-1302.362347
310.348227,4367.215058,-8586.388927,-1225.752797
310.348550,5107.421000,-9844.739029,-1838.629195
310.348872,4737.318029,-11843.295072,-1991.848295
310.349195,3923.091493,-12657.521608,-1838.629195
310.349517,2590.720797,-12065.356855,-995.924147
310.349840,2294.638420,-11547.212695,0.000000
310.350162,1776.494261,-10066.800811,0.000000
310.350485,2590.720797,-9030.512492,-1072.533697
310.350807,3034.844362,-8438.347739,-1608.800546
310.351130,3923.091493,-8512.368333,-1838.629195
310.351452,4219.173869,-9030.512492,-1225.752797
310.351775,3923.091493,-9622.677246,-612.876398
310.352097,3330.926739,-9252.574275,0.000000
310.352420,2220.617826,-9400.615463,-1149.143247
310.352742,1110.308913,-9252.574275,-1991.848295
310.353065,-518.144159,-9696.697840,-1915.238745
310.353387,-2220.617826,-9918.759623,-1838.629195
310.353710,-2220.617826,-8956.491898,-1838.629195
310.354032,-2368.659014,-8364.327145,-1915.238745
310.354355,-1258.350101,-8438.347739,-2451.505594
310.354677,-444.123565,-8956.491898,-1608.800546
310.355000,-1110.308913,-8808.450710,-306.438199
310.355322,-2072.576638,-8290.306550,459.657299
310.355645,-3034.844362,-7550.100608,-1072.533697
310.355967,-2886.803174,-7550.100608,-1838.629195
310.356290,-2368.659014,-7550.100608,-2604.724693
310.356612,-2072.576638,-7624.121203,-2757.943793
310.356935,-2146.597232,-8290.306550,-2681.334243
310.357257,-1776.494261,-9474.636058,-1608.800546
310.357580,-1702.473667,-11251.130318,-1762.019645
310.357902,-2220.617826,-11991.336260,-2451.505594
310.358225,-2664.741391,-12435.459826,-3217.601092
310.358547,-2886.803174,-12213.398043,-3524.039291
310.358870,-2442.679609,-11177.109724,-2451.505594
310.359192,-2886.803174,-10214.842000,-1072.533697
310.359515,-2664.741391,-9326.594869,0.000000
310.359837,-2442.679609,-8660.409521,0.000000
310.360160,-2072.576638,-8586.388927,-1302.362347
310.360482,-2072.576638,-8808.450710,-1225.752797
310.360805,-1776.494261,-8586.388927,-995.924147
310.361127,-1924.535449,-8660.409521,-842.705048
310.361450,-2220.617826,-9030.512492,-536.266849
310.361772,-2442.679609,-9474.636058,-1149.143247
310.362095,-3108.864956,-9622.677246,-1838.629195
310.362417,-3182.885551,-9770.718434,-2604.724693
310.362740,-3108.864956,-9844.739029,-2987.772442
310.363062,-2442.679609,-9326.594869,-2757.943793
310.363385,-1702.473667,-8956.491898,-2221.676944
310.363707,-1184.329507,-8364.327145,-842.705048
310.364030,-1110.308913,-7624.121203,-306.438199
310.364352,-1258.350101,-7994.224174,-1532.190996
310.364675,-1850.514855,-8290.306550,-2604.724693
310.364997,-1110.308913,-8808.450710,-2451.505594
310.365320,0.000000,-8882.471304,-2298.286494
310.365642,1554.432478,-8438.347739,-1838.629195
310.365965,3108.864956,-8512.368333,-1302.362347
310.366287,4441.235652,-8808.450710,-1532.190996
310.366610,4663.297435,-9252.574275,-1225.752797
310.366932,4367.215058,-10288.862594,-1302.362347
310.367255,3478.967927,-10955.047942,-1685.410096
310.367577,3330.926739,-11547.212695,-1762.019645
310.367900,2516.700203,-11547.212695,-1149.143247
310.368222,2886.803174,-11399.171507,-459.657299
310.368545,2886.803174,-10436.903782,842.705048
310.368867,3034.844362,-8734.430116,153.219100
310.369190,3108.864956,-8068.244768,-1532.190996
310.369512,4071.132681,-7698.141797,-1532.190996
310.369835,3849.070898,-8068.244768,-1838.629195
310.370157,2812.782580,-8438.347739,-1762.019645
310.370480,1554.432478,-9696.697840,-1455.581446
310.370802,666.185348,-10362.883188,-1762.019645
310.371125,-296.082377,-10807.006753,-2451.505594
310.371447,-1702.473667,-11029.068536,-2604.724693
310.371770,-2664.741391,-10658.965565,-2145.067394
310.372092,-2590.720797,-9622.677246,-3064.381992
310.372415,-1850.514855,-8956.491898,-2834.553343
310.372737,-1036.288319,-7920.203579,-1455.581446
310.373060,-1554.432478,-7254.018232,-1378.971896
310.373382,-2146.597232,-7698.141797,-1302.362347
310.373705,-2516.700203,-7920.203579,-1149.143247
310.374027,-2590.720797,-8068.244768,-1072.533697
310.374349,-2368.659014,-8068.244768,-1685.410096
310.374672,-1924.535449,-7920.203579,-1685.410096
310.374994,-1776.494261,-8142.265362,-1685.410096
310.375317,-1850.514855,-8438.347739,-2068.457845
310.375639,-1850.514855,-9622.677246,-1685.410096
310.375962,-2146.597232,-11103.089130,-2221.676944
310.376284,-2516.700203,-11547.212695,-2528.115143
310.376607,-2738.761985,-11843.295072,-3064.381992
310.376929,-2442.679609,-12361.439231,-2451.505594
310.377252,-2368.659014,-11843.295072,-1378.971896
310.377574,-2516.700203,-10584.944971,-153.219100
310.377897,-2220.617826,-9252.574275,0.000000
310.378219,-1554.432478,-8438.347739,-1378.971896
310.378542,-1332.370696,-7994.224174,-1532.190996
310.378864,-1406.391290,-8290.306550,-1225.752797
310.379187,-1702.473667,-8512.368333,-306.438199
310.379509,-2146.597232,-8956.491898,-612.876398
310.379832,-1924.535449,-9474.636058,-766.095498
310.380154,-2294.638420,-9548.656652,-1302.362347
310.380477,-2812.782580,-9622.677246,-1608.800546
310.380799,-3182.885551,-9104.533087,-1991.848295
310.381122,-2590.720797,-8364.327145,-2374.896044
310.381444,-1628.453072,-7846.182985,-2528.115143
310.381767,-1332.370696,-7920.203579,-1762.019645
310.382089,-1480.411884,-7920.203579,-612.876398
310.382412,-1850.514855,-8216.285956,-1072.533697
310.382734,-1850.514855,-8586.388927,-2221.676944
310.383057,-1110.308913,-9252.574275,-2681.334243
310.383379,222.061783,-9030.512492,-2298.286494
310.383702,1184.329507,-8956.491898,-2068.457845
310.384024,2738.761985,-8808.450710,-1455.581446
310.384347,3627.009116,-8956.491898,-1532.190996
310.384669,4145.153275,-9474.636058,-1378.971896
310.384992,4219.173869,-10510.924376,-1685.410096
310.385314,3404.947333,-10732.986159,-1685.410096
310.385637,2590.720797,-10584.944971,-1838.629195
310.385959,2886.803174,-11473.192101,-1991.848295
310.386282,2960.823768,-12213.398043,-1072.533697
310.386604,2516.700203,-11251.130318,536.266849
310.386927,1776.494261,-9770.718434,2145.067394
310.387249,1554.432478,-7772.162391,-306.438199
310.387572,2072.576638,-7846.182985,-2604.724693
310.387894,2960.823768,-8734.430116,-2987.772442
310.388217,3256.906145,-8364.327145,-1915.238745
310.388539,2368.659014,-8956.491898,-1225.752797
310.388862,2072.576638,-9992.780217,-1225.752797
310.389184,1850.514855,-10658.965565,-1455.581446
310.389507,888.247130,-10732.986159,-2757.943793
310.389829,-1184.329507,-10436.903782,-1991.848295
310.390152,-2146.597232,-9918.759623,-1685.410096
310.390474,-2368.659014,-9474.636058,-2834.553343
310.390797,-1332.370696,-9252.574275,-2681.334243
310.391119,-1184.329507,-8586.388927,-919.314598
310.391442,-2072.576638,-7476.080014,-383.047749
310.391764,-2590.720797,-7105.977043,-842.705048
310.392087,-2738.761985,-7105.977043,-995.924147
310.392409,-2886.803174,-7105.977043,-1685.410096
310.392732,-3108.864956,-7031.956449,-2145.067394
310.393054,-3108.864956,-7624.121203,-2221.676944
310.393377,-3256.906145,-8956.491898,-1991.848295
310.393699,-2738.761985,-9326.594869,-2221.676944
310.394022,-2368.659014,-10732.986159,-2528.115143
310.394344,-2220.617826,-11547.212695,-3140.991542
310.394667,-2220.617826,-11991.336260,-3064.381992
310.394989,-1776.494261,-12879.583391,-2834.553343
310.395312,-1628.453072,-12361.439231,-2145.067394
310.395634,-1628.453072,-11695.253884,-1378.971896
310.395957,-1628.453072,-10288.862594,-995.924147
310.396279,-1332.370696,-9030.512492,-1072.533697
310.396602,-1184.329507,-8290.306550,-1302.362347
310.396924,-592.164754,-8586.388927,-766.095498
310.397247,-518.144159,-8142.265362,-153.219100
310.397569,-740.205942,-8586.388927,229.828649
310.397892,-1258.350101,-8882.471304,-306.438199
310.398214,-1776.494261,-9252.574275,-842.705048
310.398537,-2368.659014,-9474.636058,-1225.752797
310.398859,-2442.679609,-9548.656652,-1838.629195
310.399182,-2294.638420,-8808.450710,-2451.505594
310.399504,-1702.473667,-8734.430116,-2911.162892
310.399827,-1184.329507,-8734.430116,-2757.943793
310.400149,-1184.329507,-9030.512492,-1762.019645
310.400472,-1628.453072,-9252.574275,-1532.190996
310.400794,-2368.659014,-9178.553681,-2911.162892
310.401117,-2368.659014,-9252.574275,-3140.991542
310.401439,-1776.494261,-9400.615463,-3217.601092
310.401762,-370.102971,-8956.491898,-2757.943793
310.402084,518.144159,-8216.285956,-1532.190996
310.402407,1998.556043,-8290.306550,-1378.971896
310.402729,2516.700203,-8660.409521,-1302.362347
310.403052,2886.803174,-9474.636058,-919.314598
310.403374,2886.803174,-10362.883188,-842.705048
310.403697,2590.720797,-10732.986159,-1302.362347
310.404019,3034.844362,-10807.006753,-1532.190996
310.404342,3034.844362,-11029.068536,-842.705048
310.404664,3108.864956,-10214.842000,383.047749
310.404987,2886.803174,-9030.512492,1302.362347
310.405309,2960.823768,-7550.100608,0.000000
310.405632,3478.967927,-7624.121203,-1608.800546
310.405954,4071.132681,-8956.491898,-1685.410096
310.406277,4071.132681,-9622.677246,-1225.752797
310.406599,2960.823768,-10066.800811,-1149.143247
310.406921,2294.638420,-10732.986159,-689.485948
310.407244,1332.370696,-10881.027347,-1072.533697
310.407566,222.061783,-10066.800811,-1991.848295
310.407889,-1184.329507,-9770.718434,-2145.067394
310.408211,-2442.679609,-9104.533087,-2145.067394
310.408534,-2442.679609,-9252.574275,-2681.334243
310.408856,-1702.473667,-9400.615463,-2451.505594
310.409179,-1332.370696,-8734.430116,-612.876398
310.409501,-1628.453072,-8142.265362,-612.876398
310.409824,-2516.700203,-7254.018232,-766.095498
310.410146,-2886.803174,-6735.874072,-1378.971896
310.410469,-3256.906145,-6957.935855,-2298.286494
310.410791,-3256.906145,-7179.997637,-3217.601092
310.411114,-3182.885551,-7624.121203,-2298.286494
310.411436,-3108.864956,-8808.450710,-2604.724693
310.411759,-2146.597232,-9844.739029,-2911.162892
310.412081,-1702.473667,-11325.150913,-2604.724693
310.412404,-2072.576638,-11769.274478,-2451.505594
310.412726,-2146.597232,-11917.315666,-2604.724693
310.413049,-1702.473667,-11991.336260,-2834.553343
310.413371,-1258.350101,-11991.336260,-2911.162892
310.413694,-888.247130,-11325.150913,-1991.848295
310.414016,-888.247130,-10288.862594,-536.266849
310.414339,-592.164754,-9400.615463,-306.438199
310.414661,74.020594,-8808.450710,0.000000
310.414984,0.000000,-8512.368333,-612.876398
310.415306,0.000000,-8586.388927,-459.657299
310.415629,-518.144159,-7994.224174,0.000000
310.415951,-1036.288319,-8660.409521,-612.876398
310.416274,-1406.391290,-8512.368333,-1149.143247
310.416596,-1998.556043,-9474.636058,-1225.752797
310.416919,-2442.679609,-9770.718434,-2298.286494
310.417241,-2664.741391,-9400.615463,-2298.286494
310.417564,-2294.638420,-9326.594869,-2604.724693
310.417886,-1110.308913,-9326.594869,-2911.162892
310.418209,-1110.308913,-9030.512492,-2221.676944
310.418531,-1554.432478,-8290.306550,-1302.362347
310.418854,-2146.597232,-7846.182985,-1532.190996
310.419176,-2146.597232,-8068.244768,-2528.115143
310.419499,-1628.453072,-7772.162391,-2757.943793
310.419821,-1110.308913,-8142.265362,-2528.115143
310.420144,0.000000,-8438.347739,-1838.629195
310.420466,1184.329507,-8586.388927,-1225.752797
310.420789,2442.679609,-8808.450710,-1302.362347
310.421111,3256.906145,-9474.636058,-1149.143247
310.421434,3627.009116,-10510.924376,-1455.581446
310.421756,2294.638420,-10807.006753,-1072.533697
310.422079,1628.453072,-10140.821405,-536.266849
310.422401,1628.453072,-9548.656652,-995.924147
310.422724,1998.556043,-10140.821405,-1608.800546
310.423046,3182.885551,-10807.006753,-1378.971896
310.423369,4219.173869,-10436.903782,-1225.752797
310.423691,4367.215058,-10140.821405,-842.705048
310.424014,5255.462188,-10658.965565,-612.876398
310.424336,5995.668130,-10658.965565,-306.438199
310.424659,5551.544565,-9770.718434,-383.047749
310.424981,3997.112087,-8808.450710,-995.924147
310.425304,1850.514855,-8734.430116,-1072.533697
310.425626,370.102971,-8956.491898,-1991.848295
310.425949,-814.226536,-9474.636058,-2681.334243
310.426271,-2220.617826,-9400.615463,-1225.752797
310.426594,-2886.803174,-8512.368333,-1225.752797
310.426916,-2664.741391,-8216.285956,-1685.410096
310.427239,-2146.597232,-8660.409521,-2068.457845
310.427561,-3034.844362,-8660.409521,-1072.533697
310.427884,-4589.276840,-7179.997637,-612.876398
310.428206,-5699.585753,-5921.647536,-1838.629195
310.428528,-4515.256246,-6883.915261,-2528.115143
310.428851,-3256.906145,-8142.265362,-3677.258390
310.429173,-2886.803174,-8882.471304,-3370.820191
310.429496,-2516.700203,-9918.759623,-2221.676944
310.429818,-2146.597232,-11103.089130,-1149.143247
310.430141,-1628.453072,-11843.295072,-1608.800546
310.430463,-1332.370696,-11917.315666,-3217.601092
310.430785,-1406.391290,-11399.171507,-3447.429741
310.431108,-1258.350101,-10436.903782,-3140.991542
310.431430,-814.226536,-10288.862594,-2298.286494
310.431753,-518.144159,-9770.718434,0.000000
310.432075,-1110.308913,-9918.759623,0.000000
310.432398,-1184.329507,-9918.759623,536.266849
310.432720,-1184.329507,-9844.739029,0.000000
310.433042,-666.185348,-9252.574275,-919.314598
310.433365,-592.164754,-8216.285956,-1991.848295
310.433687,-592.164754,-7254.018232,-229.828649
310.434010,-888.247130,-7920.203579,229.828649
310.434332,-1480.411884,-8364.327145,-995.924147
310.434655,-2294.638420,-9474.636058,-2145.067394
310.434977,-2960.823768,-10436.903782,-3217.601092
310.435299,-3478.967927,-10658.965565,-2604.724693
310.435622,-2886.803174,-10584.944971,-2681.334243
310.435944,-2368.659014,-9622.677246,-2374.896044
310.436267,-1480.411884,-8956.491898,-2221.676944
310.436589,-1036.288319,-7772.162391,-1378.971896
310.436912,-1332.370696,-6661.853478,-1838.629195
310.437234,-2072.576638,-6291.750507,-2451.505594
310.437556,-2146.597232,-7105.977043,-2987.772442
310.437879,-1554.432478,-7920.203579,-2145.067394
310.438201,-444.123565,-8586.388927,-1685.410096
310.438524,814.226536,-9400.615463,-1225.752797
310.438846,2146.597232,-8956.491898,-1225.752797
310.439168,2812.782580,-9178.553681,-1532.190996
310.439491,3478.967927,-9696.697840,-1608.800546
310.439813,3552.988522,-11029.068536,-2374.896044
310.440136,3256.906145,-11843.295072,-2451.505594
310.440458,2960.823768,-12139.377449,-1378.971896
310.440781,2960.823768,-11917.315666,-153.219100
310.441103,2738.761985,-10955.047942,0.000000
310.441425,2886.803174,-10807.006753,-153.219100
310.441748,4145.153275,-10066.800811,-919.314598
310.442070,4885.359217,-8660.409521,-1302.362347
310.442393,5403.503377,-8734.430116,-1532.190996
310.442715,5255.462188,-8956.491898,229.828649
310.443038,4441.235652,-8734.430116,383.047749
310.443360,3330.926739,-8586.388927,-306.438199
310.443682,1480.411884,-9178.553681,-1072.533697
310.444005,-592.164754,-9844.739029,-2145.067394
310.444327,-2072.576638,-10066.800811,-1991.848295
310.444650,-2886.803174,-8956.491898,-1608.800546
310.444972,-2516.700203,-7920.203579,-2374.896044
310.445295,-1776.494261,-8364.327145,-2681.334243
310.445617,-1702.473667,-8512.368333,-1455.581446
310.445939,-3404.947333,-8216.285956,-306.438199
310.446262,-4885.359217,-7698.141797,-919.314598
310.446584,-4811.338623,-7698.141797,-2374.896044
310.446907,-4071.132681,-8290.306550,-2987.772442
310.447229,-3627.009116,-7550.100608,-2604.724693
310.447552,-3108.864956,-7402.059420,-1991.848295
310.447874,-2294.638420,-8660.409521,-1838.629195
310.448196,-888.247130,-10214.842000,-1532.190996
310.448519,-296.082377,-11177.109724,-1455.581446
310.448841,-814.226536,-11843.295072,-2298.286494
310.449164,-740.205942,-11621.233289,-2374.896044
310.449486,-518.144159,-11769.274478,-2298.286494
310.449809,296.082377,-11621.233289,-1149.143247
310.450131,0.000000,-10436.903782,0.000000
310.450453,-740.205942,-9030.512492,229.828649
310.450776,-1554.432478,-8438.347739,-459.657299
310.451098,-1036.288319,-8734.430116,-1532.190996
310.451421,-1776.494261,-9548.656652,-1608.800546
310.451743,-2220.617826,-9326.594869,-1532.190996
310.452066,-2664.741391,-8956.491898,-842.705048
310.452388,-3034.844362,-9696.697840,-689.485948
310.452710,-3330.926739,-9474.636058,-1455.581446
310.453033,-3701.029710,-9548.656652,-2528.115143
310.453355,-3627.009116,-9474.636058,-3600.648841
310.453678,-3108.864956,-9474.636058,-3064.381992
310.454000,-2516.700203,-9252.574275,-2987.772442
310.454322,-1998.556043,-8734.430116,-2374.896044
310.454645,-1628.453072,-8364.327145,-1685.410096
310.454967,-1702.473667,-8586.388927,-1149.143247
310.455290,-1924.535449,-8438.347739,-1915.238745
310.455612,-2220.617826,-7698.141797,-2604.724693
310.455935,-1258.350101,-7846.182985,-2528.115143
310.456257,0.000000,-7698.141797,-1915.238745
310.456579,1850.514855,-8142.265362,-1455.581446
310.456902,2590.720797,-8364.327145,-1302.362347
310.457224,3330.926739,-8956.491898,-1302.362347
310.457547,3997.112087,-10214.842000,-1378.971896
310.457869,4145.153275,-11103.089130,-1378.971896
310.458192,3775.050304,-12139.377449,-2451.505594
310.458514,3404.947333,-12287.418637,-1532.190996
310.458836,3256.906145,-11769.274478,-229.828649
310.459159,3478.967927,-10732.986159,229.828649
310.459481,3330.926739,-10066.800811,0.000000
310.459804,3701.029710,-9474.636058,-766.095498
310.460126,3923.091493,-8882.471304,-1225.752797
310.460449,3627.009116,-8660.409521,-1455.581446
310.460771,3182.885551,-8660.409521,-536.266849
310.461093,2294.638420,-8216.285956,76.609550
310.461416,1702.473667,-8068.244768,-536.266849
310.461738,592.164754,-8438.347739,-1838.629195
310.462061,-370.102971,-9474.636058,-1915.238745
310.462383,-1924.535449,-10362.883188,-1915.238745
310.462706,-2368.659014,-9918.759623,-1685.410096
310.463028,-1850.514855,-8882.471304,-2145.067394
310.463350,-1554.432478,-7698.141797,-2374.896044
310.463673,-1110.308913,-7994.224174,-2145.067394
310.463995,-1480.411884,-8142.265362,-842.705048
310.464318,-2294.638420,-8068.244768,-842.705048
310.464640,-2664.741391,-8142.265362,-1149.143247
310.464963,-2590.720797,-8438.347739,-1915.238745
310.465285,-2442.679609,-9178.553681,-1532.190996
310.465607,-2368.659014,-8438.347739,-1532.190996
310.465930,-2294.638420,-8290.306550,-2145.067394
310.466252,-1628.453072,-9178.553681,-1608.800546
310.466575,-1554.432478,-10066.800811,-1532.190996
310.466897,-1924.535449,-11029.068536,-2068.457845
310.467219,-2294.638420,-11547.212695,-2374.896044
310.467542,-1924.535449,-11843.295072,-2604.724693
310.467864,-1036.288319,-12435.459826,-2528.115143
310.468187,-740.205942,-11547.212695,-919.314598
310.468509,-1036.288319,-10362.883188,0.000000
310.468832,-1776.494261,-9622.677246,153.219100
310.469154,-1554.432478,-9030.512492,-459.657299
310.469476,-1480.411884,-8586.388927,-1685.410096
310.469799,-2368.659014,-8290.306550,-2451.505594
310.470121,-2442.679609,-8364.327145,-1532.190996
310.470444,-2960.823768,-8956.491898,-995.924147
310.470766,-3330.926739,-9622.677246,-995.924147
310.471089,-3256.906145,-9474.636058,-1378.971896
310.471411,-3330.926739,-9474.636058,-2681.334243
310.471733,-3182.885551,-9030.512492,-2834.553343
310.472056,-2886.803174,-8586.388927,-2911.162892
310.472378,-2220.617826,-8438.347739,-2221.676944
310.472701,-1628.453072,-8290.306550,-1762.019645
310.473023,-1480.411884,-8364.327145,-995.924147
310.473346,-1776.494261,-8438.347739,-1225.752797
310.473668,-1702.473667,-8216.285956,-3140.991542
310.473990,-1110.308913,-8290.306550,-2911.162892
310.474313,74.020594,-8438.347739,-2757.943793
310.474635,1554.432478,-8438.347739,-1838.629195
310.474958,2294.638420,-8734.430116,-1302.362347
310.475280,2886.803174,-8956.491898,-1072.533697
310.475603,3478.967927,-9992.780217,-1838.629195
310.475925,3923.091493,-11029.068536,-2374.896044
310.476247,3775.050304,-11843.295072,-2298.286494
310.476570,3701.029710,-11843.295072,-1685.410096
310.476892,3478.967927,-11103.089130,0.000000
310.477215,3552.988522,-10955.047942,1532.190996
310.477537,3108.864956,-9474.636058,536.266849
310.477860,2664.741391,-8808.450710,-689.485948
310.478182,2886.803174,-8586.388927,-1685.410096
310.478504,3775.050304,-8734.430116,-2451.505594
310.478827,4293.194464,-9030.512492,-842.705048
310.479149,3849.070898,-8808.450710,0.000000
310.479472,3478.967927,-9104.533087,0.000000
310.479794,2664.741391,-9474.636058,-1532.190996
310.480117,1184.329507,-9844.739029,-1685.410096
310.480439,-592.164754,-10362.883188,-2374.896044
310.480761,-2960.823768,-9992.780217,-2451.505594
310.481084,-3182.885551,-9400.615463,-2145.067394
310.481406,-2442.679609,-7994.224174,-2298.286494
310.481729,-1628.453072,-7846.182985,-2451.505594
310.482051,-1702.473667,-7624.121203,-919.314598
310.482373,-2146.597232,-7698.141797,-153.219100
310.482696,-2442.679609,-7920.203579,-919.314598
310.483018,-2738.761985,-8290.306550,-1225.752797
310.483341,-2812.782580,-8438.347739,-1532.190996
310.483663,-2664.741391,-7920.203579,-1991.848295
310.483986,-2738.761985,-7698.141797,-1838.629195
310.484308,-2146.597232,-8808.450710,-1455.581446
310.484630,-1850.514855,-9770.718434,-1838.629195
310.484953,-1628.453072,-11103.089130,-2451.505594
310.485275,-2072.576638,-12065.356855,-2374.896044
310.485598,-1702.473667,-12731.542202,-2451.505594
310.485920,-1332.370696,-12953.603985,-2451.505594
310.486243,-1258.350101,-11843.295072,-1685.410096
310.486565,-1480.411884,-10288.862594,-766.095498
310.486887,-1776.494261,-9104.533087,-612.876398
310.487210,-1776.494261,-7846.182985,-229.828649
310.487532,-1998.556043,-7550.100608,-1072.533697
310.487855,-1924.535449,-8142.265362,-1685.410096
310.488177,-2220.617826,-8364.327145,-1378.971896
310.488500,-2516.700203,-9326.594869,-842.705048
310.488822,-3404.947333,-9844.739029,-766.095498
310.489144,-4071.132681,-9844.739029,-1072.533697
310.489467,-4071.132681,-9770.718434,-2374.896044
310.489789,-3997.112087,-8956.491898,-3370.820191
310.490112,-3552.988522,-8586.388927,-3600.648841
310.490434,-2590.720797,-8438.347739,-3447.429741
310.490757,-1924.535449,-8438.347739,-2145.067394
310.491079,-1480.411884,-8660.409521,-153.219100
310.491401,-1554.432478,-9030.512492,-1072.533697
310.491724,-1776.494261,-9030.512492,-2451.505594
310.492046,-1480.411884,-8734.430116,-3064.381992
310.492369,-296.082377,-8660.409521,-2681.334243
310.492691,962.267725,-8808.450710,-1608.800546
310.493014,2072.576638,-8438.347739,-1608.800546
310.493336,2664.741391,-8586.388927,-1378.971896
310.493658,3108.864956,-9474.636058,-1302.362347
310.493981,3404.947333,-10288.862594,-1378.971896
310.494303,2886.803174,-11103.089130,-1838.629195
310.494626,3330.926739,-11843.295072,-2145.067394
310.494948,3404.947333,-11843.295072,-1225.752797
310.495270,3404.947333,-10807.006753,306.438199
310.495593,3627.009116,-9474.636058,919.314598
310.495915,3627.009116,-8660.409521,-306.438199
310.496238,4219.173869,-8438.347739,-1532.190996
310.496560,4367.215058,-8364.327145,-1838.629195
310.496883,3849.070898,-9104.533087,-1762.019645
310.497205,3552.988522,-9252.574275,-919.314598
310.497527,2886.803174,-9474.636058,-383.047749
310.497850,2516.700203,-9400.615463,-766.095498
310.498172,888.247130,-9030.512492,-1915.238745
310.498495,-444.123565,-9622.677246,-2528.115143
310.498817,-2072.576638,-10140.821405,-2451.505594
310.499140,-2590.720797,-9844.739029,-2145.067394
310.499462,-2146.597232,-9326.594869,-2298.286494
310.499784,-1702.473667,-8364.327145,-2145.067394
310.500107,-1332.370696,-8438.347739,-2068.457845
310.500429,-1702.473667,-8216.285956,-842.705048
310.500752,-2294.638420,-7994.224174,-306.438199
310.501074,-2812.782580,-7328.038826,-1072.533697
310.501397,-3330.926739,-7254.018232,-1149.143247
310.501719,-2590.720797,-8068.244768,-1915.238745
310.502041,-2146.597232,-8068.244768,-2221.676944
310.502364,-2146.597232,-8586.388927,-1991.848295
310.502686,-1258.350101,-9844.739029,-1378.971896
310.503009,-666.185348,-11251.130318,-1225.752797
310.503331,-1110.308913,-11843.295072,-1762.019645
310.503654,-1480.411884,-11843.295072,-1991.848295
310.503976,-1184.329507,-11991.336260,-2298.286494
310.504298,-740.205942,-12213.398043,-2451.505594
310.504621,-444.123565,-11621.233289,-842.705048
310.504943,-1332.370696,-9622.677246,459.657299
310.505266,-1406.391290,-8808.450710,306.438199
310.505588,-1480.411884,-8216.285956,-612.876398
310.505911,-1258.350101,-8290.306550,-1455.581446
310.506233,-2072.576638,-8364.327145,-1608.800546
310.506555,-2590.720797,-8364.327145,-536.266849
310.506878,-4293.194464,-9030.512492,-612.876398
310.507200,-4663.297435,-9548.656652,-919.314598
310.507523,-4959.379811,-9548.656652,-2145.067394
310.507845,-4737.318029,-9474.636058,-3140.991542
310.508168,-3849.070898,-9252.574275,-3677.258390
310.508490,-2812.782580,-8512.368333,-2834.553343
310.508812,-1110.308913,-8660.409521,-2451.505594
310.509135,-814.226536,-8586.388927,-995.924147
310.509457,-814.226536,-8808.450710,-689.485948
310.509780,-814.226536,-8438.347739,-1685.410096
310.510102,-666.185348,-8734.430116,-2604.724693
310.510424,-888.247130,-8808.450710,-2834.553343
310.510747,0.000000,-8586.388927,-2068.457845
310.511069,740.205942,-8290.306550,-1149.143247
310.511392,1406.391290,-8364.327145,-1225.752797
310.511714,1998.556043,-8438.347739,-1072.533697
310.512037,2590.720797,-9474.636058,-1915.238745
310.512359,2590.720797,-10881.027347,-2451.505594
310.512681,2368.659014,-11843.295072,-1915.238745
310.513004,2442.679609,-11695.253884,-689.485948
310.513326,2368.659014,-10955.047942,0.000000
310.513649,3108.864956,-9918.759623,-536.266849
310.513971,4441.235652,-10214.842000,-919.314598
310.514294,5403.503377,-9326.594869,-1225.752797
310.514616,5477.523971,-9252.574275,-1762.019645
310.514938,5107.421000,-9474.636058,-842.705048
310.515261,4959.379811,-9400.615463,306.438199
310.515583,3849.070898,-8586.388927,-306.438199
310.515906,2590.720797,-8512.368333,-1378.971896
310.516228,1258.350101,-8660.409521,-1991.848295
310.516551,-222.061783,-9030.512492,-2451.505594
310.516873,-1554.432478,-9474.636058,-2374.896044
310.517195,-2220.617826,-9104.533087,-1762.019645
310.517518,-2072.576638,-9030.512492,-2604.724693
310.517840,-1480.411884,-9400.615463,-2987.772442
310.518163,-1480.411884,-9252.574275,-1608.800546
310.518485,-2368.659014,-8734.430116,-383.047749
310.518808,-3034.844362,-7772.162391,-995.924147
310.519130,-3182.885551,-7994.224174,-2221.676944
310.519452,-2442.679609,-8142.265362,-2911.162892
310.519775,-2220.617826,-8216.285956,-3064.381992
310.520097,-2146.597232,-8808.450710,-2604.724693
310.520420,-1850.514855,-9474.636058,-1225.752797
310.520742,-888.247130,-9992.780217,-1378.971896
310.521065,-814.226536,-11029.068536,-1455.581446
310.521387,-1628.453072,-11325.150913,-2145.067394
310.521709,-2294.638420,-11103.089130,-2145.067394
310.522032,-1924.535449,-10955.047942,-2374.896044
310.522354,-1036.288319,-10214.842000,-2374.896044
310.522677,-592.164754,-10436.903782,-995.924147
310.522999,-740.205942,-9918.759623,459.657299
310.523322,-1184.329507,-9178.553681,919.314598
310.523644,-1554.432478,-8660.409521,0.000000
310.523966,-1554.432478,-8734.430116,-1455.581446
310.524289,-1998.556043,-8364.327145,-1915.238745
310.524611,-3108.864956,-8068.244768,-1225.752797
310.524934,-4219.173869,-8512.368333,-1072.533697
310.525256,-4737.318029,-9252.574275,-1378.971896
310.525578,-4811.338623,-9474.636058,-2681.334243
310.525901,-4589.276840,-10436.903782,-2987.772442
310.526223,-4367.215058,-10732.986159,-2911.162892
310.526546,-3404.947333,-9770.718434,-2604.724693
310.526868,-1702.473667,-9030.512492,-2604.724693
310.527191,-592.164754,-8660.409521,-1302.362347
310.527513,-296.082377,-7994.224174,-153.219100
310.527836,-1036.288319,-7105.977043,-766.095498
310.528158,-1406.391290,-7105.977043,-2145.067394
310.528480,-1110.308913,-7846.182985,-2298.286494
310.528803,-370.102971,-8438.347739,-1915.238745
310.529125,888.247130,-8586.388927,-1378.971896
310.529448,1628.453072,-8882.471304,-919.314598
310.529770,2368.659014,-9400.615463,-766.095498
310.530093,3108.864956,-10066.800811,-2068.457845
310.530415,2664.741391,-10881.027347,-2145.067394
310.530738,1258.350101,-10362.883188,-1608.800546
310.531060,1258.350101,-10436.903782,-2145.067394
310.531383,1406.391290,-11621.233289,-2528.115143
310.531705,3256.906145,-12287.418637,-2451.505594
310.532028,4441.235652,-11547.212695,-1608.800546
310.532350,5625.565159,-11103.089130,-612.876398
310.532673,6291.750507,-9992.780217,153.219100
310.532995,6365.771101,-9030.512492,229.828649
310.533318,6143.709319,-7698.141797,-766.095498
310.533640,4737.318029,-7179.997637,-995.924147
310.533963,2664.741391,-7254.018232,-1302.362347
310.534285,740.205942,-7846.182985,-1302.362347
310.534608,-370.102971,-8290.306550,-1149.143247
310.534930,-1036.288319,-9400.615463,-1685.410096
310.535253,-1480.411884,-9548.656652,-2145.067394
310.535575,-1184.329507,-9030.512492,-1991.848295
310.535898,-962.267725,-8660.409521,-1991.848295
310.536220,-1184.329507,-9030.512492,-1991.848295
310.536543,-2220.617826,-8956.491898,-842.705048
310.536865,-3849.070898,-8142.265362,-1072.533697
310.537188,-4367.215058,-7846.182985,-2528.115143
310.537510,-3997.112087,-8438.347739,-3370.820191
310.537833,-3775.050304,-8882.471304,-2757.943793
310.538155,-2664.741391,-9770.718434,-1762.019645
310.538478,-2294.638420,-9844.739029,-766.095498
310.538800,-1850.514855,-10066.800811,-919.314598
310.539123,-1554.432478,-10436.903782,-2298.286494
310.539445,-1628.453072,-10807.006753,-2221.676944
310.539768,-2220.617826,-10510.924376,-2374.896044
310.540090,-1776.494261,-10288.862594,-2221.676944
310.540413,-666.185348,-10436.903782,-1991.848295
310.540735,0.000000,-10658.965565,-689.485948
310.541058,222.061783,-10288.862594,229.828649
310.541380,0.000000,-9918.759623,919.314598
310.541703,-592.164754,-9474.636058,-383.047749
310.542025,-296.082377,-8956.491898,-1302.362347
310.542347,-814.226536,-8364.327145,-1532.190996
310.542670,-1776.494261,-7994.224174,-995.924147
310.542992,-3034.844362,-7624.121203,-995.924147
310.543315,-4071.132681,-8660.409521,-1455.581446
310.543637,-4293.194464,-9918.759623,-2145.067394
310.543960,-4589.276840,-10658.965565,-2987.772442
310.544282,-4737.318029,-10510.924376,-3140.991542
310.544605,-3997.112087,-9992.780217,-2757.943793
310.544927,-2590.720797,-9326.594869,-2451.505594
310.545250,-1406.391290,-8882.471304,-2068.457845
310.545572,-1036.288319,-7920.203579,-1455.581446
310.545895,-1258.350101,-7550.100608,-1302.362347
310.546217,-1702.473667,-7105.977043,-2221.676944
310.546540,-1332.370696,-7698.141797,-1838.629195
310.546862,-296.082377,-8290.306550,-2221.676944
310.547185,740.205942,-8882.471304,-1685.410096
310.547507,1554.432478,-9104.533087,-842.705048
310.547830,2220.617826,-9326.594869,-919.314598
310.548152,2442.679609,-9474.636058,-1072.533697
310.548475,2886.803174,-10214.842000,-1915.238745
310.548797,2368.659014,-10584.944971,-1915.238745
310.549120,1776.494261,-10362.883188,-1762.019645
310.549442,2368.659014,-10807.006753,-2145.067394
310.549765,3701.029710,-11991.336260,-1838.629195
310.550087,4959.379811,-12065.356855,-1455.581446
310.550410,5181.441594,-11325.150913,0.000000
310.550732,5255.462188,-9992.780217,76.609550
310.551055,5329.482782,-8882.471304,-536.266849
310.551377,5181.441594,-7698.141797,-1302.362347
310.551700,4441.235652,-7476.080014,-1149.143247
310.552022,2886.803174,-7328.038826,-995.924147
310.552345,814.226536,-8216.285956,-1608.800546
310.552667,-222.061783,-9030.512492,-1302.362347
310.552990,-888.247130,-9844.739029,-1838.629195
310.553312,-1776.494261,-10066.800811,-2451.505594
310.553635,-2220.617826,-9400.615463,-1991.848295
310.553957,-2220.617826,-8956.491898,-2068.457845
310.554280,-2294.638420,-8660.409521,-1915.238745
310.554602,-2812.782580,-8216.285956,-1225.752797
310.554925,-3552.988522,-8142.265362,-995.924147
310.555247,-4071.132681,-7402.059420,-1762.019645
310.555569,-3330.926739,-8068.244768,-2068.457845
310.555892,-2516.700203,-9400.615463,-2528.115143
310.556214,-2146.597232,-9474.636058,-1991.848295
310.556537,-1628.453072,-9696.697840,-689.485948
310.556859,-1554.432478,-9548.656652,-536.266849
310.557182,-1036.288319,-9474.636058,-919.314598
310.557504,-1036.288319,-10288.862594,-2681.334243
310.557827,-1480.411884,-10807.006753,-2911.162892
310.558149,-1332.370696,-10584.944971,-2451.505594
310.558472,-518.144159,-10732.986159,-2068.457845
310.558794,370.102971,-11103.089130,-1532.190996
310.559117,148.041188,-11177.109724,-229.828649
310.559439,-666.185348,-10584.944971,383.047749
310.559762,-1406.391290,-9992.780217,229.828649
310.560084,-2072.576638,-9326.594869,-919.314598
310.560407,-2516.700203,-7772.162391,-1838.629195
310.560729,-2442.679609,-7994.224174,-1838.629195
310.561052,-3034.844362,-7550.100608,-689.485948
310.561374,-3997.112087,-8068.244768,-689.485948
310.561697,-4219.173869,-9474.636058,-1532.190996
310.562019,-4219.173869,-10214.842000,-2221.676944
310.562342,-4145.153275,-10436.903782,-2528.115143
310.562664,-4441.235652,-10066.800811,-2681.334243
310.562987,-3552.988522,-9474.636058,-2298.286494
310.563309,-1850.514855,-8956.491898,-2681.334243
310.563632,-962.267725,-8216.285956,-1991.848295
310.563954,-1036.288319,-7402.059420,-1072.533697
310.564277,-962.267725,-7254.018232,-1455.581446
310.564599,-518.144159,-8068.244768,-2221.676944
310.564922,296.082377,-8808.450710,-2451.505594
310.565244,1110.308913,-9548.656652,-2221.676944
310.565567,1480.411884,-9030.512492,-1378.971896
310.565889,1924.535449,-9178.553681,-459.657299
310.566212,2590.720797,-9252.574275,-842.705048
310.566534,2664.741391,-9252.574275,-1685.410096
310.566857,2442.679609,-9622.677246,-1991.848295
310.567179,2738.761985,-10140.821405,-1455.581446
310.567502,3701.029710,-11103.089130,-2911.162892
310.567824,4293.194464,-11621.233289,-1762.019645
310.568147,4959.379811,-11917.315666,-1149.143247
310.568469,4885.359217,-11621.233289,0.000000
310.568792,4515.256246,-10436.903782,76.609550
310.569114,4219.173869,-8808.450710,-919.314598
310.569436,3849.070898,-8068.244768,-2068.457845
310.569759,3404.947333,-7105.977043,-2451.505594
310.570081,2664.741391,-7476.080014,-1302.362347
310.570404,1480.411884,-8068.244768,-1149.143247
310.570726,222.061783,-9178.553681,-919.314598
310.571049,-1110.308913,-9844.739029,-1532.190996
310.571371,-1702.473667,-10066.800811,-2528.115143
310.571694,-2294.638420,-10140.821405,-2451.505594
310.572016,-2146.597232,-9400.615463,-2374.896044
310.572339,-1776.494261,-8734.430116,-1608.800546
310.572661,-1850.514855,-8364.327145,-536.266849
310.572984,-1850.514855,-8586.388927,-306.438199
310.573306,-2738.761985,-7698.141797,-995.924147
310.573629,-3108.864956,-8216.285956,-1991.848295
310.573951,-2738.761985,-9104.533087,-2374.896044
310.574274,-2220.617826,-9178.553681,-1532.190996
310.574596,-2812.782580,-8512.368333,-1302.362347
310.574919,-2516.700203,-9326.594869,-612.876398
310.575241,-1850.514855,-9548.656652,-995.924147
310.575564,-1850.514855,-10140.821405,-2681.334243
310.575886,-2368.659014,-10436.903782,-2911.162892
310.576209,-2886.803174,-10584.944971,-1762.019645
310.576531,-2294.638420,-11473.192101,-1378.971896
310.576854,-1332.370696,-11177.109724,-1302.362347
310.577176,-1258.350101,-10436.903782,-842.705048
310.577499,-1406.391290,-9844.739029,0.000000
310.577821,-1776.494261,-8956.491898,-229.828649
310.578144,-2368.659014,-8290.306550,-842.705048
310.578466,-2886.803174,-7698.141797,-1378.971896
310.578789,-3108.864956,-7920.203579,-1455.581446
310.579111,-3404.947333,-7920.203579,-1608.800546
310.579434,-3923.091493,-8438.347739,-1532.190996
310.579756,-4737.318029,-8882.471304,-1302.362347
310.580079,-4441.235652,-9992.780217,-2451.505594
310.580401,-3997.112087,-10288.862594,-2757.943793
310.580724,-3701.029710,-9992.780217,-2911.162892
310.581046,-2738.761985,-9622.677246,-3217.601092
310.581369,-1110.308913,-9104.533087,-2834.553343
310.581691,0.000000,-9178.553681,-2068.457845
310.582014,370.102971,-8808.450710,-1149.143247
310.582336,518.144159,-8586.388927,-1225.752797
310.582658,592.164754,-8290.306550,-1838.629195
310.582981,1332.370696,-8364.327145,-2145.067394
310.583303,1480.411884,-8808.450710,-1455.581446
310.583626,2442.679609,-8956.491898,-1225.752797
310.583948,2886.803174,-9030.512492,-842.705048
310.584271,2886.803174,-9030.512492,-995.924147
310.584593,3182.885551,-9400.615463,-1072.533697
310.584916,3034.844362,-9992.780217,-2221.676944
310.585238,2368.659014,-11103.089130,-2374.896044
310.585561,2442.679609,-11399.171507,-2451.505594
310.585883,3182.885551,-11769.274478,-2145.067394
310.586206,4145.153275,-11547.212695,-1532.190996
310.586528,4737.318029,-10881.027347,-536.266849
310.586851,4663.297435,-9548.656652,-306.438199
310.587173,4737.318029,-8808.450710,-689.485948
310.587496,4293.194464,-7994.224174,-1532.190996
310.587818,3701.029710,-7476.080014,-1455.581446
310.588141,3108.864956,-7402.059420,-1532.190996
310.588463,1702.473667,-8068.244768,-919.314598
310.588786,0.000000,-8216.285956,-995.924147
310.589108,-888.247130,-8882.471304,-1608.800546
310.589431,-1480.411884,-9622.677246,-1991.848295
310.589753,-1776.494261,-9844.739029,-1608.800546
310.590076,-2368.659014,-8808.450710,-1378.971896
310.590398,-2146.597232,-8956.491898,-1838.629195
310.590721,-1628.453072,-9178.553681,-1455.581446
310.591043,-1924.535449,-9178.553681,-459.657299
310.591366,-2960.823768,-8734.430116,0.000000
310.591688,-3627.009116,-8142.265362,-229.828649
310.592011,-4071.132681,-8586.388927,-1532.190996
310.592333,-3627.009116,-9326.594869,-2145.067394
310.592656,-3701.029710,-9622.677246,-1762.019645
310.592978,-3552.988522,-9548.656652,-1072.533697
310.593301,-2886.803174,-9326.594869,-1302.362347
310.593623,-1776.494261,-9474.636058,-1838.629195
310.593946,-1924.535449,-10288.862594,-2451.505594
310.594268,-2516.700203,-10881.027347,-1991.848295
310.594591,-2738.761985,-11103.089130,-1762.019645
310.594913,-2072.576638,-11251.130318,-2221.676944
310.595236,-1480.411884,-10881.027347,-1991.848295
310.595558,-888.247130,-10362.883188,-1149.143247
310.595881,-1554.432478,-9252.574275,-306.438199
310.596203,-2146.597232,-8364.327145,0.000000
310.596525,-2294.638420,-7994.224174,-1225.752797
310.596848,-2368.659014,-7920.203579,-1532.190996
310.597170,-2442.679609,-7772.162391,-2068.457845
310.597493,-3701.029710,-8068.244768,-1762.019645
310.597815,-4293.194464,-8808.450710,-1302.362347
310.598138,-4145.153275,-9474.636058,-1685.410096
310.598460,-3775.050304,-10066.800811,-2298.286494
310.598783,-3256.906145,-9918.759623,-2528.115143
310.599105,-2442.679609,-9400.615463,-3064.381992
310.599428,-1184.329507,-9252.574275,-3140.991542
310.599750,0.000000,-9326.594869,-2834.553343
310.600073,814.226536,-9400.615463,-1838.629195
310.600395,888.247130,-8734.430116,-1378.971896
310.600718,1036.288319,-8364.327145,-1915.238745
310.601040,1258.350101,-9104.533087,-2451.505594
310.601363,1924.535449,-9252.574275,-2451.505594
310.601685,2294.638420,-9104.533087,-1762.019645
310.602008,2368.659014,-8882.471304,-919.314598
310.602330,2960.823768,-8660.409521,-689.485948
310.602653,2812.782580,-8882.471304,-1532.190996
310.602975,3034.844362,-9770.718434,-2221.676944
310.603298,2442.679609,-10732.986159,-2068.457845
310.603620,2886.803174,-11251.130318,-1915.238745
310.603943,3108.864956,-11547.212695,-1685.410096
310.604265,4737.318029,-11399.171507,-2068.457845
310.604588,5403.503377,-10955.047942,-1302.362347
310.604910,5403.503377,-10214.842000,-306.438199
310.605233,4885.359217,-9104.533087,-306.438199
310.605555,4737.318029,-8438.347739,-1532.190996
310.605878,4219.173869,-7846.182985,-1991.848295
310.606200,3404.947333,-7846.182985,-1991.848295
310.606523,2072.576638,-8142.265362,-1302.362347
310.606845,444.123565,-8512.368333,-1072.533697
310.607168,-740.205942,-9030.512492,-766.095498
310.607490,-1702.473667,-9474.636058,-1455.581446
310.607813,-2516.700203,-10066.800811,-1838.629195
310.608135,-3330.926739,-10066.800811,-2145.067394
310.608458,-3256.906145,-9474.636058,-1838.629195
310.608780,-2294.638420,-9326.594869,-1608.800546
310.609103,-1850.514855,-9696.697840,-229.828649
310.609425,-2368.659014,-8512.368333,0.000000
310.609747,-2886.803174,-7846.182985,-612.876398
310.610070,-3034.844362,-7920.203579,-995.924147
310.610392,-2812.782580,-9030.512492,-1608.800546
310.610715,-2812.782580,-9696.697840,-1762.019645
310.611037,-3034.844362,-9622.677246,-1149.143247
310.611360,-2886.803174,-9400.615463,-995.924147
310.611682,-2368.659014,-9918.759623,-1455.581446
310.612005,-2072.576638,-9992.780217,-2068.457845
310.612327,-2368.659014,-9770.718434,-2145.067394
310.612650,-2368.659014,-9918.759623,-1608.800546
310.612972,-2442.679609,-10436.903782,-1608.800546
310.613295,-2368.659014,-10584.944971,-1991.848295
310.613617,-2664.741391,-10362.883188,-1072.533697
310.613940,-2960.823768,-9696.697840,-459.657299
310.614262,-3108.864956,-8734.430116,-229.828649
310.614585,-3404.947333,-7994.224174,-1608.800546
310.614907,-3256.906145,-7920.203579,-1608.800546
310.615230,-3552.988522,-7624.121203,-1608.800546
310.615552,-4145.153275,-7994.224174,-1378.971896
310.615875,-4811.338623,-8660.409521,-1455.581446
310.616197,-4219.173869,-10066.800811,-1915.238745
310.616520,-3923.091493,-10140.821405,-2757.943793
310.616842,-2960.823768,-10436.903782,-2834.553343
310.617165,-1924.535449,-10140.821405,-2604.724693
310.617487,-370.102971,-9326.594869,-2221.676944
310.617810,1332.370696,-9474.636058,-2604.724693
310.618132,2220.617826,-9030.512492,-1455.581446
310.618455,2220.617826,-8512.368333,-1225.752797
310.618777,1850.514855,-8142.265362,-1302.362347
310.619100,1406.391290,-8364.327145,-1838.629195
310.619422,1628.453072,-8808.450710,-1915.238745
310.619745,1998.556043,-8586.388927,-2221.676944
310.620067,1554.432478,-8586.388927,-1532.190996
310.620390,1628.453072,-8956.491898,-1455.581446
310.620712,1776.494261,-9400.615463,-1991.848295
310.621035,1406.391290,-9918.759623,-2451.505594
310.621357,1036.288319,-10140.821405,-2374.896044
310.621680,1332.370696,-11103.089130,-2681.334243
310.622002,1998.556043,-11769.274478,-2834.553343
310.622325,3256.906145,-11547.212695,-2757.943793
310.622647,4367.215058,-11251.130318,-2068.457845
310.622970,5255.462188,-10807.006753,-919.314598
310.623292,5773.606348,-9770.718434,0.000000
310.623614,5477.523971,-8956.491898,-383.047749
310.623937,5255.462188,-8142.265362,-1149.143247
310.624259,4737.318029,-7698.141797,-1302.362347
310.624582,3775.050304,-7476.080014,-1455.581446
310.624904,1776.494261,-7772.162391,-842.705048
310.625227,444.123565,-8216.285956,-612.876398
310.625549,-666.185348,-8734.430116,-1072.533697
310.625872,-1258.350101,-9400.615463,-1838.629195
310.626194,-1702.473667,-9844.739029,-1532.190996
310.626517,-2368.659014,-8956.491898,-1378.971896
310.626839,-1924.535449,-9400.615463,-1685.410096
310.627162,-1924.535449,-9474.636058,-919.314598
310.627484,-2368.659014,-9326.594869,-536.266849
310.627807,-3256.906145,-8438.347739,-919.314598
310.628129,-3701.029710,-8216.285956,-1532.190996
310.628452,-3034.844362,-9030.512492,-2145.067394
310.628774,-2664.741391,-9548.656652,-2145.067394
310.629096,-2590.720797,-9696.697840,-1378.971896
310.629419,-2516.700203,-9548.656652,-459.657299
310.629741,-2146.597232,-9400.615463,-919.314598
310.630064,-1776.494261,-9474.636058,-1685.410096
310.630386,-2368.659014,-10066.800811,-2221.676944
310.630708,-2812.782580,-10066.800811,-1532.190996
310.631031,-2960.823768,-9844.739029,-1149.143247
310.631353,-2220.617826,-9992.780217,-1149.143247
310.631676,-962.267725,-10288.862594,-842.705048
310.631998,-962.267725,-9696.697840,153.219100
310.632321,-1332.370696,-9252.574275,0.000000
310.632643,-2146.597232,-8808.450710,-383.047749
310.632965,-2146.597232,-8512.368333,-689.485948
310.633288,-2664.741391,-8956.491898,-1608.800546
310.633610,-3256.906145,-8586.388927,-1608.800546
310.633933,-4441.235652,-8512.368333,-1838.629195
310.634255,-4811.338623,-9326.594869,-2221.676944
310.634577,-4811.338623,-9844.739029,-2604.724693
310.634900,-4441.235652,-10510.924376,-2528.115143
310.635222,-3627.009116,-10732.986159,-2451.505594
310.635545,-3034.844362,-9548.656652,-2374.896044
310.635867,-1480.411884,-9252.574275,-2528.115143
310.636189,-148.041188,-8956.491898,-2374.896044
310.636512,370.102971,-8364.327145,-1991.848295
310.636834,518.144159,-7772.162391,-1455.581446
310.637157,888.247130,-7846.182985,-1608.800546
310.637479,1110.308913,-8290.306550,-1991.848295
310.637802,1702.473667,-8882.471304,-2221.676944
310.638124,2072.576638,-8956.491898,-2145.067394
310.638446,2368.659014,-9326.594869,-1072.533697
310.638769,2294.638420,-8882.471304,-1149.143247
310.639091,2368.659014,-9400.615463,-2298.286494
310.639414,1850.514855,-9770.718434,-3294.210641
310.639736,1924.535449,-11029.068536,-3064.381992
310.640058,2442.679609,-11473.192101,-2757.943793
310.640381,3330.926739,-11325.150913,-2757.943793
310.640703,3849.070898,-11473.192101,-1762.019645
310.641026,5033.400406,-11029.068536,-842.705048
310.641348,5699.585753,-9992.780217,-383.047749
310.641670,5625.565159,-8956.491898,-842.705048
310.641993,5477.523971,-7698.141797,-1378.971896
310.642315,4885.359217,-6957.935855,-1072.533697
310.642638,4219.173869,-7105.977043,-1302.362347
310.642960,2812.782580,-7698.141797,-1149.143247
310.643283,962.267725,-8660.409521,-1225.752797
310.643605,-370.102971,-9474.636058,-1225.752797
310.643927,-666.185348,-9992.780217,-1838.629195
310.644250,-1332.370696,-10510.924376,-2298.286494
310.644572,-1776.494261,-9770.718434,-2221.676944
310.644895,-1628.453072,-8956.491898,-1685.410096
310.645217,-1258.350101,-9030.512492,-1302.362347
310.645539,-1406.391290,-9178.553681,-766.095498
310.645862,-2146.597232,-9622.677246,-1149.143247
310.646184,-3701.029710,-8882.471304,-1378.971896
310.646507,-3997.112087,-9178.553681,-1608.800546
310.646829,-3701.029710,-9622.677246,-1608.800546
310.647151,-3627.009116,-9326.594869,-1378.971896
310.647474,-3108.864956,-8438.347739,-842.705048
310.647796,-2590.720797,-8438.347739,-766.095498
310.648119,-2220.617826,-8882.471304,-1378.971896
310.648441,-2516.700203,-9696.697840,-2145.067394
310.648764,-3256.906145,-10510.924376,-1532.190996
310.649086,-3108.864956,-11251.130318,-1225.752797
310.649408,-2368.659014,-11325.150913,-2068.457845
310.649731,-1406.391290,-11399.171507,-1762.019645
310.650053,-666.185348,-10955.047942,-383.047749
310.650376,-666.185348,-9918.759623,0.000000
310.650698,-370.102971,-8660.409521,689.485948
310.651020,-962.267725,-8142.265362,-536.266849
310.651343,-1110.308913,-8364.327145,-1225.752797
310.651665,-1924.535449,-8290.306550,-1378.971896
310.651988,-2960.823768,-8586.388927,-1149.143247
310.652310,-3849.070898,-8882.471304,-383.047749
310.652632,-3627.009116,-9104.533087,-919.314598
310.652955,-3627.009116,-9326.594869,-1915.238745
310.653277,-3182.885551,-9252.574275,-2221.676944
310.653600,-2960.823768,-8586.388927,-2145.067394
310.653922,-2368.659014,-8660.409521,-2374.896044
310.654244,-1628.453072,-8734.430116,-2221.676944
310.654567,-1110.308913,-8734.430116,-1685.410096
310.654889,-1406.391290,-8438.347739,-1915.238745
310.655212,-1036.288319,-8512.368333,-2145.067394
310.655534,-444.123565,-8586.388927,-2298.286494
310.655857,444.123565,-8734.430116,-2528.115143
310.656179,1258.350101,-8808.450710,-2911.162892
310.656501,1628.453072,-9252.574275,-1762.019645
310.656824,1998.556043,-9548.656652,-1532.190996
310.657146,1776.494261,-9474.636058,-2451.505594
310.657469,1850.514855,-10510.924376,-2987.772442
310.657791,1998.556043,-11547.212695,-2528.115143
310.658113,2590.720797,-11251.130318,-2451.505594
310.658436,3552.988522,-11251.130318,-2451.505594
310.658758,4737.318029,-10658.965565,-1838.629195
310.659081,5847.626942,-10510.924376,-766.095498
310.659403,6735.874072,-9770.718434,-153.219100
310.659725,6143.709319,-9030.512492,-229.828649
310.660048,5773.606348,-8734.430116,-1149.143247
310.660370,5329.482782,-7994.224174,-1225.752797
310.660693,4737.318029,-7550.100608,-1762.019645
310.661015,3552.988522,-7772.162391,-1455.581446
310.661338,1998.556043,-8216.285956,-1072.533697
310.661660,592.164754,-9326.594869,-1915.238745
310.661982,-444.123565,-10584.944971,-2374.896044
310.662305,-1258.350101,-11399.171507,-2221.676944
310.662627,-1776.494261,-11029.068536,-2221.676944
310.662950,-1258.350101,-9918.759623,-2528.115143
310.663272,-1480.411884,-9474.636058,-1762.019645
310.663594,-1554.432478,-9104.533087,-842.705048
310.663917,-2368.659014,-8438.347739,-842.705048
310.664239,-3775.050304,-7550.100608,-689.485948
310.664562,-4663.297435,-7328.038826,-1225.752797
310.664884,-4293.194464,-8364.327145,-1762.019645
310.665206,-4145.153275,-9696.697840,-1991.848295
310.665529,-3849.070898,-9622.677246,-766.095498
310.665851,-3627.009116,-8956.491898,-229.828649
310.666174,-2886.803174,-8734.430116,-1072.533697
310.666496,-1998.556043,-8808.450710,-2145.067394
310.666819,-2368.659014,-9844.739029,-2221.676944
310.667141,-2886.803174,-10732.986159,-1915.238745
310.667463,-2664.741391,-11399.171507,-1302.362347
310.667786,-1924.535449,-11547.212695,-1225.752797
310.668108,-296.082377,-11251.130318,-919.314598
310.668431,74.020594,-10066.800811,0.000000
310.668753,0.000000,-9178.553681,612.876398
310.669075,-296.082377,-7920.203579,306.438199
310.669398,-666.185348,-7031.956449,0.000000
310.669720,-1554.432478,-7105.977043,-766.095498
310.670043,-2590.720797,-7698.141797,-306.438199
310.670365,-4515.256246,-8068.244768,-536.266849
310.670687,-5403.503377,-9252.574275,-1225.752797
310.671010,-5403.503377,-9918.759623,-1685.410096
310.671332,-4737.318029,-10140.821405,-1991.848295
310.671655,-3775.050304,-9770.718434,-2145.067394
310.671977,-3552.988522,-8882.471304,-3370.820191
310.672300,-2664.741391,-9252.574275,-2757.943793
310.672622,-2072.576638,-9400.615463,-2604.724693
310.672944,-1776.494261,-9400.615463,-2451.505594
310.673267,-1554.432478,-8808.450710,-2451.505594
310.673589,-1110.308913,-9104.533087,-2451.505594
310.673912,-518.144159,-9400.615463,-2681.334243
310.674234,518.144159,-9548.656652,-2451.505594
310.674556,1554.432478,-9400.615463,-1532.190996
310.674879,1998.556043,-9030.512492,-1072.533697
310.675201,2368.659014,-8660.409521,-1915.238745
310.675524,2516.700203,-9474.636058,-2221.676944
310.675846,2516.700203,-10214.842000,-2374.896044
310.676168,2590.720797,-11325.150913,-1915.238745
310.676491,3034.844362,-10955.047942,-1991.848295
310.676813,4367.215058,-10510.924376,-2068.457845
310.677136,5847.626942,-10066.800811,-1378.971896
310.677458,7031.956449,-9770.718434,-1149.143247
310.677781,7254.018232,-9474.636058,-919.314598
310.678103,6809.894666,-9030.512492,-306.438199
310.678425,6217.729913,-7920.203579,-612.876398
310.678748,5551.544565,-7772.162391,-1915.238745
310.679070,3923.091493,-8142.265362,-2221.676944
310.679393,2442.679609,-8734.430116,-1915.238745
310.679715,592.164754,-9252.574275,-1532.190996
310.680037,-370.102971,-9548.656652,-1608.800546
310.680360,-296.082377,-10436.903782,-2145.067394
310.680682,-962.267725,-9696.697840,-2145.067394
310.681005,-444.123565,-9622.677246,-2068.457845
310.681327,-222.061783,-9326.594869,-1685.410096
310.681649,-148.041188,-9474.636058,-1149.143247
310.681972,-1480.411884,-8882.471304,-306.438199
310.682294,-3034.844362,-8068.244768,-306.438199
310.682617,-5033.400406,-7772.162391,-1302.362347
310.682939,-5477.523971,-7994.224174,-2987.772442
310.683262,-5181.441594,-9252.574275,-3370.820191
310.683584,-4959.379811,-9474.636058,-2068.457845
310.683906,-4515.256246,-9104.533087,-536.266849
310.684229,-3404.947333,-9400.615463,-1378.971896
310.684551,-2590.720797,-10214.842000,-2451.505594
310.684874,-2664.741391,-11103.089130,-2298.286494
310.685196,-2960.823768,-11325.150913,-2221.676944
310.685518,-2738.761985,-10807.006753,-2451.505594
310.685841,-1924.535449,-11177.109724,-1991.848295
310.686163,0.000000,-11547.212695,-1149.143247
310.686486,518.144159,-10658.965565,229.828649
310.686808,296.082377,-9252.574275,842.705048
310.687130,222.061783,-8364.327145,459.657299
310.687453,-370.102971,-7476.080014,153.219100
310.687775,-740.205942,-7402.059420,-612.876398
310.688098,-2442.679609,-7698.141797,-689.485948
310.688420,-4145.153275,-7846.182985,-383.047749
310.688743,-5329.482782,-8364.327145,-919.314598
310.689065,-5699.585753,-8734.430116,-2145.067394
310.689387,-5551.544565,-10140.821405,-2528.115143
310.689710,-5107.421000,-9992.780217,-2987.772442
310.690032,-3997.112087,-9918.759623,-2911.162892
310.690355,-2886.803174,-9770.718434,-2374.896044
310.690677,-1702.473667,-9696.697840,-1838.629195
310.690999,-814.226536,-9474.636058,-2451.505594
310.691322,-1184.329507,-8586.388927,-2145.067394
310.691644,-740.205942,-8438.347739,-1991.848295
310.691967,-444.123565,-8512.368333,-1838.629195
310.692289,222.061783,-9178.553681,-1685.410096
310.692611,814.226536,-8956.491898,-842.705048
310.692934,1702.473667,-8734.430116,-229.828649
310.693256,2664.741391,-8660.409521,-1072.533697
310.693579,3108.864956,-8660.409521,-1685.410096
310.693901,3108.864956,-9178.553681,-1838.629195
310.694224,2960.823768,-9844.739029,-1455.581446
310.694546,3034.844362,-10214.842000,-1225.752797
310.694868,3552.988522,-10881.027347,-2068.457845
310.695191,4737.318029,-11103.089130,-2145.067394
310.695513,5699.585753,-10955.047942,-1532.190996
310.695836,6291.750507,-10362.883188,-536.266849
310.696158,6439.791695,-9474.636058,-306.438199
310.696480,6365.771101,-8586.388927,-919.314598
310.696803,6069.688724,-7920.203579,-1455.581446
310.697125,5107.421000,-7550.100608,-1915.238745
310.697448,2738.761985,-7920.203579,-1455.581446
310.697770,1184.329507,-8734.430116,-1838.629195
310.698092,-740.205942,-8956.491898,-1838.629195
310.698415,-1480.411884,-9918.759623,-1915.238745
310.698737,-1850.514855,-10214.842000,-2145.067394
310.699060,-1554.432478,-9696.697840,-2451.505594
310.699382,-518.144159,-9178.553681,-2298.286494
310.699705,0.000000,-8808.450710,-1838.629195
310.700027,-222.061783,-9252.574275,-842.705048
310.700349,-1998.556043,-8586.388927,-383.047749
310.700672,-3701.029710,-8364.327145,-919.314598
310.700994,-4293.194464,-8586.388927,-2451.505594
310.701317,-4293.194464,-9474.636058,-3907.087040
310.701639,-4441.235652,-10066.800811,-2911.162892
310.701961,-4293.194464,-9622.677246,-1302.362347
310.702284,-3627.009116,-8808.450710,-1225.752797
310.702606,-2738.761985,-9252.574275,-1915.238745
310.702929,-2664.741391,-10362.883188,-2451.505594
310.703251,-3478.967927,-11177.109724,-2451.505594
310.703573,-3997.112087,-11251.130318,-2451.505594
310.703896,-3701.029710,-11473.192101,-2374.896044
310.704218,-2442.679609,-11399.171507,-1685.410096
310.704541,-888.247130,-10214.842000,76.609550
310.704863,-148.041188,-9474.636058,0.000000
310.705186,-222.061783,-8364.327145,306.438199
310.705508,-148.041188,-7698.141797,153.219100
310.705830,-148.041188,-7550.100608,-459.657299
310.706153,-1036.288319,-7624.121203,-766.095498
310.706475,-2590.720797,-8068.244768,-459.657299
310.706798,-3997.112087,-8734.430116,-919.314598
310.707120,-4663.297435,-9326.594869,-1378.971896
310.707442,-4663.297435,-9844.739029,-1838.629195
310.707765,-4293.194464,-9622.677246,-2451.505594
310.708087,-3404.947333,-9252.574275,-2757.943793
310.708410,-2886.803174,-9252.574275,-2145.067394
310.708732,-1924.535449,-9622.677246,-1915.238745
310.709054,-1554.432478,-8882.471304,-1608.800546
310.709377,-2146.597232,-8586.388927,-1838.629195
310.709699,-1924.535449,-8438.347739,-1762.019645
310.710022,-1628.453072,-8216.285956,-2374.896044
310.710344,-1110.308913,-8364.327145,-2604.724693
310.710667,-222.061783,-9178.553681,-1838.629195
310.710989,740.205942,-9252.574275,-1072.533697
310.711311,1924.535449,-9252.574275,-1149.143247
310.711634,2442.679609,-9252.574275,-1762.019645
310.711956,3256.906145,-9844.739029,-2374.896044
310.712279,3404.947333,-10807.006753,-2221.676944
310.712601,3478.967927,-11251.130318,-2068.457845
310.712923,3627.009116,-11251.130318,-1762.019645
310.713246,4293.194464,-10584.944971,-1225.752797
310.713568,5329.482782,-10288.862594,-689.485948
310.713891,6291.750507,-10436.903782,-995.924147
310.714213,6587.832884,-9770.718434,-919.314598
310.714535,6365.771101,-9030.512492,0.000000
310.714858,6217.729913,-7846.182985,76.609550
310.715180,5847.626942,-7031.956449,-306.438199
310.715503,4293.194464,-7698.141797,-1225.752797
310.715825,2294.638420,-8142.265362,-1072.533697
310.716148,148.041188,-8956.491898,-1608.800546
310.716470,-1110.308913,-9770.718434,-1608.800546
310.716792,-1628.453072,-10066.800811,-1685.410096
310.717115,-1776.494261,-10362.883188,-2681.334243
310.717437,-1554.432478,-9918.759623,-2451.505594
310.717760,-592.164754,-9474.636058,-1685.410096
310.718082,222.061783,-9252.574275,-1532.190996
310.718404,74.020594,-9030.512492,-1378.971896
310.718727,-1776.494261,-7920.203579,-1072.533697
310.719049,-3849.070898,-8216.285956,-1149.143247
310.719372,-4959.379811,-8586.388927,-2374.896044
310.719694,-5033.400406,-9400.615463,-3830.477490
310.720016,-4811.338623,-9474.636058,-3524.039291
310.720339,-4737.318029,-8586.388927,-1838.629195
310.720661,-3701.029710,-8808.450710,-1072.533697
310.720984,-2590.720797,-9548.656652,-1838.629195
310.721306,-2812.782580,-10362.883188,-2145.067394
310.721629,-3182.885551,-11399.171507,-2451.505594
310.721951,-2960.823768,-10955.047942,-2757.943793
310.722273,-2294.638420,-10362.883188,-2757.943793
310.722596,-1184.329507,-10658.965565,-1532.190996
310.722918,-444.123565,-10066.800811,-153.219100
310.723241,-148.041188,-9326.594869,459.657299
310.723563,-74.020594,-8734.430116,0.000000
310.723885,74.020594,-7994.224174,-1149.143247
310.724208,-518.144159,-8068.244768,-1838.629195
310.724530,-1332.370696,-8660.409521,-766.095498
310.724853,-2738.761985,-9104.533087,-383.047749
310.725175,-3923.091493,-9400.615463,-919.314598
310.725497,-4441.235652,-9696.697840,-1838.629195
310.725820,-4145.153275,-9622.677246,-2451.505594
310.726142,-3923.091493,-9178.553681,-3064.381992
310.726465,-2886.803174,-9178.553681,-3064.381992
310.726787,-1850.514855,-9474.636058,-1991.848295
310.727110,-888.247130,-9548.656652,-1072.533697
310.727432,-1110.308913,-8808.450710,-1455.581446
310.727750,-1628.453072,-8734.430116,-1532.190996
310.728073,-1924.535449,-8438.347739,-2374.896044
310.728395,-1480.411884,-8586.388927,-2681.334243
310.728718,-740.205942,-8882.471304,-2221.676944
310.729040,0.000000,-9178.553681,-1608.800546
310.729363,814.226536,-8734.430116,-1072.533697
310.729685,1702.473667,-9030.512492,-1455.581446
310.730008,2442.679609,-9770.718434,-2145.067394
310.730330,2738.761985,-10658.965565,-2451.505594
310.730653,2516.700203,-11473.192101,-1991.848295
310.730975,2886.803174,-11473.192101,-1225.752797
310.731298,3478.967927,-11029.068536,-1072.533697
310.731620,4959.379811,-10140.821405,-995.924147
310.731943,6143.709319,-9548.656652,-766.095498
310.732265,6587.832884,-8956.491898,-76.609550
310.732588,6587.832884,-8660.409521,459.657299
310.732910,6513.812290,-8290.306550,689.485948
310.733233,5847.626942,-7846.182985,0.000000
310.733555,4367.215058,-7550.100608,-612.876398
310.733878,2442.679609,-7846.182985,-842.705048
310.734200,-222.061783,-7994.224174,-1225.752797
310.734523,-1184.329507,-8586.388927,-1838.629195
310.734845,-1850.514855,-9474.636058,-2145.067394
310.735168,-2072.576638,-9770.718434,-2145.067394
310.735490,-1776.494261,-9918.759623,-2451.505594
310.735813,-1110.308913,-9844.739029,-2374.896044
310.736135,0.000000,-10140.821405,-2221.676944
310.736458,0.000000,-9844.739029,-1302.362347
310.736780,-1850.514855,-8586.388927,-612.876398
310.737103,-3330.926739,-7772.162391,-919.314598
310.737425,-3923.091493,-7994.224174,-2374.896044
310.737748,-3849.070898,-8734.430116,-3294.210641
310.738070,-4145.153275,-9326.594869,-3064.381992
310.738393,-4145.153275,-9326.594869,-1762.019645
310.738715,-3849.070898,-8882.471304,-1378.971896
310.739038,-2886.803174,-9696.697840,-1915.238745
310.739360,-2590.720797,-10288.862594,-2451.505594
310.739683,-3404.947333,-10658.965565,-2604.724693
310.740005,-3404.947333,-10510.924376,-2911.162892
310.740328,-2738.761985,-10510.924376,-3217.601092
310.740650,-1406.391290,-11029.068536,-2604.724693
310.740973,-592.164754,-10658.965565,-1532.190996
310.741295,-296.082377,-9992.780217,0.000000
310.741618,148.041188,-9918.759623,0.000000
310.741941,962.267725,-9104.533087,-689.485948
310.742263,962.267725,-8586.388927,-1685.410096
310.742586,74.020594,-8142.265362,-1149.143247
310.742908,-1258.350101,-8290.306550,-306.438199
310.743231,-2960.823768,-8216.285956,-1072.533697
310.743553,-3775.050304,-9252.574275,-1455.581446
310.743876,-3997.112087,-9548.656652,-1838.629195
310.744198,-3627.009116,-9622.677246,-2604.724693
310.744521,-2590.720797,-9252.574275,-2604.724693
310.744843,-1036.288319,-9548.656652,-1991.848295
310.745166,-592.164754,-9622.677246,-1378.971896
310.745488,-740.205942,-9178.553681,-1149.143247
310.745811,-1258.350101,-8512.368333,-1685.410096
310.746133,-1924.535449,-7994.224174,-2451.505594
310.746456,-1702.473667,-8660.409521,-3447.429741
310.746778,-1628.453072,-9252.574275,-3217.601092
310.747101,-666.185348,-9474.636058,-2145.067394
310.747423,370.102971,-9178.553681,-1608.800546
310.747746,1480.411884,-9030.512492,-1532.190996
310.748068,2886.803174,-9400.615463,-1991.848295
310.748391,2664.741391,-10066.800811,-1991.848295
310.748713,2146.597232,-10881.027347,-1685.410096
310.749036,2294.638420,-10807.006753,-995.924147
310.749358,2664.741391,-10288.862594,-1149.143247
310.749681,4145.153275,-10066.800811,-1072.533697
310.750003,5255.462188,-9548.656652,0.000000
310.750326,6217.729913,-9326.594869,76.609550
310.750648,6365.771101,-8734.430116,766.095498
310.750971,5921.647536,-8364.327145,766.095498
310.751293,5551.544565,-7994.224174,-153.219100
310.751616,4441.235652,-7846.182985,-1608.800546
310.751938,2664.741391,-8808.450710,-1685.410096
310.752261,518.144159,-9252.574275,-1225.752797
310.752583,-666.185348,-9474.636058,-1532.190996
310.752906,-1184.329507,-10214.842000,-2298.286494
310.753228,-1406.391290,-10510.924376,-2221.676944
310.753551,-1628.453072,-10436.903782,-2221.676944
310.753873,-1628.453072,-10066.800811,-1455.581446
310.754196,-1554.432478,-9696.697840,-1302.362347
310.754518,-1850.514855,-9400.615463,-1225.752797
310.754841,-2590.720797,-8438.347739,-1225.752797
310.755163,-3849.070898,-7105.977043,-919.314598
310.755486,-4663.297435,-7105.977043,-1685.410096
310.755808,-4293.194464,-8068.244768,-2451.505594
310.756131,-4145.153275,-9178.553681,-1991.848295
310.756453,-3923.091493,-9104.533087,-1455.581446
310.756776,-3627.009116,-9252.574275,-1149.143247
310.757098,-2664.741391,-9622.677246,-1991.848295
310.757421,-2368.659014,-10436.903782,-2834.553343
310.757743,-2590.720797,-10955.047942,-3064.381992
310.758066,-2960.823768,-10955.047942,-2604.724693
310.758388,-2442.679609,-11177.109724,-2757.943793
310.758711,-666.185348,-11399.171507,-2451.505594
310.759033,0.000000,-10955.047942,-1455.581446
310.759356,518.144159,-10066.800811,-306.438199
310.759678,592.164754,-9400.615463,459.657299
310.760001,592.164754,-8142.265362,842.705048
310.760323,518.144159,-7254.018232,153.219100
310.760646,-740.205942,-6661.853478,-459.657299
310.760968,-1850.514855,-7105.977043,-612.876398
310.761291,-3034.844362,-7476.080014,-1225.752797
310.761613,-4145.153275,-8290.306550,-1225.752797
310.761936,-4219.173869,-9622.677246,-1762.019645
310.762258,-4145.153275,-9992.780217,-2298.286494
310.762581,-3108.864956,-9992.780217,-3064.381992
310.762904,-2220.617826,-10066.800811,-3294.210641
310.763226,-1258.350101,-10214.842000,-2834.553343
310.763549,-962.267725,-10066.800811,-2451.505594
310.763871,-1036.288319,-9104.533087,-1915.238745
310.764194,-1554.432478,-8956.491898,-2374.896044
310.764516,-1480.411884,-8956.491898,-2987.772442
310.764839,-1110.308913,-9400.615463,-3447.429741
310.765161,-370.102971,-9326.594869,-2757.943793
310.765484,740.205942,-9252.574275,-1225.752797
310.765806,1628.453072,-9030.512492,-1225.752797
310.766129,2294.638420,-8734.430116,-1225.752797
310.766451,2072.576638,-9030.512492,-1685.410096
310.766774,1776.494261,-10140.821405,-1915.238745
310.767096,1702.473667,-10436.903782,-1685.410096
310.767419,2442.679609,-10510.924376,-2145.067394
310.767741,3552.988522,-10510.924376,-2145.067394
310.768064,5181.441594,-10584.944971,-1608.800546
310.768386,6291.750507,-10288.862594,-612.876398
310.768709,6957.935855,-9696.697840,-612.876398
310.769031,6291.750507,-9104.533087,0.000000
310.769354,6143.709319,-8956.491898,-919.314598
310.769676,5033.400406,-8808.450710,-1762.019645
310.769999,3034.844362,-9030.512492,-1455.581446
310.770321,1110.308913,-9326.594869,-1072.533697
310.770644,-518.144159,-9770.718434,-536.266849
310.770966,-1184.329507,-9474.636058,-1455.581446
310.771289,-1702.473667,-9622.677246,-1915.238745
310.771611,-2294.638420,-9474.636058,-1532.190996
310.771934,-2368.659014,-9326.594869,-1149.143247
310.772256,-1628.453072,-9030.512492,-1225.752797
310.772579,-1480.411884,-9326.594869,-919.314598
310.772901,-2146.597232,-8512.368333,-229.828649
310.773224,-3330.926739,-7772.162391,0.000000
310.773546,-4145.153275,-7254.018232,-612.876398
310.773869,-4145.153275,-8734.430116,-1685.410096
310.774191,-3701.029710,-9178.553681,-1149.143247
310.774514,-3923.091493,-9252.574275,-995.924147
310.774836,-3701.029710,-9030.512492,-919.314598
310.775159,-2664.741391,-9400.615463,-1608.800546
310.775481,-1998.556043,-10066.800811,-1915.238745
310.775804,-1628.453072,-10436.903782,-2221.676944
310.776126,-2442.679609,-11103.089130,-1762.019645
310.776449,-2294.638420,-11251.130318,-1378.971896
310.776771,-1258.350101,-11325.150913,-1532.190996
310.777094,0.000000,-10955.047942,-1378.971896
310.777416,740.205942,-9622.677246,-153.219100
310.777739,962.267725,-8734.430116,1072.533697
310.778061,814.226536,-7920.203579,383.047749
310.778384,666.185348,-7254.018232,229.828649
310.778706,0.000000,-7179.997637,-459.657299
310.779029,-1628.453072,-7772.162391,-1072.533697
310.779351,-3034.844362,-7846.182985,-842.705048
310.779674,-4589.276840,-8808.450710,-1685.410096
310.779996,-5033.400406,-9696.697840,-2068.457845
310.780319,-4737.318029,-10066.800811,-2834.553343
310.780641,-4219.173869,-9918.759623,-3600.648841
310.780964,-3108.864956,-9770.718434,-3524.039291
310.781286,-1702.473667,-9844.739029,-3294.210641
310.781609,-666.185348,-10066.800811,-2681.334243
310.781931,0.000000,-9992.780217,-2604.724693
310.782254,-222.061783,-9474.636058,-2145.067394
310.782576,-592.164754,-9252.574275,-2068.457845
310.782899,-148.041188,-8956.491898,-2757.943793
310.783221,0.000000,-8808.450710,-2757.943793
310.783544,740.205942,-8364.327145,-2374.896044
310.783867,1036.288319,-8068.244768,-1838.629195
310.784189,1480.411884,-8364.327145,-1685.410096
310.784512,1406.391290,-9178.553681,-2604.724693
310.784834,888.247130,-9992.780217,-2374.896044
310.785157,1036.288319,-11029.068536,-2451.505594
310.785479,1628.453072,-11251.130318,-2604.724693
310.785802,2664.741391,-10807.006753,-2451.505594
310.786124,4145.153275,-10510.924376,-1225.752797
310.786447,5255.462188,-9770.718434,-383.047749
310.786769,5847.626942,-9696.697840,-153.219100
310.787092,5625.565159,-8808.450710,-459.657299
310.787414,5255.462188,-8216.285956,-995.924147
310.787737,4589.276840,-8438.347739,-1608.800546
310.788059,3923.091493,-8364.327145,-1225.752797
310.788382,2368.659014,-8734.430116,-995.924147
310.788704,1184.329507,-9326.594869,-995.924147
310.789027,222.061783,-9622.677246,-1149.143247
310.789349,-370.102971,-9696.697840,-1455.581446
310.789672,-1036.288319,-9326.594869,-2145.067394
310.789994,-1628.453072,-9770.718434,-2068.457845
310.790317,-1184.329507,-9918.759623,-1915.238745
310.790639,-296.082377,-9696.697840,-1915.238745
310.790962,-814.226536,-9326.594869,-995.924147
310.791284,-1776.494261,-8586.388927,-383.047749
310.791607,-3701.029710,-7772.162391,-306.438199
310.791929,-4737.318029,-7994.224174,-1838.629195
310.792252,-5107.421000,-8808.450710,-2757.943793
310.792574,-5255.462188,-9400.615463,-2757.943793
310.792897,-5699.585753,-8956.491898,-2298.286494
310.793219,-4737.318029,-8882.471304,-1532.190996
310.793542,-3627.009116,-9252.574275,-1685.410096
310.793864,-2516.700203,-10807.006753,-2221.676944
310.794187,-2368.659014,-11103.089130,-1991.848295
310.794509,-2516.700203,-10881.027347,-1838.629195
310.794832,-1332.370696,-11103.089130,-2298.286494
310.795154,-222.061783,-10584.944971,-1225.752797
310.795477,814.226536,-10214.842000,-536.266849
310.795799,888.247130,-9252.574275,229.828649
310.796122,814.226536,-8364.327145,1072.533697
310.796444,740.205942,-7698.141797,612.876398
310.796767,296.082377,-7624.121203,0.000000
310.797089,-740.205942,-7698.141797,-766.095498
310.797412,-2368.659014,-8068.244768,-229.828649
310.797734,-3478.967927,-9030.512492,-612.876398
310.798057,-4071.132681,-9548.656652,-1225.752797
310.798379,-3997.112087,-9696.697840,-1838.629195
310.798702,-2886.803174,-9696.697840,-2374.896044
310.799024,-2072.576638,-9326.594869,-2757.943793
310.799347,-962.267725,-9474.636058,-2528.115143
310.799669,0.000000,-10066.800811,-1915.238745
310.799992,370.102971,-9622.677246,-1378.971896
310.800314,74.020594,-9622.677246,-995.924147
310.800637,-888.247130,-9252.574275,-1225.752797
310.800959,-1258.350101,-8956.491898,-2221.676944
310.801282,-1480.411884,-8586.388927,-2757.943793
310.801604,-740.205942,-8142.265362,-2451.505594
310.801927,222.061783,-8364.327145,-1762.019645
310.802249,1036.288319,-7624.121203,-1685.410096
310.802572,1110.308913,-8438.347739,-2068.457845
310.802894,962.267725,-9844.739029,-1991.848295
310.803217,592.164754,-11103.089130,-2528.115143
310.803539,518.144159,-11695.253884,-2987.772442
310.803862,1184.329507,-11769.274478,-3294.210641
310.804184,2442.679609,-10732.986159,-2757.943793
310.804507,4589.276840,-10436.903782,-2145.067394
310.804829,5847.626942,-10066.800811,-1378.971896
310.805152,6069.688724,-9030.512492,-306.438199
310.805475,5847.626942,-8512.368333,-153.219100
310.805797,5255.462188,-8364.327145,-689.485948
310.806120,4367.215058,-8660.409521,-1302.362347
310.806442,2738.761985,-8882.471304,-1455.581446
310.806765,1480.411884,-8660.409521,-842.705048
310.807087,592.164754,-8734.430116,-1225.752797
310.807410,74.020594,-8956.491898,-1608.800546
310.807732,-740.205942,-9326.594869,-1762.019645
310.808055,-1184.329507,-10066.800811,-1532.190996
310.808377,-1702.473667,-10288.862594,-1762.019645
310.808700,-1554.432478,-10066.800811,-1532.190996
310.809022,-1036.288319,-9622.677246,-1991.848295
310.809345,-1554.432478,-9474.636058,-1532.190996
310.809667,-2220.617826,-9178.553681,-995.924147
310.809990,-3478.967927,-8586.388927,-1302.362347
310.810312,-4663.297435,-8364.327145,-1915.238745
310.810635,-5403.503377,-9252.574275,-2298.286494
310.810957,-5699.585753,-9030.512492,-2757.943793
310.811280,-5921.647536,-8586.388927,-3600.648841
310.811602,-5699.585753,-8882.471304,-2911.162892
310.811925,-4367.215058,-9548.656652,-1991.848295
310.812247,-3478.967927,-9844.739029,-1991.848295
310.812570,-3330.926739,-9992.780217,-1991.848295
310.812892,-2664.741391,-10732.986159,-1762.019645
310.813215,-1036.288319,-10807.006753,-1915.238745
310.813537,962.267725,-10584.944971,-1532.190996
310.813860,1776.494261,-9474.636058,0.000000
310.814182,1924.535449,-8216.285956,1149.143247
310.814505,1776.494261,-7920.203579,995.924147
310.814827,1480.411884,-7846.182985,459.657299
310.815150,666.185348,-7772.162391,-153.219100
310.815472,-740.205942,-7920.203579,-612.876398
310.815795,-1776.494261,-8290.306550,0.000000
310.816117,-1702.473667,-9474.636058,-689.485948
310.816440,-2294.638420,-10214.842000,-612.876398
310.816762,-2590.720797,-10214.842000,-995.924147
310.817085,-2738.761985,-9696.697840,-1608.800546
310.817407,-2146.597232,-8956.491898,-2451.505594
310.817730,-1110.308913,-9178.553681,-2911.162892
310.818052,-962.267725,-9622.677246,-2374.896044
310.818375,-1110.308913,-9770.718434,-1302.362347
310.818697,-1406.391290,-9696.697840,-842.705048
310.819020,-1554.432478,-9474.636058,-1302.362347
310.819342,-1628.453072,-9252.574275,-2221.676944
310.819665,-1332.370696,-8660.409521,-2604.724693
310.819987,-444.123565,-7698.141797,-2834.553343
310.820310,518.144159,-7254.018232,-2604.724693
310.820632,1406.391290,-7698.141797,-2451.505594
310.820955,1628.453072,-8734.430116,-1225.752797
310.821277,1850.514855,-10362.883188,-1838.629195
310.821600,1332.370696,-11843.295072,-2298.286494
310.821922,2220.617826,-12139.377449,-2757.943793
310.822245,3182.885551,-11991.336260,-2528.115143
310.822567,4441.235652,-11029.068536,-1455.581446
310.822890,6069.688724,-9474.636058,0.000000
310.823212,6513.812290,-8438.347739,459.657299
310.823535,6365.771101,-7698.141797,153.219100
310.823857,5625.565159,-7698.141797,-766.095498
310.824180,4219.173869,-8438.347739,-1225.752797
310.824502,2960.823768,-9252.574275,-1991.848295
310.824825,1554.432478,-9252.574275,-1225.752797
310.825147,740.205942,-9400.615463,-1532.190996
310.825470,444.123565,-9474.636058,-1762.019645
310.825792,-222.061783,-9548.656652,-1608.800546
310.826115,-962.267725,-9992.780217,-1685.410096
310.826438,-1998.556043,-9622.677246,-2068.457845
310.826760,-2368.659014,-10066.800811,-3064.381992
310.827083,-1702.473667,-10288.862594,-3217.601092
310.827405,-1628.453072,-10288.862594,-2451.505594
310.827728,-2072.576638,-9770.718434,-1225.752797
310.828050,-2960.823768,-8142.265362,-842.705048
310.828373,-3849.070898,-7994.224174,-1608.800546
310.828695,-4441.235652,-7994.224174,-2298.286494
310.829018,-4737.318029,-8142.265362,-2757.943793
310.829340,-5107.421000,-8068.244768,-2987.772442
310.829663,-4737.318029,-8512.368333,-2757.943793
310.829985,-3701.029710,-9252.574275,-2068.457845
310.830308,-3034.844362,-10584.944971,-1838.629195
310.830630,-3034.844362,-11029.068536,-1762.019645
310.830953,-2960.823768,-11251.130318,-2145.067394
310.831275,-2442.679609,-11547.212695,-2451.505594
310.831597,-1110.308913,-11325.150913,-2451.505594
310.831920,0.000000,-10362.883188,-1685.410096
310.832242,296.082377,-9326.594869,-766.095498
310.832565,518.144159,-8364.327145,153.219100
310.832887,518.144159,-7846.182985,-459.657299
310.833209,222.061783,-7476.080014,-306.438199
310.833532,-888.247130,-8364.327145,-459.657299
310.833854,-1850.514855,-8586.388927,-306.438199
310.834177,-2590.720797,-8956.491898,-459.657299
310.834499,-3108.864956,-9548.656652,-842.705048
310.834821,-2738.761985,-9844.739029,-919.314598
310.835144,-2886.803174,-9104.533087,-766.095498
310.835466,-2516.700203,-8586.388927,-1915.238745
310.835789,-2146.597232,-8586.388927,-2374.896044
310.836111,-1702.473667,-8734.430116,-2221.676944
310.836433,-1628.453072,-9326.594869,-1455.581446
310.836756,-2590.720797,-9030.512492,-1149.143247
310.837078,-2294.638420,-9252.574275,-1455.581446
310.837401,-1850.514855,-8956.491898,-2451.505594
310.837723,-814.226536,-8660.409521,-2451.505594
310.838045,0.000000,-8290.306550,-2451.505594
310.838368,1480.411884,-7994.224174,-1915.238745
310.838690,2368.659014,-8438.347739,-2068.457845
310.839013,2960.823768,-9178.553681,-1762.019645
310.839335,3182.885551,-10510.924376,-1225.752797
310.839657,2886.803174,-11399.171507,-1072.533697
310.839980,2664.741391,-11399.171507,-2221.676944
310.840302,3627.009116,-11991.336260,-1838.629195
310.840625,4145.153275,-10807.006753,-842.705048
310.840947,5033.400406,-9622.677246,-229.828649
310.841269,5699.585753,-8586.388927,0.000000
310.841592,5847.626942,-7698.141797,-153.219100
310.841914,5551.544565,-7624.121203,-842.705048
310.842237,4885.359217,-8216.285956,-1225.752797
310.842559,3404.947333,-9030.512492,-1685.410096
310.842881,2072.576638,-9696.697840,-1532.190996
310.843204,962.267725,-10140.821405,-2068.457845
310.843526,296.082377,-10214.842000,-1991.848295
310.843849,0.000000,-10807.006753,-2221.676944
310.844171,-1184.329507,-10510.924376,-2068.457845
310.844493,-1406.391290,-10214.842000,-2068.457845
310.844816,-1332.370696,-9770.718434,-2451.505594
310.845138,-1110.308913,-9474.636058,-2374.896044
310.845461,-1184.329507,-9104.533087,-2221.676944
310.845783,-2738.761985,-8660.409521,-689.485948
310.846105,-4145.153275,-8068.244768,-612.876398
310.846428,-4737.318029,-7846.182985,-1225.752797
310.846750,-4959.379811,-7994.224174,-2145.067394
310.847073,-4515.256246,-8364.327145,-2757.943793
310.847395,-4219.173869,-8142.265362,-2221.676944
310.847717,-3330.926739,-8438.347739,-2145.067394
310.848040,-2590.720797,-9030.512492,-2604.724693
310.848362,-2146.597232,-10066.800811,-2451.505594
310.848685,-2442.679609,-11103.089130,-2298.286494
310.849007,-2368.659014,-11621.233289,-2068.457845
310.849329,-2442.679609,-12287.418637,-2834.553343
310.849652,-1480.411884,-12139.377449,-2757.943793
310.849974,-444.123565,-11695.253884,-1378.971896
310.850297,0.000000,-10214.842000,-153.219100
310.850619,222.061783,-8068.244768,229.828649
310.850941,444.123565,-7254.018232,0.000000
310.851264,222.061783,-7105.977043,-306.438199
310.851586,-814.226536,-7328.038826,-459.657299
310.851909,-2590.720797,-7476.080014,-306.438199
310.852231,-3849.070898,-8364.327145,-1225.752797
310.852554,-4441.235652,-9474.636058,-1378.971896
310.852876,-4367.215058,-10214.842000,-1915.238745
310.853198,-4293.194464,-10362.883188,-2145.067394
310.853521,-3404.947333,-10066.800811,-1991.848295
310.853843,-2294.638420,-9400.615463,-2681.334243
310.854166,-1110.308913,-9548.656652,-2451.505594
310.854488,-592.164754,-9474.636058,-2528.115143
310.854810,-962.267725,-9104.533087,-1991.848295
310.855133,-962.267725,-9252.574275,-1762.019645
310.855455,-888.247130,-9252.574275,-1915.238745
310.855778,-370.102971,-9104.533087,-1915.238745
310.856100,370.102971,-8808.450710,-2068.457845
310.856422,1628.453072,-8142.265362,-1302.362347
310.856745,2738.761985,-7920.203579,-1378.971896
310.857067,3478.967927,-7846.182985,-1532.190996
310.857390,3330.926739,-8660.409521,-1532.190996
310.857712,2812.782580,-9252.574275,-689.485948
310.858034,1998.556043,-10658.965565,-1225.752797
310.858357,2072.576638,-11473.192101,-1915.238745
310.858679,2664.741391,-11547.212695,-2068.457845
310.859002,3849.070898,-11177.109724,-1378.971896
310.859324,5329.482782,-9696.697840,-306.438199
310.859646,6143.709319,-9474.636058,0.000000
310.859969,6365.771101,-8734.430116,-383.047749
310.860291,5921.647536,-8216.285956,-995.924147
310.860614,4737.318029,-8216.285956,-1532.190996
310.860936,3108.864956,-8734.430116,-1149.143247
310.861258,1184.329507,-9474.636058,-1608.800546
310.861581,-592.164754,-9548.656652,-1532.190996
310.861903,-1554.432478,-9992.780217,-1455.581446
310.862226,-2146.597232,-10066.800811,-1455.581446
310.862548,-2442.679609,-9400.615463,-1455.581446
310.862870,-1924.535449,-9252.574275,-1378.971896
310.863193,-1924.535449,-8586.388927,-1991.848295
310.863515,-1924.535449,-8364.327145,-1608.800546
310.863838,-2368.659014,-8216.285956,-995.924147
310.864160,-3478.967927,-8068.244768,-459.657299
310.864482,-4219.173869,-7920.203579,-1149.143247
310.864805,-4441.235652,-8290.306550,-2221.676944
310.865127,-3849.070898,-9474.636058,-2911.162892
310.865450,-3108.864956,-9770.718434,-1838.629195
310.865772,-2442.679609,-8956.491898,-1532.190996
310.866094,-1258.350101,-8808.450710,-2145.067394
310.866417,-814.226536,-9474.636058,-2451.505594
310.866739,-962.267725,-10955.047942,-2221.676944
310.867062,-1554.432478,-11843.295072,-2298.286494
310.867384,-1998.556043,-12213.398043,-2298.286494
310.867706,-1924.535449,-12361.439231,-1991.848295
310.868029,-296.082377,-11769.274478,-1378.971896
310.868351,148.041188,-10214.842000,-153.219100
310.868674,444.123565,-9030.512492,383.047749
310.868996,222.061783,-7772.162391,153.219100
310.869318,-518.144159,-6883.915261,-306.438199
310.869641,-1702.473667,-7254.018232,-1532.190996
310.869963,-3256.906145,-7550.100608,-1149.143247
310.870286,-4737.318029,-8512.368333,-1532.190996
310.870608,-5329.482782,-9474.636058,-2374.896044
310.870930,-5107.421000,-10214.842000,-2604.724693
310.871253,-4293.194464,-10732.986159,-2451.505594
310.871575,-4145.153275,-10140.821405,-2451.505594
310.871898,-3182.885551,-9770.718434,-2911.162892
310.872220,-1924.535449,-9918.759623,-3217.601092
310.872542,-888.247130,-9696.697840,-3217.601092
310.872865,-444.123565,-9474.636058,-2757.943793
310.873187,0.000000,-8808.450710,-1991.848295
310.873510,296.082377,-8734.430116,-1455.581446
310.873832,740.205942,-8586.388927,-1378.971896
310.874155,1332.370696,-8216.285956,-1225.752797
310.874477,2294.638420,-7994.224174,-995.924147
310.874799,3256.906145,-7031.956449,-766.095498
310.875122,3997.112087,-6957.935855,-1378.971896
310.875444,3997.112087,-7624.121203,-1378.971896
310.875767,3404.947333,-9030.512492,-919.314598
310.876089,2368.659014,-10362.883188,-766.095498
310.876411,1702.473667,-11103.089130,-1762.019645
310.876734,2442.679609,-11917.315666,-2681.334243
310.877056,3256.906145,-12139.377449,-2757.943793
310.877379,4441.235652,-11473.192101,-1685.410096
310.877701,5255.462188,-10362.883188,-459.657299
310.878023,5551.544565,-9326.594869,-229.828649
310.878346,5329.482782,-7994.224174,-1685.410096
310.878668,4515.256246,-8142.265362,-1915.238745
310.878991,2590.720797,-8364.327145,-2068.457845
310.879313,-222.061783,-8956.491898,-1608.800546
310.879635,-2220.617826,-9474.636058,-1838.629195
310.879958,-3108.864956,-9918.759623,-1991.848295
310.880280,-3034.844362,-10214.842000,-1915.238745
310.880603,-3256.906145,-10140.821405,-1302.362347
310.880925,-2960.823768,-9326.594869,-1149.143247
310.881247,-2368.659014,-8438.347739,-1685.410096
310.881570,-1702.473667,-7994.224174,-1915.238745
310.881892,-1776.494261,-7846.182985,-2145.067394
310.882215,-2664.741391,-8142.265362,-919.314598
310.882537,-3701.029710,-8290.306550,-766.095498
310.882859,-3701.029710,-9252.574275,-1762.019645
310.883182,-3182.885551,-9770.718434,-2221.676944
310.883504,-2294.638420,-9474.636058,-1915.238745
310.883827,-1406.391290,-9474.636058,-1532.190996
310.884149,-296.082377,-8956.491898,-1915.238745
310.884471,222.061783,-9030.512492,-1915.238745
310.884794,0.000000,-9918.759623,-1915.238745
310.885116,-444.123565,-11251.130318,-995.924147
310.885439,-2146.597232,-11399.171507,-383.047749
310.885761,-2220.617826,-12213.398043,-1991.848295
310.886083,-1776.494261,-11991.336260,-1838.629195
310.886406,-1036.288319,-10881.027347,-306.438199
310.886728,-592.164754,-8956.491898,306.438199
310.887051,0.000000,-7624.121203,229.828649
310.887373,0.000000,-6809.894666,-229.828649
310.887695,-592.164754,-7031.956449,-536.266849
310.888018,-2146.597232,-7846.182985,-995.924147
310.888340,-3923.091493,-8882.471304,-1608.800546
310.888663,-4737.318029,-9992.780217,-2604.724693
310.888985,-4737.318029,-10807.006753,-2528.115143
310.889307,-4441.235652,-11399.171507,-2604.724693
310.889630,-3997.112087,-11103.089130,-1991.848295
310.889952,-2812.782580,-10140.821405,-2068.457845
310.890275,-1332.370696,-9252.574275,-2757.943793
310.890597,222.061783,-8586.388927,-2911.162892
310.890919,814.226536,-8882.471304,-2374.896044
310.891242,296.082377,-8660.409521,-995.924147
310.891564,74.020594,-8660.409521,0.000000
310.891887,370.102971,-8808.450710,0.000000
310.892209,518.144159,-8216.285956,-689.485948
310.892531,1554.432478,-7920.203579,-1302.362347
310.892854,2516.700203,-7254.018232,-995.924147
310.893176,3849.070898,-6883.915261,-1378.971896
310.893499,4589.276840,-7105.977043,-2221.676944
310.893821,4293.194464,-8216.285956,-2451.505594
310.894143,2368.659014,-10140.821405,-2298.286494
310.894466,1184.329507,-12361.439231,-2451.505594
310.894788,740.205942,-13767.830521,-3064.381992
310.895111,1036.288319,-13767.830521,-3753.867940
310.895433,1998.556043,-13175.665768,-2681.334243
310.895756,3182.885551,-11399.171507,-842.705048
310.896078,4071.132681,-9474.636058,-229.828649
310.896400,4219.173869,-7624.121203,-766.095498
310.896723,3923.091493,-6957.935855,-1608.800546
310.897045,2590.720797,-6735.874072,-1532.190996
310.897368,888.247130,-7698.141797,-1378.971896
310.897690,0.000000,-9030.512492,-1608.800546
310.898012,-1702.473667,-9400.615463,-1455.581446
310.898335,-1924.535449,-9918.759623,-1302.362347
310.898657,-1850.514855,-10066.800811,-1149.143247
310.898980,-1850.514855,-9770.718434,-689.485948
310.899302,-1332.370696,-9400.615463,-1225.752797
310.899624,-666.185348,-8734.430116,-2221.676944
310.899947,-518.144159,-8364.327145,-1991.848295
310.900269,-1406.391290,-8364.327145,-1225.752797
310.900592,-2960.823768,-8142.265362,-995.924147
310.900914,-3330.926739,-8438.347739,-1455.581446
310.901236,-3404.947333,-9474.636058,-2068.457845
310.901559,-3034.844362,-9474.636058,-2068.457845
310.901881,-2812.782580,-9400.615463,-1149.143247
310.902204,-2368.659014,-8956.491898,-995.924147
310.902526,-1332.370696,-7994.224174,-995.924147
310.902848,-1332.370696,-8216.285956,-1532.190996
310.903171,-1332.370696,-8882.471304,-1762.019645
310.903493,-1924.535449,-9918.759623,-1838.629195
310.903816,-2220.617826,-10955.047942,-1838.629195
310.904138,-2368.659014,-11843.295072,-1991.848295
310.904460,-1776.494261,-11621.233289,-1455.581446
310.904783,-1406.391290,-11621.233289,-383.047749
310.905105,-888.247130,-9696.697840,-306.438199
310.905428,-444.123565,-8068.244768,-766.095498
310.905750,-370.102971,-7254.018232,-1455.581446
310.906072,-666.185348,-7476.080014,-689.485948
310.906395,-2294.638420,-7772.162391,-995.924147
310.906717,-3627.009116,-8882.471304,-1532.190996
310.907040,-4071.132681,-10066.800811,-2374.896044
310.907362,-3923.091493,-11177.109724,-2681.334243
310.907684,-3552.988522,-11843.295072,-2451.505594
310.908007,-2738.761985,-10658.965565,-1455.581446
310.908329,-1628.453072,-9844.739029,-1608.800546
310.908652,-296.082377,-8586.388927,-2298.286494
310.908974,370.102971,-8216.285956,-2604.724693
310.909296,296.082377,-8068.244768,-1915.238745
310.909619,-518.144159,-8142.265362,-1149.143247
310.909941,0.000000,-8882.471304,-995.924147
310.910264,148.041188,-9252.574275,-1762.019645
310.910586,1184.329507,-9400.615463,-1762.019645
310.910908,1998.556043,-8808.450710,-1608.800546
310.911231,3256.906145,-8216.285956,-1915.238745
310.911553,3775.050304,-7476.080014,-2221.676944
310.911876,3478.967927,-7920.203579,-2374.896044
310.912198,2442.679609,-9030.512492,-2451.505594
310.912520,1702.473667,-10955.047942,-2528.115143
310.912843,1702.473667,-12953.603985,-3140.991542
310.913165,1776.494261,-12953.603985,-2604.724693
310.913488,2368.659014,-12657.521608,-1838.629195
310.913810,3108.864956,-11473.192101,-536.266849
310.914132,4367.215058,-9548.656652,0.000000
310.914455,4811.338623,-7920.203579,-536.266849
310.914777,4663.297435,-6883.915261,-995.924147
310.915100,3997.112087,-7031.956449,-1378.971896
310.915422,2590.720797,-7698.141797,-1378.971896
310.915744,1332.370696,-8734.430116,-1072.533697
310.916067,0.000000,-9696.697840,-1225.752797
310.916389,-888.247130,-9918.759623,-995.924147
310.916712,-1554.432478,-10288.862594,-1378.971896
310.917034,-2368.659014,-10288.862594,-1608.800546
310.917357,-2442.679609,-9622.677246,-1838.629195
310.917679,-2738.761985,-8808.450710,-2068.457845
310.918001,-2442.679609,-8364.327145,-2221.676944
310.918324,-2368.659014,-7624.121203,-1991.848295
310.918646,-3108.864956,-8068.244768,-1532.190996
310.918969,-3404.947333,-8290.306550,-1532.190996
310.919291,-3182.885551,-8512.368333,-1838.629195
310.919613,-2368.659014,-9474.636058,-2068.457845
310.919936,-1628.453072,-9918.759623,-1532.190996
310.920258,-1998.556043,-8808.450710,-1532.190996
310.920581,-1332.370696,-9104.533087,-1378.971896
310.920903,-740.205942,-9178.553681,-1838.629195
310.921225,-592.164754,-9622.677246,-1378.971896
310.921548,-1480.411884,-9992.780217,-1225.752797
310.921870,-1776.494261,-10066.800811,-1225.752797
310.922193,-1628.453072,-11029.068536,-1532.190996
310.922515,-1702.473667,-11251.130318,-1225.752797
310.922837,-1406.391290,-11103.089130,-689.485948
310.923160,-1628.453072,-9992.780217,-459.657299
310.923482,-1406.391290,-8364.327145,-306.438199
310.923805,-1554.432478,-7550.100608,-612.876398
310.924127,-1702.473667,-7698.141797,-1149.143247
310.924449,-2220.617826,-7994.224174,-1225.752797
310.924772,-2960.823768,-8586.388927,-1608.800546
310.925094,-3404.947333,-9400.615463,-1838.629195
310.925417,-3849.070898,-10732.986159,-1762.019645
310.925739,-3923.091493,-11843.295072,-2528.115143
310.926061,-3997.112087,-11621.233289,-2221.676944
310.926384,-3108.864956,-10510.924376,-2221.676944
310.926706,-1628.453072,-9400.615463,-2221.676944
310.927029,0.000000,-8290.306550,-2221.676944
310.927351,444.123565,-7179.997637,-2068.457845
310.927673,592.164754,-7254.018232,-1072.533697
310.927996,740.205942,-7772.162391,-995.924147
310.928318,1036.288319,-8290.306550,-1455.581446
310.928641,1480.411884,-8586.388927,-2528.115143
310.928963,2072.576638,-8512.368333,-1378.971896
310.929285,3256.906145,-8660.409521,-1302.362347
310.929608,4145.153275,-8660.409521,-1991.848295
310.929930,4145.153275,-8956.491898,-2068.457845
310.930253,3849.070898,-9992.780217,-2298.286494
310.930575,3108.864956,-11177.109724,-2068.457845
310.930897,1924.535449,-11843.295072,-2451.505594
310.931220,1036.288319,-12361.439231,-2681.334243
310.931542,814.226536,-12879.583391,-2145.067394
310.931865,1258.350101,-12139.377449,-1455.581446
310.932187,2072.576638,-11029.068536,-842.705048
310.932510,2664.741391,-9474.636058,-995.924147
310.932832,2812.782580,-7994.224174,-842.705048
310.933154,3330.926739,-7105.977043,-1455.581446
310.933477,2960.823768,-7254.018232,-1149.143247
310.933799,1776.494261,-7698.141797,-612.876398
310.934122,444.123565,-8438.347739,-842.705048
310.934444,-814.226536,-9548.656652,-1302.362347
310.934767,-1850.514855,-10066.800811,-1608.800546
310.935089,-2368.659014,-10362.883188,-1685.410096
310.935411,-2516.700203,-9918.759623,-1455.581446
310.935734,-2146.597232,-8882.471304,-1608.800546
310.936056,-1628.453072,-8216.285956,-1685.410096
310.936379,-1850.514855,-7698.141797,-1302.362347
310.936701,-2294.638420,-7994.224174,-995.924147
310.937024,-3701.029710,-8216.285956,-306.438199
310.937346,-4293.194464,-8068.244768,-766.095498
310.937668,-3701.029710,-9030.512492,-1915.238745
310.937991,-3108.864956,-9104.533087,-1991.848295
310.938313,-2220.617826,-8512.368333,-1685.410096
310.938636,-1332.370696,-8364.327145,-1378.971896
310.938958,-814.226536,-8586.388927,-1302.362347
310.939281,-888.247130,-9178.553681,-1455.581446
310.939603,-1110.308913,-10288.862594,-2145.067394
310.939925,-1776.494261,-11251.130318,-2604.724693
310.940248,-2146.597232,-11843.295072,-2834.553343
310.940570,-2146.597232,-11991.336260,-2068.457845
310.940893,-1628.453072,-11547.212695,-383.047749
310.941215,-962.267725,-10510.924376,-153.219100
310.941538,-592.164754,-9178.553681,-153.219100
310.941860,-592.164754,-7846.182985,-612.876398
310.942182,-592.164754,-7254.018232,-995.924147
310.942505,-1554.432478,-6809.894666,-919.314598
310.942827,-2368.659014,-7698.141797,-766.095498
310.943150,-2738.761985,-9030.512492,-1149.143247
310.943472,-3108.864956,-9770.718434,-1915.238745
310.943795,-3182.885551,-10658.965565,-2145.067394
310.944117,-3182.885551,-11029.068536,-2221.676944
310.944439,-2664.741391,-10658.965565,-2604.724693
310.944762,-1480.411884,-9770.718434,-2757.943793
310.945084,0.000000,-9104.533087,-2757.943793
310.945407,740.205942,-8290.306550,-2528.115143
310.945729,666.185348,-7772.162391,-1915.238745
310.946052,888.247130,-7550.100608,-995.924147
310.946374,1110.308913,-8216.285956,-1608.800546
310.946696,1184.329507,-8808.450710,-1991.848295
310.947019,1628.453072,-8512.368333,-1991.848295
310.947341,2442.679609,-7994.224174,-1378.971896
