#time,accel_x,accel_y,accel_z
468.768181,-518.144159,-9548.656652,-1225.752797
468.768503,-814.226536,-9252.574275,-1378.971896
468.768824,-592.164754,-9474.636058,-1455.581446
468.769146,-592.164754,-9400.615463,-1455.581446
468.769468,-518.144159,-9400.615463,-1302.362347
468.769789,-370.102971,-9400.615463,-1532.190996
468.770111,-444.123565,-9474.636058,-1072.533697
468.770433,-592.164754,-9252.574275,-1455.581446
468.770754,-592.164754,-9178.553681,-1532.190996
468.771076,-370.102971,-9474.636058,-1302.362347
468.771398,-296.082377,-9252.574275,-1378.971896
468.771719,0.000000,-9548.656652,-1378.971896
468.772041,0.000000,-9474.636058,-919.314598
468.772363,-444.123565,-9252.574275,-1455.581446
468.772684,-444.123565,-9400.615463,-1532.190996
468.773006,-296.082377,-9474.636058,-1149.143247
468.773328,-222.061783,-9400.615463,-1302.362347
468.773649,-666.185348,-9252.574275,-919.314598
468.773971,0.000000,-9104.533087,-1532.190996
468.774293,-148.041188,-9104.533087,-1608.800546
468.774614,-148.041188,-9178.553681,-1532.190996
468.774936,-148.041188,-9252.574275,-1532.190996
468.775258,0.000000,-9252.574275,-1838.629195
468.775579,0.000000,-9474.636058,-1685.410096
468.775901,-296.082377,-9474.636058,-1378.971896
468.776223,-222.061783,-9474.636058,-1455.581446
468.776544,0.000000,-9252.574275,-1685.410096
468.776866,-148.041188,-9326.594869,-1455.581446
468.777188,222.061783,-9474.636058,-1915.238745
468.777509,-222.061783,-9178.553681,-1532.190996
468.777831,-296.082377,-9474.636058,-1532.190996
468.778153,-370.102971,-9474.636058,-1685.410096
468.778474,-370.102971,-9474.636058,-1455.581446
468.778796,0.000000,-9474.636058,-1915.238745
468.779118,-592.164754,-9178.553681,-1685.410096
468.779439,-518.144159,-9252.574275,-1685.410096
468.779761,-518.144159,-9474.636058,-1685.410096
468.780083,-296.082377,-9326.594869,-1915.238745
468.780404,-592.164754,-9178.553681,-1915.238745
468.780726,0.000000,-9400.615463,-1838.629195
468.781048,-518.144159,-9548.656652,-1838.629195
468.781369,-370.102971,-9548.656652,-1608.800546
468.781691,-444.123565,-9548.656652,-1838.629195
468.782013,-592.164754,-9326.594869,-1762.019645
468.782334,-666.185348,-9326.594869,-1685.410096
468.782656,-296.082377,-9622.677246,-1532.190996
468.782978,-666.185348,-9474.636058,-1532.190996
468.783299,-592.164754,-9474.636058,-1455.581446
468.783621,-666.185348,-9400.615463,-1455.581446
468.783943,-592.164754,-9400.615463,-1455.581446
468.784264,-592.164754,-9474.636058,-1532.190996
468.784586,-592.164754,-9326.594869,-1455.581446
468.784908,-592.164754,-9326.594869,-1532.190996
468.785229,-518.144159,-9326.594869,-1302.362347
468.785551,-592.164754,-9474.636058,-1762.019645
468.785873,-518.144159,-9474.636058,-2068.457845
468.786194,-518.144159,-9326.594869,-1378.971896
468.786516,-370.102971,-9252.574275,-1378.971896
468.786838,-444.123565,-9326.594869,-1225.752797
468.787159,-222.061783,-9104.533087,-1378.971896
468.787481,0.000000,-8734.430116,-842.705048
468.787802,962.267725,-9474.636058,-1149.143247
468.788124,1184.329507,-9918.759623,-1149.143247
468.788446,740.205942,-9548.656652,-459.657299
468.788767,518.144159,-9326.594869,-153.219100
468.789089,148.041188,-8808.450710,-612.876398
468.789411,0.000000,-9104.533087,-1072.533697
468.789732,-666.185348,-8956.491898,-1762.019645
468.790054,-962.267725,-8660.409521,-1608.800546
468.790376,-222.061783,-9030.512492,-1762.019645
468.790697,296.082377,-9992.780217,-1685.410096
468.791019,592.164754,-10362.883188,-842.705048
468.791341,-148.041188,-9622.677246,-536.266849
468.791662,518.144159,-9030.512492,-1685.410096
468.791984,1628.453072,-9622.677246,-1915.238745
468.792306,2072.576638,-10288.862594,-1762.019645
468.792627,1258.350101,-9474.636058,-919.314598
468.792949,1850.514855,-8364.327145,-536.266849
468.793271,3034.844362,-9400.615463,-1072.533697
468.793592,3627.009116,-9844.739029,-1149.143247
468.793914,2960.823768,-9178.553681,0.000000
468.794236,2368.659014,-8142.265362,0.000000
468.794557,2886.803174,-7920.203579,-919.314598
468.794879,3256.906145,-8956.491898,-1225.752797
468.795201,2886.803174,-9104.533087,-1149.143247
468.795522,2664.741391,-8512.368333,-1302.362347
468.795844,2960.823768,-8586.388927,-2298.286494
468.796166,3923.091493,-9770.718434,-2451.505594
468.796487,3849.070898,-10732.986159,-1455.581446
468.796809,3256.906145,-10288.862594,-1532.190996
468.797131,3552.988522,-9770.718434,-2068.457845
468.797452,4219.173869,-10510.924376,-2145.067394
468.797774,4885.359217,-9770.718434,-2374.896044
468.798096,4145.153275,-9252.574275,-1762.019645
468.798417,3775.050304,-9104.533087,-1378.971896
468.798739,3775.050304,-8882.471304,-1225.752797
468.799061,4367.215058,-8808.450710,-2068.457845
468.799382,4663.297435,-8956.491898,-2068.457845
468.799704,4737.318029,-9252.574275,-1455.581446
468.800026,5255.462188,-9400.615463,-1455.581446
468.800347,5847.626942,-9252.574275,-1608.800546
468.800669,6069.688724,-9252.574275,-1532.190996
468.800991,5033.400406,-9474.636058,-1532.190996
468.801312,3404.947333,-10066.800811,-2451.505594
468.801634,1554.432478,-10658.965565,-2604.724693
468.801956,222.061783,-12139.377449,-2145.067394
468.802277,-740.205942,-12805.562797,-1225.752797
468.802599,-1258.350101,-12657.521608,-459.657299
468.802921,-1036.288319,-12435.459826,766.095498
468.803242,-518.144159,-10732.986159,842.705048
468.803564,592.164754,-9622.677246,1072.533697
468.803886,888.247130,-8216.285956,1608.800546
468.804207,296.082377,-6809.894666,1378.971896
468.804529,-444.123565,-5551.544565,229.828649
468.804851,-666.185348,-5107.421000,-1072.533697
468.805172,148.041188,-4959.379811,-2757.943793
468.805494,1776.494261,-5181.441594,-3294.210641
468.805816,3627.009116,-5921.647536,-3907.087040
468.806137,5255.462188,-7179.997637,-4136.915689
468.806459,7031.956449,-9474.636058,-4749.792088
468.806780,6513.812290,-12731.542202,-3140.991542
468.807102,5551.544565,-14359.995275,-2911.162892
468.807424,4737.318029,-14804.118840,-2451.505594
468.807745,4515.256246,-14137.933492,-1838.629195
468.808067,3552.988522,-12953.603985,-689.485948
468.808389,2072.576638,-11029.068536,1455.581446
468.808710,1110.308913,-9252.574275,3524.039291
468.809032,1480.411884,-7105.977043,3370.820191
468.809354,1776.494261,-5625.565159,2987.772442
468.809675,1184.329507,-4515.256246,3064.381992
468.809997,518.144159,-3923.091493,2451.505594
468.810319,814.226536,-4885.359217,229.828649
468.810640,1184.329507,-6809.894666,-995.924147
468.810962,1110.308913,-8068.244768,-1762.019645
468.811284,370.102971,-9548.656652,-3140.991542
468.811605,222.061783,-11769.274478,-4979.620737
468.811927,962.267725,-13767.830521,-4749.792088
468.812249,1776.494261,-16506.592507,-5439.278036
468.812570,1332.370696,-16876.695478,-5209.449386
468.812892,1184.329507,-15174.221811,-3677.258390
468.813214,1776.494261,-11325.150913,-2528.115143
468.813535,3552.988522,-8660.409521,-3064.381992
468.813857,4441.235652,-7920.203579,-2221.676944
468.814179,5403.503377,-8216.285956,0.000000
468.814500,5847.626942,-7772.162391,2068.457845
468.814822,6587.832884,-7031.956449,3294.210641
468.815144,8438.347739,-5921.647536,2911.162892
468.815465,8660.409521,-5033.400406,2681.334243
468.815787,7179.997637,-4737.318029,2987.772442
468.816109,4885.359217,-3256.906145,2604.724693
468.816430,3627.009116,-5033.400406,-1302.362347
468.816752,2590.720797,-8364.327145,-4136.915689
468.817074,74.020594,-10288.862594,-2987.772442
468.817395,-2738.761985,-11621.233289,-2374.896044
468.817717,-3034.844362,-15248.242405,-4060.306139
468.818039,-2886.803174,-16802.674883,-5132.839837
468.818360,-3330.926739,-14211.954086,-5209.449386
468.818682,-3034.844362,-10658.965565,-4596.572988
468.819004,-1258.350101,-9770.718434,-4290.134789
468.819325,1036.288319,-9992.780217,-4749.792088
468.819647,3627.009116,-9992.780217,-4136.915689
468.819969,6069.688724,-9844.739029,-1762.019645
468.820290,8142.265362,-9844.739029,1149.143247
468.820612,9178.553681,-8956.491898,2451.505594
468.820934,8734.430116,-7105.977043,2145.067394
468.821255,7994.224174,-6143.709319,229.828649
468.821577,6513.812290,-7772.162391,-383.047749
468.821899,3849.070898,-9400.615463,306.438199
468.822220,1036.288319,-9252.574275,1072.533697
468.822542,-1702.473667,-8660.409521,1225.752797
468.822864,-2368.659014,-9400.615463,383.047749
468.823185,-1628.453072,-10140.821405,-1378.971896
468.823507,-1554.432478,-9696.697840,-2757.943793
468.823829,-1628.453072,-9030.512492,-2145.067394
468.824150,-518.144159,-9252.574275,-1608.800546
468.824472,888.247130,-9770.718434,-2604.724693
468.824794,2590.720797,-9622.677246,-4060.306139
468.825115,4145.153275,-9474.636058,-3830.477490
468.825437,4811.338623,-9474.636058,-2757.943793
468.825758,5699.585753,-9400.615463,-1532.190996
468.826080,5107.421000,-8956.491898,-1302.362347
468.826402,4367.215058,-8882.471304,-995.924147
468.826723,2960.823768,-8290.306550,-459.657299
468.827045,2146.597232,-7846.182985,-1072.533697
468.827367,1628.453072,-8364.327145,-2451.505594
468.827688,888.247130,-9252.574275,-1149.143247
468.828010,222.061783,-7772.162391,1685.410096
468.828332,0.000000,-7402.059420,1915.238745
468.828653,962.267725,-9548.656652,-383.047749
468.828975,3849.070898,-11399.171507,-1838.629195
468.829297,4663.297435,-12731.542202,-2221.676944
468.829618,4071.132681,-13841.851115,-459.657299
468.829940,4219.173869,-13545.768739,2987.772442
468.830262,4663.297435,-11399.171507,1991.848295
468.830583,4663.297435,-8586.388927,-995.924147
468.830905,5551.544565,-7254.018232,-1455.581446
468.831227,5921.647536,-8068.244768,-3064.381992
468.831548,7179.997637,-9918.759623,-3600.648841
468.831870,8882.471304,-9844.739029,-229.828649
468.832192,8586.388927,-7772.162391,2374.896044
468.832513,6587.832884,-6439.791695,2298.286494
468.832835,4663.297435,-5477.523971,1149.143247
468.833157,1036.288319,-3775.050304,-1532.190996
468.833478,-2442.679609,-3108.864956,-4673.182538
468.833800,-5107.421000,-6957.935855,-4749.792088
468.834122,-5255.462188,-11843.295072,-2911.162892
468.834443,-3775.050304,-12583.501014,-2987.772442
468.834765,-2072.576638,-12509.480420,-3600.648841
468.835087,74.020594,-13989.892304,-1685.410096
468.835409,666.185348,-13175.665768,-1455.581446
468.835731,0.000000,-11843.295072,-3600.648841
468.836053,888.247130,-10658.965565,-3830.477490
468.836375,3552.988522,-12435.459826,-3677.258390
468.836696,4737.318029,-13323.706956,-3294.210641
468.837018,6217.729913,-12805.562797,0.000000
468.837340,8068.244768,-10807.006753,3524.039291
468.837662,10288.862594,-8290.306550,3677.258390
468.837984,11251.130318,-6809.894666,2681.334243
468.838306,10510.924376,-5921.647536,1149.143247
468.838628,9104.533087,-6439.791695,-1685.410096
468.838950,7328.038826,-6883.915261,-995.924147
468.839272,5033.400406,-5847.626942,0.000000
468.839594,1110.308913,-5699.585753,153.219100
468.839915,-1332.370696,-7105.977043,229.828649
468.840237,-2886.803174,-7476.080014,-1532.190996
468.840559,-4959.379811,-8438.347739,-4749.792088
468.840881,-7105.977043,-10955.047942,-5975.544884
468.841203,-8438.347739,-13027.624579,-4443.353888
468.841525,-8882.471304,-12953.603985,-3217.601092
468.841847,-8216.285956,-11695.253884,-3217.601092
468.842169,-5847.626942,-11843.295072,-4366.744339
468.842491,-2368.659014,-13323.706956,-5362.668486
468.842813,-148.041188,-13249.686362,-3140.991542
468.843134,2294.638420,-11177.109724,842.705048
468.843456,5181.441594,-7846.182985,2145.067394
468.843778,9252.574275,-5033.400406,459.657299
468.844100,11769.274478,-4959.379811,0.000000
468.844422,11399.171507,-4737.318029,1608.800546
468.844744,9918.759623,-3182.885551,2911.162892
468.845066,9548.656652,-4367.215058,1762.019645
468.845388,9474.636058,-8068.244768,-383.047749
468.845710,8586.388927,-9844.739029,-842.705048
468.846032,6217.729913,-10362.883188,-1378.971896
468.846353,4663.297435,-11547.212695,-2145.067394
468.846675,3108.864956,-13915.871710,-1991.848295
468.846997,814.226536,-13619.789333,-1685.410096
468.847319,-1258.350101,-12065.356855,-2298.286494
468.847641,-1628.453072,-11843.295072,-3753.867940
468.847963,-296.082377,-13027.624579,-3907.087040
468.848285,370.102971,-11991.336260,-2221.676944
468.848607,444.123565,-9622.677246,-459.657299
468.848929,518.144159,-8882.471304,1991.848295
468.849251,666.185348,-8438.347739,1532.190996
468.849572,1332.370696,-7550.100608,0.000000
468.849894,2072.576638,-5551.544565,-1838.629195
468.850216,3034.844362,-4959.379811,-995.924147
468.850538,2960.823768,-5625.565159,-153.219100
468.850860,2368.659014,-5699.585753,383.047749
468.851182,1776.494261,-7105.977043,-995.924147
468.851504,1554.432478,-9104.533087,-3753.867940
468.851826,1924.535449,-10510.924376,-3983.696590
468.852148,1776.494261,-13175.665768,-3064.381992
468.852470,2442.679609,-15322.262999,-1838.629195
468.852792,3478.967927,-14285.974681,-689.485948
468.853113,4811.338623,-12139.377449,-689.485948
468.853435,5847.626942,-11621.233289,-842.705048
468.853757,5773.606348,-9992.780217,-383.047749
468.854079,5551.544565,-7550.100608,76.609550
468.854401,5699.585753,-6883.915261,0.000000
468.854723,6513.812290,-8660.409521,0.000000
468.855045,4885.359217,-8956.491898,1302.362347
468.855367,666.185348,-6587.832884,3447.429741
468.855689,-2960.823768,-5329.482782,2834.553343
468.856011,-4071.132681,-5403.503377,-1378.971896
468.856332,-3923.091493,-6365.771101,-4443.353888
468.856654,-4959.379811,-8142.265362,-3524.039291
468.856976,-5699.585753,-9104.533087,-1225.752797
468.857298,-5477.523971,-8290.306550,-1378.971896
468.857620,-4367.215058,-9770.718434,-3064.381992
468.857942,-3627.009116,-11473.192101,-4060.306139
468.858264,-3330.926739,-10510.924376,-4826.401637
468.858586,-3034.844362,-9104.533087,-4903.011187
468.858908,-2146.597232,-10732.986159,-4060.306139
468.859230,-1184.329507,-11547.212695,-3140.991542
468.859551,0.000000,-10214.842000,-2911.162892
468.859873,1480.411884,-10214.842000,-3677.258390
468.860195,2146.597232,-10881.027347,-2221.676944
468.860517,2442.679609,-9548.656652,-919.314598
468.860839,3108.864956,-8216.285956,-1072.533697
468.861161,3034.844362,-10066.800811,-689.485948
468.861483,1850.514855,-11473.192101,1225.752797
468.861805,0.000000,-10066.800811,1149.143247
468.862127,0.000000,-9326.594869,-459.657299
468.862449,2368.659014,-9992.780217,-1762.019645
468.862770,3552.988522,-10955.047942,-1685.410096
468.863092,2516.700203,-9844.739029,-306.438199
468.863414,1406.391290,-9178.553681,689.485948
468.863736,296.082377,-9474.636058,-383.047749
468.864058,-1110.308913,-9696.697840,-2451.505594
468.864380,-3330.926739,-10066.800811,-4519.963438
468.864702,-5477.523971,-9400.615463,-4826.401637
468.865024,-5625.565159,-10362.883188,-3907.087040
468.865346,-4885.359217,-11325.150913,-2604.724693
468.865668,-3849.070898,-9770.718434,-1072.533697
468.865990,-2960.823768,-8512.368333,-1608.800546
468.866311,-2442.679609,-8068.244768,-1455.581446
468.866633,-2368.659014,-7254.018232,-842.705048
468.866955,-3552.988522,-6735.874072,-229.828649
468.867277,-4293.194464,-5255.462188,0.000000
468.867599,-4219.173869,-5329.482782,-689.485948
468.867921,-2590.720797,-7254.018232,-1762.019645
468.868243,-1184.329507,-9696.697840,-1762.019645
468.868565,814.226536,-11103.089130,-459.657299
468.868887,3849.070898,-10732.986159,229.828649
468.869209,6883.915261,-10436.903782,995.924147
468.869530,7846.182985,-10436.903782,766.095498
468.869852,8216.285956,-9696.697840,-383.047749
468.870174,7624.121203,-8956.491898,-383.047749
468.870496,7476.080014,-8882.471304,0.000000
468.870818,7476.080014,-8734.430116,-383.047749
468.871140,7698.141797,-9252.574275,-842.705048
468.871462,6069.688724,-11029.068536,-229.828649
468.871784,3108.864956,-11103.089130,919.314598
468.872106,0.000000,-10214.842000,459.657299
468.872428,-2664.741391,-8660.409521,-919.314598
468.872749,-4145.153275,-8438.347739,-2221.676944
468.873071,-6291.750507,-8364.327145,-2834.553343
468.873393,-8142.265362,-7550.100608,-2528.115143
468.873715,-8068.244768,-8290.306550,-1532.190996
468.874037,-7254.018232,-9844.739029,-1455.581446
468.874359,-6661.853478,-9770.718434,-2374.896044
468.874681,-5625.565159,-9548.656652,-3217.601092
468.875003,-3478.967927,-10584.944971,-2911.162892
468.875325,-1036.288319,-11399.171507,-3140.991542
468.875647,0.000000,-10732.986159,-3064.381992
468.875968,-222.061783,-9844.739029,-1685.410096
468.876290,-592.164754,-9252.574275,-1072.533697
468.876612,592.164754,-9696.697840,-2987.772442
468.876934,2664.741391,-10658.965565,-4366.744339
468.877256,4293.194464,-10955.047942,-2451.505594
468.877578,4293.194464,-10510.924376,1685.410096
468.877900,3552.988522,-9622.677246,2528.115143
468.878222,3182.885551,-8364.327145,1302.362347
468.878544,2294.638420,-6883.915261,-612.876398
468.878866,1258.350101,-6143.709319,-1838.629195
468.879188,296.082377,-6513.812290,-2451.505594
468.879509,-296.082377,-7994.224174,-1455.581446
468.879831,-1776.494261,-9992.780217,612.876398
468.880153,-3701.029710,-11251.130318,536.266849
468.880475,-4145.153275,-10658.965565,-1991.848295
468.880797,-2886.803174,-11621.233289,-4443.353888
468.881119,-2664.741391,-11177.109724,-4519.963438
468.881441,-4293.194464,-8438.347739,-2451.505594
468.881763,-5107.421000,-7550.100608,-2298.286494
468.882085,-3997.112087,-9178.553681,-2451.505594
468.882407,-3849.070898,-10658.965565,-3370.820191
468.882728,-3775.050304,-10436.903782,-4213.525239
468.883050,-2516.700203,-9622.677246,-2987.772442
468.883372,-370.102971,-9992.780217,-1532.190996
468.883694,0.000000,-10288.862594,229.828649
468.884016,-1110.308913,-9474.636058,1991.848295
468.884338,-962.267725,-7698.141797,459.657299
468.884660,-148.041188,-7105.977043,-2757.943793
468.884982,74.020594,-8660.409521,-2604.724693
468.885304,-296.082377,-8290.306550,-229.828649
468.885626,518.144159,-8660.409521,229.828649
468.885947,3108.864956,-10807.006753,-306.438199
468.886269,4219.173869,-12583.501014,-383.047749
468.886591,4145.153275,-11621.233289,229.828649
468.886913,3627.009116,-9030.512492,-1149.143247
468.887235,3775.050304,-8660.409521,-1378.971896
468.887557,3923.091493,-9400.615463,-1762.019645
468.887879,2368.659014,-9178.553681,-2068.457845
468.888201,444.123565,-9474.636058,-1149.143247
468.888523,-222.061783,-9844.739029,-919.314598
468.888845,0.000000,-10066.800811,-2757.943793
468.889166,-1036.288319,-9474.636058,-2451.505594
468.889488,-2368.659014,-8216.285956,0.000000
468.889810,-2664.741391,-7328.038826,689.485948
468.890132,-1924.535449,-7698.141797,-689.485948
468.890454,-2220.617826,-7179.997637,-2528.115143
468.890776,-3404.947333,-7698.141797,-1608.800546
468.891098,-3256.906145,-7105.977043,-1072.533697
468.891420,-1258.350101,-7105.977043,-1608.800546
468.891742,1036.288319,-8734.430116,-2451.505594
468.892064,1406.391290,-11177.109724,-1225.752797
468.892385,1110.308913,-11621.233289,-612.876398
468.892707,222.061783,-12139.377449,-1149.143247
468.893029,222.061783,-12435.459826,-1532.190996
468.893351,222.061783,-11029.068536,-1915.238745
468.893673,148.041188,-9474.636058,-1762.019645
468.893995,444.123565,-9918.759623,-1991.848295
468.894317,444.123565,-9252.574275,-612.876398
468.894639,814.226536,-9474.636058,-383.047749
468.894961,444.123565,-9770.718434,-766.095498
468.895283,370.102971,-9844.739029,-689.485948
468.895605,222.061783,-8808.450710,-689.485948
468.895926,444.123565,-9326.594869,-536.266849
468.896248,0.000000,-9178.553681,-306.438199
468.896570,-1110.308913,-8216.285956,-1225.752797
468.896892,-1480.411884,-9622.677246,-2528.115143
468.897214,-1184.329507,-10955.047942,-2528.115143
468.897536,-1628.453072,-10066.800811,-1225.752797
468.897858,-1924.535449,-8660.409521,-1072.533697
468.898180,-1850.514855,-9252.574275,-1302.362347
468.898502,-2516.700203,-10140.821405,-1149.143247
468.898824,-4219.173869,-9400.615463,-1149.143247
468.899145,-5107.421000,-7994.224174,-1455.581446
468.899467,-4071.132681,-7179.997637,-2298.286494
468.899789,-2146.597232,-6957.935855,-2451.505594
468.900111,-740.205942,-7772.162391,-1991.848295
468.900433,-1332.370696,-8882.471304,536.266849
468.900755,-1924.535449,-9770.718434,1455.581446
468.901077,-1480.411884,-10288.862594,-1149.143247
468.901399,-518.144159,-9844.739029,-2681.334243
468.901721,444.123565,-8660.409521,-2451.505594
468.902043,1184.329507,-8290.306550,-2145.067394
468.902364,1850.514855,-8882.471304,-1608.800546
468.902686,2442.679609,-10584.944971,-536.266849
468.903008,2812.782580,-10436.903782,-1225.752797
468.903330,3034.844362,-10658.965565,-1532.190996
468.903652,3404.947333,-10658.965565,-995.924147
468.903974,2960.823768,-10881.027347,-689.485948
468.904296,1480.411884,-9918.759623,-536.266849
468.904618,-296.082377,-9400.615463,-306.438199
468.904940,-1480.411884,-9474.636058,-919.314598
468.905262,-2220.617826,-9326.594869,-2068.457845
468.905583,-2664.741391,-8882.471304,-1302.362347
468.905905,-1924.535449,-8290.306550,-995.924147
468.906227,-666.185348,-9252.574275,-1762.019645
468.906549,-518.144159,-9474.636058,-1225.752797
468.906871,-1332.370696,-9696.697840,-536.266849
468.907193,-1406.391290,-9474.636058,-1302.362347
468.907515,-1258.350101,-6957.935855,-1991.848295
468.907837,-1110.308913,-7402.059420,-2757.943793
468.908159,-1480.411884,-8956.491898,-3140.991542
468.908481,-1184.329507,-9474.636058,-2451.505594
468.908803,-740.205942,-9844.739029,-1762.019645
468.909124,74.020594,-11177.109724,-1762.019645
468.909446,148.041188,-10732.986159,-1455.581446
468.909768,-592.164754,-8660.409521,-1532.190996
468.910090,-1258.350101,-9104.533087,-1915.238745
468.910412,-740.205942,-9548.656652,-995.924147
468.910734,74.020594,-8216.285956,-2221.676944
468.911056,370.102971,-7328.038826,-2068.457845
468.911378,1332.370696,-9326.594869,0.000000
468.911700,2738.761985,-9104.533087,153.219100
468.912022,4219.173869,-9400.615463,-1685.410096
468.912343,4885.359217,-10510.924376,-1225.752797
468.912665,3404.947333,-10732.986159,919.314598
468.912987,1702.473667,-9918.759623,0.000000
468.913309,-222.061783,-9844.739029,-2068.457845
468.913631,-1628.453072,-10732.986159,-2068.457845
468.913953,-2368.659014,-10140.821405,-1608.800546
468.914275,-2368.659014,-9030.512492,-2451.505594
468.914597,-1702.473667,-8956.491898,-2298.286494
468.914919,-1480.411884,-10140.821405,-1302.362347
468.915241,-2442.679609,-10584.944971,-306.438199
468.915562,-4145.153275,-9030.512492,-306.438199
468.915884,-4367.215058,-7772.162391,-1838.629195
468.916206,-3256.906145,-7179.997637,-3140.991542
468.916528,-2146.597232,-7698.141797,-3677.258390
468.916850,-3330.926739,-8512.368333,-2451.505594
468.917172,-3552.988522,-8216.285956,-229.828649
468.917494,-3701.029710,-9696.697840,-306.438199
468.917816,-3478.967927,-9252.574275,-2298.286494
468.918138,-1776.494261,-11251.130318,-2757.943793
468.918460,-148.041188,-11769.274478,-3447.429741
468.918781,1184.329507,-11029.068536,-1072.533697
468.919103,2146.597232,-8660.409521,306.438199
468.919425,2664.741391,-7476.080014,0.000000
468.919747,3552.988522,-6809.894666,-919.314598
468.920069,3775.050304,-8216.285956,-2757.943793
468.920391,3775.050304,-8216.285956,-2757.943793
468.920713,3552.988522,-8586.388927,-459.657299
468.921035,2294.638420,-9992.780217,919.314598
468.921357,370.102971,-10732.986159,383.047749
468.921679,-1258.350101,-11177.109724,-1149.143247
468.922000,-2590.720797,-10436.903782,-2451.505594
468.922322,-2146.597232,-10288.862594,-2987.772442
468.922644,-1036.288319,-9252.574275,-3140.991542
468.922966,-370.102971,-8364.327145,-2221.676944
468.923288,-666.185348,-9696.697840,-229.828649
468.923610,-1924.535449,-11325.150913,306.438199
468.923932,-2294.638420,-10658.965565,-1991.848295
468.924254,-1702.473667,-10362.883188,-3830.477490
468.924576,-1258.350101,-9474.636058,-3294.210641
468.924898,-1258.350101,-9548.656652,-995.924147
468.925220,-1850.514855,-8808.450710,76.609550
468.925541,-1924.535449,-9770.718434,-459.657299
468.925863,-1480.411884,-10214.842000,-1302.362347
468.926185,-444.123565,-9474.636058,-1838.629195
468.926507,148.041188,-8068.244768,-1991.848295
468.926829,1850.514855,-8068.244768,-536.266849
468.927151,2368.659014,-8586.388927,536.266849
468.927473,1628.453072,-8586.388927,229.828649
468.927795,518.144159,-8586.388927,-229.828649
468.928117,888.247130,-8364.327145,-995.924147
468.928439,1702.473667,-7698.141797,-2987.772442
468.928760,1480.411884,-8438.347739,-2604.724693
468.929082,1554.432478,-9844.739029,-383.047749
468.929404,1258.350101,-10584.944971,153.219100
468.929726,222.061783,-10807.006753,-306.438199
468.930048,-740.205942,-10584.944971,-766.095498
468.930370,-2146.597232,-9696.697840,-1991.848295
468.930692,-2886.803174,-8438.347739,-3600.648841
468.931014,-3330.926739,-8882.471304,-3140.991542
468.931336,-2664.741391,-9844.739029,-689.485948
468.931658,-1776.494261,-9252.574275,229.828649
468.931979,-1406.391290,-8142.265362,-1072.533697
468.932301,-592.164754,-8142.265362,-1608.800546
468.932623,222.061783,-8068.244768,-1915.238745
468.932945,222.061783,-8364.327145,-2604.724693
468.933267,-296.082377,-9992.780217,-2298.286494
468.933589,-814.226536,-10732.986159,-919.314598
468.933911,-1406.391290,-10807.006753,-995.924147
468.934233,-2220.617826,-11473.192101,-1532.190996
468.934555,-1480.411884,-11251.130318,-1838.629195
468.934876,-296.082377,-9992.780217,-3370.820191
468.935198,592.164754,-9474.636058,-3217.601092
468.935520,962.267725,-9696.697840,76.609550
468.935841,-222.061783,-8808.450710,1225.752797
468.936163,-666.185348,-7698.141797,-919.314598
468.936485,-222.061783,-7920.203579,-2298.286494
468.936807,444.123565,-8808.450710,-2987.772442
468.937128,666.185348,-8290.306550,-3524.039291
468.937450,444.123565,-8364.327145,-1685.410096
468.937772,0.000000,-8882.471304,0.000000
468.938093,-592.164754,-9548.656652,-1225.752797
468.938415,-814.226536,-10362.883188,-3677.258390
468.938737,-1628.453072,-10955.047942,-4443.353888
468.939058,-2368.659014,-10955.047942,-2834.553343
468.939380,-2442.679609,-9992.780217,-1378.971896
468.939702,-1702.473667,-9400.615463,-1302.362347
468.940023,-740.205942,-9548.656652,-1991.848295
468.940345,0.000000,-9030.512492,-1762.019645
468.940667,296.082377,-7328.038826,-1608.800546
468.940988,1998.556043,-6883.915261,-1915.238745
468.941310,2812.782580,-7624.121203,-1915.238745
468.941632,1776.494261,-8808.450710,-1225.752797
468.941954,-1258.350101,-9918.759623,0.000000
468.942275,-2590.720797,-11621.233289,76.609550
468.942597,-2442.679609,-10732.986159,-2068.457845
468.942919,-1184.329507,-9474.636058,-4213.525239
468.943240,0.000000,-9844.739029,-3140.991542
468.943562,296.082377,-10140.821405,-383.047749
468.943884,-222.061783,-10066.800811,766.095498
468.944205,-370.102971,-8808.450710,-1532.190996
468.944527,-222.061783,-9326.594869,-2528.115143
468.944849,148.041188,-9252.574275,-3064.381992
468.945170,-296.082377,-9178.553681,-2451.505594
468.945492,-444.123565,-9844.739029,-842.705048
468.945814,-370.102971,-9326.594869,459.657299
468.946136,-888.247130,-9474.636058,-306.438199
468.946457,-1702.473667,-10807.006753,-1991.848295
468.946779,-1554.432478,-10066.800811,-2451.505594
468.947101,-518.144159,-8068.244768,-2681.334243
468.947422,1406.391290,-7994.224174,-3064.381992
468.947744,1628.453072,-9030.512492,-1072.533697
468.948066,518.144159,-9326.594869,689.485948
468.948387,-1184.329507,-9104.533087,-612.876398
468.948709,-1110.308913,-8660.409521,-1838.629195
468.949031,296.082377,-8512.368333,-2528.115143
468.949352,814.226536,-9400.615463,-3600.648841
468.949674,148.041188,-9844.739029,-1608.800546
468.949996,-222.061783,-9622.677246,1149.143247
468.950318,0.000000,-10214.842000,-842.705048
468.950639,0.000000,-10510.924376,-2757.943793
468.950961,-962.267725,-9622.677246,-1378.971896
468.951283,-1924.535449,-9474.636058,-995.924147
468.951604,-1924.535449,-9474.636058,-919.314598
468.951926,-666.185348,-9548.656652,-306.438199
468.952248,-222.061783,-9400.615463,229.828649
468.952569,814.226536,-8808.450710,306.438199
468.952891,2072.576638,-7031.956449,-689.485948
468.953213,2516.700203,-6365.771101,-2068.457845
468.953534,2664.741391,-7476.080014,-1838.629195
468.953856,1628.453072,-9548.656652,-1302.362347
468.954178,-666.185348,-10584.944971,-689.485948
468.954499,-2146.597232,-11769.274478,-995.924147
468.954821,-3478.967927,-11843.295072,-1915.238745
468.955143,-3478.967927,-11177.109724,-2451.505594
468.955465,-2146.597232,-10658.965565,-2757.943793
468.955786,-1332.370696,-9992.780217,-2068.457845
468.956108,-814.226536,-8290.306550,-306.438199
468.956430,-370.102971,-7920.203579,-842.705048
468.956751,0.000000,-8364.327145,-2145.067394
468.957073,666.185348,-8734.430116,-2528.115143
468.957395,222.061783,-8586.388927,-2298.286494
468.957716,888.247130,-8734.430116,-1685.410096
468.958038,1258.350101,-9474.636058,-689.485948
468.958360,962.267725,-10066.800811,-842.705048
468.958681,-518.144159,-10584.944971,-612.876398
468.959003,-2072.576638,-9548.656652,-995.924147
468.959325,-1554.432478,-7550.100608,-2911.162892
468.959647,-444.123565,-9326.594869,-4443.353888
468.959968,-148.041188,-9992.780217,-3140.991542
468.960290,-666.185348,-9474.636058,-153.219100
468.960612,-962.267725,-9474.636058,-689.485948
468.960933,666.185348,-9992.780217,-2221.676944
468.961255,1702.473667,-9622.677246,-2834.553343
468.961577,1480.411884,-8290.306550,-2604.724693
468.961898,962.267725,-8734.430116,-1915.238745
468.962220,592.164754,-8882.471304,-919.314598
468.962542,-518.144159,-9030.512492,-1762.019645
468.962863,-2516.700203,-10436.903782,-1915.238745
468.963185,-3849.070898,-9400.615463,-2221.676944
468.963507,-3478.967927,-8216.285956,-3677.258390
468.963829,-1776.494261,-9770.718434,-4060.306139
468.964150,-518.144159,-11103.089130,-1991.848295
468.964472,-962.267725,-10436.903782,-919.314598
468.964794,-740.205942,-10214.842000,-689.485948
468.965115,592.164754,-9918.759623,-536.266849
468.965437,1332.370696,-8734.430116,-2374.896044
468.965759,1332.370696,-7772.162391,-3370.820191
468.966080,74.020594,-8586.388927,-995.924147
468.966402,-888.247130,-9400.615463,919.314598
468.966724,-1480.411884,-9548.656652,536.266849
468.967045,-1110.308913,-10436.903782,-1608.800546
468.967367,-666.185348,-10955.047942,-1378.971896
468.967689,-222.061783,-9474.636058,-1149.143247
468.968010,814.226536,-7846.182985,-1915.238745
468.968332,1702.473667,-7254.018232,-2221.676944
468.968654,1258.350101,-8660.409521,-612.876398
468.968976,-518.144159,-9474.636058,-306.438199
468.969297,-1554.432478,-9030.512492,-1225.752797
468.969619,-1036.288319,-8660.409521,-2451.505594
468.969941,-222.061783,-9178.553681,-2911.162892
468.970262,-666.185348,-9844.739029,-383.047749
468.970584,-1554.432478,-9400.615463,229.828649
468.970906,-1628.453072,-9252.574275,-229.828649
468.971227,-1258.350101,-9548.656652,-1302.362347
468.971549,-1110.308913,-10066.800811,-2911.162892
468.971871,-666.185348,-9770.718434,-1991.848295
468.972192,-592.164754,-8660.409521,-612.876398
468.972514,0.000000,-8364.327145,229.828649
468.972836,74.020594,-8734.430116,-459.657299
468.973158,370.102971,-8586.388927,-1225.752797
468.973479,444.123565,-8142.265362,-2298.286494
468.973801,1184.329507,-8660.409521,-2604.724693
468.974123,1924.535449,-9474.636058,-1915.238745
468.974444,1406.391290,-10362.883188,-1072.533697
468.974766,0.000000,-11251.130318,-612.876398
468.975088,-518.144159,-11695.253884,-766.095498
468.975409,-1258.350101,-11769.274478,-2834.553343
468.975731,-1850.514855,-11547.212695,-2987.772442
468.976053,-2072.576638,-10510.924376,-1149.143247
468.976374,-1702.473667,-8882.471304,-459.657299
468.976696,-1184.329507,-8364.327145,-1302.362347
468.977018,-222.061783,-8956.491898,-306.438199
468.977339,-444.123565,-9104.533087,-919.314598
468.977661,-1110.308913,-9030.512492,-1455.581446
468.977983,-518.144159,-8216.285956,-229.828649
468.978305,222.061783,-8216.285956,-536.266849
468.978626,222.061783,-8364.327145,-1072.533697
468.978948,-888.247130,-8808.450710,-1072.533697
468.979270,-1998.556043,-9844.739029,-1225.752797
468.979591,-2146.597232,-10214.842000,-2374.896044
468.979913,-1924.535449,-9696.697840,-2681.334243
468.980235,-1702.473667,-9326.594869,-1838.629195
468.980556,-888.247130,-9030.512492,-1455.581446
468.980878,-148.041188,-9696.697840,-2221.676944
468.981200,-444.123565,-10584.944971,-2374.896044
468.981521,-592.164754,-9918.759623,-919.314598
468.981843,370.102971,-8808.450710,-306.438199
468.982165,1702.473667,-7698.141797,-1685.410096
468.982487,2220.617826,-8290.306550,-1762.019645
468.982808,1702.473667,-8660.409521,-995.924147
468.983130,-148.041188,-8808.450710,-1149.143247
468.983452,-1406.391290,-8734.430116,-1685.410096
468.983773,-1184.329507,-9474.636058,-1762.019645
468.984095,-592.164754,-10066.800811,-2374.896044
468.984417,-296.082377,-9918.759623,-1762.019645
468.984738,-370.102971,-9104.533087,-995.924147
468.985060,-370.102971,-9622.677246,-1762.019645
468.985382,-370.102971,-10658.965565,-2298.286494
468.985703,-1184.329507,-10066.800811,-2374.896044
468.986025,-814.226536,-9770.718434,-2145.067394
468.986347,-296.082377,-9252.574275,-2221.676944
468.986669,-370.102971,-9400.615463,-995.924147
468.986990,-1480.411884,-9622.677246,-1149.143247
468.987312,-1332.370696,-9918.759623,-1532.190996
468.987634,-1110.308913,-10214.842000,-2374.896044
468.987955,-1110.308913,-10436.903782,-2068.457845
468.988277,-1110.308913,-9696.697840,0.000000
468.988599,-592.164754,-7698.141797,0.000000
468.988920,0.000000,-7328.038826,-1991.848295
468.989242,0.000000,-8734.430116,-1685.410096
468.989564,-592.164754,-9770.718434,-1302.362347
468.989885,-1258.350101,-8438.347739,-2298.286494
468.990207,-592.164754,-8734.430116,-1532.190996
468.990529,444.123565,-9548.656652,-689.485948
468.990850,1258.350101,-9770.718434,-1302.362347
468.991172,1110.308913,-9770.718434,-1991.848295
468.991494,222.061783,-10362.883188,-1072.533697
468.991816,-222.061783,-10214.842000,-1225.752797
468.992137,0.000000,-9400.615463,-2451.505594
468.992459,148.041188,-8660.409521,-2374.896044
468.992781,1036.288319,-9400.615463,-1762.019645
468.993102,962.267725,-9178.553681,-842.705048
468.993424,740.205942,-8956.491898,-766.095498
468.993746,222.061783,-9030.512492,-1455.581446
468.994067,666.185348,-8808.450710,-1838.629195
468.994389,814.226536,-7994.224174,-1378.971896
468.994711,1406.391290,-8512.368333,-1455.581446
468.995032,1036.288319,-8882.471304,-1685.410096
468.995354,-296.082377,-9918.759623,-1455.581446
468.995676,-2294.638420,-11325.150913,-689.485948
468.995998,-3849.070898,-11029.068536,-612.876398
468.996319,-3775.050304,-9992.780217,-2374.896044
468.996641,-3034.844362,-9918.759623,-2834.553343
468.996963,-1998.556043,-10066.800811,-1762.019645
468.997284,-1406.391290,-8808.450710,-459.657299
468.997606,-592.164754,-8734.430116,-1378.971896
468.997928,222.061783,-9474.636058,-1608.800546
468.998249,0.000000,-9474.636058,-919.314598
468.998571,-222.061783,-8142.265362,-995.924147
468.998893,888.247130,-8216.285956,-2221.676944
468.999214,2220.617826,-8808.450710,-1225.752797
468.999536,1406.391290,-8956.491898,153.219100
468.999858,-296.082377,-9474.636058,0.000000
469.000180,-1110.308913,-9400.615463,-1072.533697
469.000501,-592.164754,-10214.842000,-2374.896044
469.000823,-370.102971,-10362.883188,-2374.896044
469.001145,-1332.370696,-9326.594869,-536.266849
469.001466,-1110.308913,-8068.244768,-919.314598
469.001788,0.000000,-9474.636058,-1532.190996
469.002110,296.082377,-10510.924376,-919.314598
469.002431,-518.144159,-8956.491898,-383.047749
469.002753,-740.205942,-7105.977043,-919.314598
469.003075,296.082377,-8142.265362,-2528.115143
469.003396,814.226536,-10510.924376,-2681.334243
469.003718,-962.267725,-10214.842000,-919.314598
469.004040,-2516.700203,-9844.739029,-766.095498
469.004361,-1924.535449,-9918.759623,-2068.457845
469.004683,-592.164754,-10510.924376,-2911.162892
469.005005,148.041188,-10955.047942,-2451.505594
469.005327,-370.102971,-10214.842000,-1072.533697
469.005648,-222.061783,-9474.636058,-383.047749
469.005970,0.000000,-9770.718434,-1302.362347
469.006292,0.000000,-9622.677246,-1532.190996
469.006613,-518.144159,-8586.388927,-1532.190996
469.006935,-296.082377,-7994.224174,-2068.457845
469.007257,444.123565,-7920.203579,-2145.067394
469.007578,148.041188,-9548.656652,-1378.971896
469.007900,-1332.370696,-9770.718434,-459.657299
469.008222,-2516.700203,-10881.027347,76.609550
469.008543,-2368.659014,-10584.944971,-1532.190996
469.008865,-1184.329507,-10732.986159,-1915.238745
469.009187,-296.082377,-9696.697840,-1685.410096
469.009509,-296.082377,-7105.977043,-1149.143247
469.009830,-296.082377,-6587.832884,-1072.533697
469.010152,-370.102971,-8068.244768,-1838.629195
469.010474,0.000000,-9326.594869,-2528.115143
469.010795,-296.082377,-8734.430116,-2068.457845
469.011117,740.205942,-9178.553681,-1455.581446
469.011439,1702.473667,-9474.636058,-919.314598
469.011760,1924.535449,-9918.759623,-995.924147
469.012082,222.061783,-9474.636058,-995.924147
469.012404,74.020594,-9918.759623,-2145.067394
469.012725,592.164754,-9474.636058,-3064.381992
469.013047,592.164754,-8586.388927,-1608.800546
469.013369,296.082377,-8512.368333,0.000000
469.013691,444.123565,-8882.471304,-536.266849
469.014012,444.123565,-8956.491898,-1608.800546
469.014334,814.226536,-10066.800811,-1838.629195
469.014656,1036.288319,-10066.800811,-1378.971896
469.014977,1110.308913,-7402.059420,-1532.190996
469.015299,1554.432478,-6957.935855,-1838.629195
469.015621,888.247130,-9474.636058,-1302.362347
469.015942,-1258.350101,-10881.027347,-995.924147
469.016264,-3478.967927,-10436.903782,-2068.457845
469.016586,-4145.153275,-11103.089130,-2681.334243
469.016907,-3478.967927,-11843.295072,-2374.896044
469.017229,-2368.659014,-10658.965565,-2451.505594
469.017551,-1776.494261,-9622.677246,-1378.971896
469.017872,-444.123565,-8956.491898,-689.485948
469.018194,74.020594,-8290.306550,-1149.143247
469.018516,0.000000,-9326.594869,-2528.115143
469.018838,-148.041188,-8882.471304,-1915.238745
469.019159,148.041188,-9252.574275,-1072.533697
469.019481,962.267725,-9844.739029,-919.314598
469.019803,1850.514855,-9326.594869,-689.485948
469.020124,1702.473667,-8660.409521,0.000000
469.020446,370.102971,-9474.636058,-612.876398
469.020768,-444.123565,-9770.718434,-1685.410096
469.021089,-1480.411884,-10214.842000,-1455.581446
469.021411,-1850.514855,-9844.739029,-1149.143247
469.021733,-1184.329507,-9474.636058,-1378.971896
469.022054,-296.082377,-8438.347739,-1608.800546
469.022376,-518.144159,-8216.285956,-689.485948
469.022698,-1184.329507,-8808.450710,-842.705048
469.023020,-1776.494261,-8068.244768,-1685.410096
469.023341,-2294.638420,-7402.059420,-2451.505594
469.023663,-2220.617826,-9030.512492,-2374.896044
469.023985,-1406.391290,-10807.006753,-1915.238745
469.024306,-1406.391290,-11029.068536,-1532.190996
469.024628,-1184.329507,-11473.192101,-536.266849
469.024950,-296.082377,-11177.109724,153.219100
469.025271,444.123565,-9326.594869,-995.924147
469.025593,1110.308913,-8364.327145,-1991.848295
469.025915,1258.350101,-8438.347739,-1378.971896
469.026236,666.185348,-8364.327145,-153.219100
469.026558,0.000000,-7772.162391,-1455.581446
469.026880,-444.123565,-8586.388927,-995.924147
469.027202,-740.205942,-10140.821405,306.438199
469.027523,-814.226536,-9030.512492,-995.924147
469.027845,0.000000,-8586.388927,-2374.896044
469.028167,370.102971,-9548.656652,-1302.362347
469.028488,-518.144159,-10436.903782,-842.705048
469.028810,-2220.617826,-11029.068536,-1149.143247
469.029132,-2516.700203,-10881.027347,-1532.190996
469.029453,-1406.391290,-10214.842000,-1455.581446
469.029775,592.164754,-9992.780217,-3140.991542
469.030097,2294.638420,-8882.471304,-1608.800546
469.030418,2886.803174,-8216.285956,153.219100
469.030740,3256.906145,-8216.285956,-766.095498
469.031062,2812.782580,-8142.265362,-919.314598
469.031383,2220.617826,-8142.265362,-689.485948
469.031705,2294.638420,-7624.121203,-2221.676944
469.032027,1480.411884,-8142.265362,-3677.258390
469.032349,370.102971,-9326.594869,-2145.067394
469.032670,-1258.350101,-9918.759623,0.000000
469.032992,-2146.597232,-9770.718434,-612.876398
469.033314,-1554.432478,-10658.965565,-2834.553343
469.033635,-1258.350101,-11177.109724,-2068.457845
469.033957,-1702.473667,-10658.965565,-919.314598
469.034279,-2664.741391,-8660.409521,-1378.971896
469.034600,-1924.535449,-8142.265362,-2068.457845
469.034922,74.020594,-9918.759623,-2757.943793
469.035244,888.247130,-9548.656652,-1915.238745
469.035565,1628.453072,-7402.059420,-995.924147
469.035887,2516.700203,-7179.997637,-1762.019645
469.036209,3182.885551,-10288.862594,-1608.800546
469.036531,1110.308913,-11917.315666,-306.438199
469.036852,-2220.617826,-10732.986159,-766.095498
469.037174,-3404.947333,-9992.780217,-1532.190996
469.037496,-2368.659014,-9992.780217,-3370.820191
469.037817,-1480.411884,-9696.697840,-3600.648841
469.038139,-2294.638420,-8956.491898,-1532.190996
469.038461,-2220.617826,-7624.121203,229.828649
469.038782,-666.185348,-9474.636058,-919.314598
469.039104,444.123565,-11029.068536,-2834.553343
469.039425,-370.102971,-10214.842000,-689.485948
469.039747,-1554.432478,-8882.471304,153.219100
469.040069,-1184.329507,-8660.409521,-1302.362347
469.040390,296.082377,-8216.285956,-2068.457845
469.040712,0.000000,-8660.409521,-1991.848295
469.041034,-1258.350101,-9104.533087,-1072.533697
469.041355,-1924.535449,-8438.347739,-842.705048
469.041677,-1332.370696,-8808.450710,-2145.067394
469.041999,0.000000,-10288.862594,-2068.457845
469.042320,-888.247130,-9992.780217,-689.485948
469.042642,-2146.597232,-7920.203579,-536.266849
469.042963,-2516.700203,-7105.977043,-842.705048
469.043285,-2072.576638,-7994.224174,-1915.238745
469.043607,-1480.411884,-7105.977043,-3370.820191
469.043928,-444.123565,-7254.018232,-2681.334243
469.044250,962.267725,-9844.739029,-995.924147
469.044572,1998.556043,-10955.047942,229.828649
469.044893,1628.453072,-9992.780217,-1225.752797
469.045215,1036.288319,-11325.150913,-1302.362347
469.045537,0.000000,-12287.418637,-995.924147
469.045858,-962.267725,-10584.944971,-1685.410096
469.046180,-1110.308913,-8586.388927,-1991.848295
469.046502,0.000000,-8882.471304,-1302.362347
469.046823,2294.638420,-10658.965565,-1608.800546
469.047145,1702.473667,-10362.883188,-306.438199
469.047466,1258.350101,-9474.636058,1378.971896
469.047788,1554.432478,-8808.450710,689.485948
469.048110,2072.576638,-8068.244768,-1608.800546
469.048431,1258.350101,-7624.121203,-2298.286494
469.048753,-814.226536,-8364.327145,-1455.581446
469.049075,-2442.679609,-9474.636058,-1149.143247
469.049396,-2960.823768,-10881.027347,-2451.505594
469.049718,-2812.782580,-11473.192101,-2757.943793
469.050040,-2368.659014,-11029.068536,-1991.848295
469.050361,-222.061783,-11103.089130,-1838.629195
469.050683,2072.576638,-9400.615463,-1532.190996
469.051005,3330.926739,-8734.430116,-1838.629195
469.051326,2516.700203,-8142.265362,-1378.971896
469.051648,740.205942,-6957.935855,-766.095498
469.051969,74.020594,-7105.977043,-1915.238745
469.052291,444.123565,-8438.347739,-2911.162892
469.052613,1036.288319,-9326.594869,-2221.676944
469.052934,74.020594,-8808.450710,-612.876398
469.053256,-296.082377,-9252.574275,842.705048
469.053578,-592.164754,-10288.862594,919.314598
469.053899,-1258.350101,-10584.944971,-1149.143247
469.054221,-2738.761985,-8142.265362,-2451.505594
469.054543,-2442.679609,-7846.182985,-2757.943793
469.054864,-666.185348,-9474.636058,-3677.258390
469.055186,666.185348,-10510.924376,-3294.210641
469.055507,888.247130,-10807.006753,-1072.533697
469.055829,1998.556043,-10140.821405,689.485948
469.056151,4441.235652,-9992.780217,-995.924147
469.056472,6143.709319,-10436.903782,-3753.867940
469.056794,4441.235652,-10066.800811,-2298.286494
469.057116,666.185348,-9252.574275,995.924147
469.057437,-2738.761985,-8438.347739,689.485948
469.057759,-4145.153275,-9178.553681,-2221.676944
469.058081,-4219.173869,-9918.759623,-3294.210641
469.058402,-4515.256246,-9844.739029,-2451.505594
469.058724,-4663.297435,-9474.636058,-1455.581446
469.059046,-2960.823768,-9918.759623,0.000000
469.059367,-2516.700203,-9992.780217,1072.533697
469.059689,-2812.782580,-9104.533087,383.047749
469.060010,-3478.967927,-7179.997637,-1915.238745
469.060332,-2368.659014,-6809.894666,-3677.258390
469.060654,-1554.432478,-7402.059420,-4213.525239
469.060975,-814.226536,-8808.450710,-2834.553343
469.061297,74.020594,-10732.986159,-689.485948
469.061619,518.144159,-11695.253884,-689.485948
469.061940,888.247130,-12583.501014,-536.266849
469.062262,592.164754,-11621.233289,-919.314598
469.062584,296.082377,-9178.553681,-2374.896044
469.062905,666.185348,-7698.141797,-2374.896044
469.063227,0.000000,-8068.244768,-1072.533697
469.063548,-962.267725,-7994.224174,0.000000
469.063870,-592.164754,-7254.018232,0.000000
469.064192,1036.288319,-7476.080014,-1378.971896
469.064513,2072.576638,-9252.574275,-1302.362347
469.064835,2442.679609,-9696.697840,306.438199
469.065157,2072.576638,-9474.636058,919.314598
469.065478,1702.473667,-10362.883188,76.609550
469.065800,592.164754,-10658.965565,-766.095498
469.066122,-1480.411884,-10140.821405,-1225.752797
469.066443,-3034.844362,-8956.491898,-2834.553343
469.066765,-2072.576638,-9030.512492,-4136.915689
469.067087,0.000000,-10510.924376,-4290.134789
469.067408,962.267725,-11547.212695,-1685.410096
469.067730,1480.411884,-11251.130318,995.924147
469.068051,1184.329507,-9548.656652,-76.609550
469.068373,888.247130,-8808.450710,-2604.724693
469.068695,0.000000,-9030.512492,-2757.943793
469.069016,-2812.782580,-8512.368333,-1915.238745
469.069338,-3849.070898,-7105.977043,-1225.752797
469.069660,-3404.947333,-7698.141797,-1762.019645
469.069981,-2442.679609,-9844.739029,-1838.629195
469.070303,-1406.391290,-10955.047942,-842.705048
469.070625,-592.164754,-10140.821405,-306.438199
469.070946,814.226536,-10362.883188,-919.314598
469.071268,2442.679609,-9400.615463,-995.924147
469.071590,3108.864956,-9030.512492,-842.705048
469.071911,2368.659014,-8956.491898,-1225.752797
469.072233,1480.411884,-8364.327145,-1838.629195
469.072554,1776.494261,-7476.080014,-1685.410096
469.072876,3034.844362,-8142.265362,-2451.505594
469.073198,3775.050304,-9548.656652,-2757.943793
469.073519,2590.720797,-10066.800811,-1455.581446
469.073841,0.000000,-9844.739029,229.828649
469.074163,-1554.432478,-11177.109724,-229.828649
469.074484,-2738.761985,-10584.944971,-2298.286494
469.074806,-3775.050304,-9400.615463,-3907.087040
469.075128,-4367.215058,-8216.285956,-3064.381992
469.075449,-4367.215058,-7402.059420,-1455.581446
469.075771,-3775.050304,-7624.121203,-1532.190996
469.076092,-2960.823768,-9030.512492,-2374.896044
469.076414,-2072.576638,-9844.739029,-1915.238745
469.076736,-444.123565,-9770.718434,-1685.410096
469.077057,1554.432478,-9326.594869,-2298.286494
469.077379,2738.761985,-10140.821405,-1302.362347
469.077701,2072.576638,-9844.739029,76.609550
469.078022,-222.061783,-8586.388927,-229.828649
469.078344,-1998.556043,-9844.739029,-1685.410096
469.078666,-1776.494261,-11769.274478,-3140.991542
469.078987,-962.267725,-11769.274478,-3064.381992
469.079309,-1036.288319,-9696.697840,-1378.971896
469.079631,-222.061783,-9326.594869,306.438199
469.079952,74.020594,-10140.821405,919.314598
469.080274,74.020594,-10066.800811,-995.924147
469.080595,-814.226536,-7772.162391,-2068.457845
469.080917,-962.267725,-6217.729913,-1378.971896
469.081239,-666.185348,-6661.853478,-1838.629195
469.081560,-814.226536,-8734.430116,-2604.724693
469.081882,-1184.329507,-9844.739029,-612.876398
469.082204,-1554.432478,-10807.006753,0.000000
469.082525,-1702.473667,-10584.944971,-995.924147
469.082847,-2294.638420,-10584.944971,-1685.410096
469.083169,-3182.885551,-10288.862594,-1302.362347
469.083490,-2664.741391,-9104.533087,-1149.143247
469.083812,-1998.556043,-8586.388927,-1838.629195
469.084134,-1480.411884,-8216.285956,-1532.190996
469.084455,-814.226536,-8512.368333,153.219100
469.084777,-222.061783,-7105.977043,153.219100
469.085098,814.226536,-6735.874072,-1915.238745
469.085420,1776.494261,-8660.409521,-1762.019645
469.085742,2294.638420,-10214.842000,0.000000
469.086063,1702.473667,-10214.842000,0.000000
469.086385,888.247130,-9178.553681,-153.219100
469.086707,666.185348,-9770.718434,-1378.971896
469.087028,518.144159,-10140.821405,-995.924147
469.087350,592.164754,-9474.636058,-2604.724693
469.087672,1628.453072,-9474.636058,-2528.115143
469.087993,2664.741391,-10288.862594,-536.266849
469.088315,3108.864956,-10658.965565,383.047749
469.088636,1480.411884,-9696.697840,-766.095498
469.088958,296.082377,-9400.615463,-1072.533697
469.089280,666.185348,-9770.718434,-1532.190996
469.089601,592.164754,-9770.718434,-2681.334243
469.089923,-370.102971,-9030.512492,-2911.162892
469.090245,-1332.370696,-8734.430116,-612.876398
469.090566,-1850.514855,-10658.965565,-306.438199
469.090888,-2590.720797,-11251.130318,-995.924147
469.091210,-3034.844362,-9696.697840,-1455.581446
469.091531,-1776.494261,-8734.430116,-2604.724693
469.091853,370.102971,-8364.327145,-3907.087040
469.092175,888.247130,-8808.450710,-2604.724693
469.092496,0.000000,-8586.388927,-229.828649
469.092818,-814.226536,-8438.347739,-383.047749
469.093139,370.102971,-7624.121203,-2451.505594
469.093461,1184.329507,-8068.244768,-4749.792088
469.093783,1036.288319,-9474.636058,-3447.429741
469.094104,-592.164754,-10214.842000,-1149.143247
469.094426,-1554.432478,-8956.491898,-842.705048
469.094748,-1628.453072,-10732.986159,-1991.848295
469.095069,-1850.514855,-12509.480420,-2068.457845
469.095391,-3182.885551,-9918.759623,-1991.848295
469.095713,-3182.885551,-7772.162391,-2374.896044
469.096034,-1628.453072,-7920.203579,-1991.848295
469.096356,-740.205942,-8438.347739,-2221.676944
469.096677,-1702.473667,-8808.450710,-2068.457845
469.096999,-2442.679609,-8956.491898,-306.438199
469.097321,-1554.432478,-8882.471304,-995.924147
469.097642,-296.082377,-7772.162391,-3140.991542
469.097964,0.000000,-8586.388927,-2987.772442
469.098286,-1628.453072,-9844.739029,-766.095498
469.098607,-3627.009116,-9918.759623,-536.266849
469.098929,-3997.112087,-11103.089130,-2757.943793
469.099251,-3478.967927,-11843.295072,-3294.210641
469.099572,-3775.050304,-11399.171507,-3294.210641
469.099894,-4367.215058,-9992.780217,-2757.943793
469.100216,-4441.235652,-9474.636058,-1991.848295
469.100537,-4071.132681,-9622.677246,-1608.800546
469.100859,-4589.276840,-9918.759623,-1762.019645
469.101180,-5181.441594,-8512.368333,-1149.143247
469.101502,-4737.318029,-7550.100608,-1302.362347
469.101824,-3330.926739,-6661.853478,-2221.676944
469.102145,-1998.556043,-7179.997637,-1838.629195
469.102467,-2368.659014,-8808.450710,0.000000
469.102789,-3849.070898,-9326.594869,153.219100
469.103110,-3627.009116,-9770.718434,-919.314598
469.103432,-2368.659014,-10955.047942,-2681.334243
469.103754,-1850.514855,-10807.006753,-3217.601092
469.104075,-1998.556043,-9474.636058,-2221.676944
469.104397,-2072.576638,-9326.594869,-612.876398
469.104719,-370.102971,-9400.615463,-1225.752797
469.105040,666.185348,-9770.718434,-2298.286494
469.105362,-222.061783,-9844.739029,-1685.410096
469.105683,-2368.659014,-7772.162391,-153.219100
469.106005,-2516.700203,-7476.080014,76.609550
469.106327,-1850.514855,-7550.100608,-1378.971896
469.106648,-1850.514855,-8734.430116,-1455.581446
469.106970,-3256.906145,-8882.471304,-229.828649
469.107292,-3997.112087,-8290.306550,-459.657299
469.107613,-3256.906145,-9030.512492,-1915.238745
469.107935,-3404.947333,-10436.903782,-1838.629195
469.108257,-5107.421000,-10214.842000,-1072.533697
469.108578,-5403.503377,-9918.759623,-766.095498
469.108900,-3552.988522,-9622.677246,-1991.848295
469.109221,-2368.659014,-9474.636058,-3064.381992
469.109543,-2368.659014,-9548.656652,-2604.724693
469.109865,-3330.926739,-9844.739029,-1225.752797
469.110186,-4441.235652,-9844.739029,-766.095498
469.110508,-4737.318029,-9918.759623,-919.314598
469.110830,-4959.379811,-10214.842000,-1149.143247
469.111151,-3997.112087,-9622.677246,-2451.505594
469.111473,-3330.926739,-9474.636058,-3140.991542
469.111795,-3330.926739,-8956.491898,-1378.971896
469.112116,-3627.009116,-8068.244768,459.657299
469.112438,-3849.070898,-7402.059420,-536.266849
469.112760,-4293.194464,-8068.244768,-2604.724693
469.113081,-6217.729913,-9474.636058,-3983.696590
469.113403,-8142.265362,-10362.883188,-2604.724693
469.113724,-7105.977043,-11177.109724,-1915.238745
469.114046,-3923.091493,-11695.253884,-2145.067394
469.114368,-740.205942,-10658.965565,-1762.019645
469.114689,74.020594,-9474.636058,-76.609550
469.115011,592.164754,-7846.182985,919.314598
469.115333,444.123565,-7031.956449,-1072.533697
469.115654,296.082377,-6809.894666,-3064.381992
469.115976,-370.102971,-7179.997637,-2451.505594
469.116298,-1406.391290,-8660.409521,-1302.362347
469.116619,-2072.576638,-9326.594869,-919.314598
469.116941,-2664.741391,-9474.636058,-1149.143247
469.117263,-4441.235652,-9252.574275,-1072.533697
469.117584,-5773.606348,-9030.512492,-1608.800546
469.117906,-7105.977043,-9030.512492,-3447.429741
469.118227,-8364.327145,-9104.533087,-3600.648841
469.118549,-9400.615463,-9844.739029,-3140.991542
469.118871,-8734.430116,-9992.780217,-2221.676944
469.119192,-6735.874072,-10288.862594,-2451.505594
469.119514,-4071.132681,-9696.697840,-2681.334243
469.119836,-2516.700203,-9474.636058,-1378.971896
469.120157,-1332.370696,-9104.533087,-689.485948
469.120479,518.144159,-9178.553681,-1149.143247
469.120801,1776.494261,-9178.553681,-2451.505594
469.121122,1480.411884,-8734.430116,-1915.238745
469.121444,-296.082377,-6661.853478,-1685.410096
469.121765,-1036.288319,-6143.709319,-2298.286494
469.122087,74.020594,-8364.327145,-4290.134789
469.122409,-296.082377,-10584.944971,-4290.134789
469.122730,-2442.679609,-11103.089130,-1302.362347
469.123052,-4515.256246,-11029.068536,0.000000
469.123374,-5033.400406,-11325.150913,-1072.533697
469.123695,-5403.503377,-12361.439231,-3370.820191
469.124017,-7550.100608,-12435.459826,-3140.991542
469.124339,-9104.533087,-10881.027347,-1455.581446
469.124660,-8660.409521,-9030.512492,-689.485948
469.124982,-6439.791695,-8882.471304,-1072.533697
469.125304,-4367.215058,-8512.368333,-1225.752797
469.125625,-2738.761985,-8364.327145,0.000000
469.125947,-2146.597232,-7994.224174,76.609550
469.126268,-962.267725,-8068.244768,153.219100
469.126590,222.061783,-7624.121203,-153.219100
469.126912,370.102971,-6587.832884,-1991.848295
469.127233,-370.102971,-7254.018232,-1991.848295
469.127555,-2442.679609,-8512.368333,-2145.067394
469.127877,-4515.256246,-9030.512492,-2834.553343
469.128198,-6069.688724,-9178.553681,-3447.429741
469.128520,-7105.977043,-10362.883188,-3370.820191
469.128842,-7328.038826,-10955.047942,-3753.867940
469.129163,-7031.956449,-11547.212695,-3600.648841
469.129485,-6143.709319,-11769.274478,-2068.457845
469.129806,-5107.421000,-10436.903782,-536.266849
469.130128,-3627.009116,-8586.388927,-459.657299
469.130450,-2368.659014,-8216.285956,-842.705048
469.130771,-2146.597232,-8438.347739,-459.657299
469.131093,-2368.659014,-8882.471304,995.924147
469.131415,-2146.597232,-8956.491898,1685.410096
469.131736,-1036.288319,-8512.368333,2068.457845
469.132058,-148.041188,-7772.162391,919.314598
469.132380,814.226536,-7550.100608,459.657299
469.132701,1110.308913,-7105.977043,76.609550
469.133023,444.123565,-7254.018232,-306.438199
469.133345,0.000000,-7846.182985,-1225.752797
469.133666,-888.247130,-8142.265362,-3217.601092
469.133988,-2368.659014,-9474.636058,-4366.744339
469.134309,-3627.009116,-10881.027347,-4596.572988
469.134631,-4515.256246,-11029.068536,-5132.839837
469.134953,-5403.503377,-11251.130318,-5745.716235
469.135274,-6439.791695,-11473.192101,-4596.572988
469.135596,-7105.977043,-12583.501014,-3600.648841
469.135918,-8364.327145,-11621.233289,-2911.162892
469.136239,-7994.224174,-9844.739029,-3370.820191
469.136561,-6661.853478,-9178.553681,-3753.867940
469.136883,-4959.379811,-8660.409521,-3370.820191
469.137204,-3775.050304,-8660.409521,-1149.143247
469.137526,-3182.885551,-8290.306550,1149.143247
469.137848,-1554.432478,-7920.203579,1915.238745
469.138170,296.082377,-7772.162391,536.266849
469.138492,1924.535449,-7105.977043,-459.657299
469.138813,3627.009116,-7254.018232,-1149.143247
469.139135,4663.297435,-8586.388927,-2374.896044
469.139457,4811.338623,-9696.697840,-2298.286494
469.139779,4071.132681,-10955.047942,-1378.971896
469.140101,1184.329507,-12657.521608,-689.485948
469.140423,-2738.761985,-14063.912898,-842.705048
469.140744,-7772.162391,-12879.583391,-1685.410096
469.141066,-10584.944971,-11473.192101,-3753.867940
469.141388,-11473.192101,-9696.697840,-4903.011187
469.141710,-11473.192101,-7698.141797,-4213.525239
469.142032,-11325.150913,-5551.544565,-2528.115143
469.142354,-10362.883188,-4811.338623,-1762.019645
469.142675,-8290.306550,-5921.647536,-1915.238745
469.142997,-6661.853478,-8660.409521,-2298.286494
469.143319,-5773.606348,-9918.759623,-1685.410096
469.143641,-4959.379811,-9622.677246,-1149.143247
469.143963,-3182.885551,-8734.430116,-1762.019645
469.144284,-1110.308913,-8660.409521,-1378.971896
469.144606,296.082377,-7846.182985,-1532.190996
469.144928,0.000000,-6069.688724,-2221.676944
469.145250,-888.247130,-6143.709319,-2681.334243
469.145572,-1702.473667,-8660.409521,-2834.553343
469.145894,-3330.926739,-10658.965565,-1915.238745
469.146215,-4663.297435,-13249.686362,-1225.752797
469.146537,-5477.523971,-14063.912898,-306.438199
469.146859,-5551.544565,-13175.665768,229.828649
469.147181,-5551.544565,-11029.068536,536.266849
469.147503,-5477.523971,-8512.368333,76.609550
469.147825,-3997.112087,-6143.709319,-306.438199
469.148146,-1850.514855,-4219.173869,-1378.971896
469.148468,888.247130,-4663.297435,-1838.629195
469.148790,2368.659014,-5921.647536,-995.924147
469.149112,2220.617826,-7624.121203,-306.438199
469.149434,1036.288319,-10436.903782,-1915.238745
469.149756,0.000000,-13175.665768,-1608.800546
469.150077,-1998.556043,-13619.789333,-2298.286494
469.150399,-3923.091493,-12435.459826,-3294.210641
469.150721,-4885.359217,-11991.336260,-3907.087040
469.151043,-5403.503377,-11769.274478,-3830.477490
469.151365,-6513.812290,-11473.192101,-2528.115143
469.151687,-7476.080014,-10510.924376,-1225.752797
469.152008,-8734.430116,-8808.450710,-1149.143247
469.152330,-8290.306550,-8068.244768,-2451.505594
469.152652,-6661.853478,-8290.306550,-3830.477490
469.152974,-4589.276840,-8142.265362,-4290.134789
469.153296,-3182.885551,-8142.265362,-2145.067394
469.153618,-2072.576638,-7402.059420,76.609550
469.153939,-814.226536,-6883.915261,0.000000
469.154261,222.061783,-6883.915261,-1378.971896
469.154583,74.020594,-8882.471304,-2987.772442
469.154905,-592.164754,-11547.212695,-3140.991542
469.155227,-1628.453072,-13841.851115,-1302.362347
469.155549,-2072.576638,-15174.221811,1915.238745
469.155870,-1110.308913,-13767.830521,3294.210641
469.156192,1258.350101,-10807.006753,2528.115143
469.156514,3404.947333,-10510.924376,0.000000
469.156836,3775.050304,-10658.965565,612.876398
469.157158,1998.556043,-10140.821405,3983.696590
469.157479,-518.144159,-7105.977043,6435.202183
469.157801,-2812.782580,-4441.235652,5209.449386
469.158123,-5255.462188,-3552.988522,2374.896044
469.158445,-8216.285956,-2146.597232,-536.266849
469.158767,-10288.862594,-2294.638420,-3830.477490
469.159089,-10658.965565,-4071.132681,-5362.668486
469.159410,-9400.615463,-6143.709319,-4903.011187
469.159732,-8734.430116,-8512.368333,-3983.696590
469.160054,-7402.059420,-12583.501014,-4749.792088
469.160376,-7328.038826,-16284.530724,-4596.572988
469.160698,-7476.080014,-17246.798449,-4979.620737
469.161020,-6735.874072,-16654.633695,-4903.011187
469.161341,-4219.173869,-14582.057057,-3140.991542
469.161663,-2220.617826,-12361.439231,-689.485948
469.161985,-2072.576638,-9326.594869,1532.190996
469.162307,-1628.453072,-6069.688724,3983.696590
469.162629,-666.185348,-4145.153275,4443.353888
469.162951,444.123565,-3330.926739,3677.258390
469.163272,296.082377,-3923.091493,2068.457845
469.163594,-296.082377,-6217.729913,2911.162892
469.163916,-888.247130,-8068.244768,3830.477490
469.164238,296.082377,-9622.677246,2374.896044
469.164560,2812.782580,-11843.295072,-995.924147
469.164882,4367.215058,-10807.006753,-2451.505594
469.165203,3256.906145,-10066.800811,-2604.724693
469.165525,1480.411884,-13323.706956,-2221.676944
469.165847,666.185348,-17616.901420,-1915.238745
469.166169,444.123565,-17024.736666,-2681.334243
469.166491,814.226536,-15544.324782,-4213.525239
469.166813,1258.350101,-14063.912898,-995.924147
469.167134,518.144159,-11991.336260,1991.848295
469.167456,-1480.411884,-8142.265362,3140.991542
469.167778,-1924.535449,-4367.215058,4136.915689
469.168100,-740.205942,-2960.823768,3753.867940
469.168422,296.082377,-1406.391290,612.876398
469.168744,518.144159,-1406.391290,229.828649
469.169065,444.123565,-3701.029710,2834.553343
469.169387,814.226536,-6217.729913,4519.963438
469.169709,1480.411884,-7772.162391,2298.286494
469.170031,2960.823768,-10955.047942,-2221.676944
469.170353,3256.906145,-11991.336260,-4979.620737
469.170674,1702.473667,-12287.418637,-3753.867940
469.170996,0.000000,-14804.118840,-1455.581446
469.171318,-1184.329507,-18357.107362,766.095498
469.171640,-2812.782580,-17320.819043,383.047749
469.171962,-3330.926739,-13619.789333,-229.828649
469.172284,-2812.782580,-12139.377449,766.095498
469.172605,-1924.535449,-11769.274478,4136.915689
469.172927,-2886.803174,-9030.512492,5592.497135
469.173249,-4293.194464,-6143.709319,7584.345430
469.173571,-3627.009116,-5625.565159,8810.098227
469.173893,-3108.864956,-7031.956449,5209.449386
469.174215,-4071.132681,-7179.997637,3294.210641
469.174536,-4293.194464,-6809.894666,5056.230287
469.174858,-740.205942,-6217.729913,4596.572988
469.175180,4145.153275,-6217.729913,1991.848295
469.175502,5107.421000,-3627.009116,919.314598
469.175824,3552.988522,-2368.659014,689.485948
469.176146,2072.576638,-6735.874072,-2145.067394
469.176467,740.205942,-12509.480420,-5056.230287
469.176789,-2072.576638,-16062.468941,-5515.887586
469.177111,-6735.874072,-16950.716072,-3753.867940
469.177433,-10066.800811,-19097.313304,1532.190996
469.177755,-11547.212695,-17912.983796,4596.572988
469.178077,-11177.109724,-13841.851115,3064.381992
469.178398,-9326.594869,-10140.821405,1608.800546
469.178720,-6809.894666,-10066.800811,3983.696590
469.179042,-4737.318029,-8734.430116,7124.688131
469.179364,-3034.844362,-5699.585753,10035.851024
469.179686,888.247130,-444.123565,11644.651570
469.180008,5329.482782,1702.473667,9116.536426
469.180329,9326.594869,222.061783,3907.087040
469.180651,9252.574275,-2590.720797,612.876398
469.180973,7105.977043,-6661.853478,1838.629195
469.181295,4145.153275,-11843.295072,4443.353888
469.181617,2368.659014,-18801.230927,3294.210641
469.181939,0.000000,-21169.889941,-1072.533697
469.182260,-2590.720797,-18875.251521,-3830.477490
469.182582,-3997.112087,-16728.654289,-3140.991542
469.182904,-3701.029710,-14582.057057,-995.924147
469.183226,-3775.050304,-9548.656652,76.609550
469.183548,-4367.215058,-4293.194464,306.438199
469.183869,-3701.029710,-5181.441594,1915.238745
469.184191,-2960.823768,-7328.038826,3064.381992
469.184513,-3997.112087,-7105.977043,2604.724693
469.184835,-3034.844362,-6587.832884,2757.943793
469.185157,740.205942,-8142.265362,5515.887586
469.185479,2886.803174,-10066.800811,8580.269578
469.185800,3182.885551,-7179.997637,9806.022374
469.186122,5477.523971,-2516.700203,5132.839837
469.186444,10881.027347,-2812.782580,-2911.162892
469.186766,12731.542202,-3849.070898,-6128.763984
469.187088,7772.162391,-5255.462188,-2221.676944
469.187410,1480.411884,-10510.924376,1838.629195
469.187731,-2664.741391,-19097.313304,919.314598
469.188053,-5403.503377,-23242.466579,-2834.553343
469.188375,-7328.038826,-22058.137072,-6665.030833
469.188697,-5847.626942,-17246.798449,-6741.640382
469.189019,-2294.638420,-11843.295072,-3830.477490
469.189341,-370.102971,-7179.997637,0.000000
469.189662,1332.370696,-4219.173869,3907.087040
469.189984,3034.844362,-3478.967927,3753.867940
469.190306,2664.741391,-7031.956449,-306.438199
469.190628,0.000000,-10288.862594,229.828649
469.190950,-814.226536,-10140.821405,4903.011187
469.191272,888.247130,-7698.141797,2757.943793
469.191593,4589.276840,-8142.265362,-1149.143247
469.191915,6365.771101,-11325.150913,689.485948
469.192237,1998.556043,-9400.615463,2987.772442
469.192559,-4811.338623,-7179.997637,2604.724693
469.192881,-8882.471304,-9030.512492,0.000000
469.193203,-9844.739029,-10214.842000,-4903.011187
469.193524,-11621.233289,-8956.491898,-9576.193725
469.193846,-12361.439231,-11251.130318,-8427.050478
469.194168,-10140.821405,-16728.654289,-2451.505594
469.194490,-6217.729913,-16950.716072,306.438199
469.194812,-3182.885551,-14656.077652,689.485948
469.195134,-1258.350101,-13471.748144,2451.505594
469.195455,740.205942,-11177.109724,3447.429741
469.195777,2886.803174,-5477.523971,1225.752797
469.196099,5995.668130,0.000000,76.609550
469.196421,9178.553681,1036.288319,2757.943793
469.196743,9474.636058,-1036.288319,7124.688131
469.197064,6513.812290,-5033.400406,8120.612279
469.197386,2146.597232,-8956.491898,7354.516781
469.197708,-888.247130,-13027.624579,5822.325785
469.198030,-2664.741391,-15248.242405,2298.286494
469.198352,-4145.153275,-14063.912898,383.047749
469.198674,-3923.091493,-10288.862594,919.314598
469.198995,-2368.659014,-7402.059420,1685.410096
469.199317,-1850.514855,-6439.791695,2451.505594
469.199639,-3182.885551,-7254.018232,1838.629195
469.199961,-5403.503377,-8586.388927,-842.705048
469.200283,-6217.729913,-11621.233289,-2145.067394
469.200605,-6143.709319,-14508.036463,-306.438199
469.200926,-5033.400406,-14285.974681,2451.505594
469.201248,-2812.782580,-11991.336260,3524.039291
469.201570,444.123565,-10140.821405,4903.011187
469.201892,2886.803174,-8586.388927,5209.449386
469.202214,4737.318029,-6217.729913,4903.011187
469.202536,5847.626942,-4071.132681,3064.381992
469.202857,6809.894666,-4515.256246,2987.772442
469.203179,7105.977043,-7031.956449,3677.258390
469.203501,5033.400406,-9400.615463,5286.058936
469.203823,2294.638420,-11103.089130,5132.839837
469.204145,0.000000,-12805.562797,3753.867940
469.204467,-1850.514855,-14137.933492,1225.752797
469.204788,-2960.823768,-14285.974681,-459.657299
469.205110,-2886.803174,-14211.954086,229.828649
469.205432,-1406.391290,-12509.480420,1302.362347
469.205754,1332.370696,-11177.109724,2757.943793
469.206076,2220.617826,-10214.842000,3524.039291
469.206398,1110.308913,-10066.800811,3524.039291
469.206719,-1480.411884,-9696.697840,2834.553343
469.207041,-3701.029710,-9030.512492,2757.943793
469.207363,-4071.132681,-8290.306550,2298.286494
469.207685,-2442.679609,-8290.306550,1838.629195
469.208007,74.020594,-7994.224174,2451.505594
469.208329,2072.576638,-6957.935855,3524.039291
469.208650,3034.844362,-6809.894666,4136.915689
469.208972,3108.864956,-7328.038826,3294.210641
469.209294,1480.411884,-7624.121203,1685.410096
469.209616,-2146.597232,-7254.018232,-766.095498
469.209938,-4885.359217,-8438.347739,-1608.800546
469.210260,-5403.503377,-10510.924376,-1915.238745
469.210581,-6143.709319,-12287.418637,-1991.848295
469.210903,-6143.709319,-14063.912898,-1378.971896
469.211225,-5033.400406,-14434.015869,459.657299
469.211547,-3034.844362,-14582.057057,1608.800546
469.211869,-1628.453072,-12731.542202,1915.238745
469.212190,-592.164754,-9696.697840,2068.457845
469.212512,-592.164754,-6217.729913,2374.896044
469.212834,-592.164754,-3849.070898,2834.553343
469.213156,222.061783,-4367.215058,2681.334243
469.213478,1702.473667,-5477.523971,2757.943793
469.213800,2368.659014,-6661.853478,2451.505594
469.214121,3034.844362,-7920.203579,2757.943793
469.214443,3923.091493,-9770.718434,2298.286494
469.214765,3404.947333,-10140.821405,1302.362347
469.215087,1776.494261,-9104.533087,-689.485948
469.215409,-666.185348,-7105.977043,-1915.238745
469.215731,-2368.659014,-7105.977043,-4213.525239
469.216052,-3330.926739,-7994.224174,-6205.373534
469.216374,-4737.318029,-10658.965565,-6741.640382
469.216696,-6217.729913,-14952.160028,-4213.525239
469.217018,-7328.038826,-18209.066173,-1149.143247
469.217340,-6957.935855,-19245.354492,383.047749
469.217662,-6069.688724,-16432.571912,229.828649
469.217983,-3404.947333,-11917.315666,306.438199
469.218305,296.082377,-7476.080014,842.705048
469.218627,4293.194464,-2960.823768,1991.848295
469.218949,6957.935855,-1110.308913,3064.381992
469.219271,8068.244768,-3108.864956,4979.620737
469.219593,7105.977043,-7105.977043,5745.716235
469.219914,5699.585753,-9178.553681,4443.353888
469.220236,4145.153275,-10436.903782,2068.457845
469.220558,3256.906145,-11843.295072,1072.533697
469.220880,2516.700203,-12731.542202,-76.609550
469.221202,666.185348,-11769.274478,-383.047749
469.221524,-1776.494261,-11843.295072,0.000000
469.221845,-4219.173869,-12953.603985,-689.485948
469.222167,-6735.874072,-13101.645173,-2221.676944
469.222489,-7624.121203,-12879.583391,-3294.210641
469.222811,-7105.977043,-12435.459826,-995.924147
469.223133,-5477.523971,-11325.150913,612.876398
469.223455,-3627.009116,-8734.430116,2068.457845
469.223776,-2294.638420,-6661.853478,3447.429741
469.224098,-1776.494261,-6217.729913,4903.011187
469.224420,-1554.432478,-4737.318029,4519.963438
469.224742,-962.267725,-3404.947333,2911.162892
469.225064,1184.329507,-3923.091493,1915.238745
469.225385,3256.906145,-5477.523971,2068.457845
469.225707,4663.297435,-6069.688724,2221.676944
469.226029,3849.070898,-8956.491898,2298.286494
469.226351,2516.700203,-13175.665768,2068.457845
469.226673,740.205942,-14211.954086,1302.362347
469.226995,-370.102971,-13249.686362,-383.047749
469.227316,444.123565,-12879.583391,-1225.752797
469.227638,1924.535449,-12213.398043,-995.924147
469.227960,2516.700203,-9548.656652,-612.876398
469.228282,3108.864956,-7624.121203,383.047749
469.228604,3182.885551,-7105.977043,1991.848295
469.228926,1850.514855,-7550.100608,1149.143247
469.229247,148.041188,-7772.162391,-536.266849
469.229569,-1184.329507,-8438.347739,76.609550
469.229891,-1554.432478,-9030.512492,842.705048
469.230213,-2294.638420,-9474.636058,612.876398
469.230535,-3256.906145,-10140.821405,383.047749
469.230857,-3923.091493,-8290.306550,383.047749
469.231178,-3404.947333,-6809.894666,-2451.505594
469.231500,-3478.967927,-8660.409521,-4136.915689
469.231822,-3701.029710,-12065.356855,-3600.648841
469.232144,-5255.462188,-12805.562797,-2374.896044
469.232466,-5699.585753,-12065.356855,-2451.505594
469.232788,-4663.297435,-12583.501014,-3600.648841
469.233109,-3034.844362,-12213.398043,-4366.744339
469.233431,-1924.535449,-10362.883188,-4443.353888
469.233753,-1036.288319,-9400.615463,-3677.258390
469.234075,0.000000,-9992.780217,-1838.629195
469.234397,1110.308913,-10510.924376,0.000000
469.234719,518.144159,-9770.718434,612.876398
469.235040,1110.308913,-8512.368333,306.438199
469.235362,2738.761985,-7476.080014,0.000000
469.235684,3923.091493,-8216.285956,383.047749
469.236006,3997.112087,-9326.594869,2145.067394
469.236328,4737.318029,-8142.265362,3907.087040
469.236650,4811.338623,-6069.688724,2987.772442
469.236971,4589.276840,-5921.647536,766.095498
469.237293,3182.885551,-6069.688724,-766.095498
469.237615,1554.432478,-7179.997637,-1532.190996
469.237936,74.020594,-8290.306550,-2451.505594
469.238258,-1850.514855,-10510.924376,-2528.115143
469.238580,-4071.132681,-11473.192101,-1915.238745
469.238902,-6217.729913,-11177.109724,-1915.238745
469.239223,-6217.729913,-11103.089130,-3907.087040
469.239545,-4737.318029,-9548.656652,-5745.716235
469.239867,-2590.720797,-8956.491898,-5515.887586
469.240188,-1332.370696,-9400.615463,-3447.429741
469.240510,-1110.308913,-9252.574275,-612.876398
469.240832,-1406.391290,-9548.656652,0.000000
469.241154,-814.226536,-9548.656652,-919.314598
469.241475,962.267725,-8364.327145,-1762.019645
469.241797,2664.741391,-6883.915261,-3294.210641
469.242119,3923.091493,-7254.018232,-2528.115143
469.242440,3923.091493,-9252.574275,-153.219100
469.242762,2146.597232,-11473.192101,1455.581446
469.243084,148.041188,-12287.418637,919.314598
469.243406,-962.267725,-13249.686362,-1608.800546
469.243727,-740.205942,-13545.768739,-3830.477490
469.244049,-592.164754,-11991.336260,-4213.525239
469.244371,666.185348,-10362.883188,-2298.286494
469.244692,1924.535449,-8808.450710,-919.314598
469.245014,2368.659014,-7402.059420,-1455.581446
469.245336,1850.514855,-7920.203579,-3064.381992
469.245658,518.144159,-9252.574275,-3830.477490
469.245979,-666.185348,-11325.150913,-2987.772442
469.246301,-1998.556043,-12213.398043,-2145.067394
469.246623,-3182.885551,-10214.842000,-919.314598
469.246944,-3478.967927,-8882.471304,-306.438199
469.247266,-2886.803174,-8216.285956,-306.438199
469.247588,-2442.679609,-7698.141797,-2528.115143
469.247910,-2590.720797,-7476.080014,-3600.648841
469.248231,-1998.556043,-8364.327145,-766.095498
469.248553,-1480.411884,-9104.533087,1915.238745
469.248875,-1184.329507,-7698.141797,2528.115143
469.249196,0.000000,-6069.688724,306.438199
469.249518,740.205942,-6291.750507,-2451.505594
469.249840,814.226536,-7105.977043,-2298.286494
469.250162,1258.350101,-8438.347739,-229.828649
469.250483,370.102971,-10214.842000,536.266849
469.250805,-148.041188,-10732.986159,842.705048
469.251127,0.000000,-10214.842000,1149.143247
469.251448,814.226536,-9770.718434,-153.219100
469.251770,1998.556043,-8068.244768,-2298.286494
469.252092,2368.659014,-7698.141797,-2145.067394
469.252414,1480.411884,-9474.636058,0.000000
469.252735,370.102971,-10214.842000,2298.286494
469.253057,-296.082377,-9326.594869,1608.800546
469.253379,-296.082377,-8438.347739,-995.924147
469.253700,666.185348,-7698.141797,-3294.210641
469.254022,148.041188,-7254.018232,-1915.238745
469.254344,-296.082377,-7624.121203,-1838.629195
469.254666,-1406.391290,-10807.006753,-689.485948
469.254987,-2516.700203,-12805.562797,383.047749
469.255309,-4885.359217,-13249.686362,0.000000
469.255631,-5329.482782,-12657.521608,-1532.190996
469.255952,-3330.926739,-10807.006753,-2221.676944
469.256274,-444.123565,-9104.533087,-3600.648841
469.256596,1998.556043,-8290.306550,-2834.553343
469.256918,3256.906145,-7698.141797,-153.219100
469.257239,3627.009116,-8734.430116,0.000000
469.257561,2516.700203,-10288.862594,-1378.971896
469.257883,888.247130,-11325.150913,-1149.143247
469.258204,148.041188,-9770.718434,-1149.143247
469.258526,740.205942,-8290.306550,-2604.724693
469.258848,1850.514855,-8364.327145,-2221.676944
469.259170,1258.350101,-9548.656652,-1838.629195
469.259491,-1258.350101,-11103.089130,-1149.143247
469.259813,-3182.885551,-11991.336260,-612.876398
469.260135,-2812.782580,-12583.501014,-1455.581446
469.260456,-1480.411884,-10881.027347,-2757.943793
469.260778,0.000000,-8586.388927,-2681.334243
469.261100,1258.350101,-6661.853478,-1838.629195
469.261422,1924.535449,-5551.544565,-995.924147
469.261743,2146.597232,-6883.915261,-919.314598
469.262065,1184.329507,-8734.430116,-1225.752797
469.262387,-962.267725,-8882.471304,-995.924147
469.262708,-1924.535449,-9178.553681,-1072.533697
469.263030,-1184.329507,-9178.553681,-1532.190996
469.263352,-222.061783,-9178.553681,-3370.820191
469.263674,-740.205942,-9474.636058,-3064.381992
469.263995,-2220.617826,-10214.842000,-1302.362347
469.264317,-3108.864956,-11399.171507,-1149.143247
469.264639,-3627.009116,-12435.459826,-2145.067394
469.264960,-3552.988522,-12065.356855,-1915.238745
469.265282,-2738.761985,-9252.574275,-1991.848295
469.265604,-296.082377,-6439.791695,-2068.457845
469.265926,1554.432478,-4589.276840,-2298.286494
469.266247,2886.803174,-4811.338623,-2604.724693
469.266569,1554.432478,-7179.997637,-1378.971896
469.266891,-370.102971,-9844.739029,-536.266849
469.267212,-1480.411884,-11473.192101,-459.657299
469.267534,-2220.617826,-12361.439231,-1838.629195
469.267856,-2220.617826,-12287.418637,-2451.505594
469.268178,-1036.288319,-9844.739029,-2374.896044
469.268499,1406.391290,-8808.450710,-2145.067394
469.268821,2886.803174,-8142.265362,-1455.581446
469.269143,2516.700203,-7550.100608,229.828649
469.269464,1110.308913,-7772.162391,-153.219100
469.269786,370.102971,-8660.409521,-919.314598
469.270108,814.226536,-9252.574275,-2987.772442
469.270430,1480.411884,-8438.347739,-3370.820191
469.270751,2368.659014,-8142.265362,-1608.800546
469.271073,2516.700203,-8808.450710,383.047749
469.271395,740.205942,-9400.615463,0.000000
469.271716,-888.247130,-10214.842000,-1072.533697
469.272038,-1924.535449,-11103.089130,-2604.724693
469.272360,-2220.617826,-11399.171507,-3830.477490
469.272682,-1480.411884,-11695.253884,-3370.820191
469.273003,-740.205942,-12805.562797,-1072.533697
469.273325,-1258.350101,-11325.150913,1225.752797
469.273647,-1258.350101,-9030.512492,1532.190996
469.273968,-296.082377,-7476.080014,-153.219100
469.274290,1184.329507,-7328.038826,-3140.991542
469.274612,962.267725,-7031.956449,-4366.744339
469.274934,0.000000,-7328.038826,-1149.143247
469.275255,74.020594,-8586.388927,1915.238745
469.275577,-296.082377,-9326.594869,1455.581446
469.275899,-1702.473667,-9844.739029,-1149.143247
469.276220,-2812.782580,-11473.192101,-2068.457845
469.276542,-3923.091493,-12213.398043,-2681.334243
469.276864,-2960.823768,-12361.439231,-3140.991542
469.277186,-1480.411884,-11177.109724,-1455.581446
469.277507,370.102971,-9030.512492,1455.581446
469.277829,2072.576638,-6143.709319,1532.190996
469.278151,3256.906145,-5255.462188,-1838.629195
469.278472,3034.844362,-6069.688724,-4366.744339
469.278794,1998.556043,-7920.203579,-2451.505594
469.279116,814.226536,-9474.636058,919.314598
469.279438,444.123565,-10214.842000,2757.943793
469.279759,592.164754,-9770.718434,1532.190996
469.280081,-444.123565,-9030.512492,-689.485948
469.280403,-962.267725,-8734.430116,-1608.800546
469.280724,-444.123565,-8882.471304,-1991.848295
469.281046,444.123565,-9770.718434,-1608.800546
469.281368,0.000000,-9622.677246,-536.266849
469.281690,-444.123565,-8438.347739,689.485948
469.282011,-444.123565,-8882.471304,0.000000
469.282333,-592.164754,-8808.450710,-3600.648841
469.282655,-814.226536,-8660.409521,-6052.154434
469.282976,-1110.308913,-9252.574275,-5515.887586
469.283298,-2072.576638,-10140.821405,-2911.162892
469.283620,-3404.947333,-12509.480420,-1225.752797
469.283942,-5699.585753,-13619.789333,-919.314598
469.284263,-7105.977043,-12435.459826,-1608.800546
469.284585,-6217.729913,-10955.047942,-3447.429741
469.284907,-3256.906145,-8808.450710,-5822.325785
469.285228,-888.247130,-8512.368333,-5286.058936
469.285550,0.000000,-8290.306550,-1991.848295
469.285872,444.123565,-8364.327145,1072.533697
469.286193,1628.453072,-8290.306550,459.657299
469.286515,3256.906145,-8956.491898,-2221.676944
469.286837,3997.112087,-8734.430116,-4290.134789
469.287159,3775.050304,-8734.430116,-3753.867940
469.287480,3701.029710,-9622.677246,-1149.143247
469.287802,3552.988522,-10362.883188,842.705048
469.288124,3034.844362,-10658.965565,919.314598
469.288445,2072.576638,-9770.718434,-1378.971896
469.288767,962.267725,-9326.594869,-3140.991542
469.289089,518.144159,-8438.347739,-2987.772442
469.289411,666.185348,-8068.244768,-2681.334243
469.289732,518.144159,-7994.224174,-1302.362347
469.290054,666.185348,-7846.182985,-229.828649
469.290376,-370.102971,-8438.347739,-1149.143247
469.290697,-1924.535449,-8956.491898,-2451.505594
469.291019,-3256.906145,-8142.265362,-2145.067394
469.291341,-3034.844362,-7846.182985,-1532.190996
469.291663,-2072.576638,-7624.121203,-1991.848295
469.291984,-1554.432478,-7698.141797,-2451.505594
469.292306,-1184.329507,-8142.265362,-1532.190996
469.292628,-888.247130,-9918.759623,-1838.629195
469.292949,-1036.288319,-11547.212695,-2834.553343
469.293271,-1406.391290,-12139.377449,-2298.286494
469.293593,-740.205942,-12731.542202,-1378.971896
469.293915,148.041188,-11399.171507,0.000000
469.294236,1332.370696,-9474.636058,0.000000
469.294558,1998.556043,-7402.059420,-1915.238745
469.294880,1850.514855,-7105.977043,-2221.676944
469.295201,1332.370696,-7031.956449,-306.438199
469.295523,518.144159,-8364.327145,0.000000
469.295845,-296.082377,-10510.924376,-536.266849
469.296167,-1776.494261,-11029.068536,-919.314598
469.296488,-3256.906145,-10807.006753,0.000000
469.296810,-3182.885551,-10510.924376,0.000000
469.297132,-1924.535449,-8808.450710,-2451.505594
469.297453,-296.082377,-8216.285956,-4136.915689
469.297775,296.082377,-9918.759623,-3447.429741
469.298097,-222.061783,-11547.212695,-995.924147
469.298419,-1184.329507,-11695.253884,-153.219100
469.298740,-1332.370696,-11695.253884,-1685.410096
469.299062,-370.102971,-11103.089130,-2374.896044
469.299384,740.205942,-8586.388927,-1762.019645
469.299705,1998.556043,-5921.647536,-2374.896044
469.300027,2590.720797,-5625.565159,-2451.505594
469.300349,1554.432478,-7105.977043,-1072.533697
469.300671,74.020594,-9474.636058,766.095498
469.300992,-1406.391290,-10955.047942,919.314598
469.301314,-1998.556043,-11991.336260,-229.828649
469.301636,-2368.659014,-11917.315666,-383.047749
469.301957,-2220.617826,-10732.986159,612.876398
469.302279,-1036.288319,-7476.080014,842.705048
469.302601,666.185348,-5181.441594,0.000000
469.302923,1332.370696,-4663.297435,-1685.410096
469.303244,962.267725,-5329.482782,-2451.505594
469.303566,-222.061783,-7254.018232,-2068.457845
469.303888,-962.267725,-10955.047942,-1455.581446
469.304209,-2886.803174,-14137.933492,-1532.190996
469.304531,-4959.379811,-14211.954086,-1225.752797
469.304853,-5699.585753,-11547.212695,-1915.238745
469.305175,-4367.215058,-9326.594869,-2987.772442
469.305496,-1554.432478,-8142.265362,-4290.134789
469.305818,-296.082377,-7105.977043,-4749.792088
469.306140,222.061783,-7550.100608,-1532.190996
469.306461,222.061783,-9252.574275,1225.752797
469.306783,222.061783,-10658.965565,612.876398
469.307105,592.164754,-10436.903782,-2451.505594
469.307427,1628.453072,-9104.533087,-3600.648841
469.307748,2738.761985,-8438.347739,-2221.676944
469.308070,3256.906145,-7772.162391,-766.095498
469.308392,3256.906145,-7179.997637,-689.485948
469.308713,2368.659014,-8512.368333,-995.924147
469.309035,1036.288319,-10584.944971,-2451.505594
469.309357,0.000000,-12139.377449,-2834.553343
469.309679,-962.267725,-12361.439231,-3140.991542
469.310000,-1110.308913,-11917.315666,-2757.943793
469.310322,-1036.288319,-10807.006753,-1608.800546
469.310644,-962.267725,-9474.636058,-766.095498
469.310965,-444.123565,-7920.203579,-1838.629195
469.311287,-296.082377,-7772.162391,-3753.867940
469.311609,-296.082377,-7920.203579,-4213.525239
469.311931,-666.185348,-8882.471304,-2528.115143
469.312252,-1110.308913,-9030.512492,-919.314598
469.312574,-1924.535449,-8216.285956,306.438199
469.312896,-1776.494261,-7624.121203,-459.657299
469.313217,-1998.556043,-8290.306550,-2604.724693
469.313539,-2590.720797,-8956.491898,-3064.381992
469.313861,-3108.864956,-9918.759623,-2221.676944
469.314183,-2516.700203,-11325.150913,-1991.848295
469.314504,-1332.370696,-12805.562797,-919.314598
469.314826,-1332.370696,-12657.521608,306.438199
469.315148,-2220.617826,-10066.800811,-612.876398
469.315469,-1480.411884,-7476.080014,-3140.991542
469.315791,592.164754,-5033.400406,-3447.429741
469.316113,2146.597232,-4441.235652,-3370.820191
469.316435,1850.514855,-5477.523971,-2145.067394
469.316756,814.226536,-7920.203579,-612.876398
469.317078,-592.164754,-11399.171507,1149.143247
469.317400,-1628.453072,-13989.892304,612.876398
469.317721,-1924.535449,-12805.562797,-1149.143247
469.318043,0.000000,-9696.697840,-1762.019645
469.318365,2368.659014,-8290.306550,-1915.238745
469.318687,3552.988522,-6291.750507,-766.095498
469.319008,3330.926739,-4885.359217,1072.533697
469.319330,3108.864956,-5699.585753,612.876398
469.319652,2220.617826,-8290.306550,-2298.286494
469.319973,814.226536,-10362.883188,-3447.429741
469.320295,-1258.350101,-11769.274478,-2145.067394
469.320617,-2812.782580,-12879.583391,-459.657299
469.320939,-3108.864956,-11991.336260,-229.828649
469.321260,-2442.679609,-11029.068536,-1378.971896
469.321582,-2294.638420,-9474.636058,-3140.991542
469.321904,-2886.803174,-8956.491898,-4060.306139
469.322225,-3108.864956,-9030.512492,-2911.162892
469.322547,-2590.720797,-9770.718434,-1838.629195
469.322869,-1702.473667,-9992.780217,-1302.362347
469.323191,-1924.535449,-9104.533087,-919.314598
469.323512,-1258.350101,-9400.615463,-2681.334243
469.323834,-1258.350101,-9770.718434,-3140.991542
469.324156,-1702.473667,-10881.027347,-2604.724693
469.324477,-2368.659014,-11695.253884,-1838.629195
469.324799,-1998.556043,-11029.068536,-1149.143247
469.325121,-962.267725,-9548.656652,-689.485948
469.325443,148.041188,-8586.388927,-2298.286494
469.325764,592.164754,-8660.409521,-3294.210641
469.326086,518.144159,-8956.491898,-3370.820191
469.326408,518.144159,-10881.027347,-1762.019645
469.326729,962.267725,-12657.521608,-536.266849
469.327051,740.205942,-12213.398043,919.314598
469.327373,1554.432478,-10214.842000,-153.219100
469.327695,2220.617826,-8512.368333,-1762.019645
469.328016,3256.906145,-7920.203579,-1762.019645
469.328338,3256.906145,-6439.791695,-766.095498
469.328660,2664.741391,-5847.626942,0.000000
469.328981,1554.432478,-6957.935855,919.314598
469.329303,-370.102971,-7846.182985,689.485948
469.329625,-2442.679609,-8882.471304,-1378.971896
469.329947,-3330.926739,-10066.800811,-2298.286494
469.330268,-3182.885551,-10584.944971,-1991.848295
469.330590,-2886.803174,-10140.821405,-1762.019645
469.330912,-2368.659014,-9992.780217,-612.876398
469.331233,-2664.741391,-10510.924376,-306.438199
469.331555,-3330.926739,-9696.697840,-1991.848295
469.331877,-3849.070898,-9030.512492,-3370.820191
469.332199,-3701.029710,-6513.812290,-3370.820191
469.332520,-2368.659014,-5477.523971,-2068.457845
469.332842,-444.123565,-5255.462188,-1608.800546
469.333164,740.205942,-7105.977043,-1455.581446
469.333485,-148.041188,-10436.903782,-306.438199
469.333807,-1554.432478,-13915.871710,766.095498
469.334129,-2442.679609,-15248.242405,1991.848295
469.334451,-1184.329507,-11917.315666,1532.190996
469.334772,1554.432478,-7254.018232,0.000000
469.335094,5329.482782,-3775.050304,-459.657299
469.335416,7031.956449,-1110.308913,-459.657299
469.335737,7105.977043,-2368.659014,-1072.533697
469.336059,4737.318029,-7846.182985,-536.266849
469.336381,1036.288319,-13249.686362,0.000000
469.336703,-2516.700203,-17098.757260,612.876398
469.337024,-4811.338623,-16580.613101,-306.438199
469.337346,-4441.235652,-12657.521608,-3217.601092
469.337668,-2368.659014,-9992.780217,-5515.887586
469.337989,-1554.432478,-7846.182985,-5132.839837
469.338311,-2072.576638,-6883.915261,-2604.724693
469.338633,-2590.720797,-8660.409521,-919.314598
469.338954,-2516.700203,-10881.027347,-1685.410096
469.339276,-3552.988522,-12213.398043,-1991.848295
469.339598,-3627.009116,-11103.089130,-2604.724693
469.339920,-2146.597232,-9178.553681,-3447.429741
469.340241,888.247130,-8142.265362,-3294.210641
469.340563,2738.761985,-7105.977043,-2451.505594
469.340885,2368.659014,-7624.121203,-536.266849
469.341206,518.144159,-9918.759623,689.485948
469.341528,-888.247130,-10881.027347,-612.876398
469.341850,-1924.535449,-11251.130318,-3140.991542
469.342171,-2072.576638,-10584.944971,-3370.820191
469.342493,-1110.308913,-8438.347739,-2757.943793
469.342815,1184.329507,-7476.080014,-2451.505594
469.343137,1998.556043,-9030.512492,-1532.190996
469.343458,592.164754,-11325.150913,459.657299
469.343780,-1628.453072,-10584.944971,689.485948
469.344102,-1850.514855,-9474.636058,-2834.553343
469.344423,222.061783,-8068.244768,-4749.792088
469.344745,2072.576638,-6957.935855,-4903.011187
469.345067,2294.638420,-5847.626942,-2681.334243
469.345389,888.247130,-7031.956449,-383.047749
469.345710,-1110.308913,-10362.883188,76.609550
469.346032,-4663.297435,-12805.562797,-1302.362347
469.346354,-7105.977043,-14285.974681,-2451.505594
469.346675,-6883.915261,-12065.356855,-3294.210641
469.346997,-3478.967927,-8512.368333,-4366.744339
469.347319,962.267725,-6365.771101,-3753.867940
469.347640,3256.906145,-5033.400406,-1532.190996
469.347962,3182.885551,-5847.626942,229.828649
469.348284,1184.329507,-7994.224174,76.609550
469.348606,-518.144159,-10362.883188,-1455.581446
469.348927,-1332.370696,-11103.089130,-2221.676944
469.349249,-666.185348,-10584.944971,-2374.896044
469.349571,1258.350101,-9400.615463,-995.924147
469.349892,2442.679609,-8364.327145,-383.047749
469.350214,2294.638420,-8512.368333,-459.657299
469.350536,888.247130,-10066.800811,153.219100
469.350858,-444.123565,-11177.109724,-842.705048
469.351179,-1036.288319,-11251.130318,-3370.820191
469.351501,-1184.329507,-11177.109724,-2604.724693
469.351823,0.000000,-9252.574275,0.000000
469.352144,1110.308913,-7105.977043,0.000000
469.352466,962.267725,-6365.771101,-2374.896044
469.352788,-370.102971,-7846.182985,-1608.800546
469.353109,-2368.659014,-9770.718434,-1225.752797
469.353431,-3701.029710,-11103.089130,-919.314598
469.353753,-3775.050304,-10955.047942,-842.705048
469.354075,-2960.823768,-9918.759623,-1455.581446
469.354396,-1332.370696,-9770.718434,-1608.800546
469.354718,-296.082377,-9400.615463,-995.924147
469.355040,148.041188,-9326.594869,-1532.190996
469.355361,296.082377,-9992.780217,-1762.019645
469.355683,-148.041188,-10732.986159,-383.047749
469.356005,-444.123565,-10658.965565,-612.876398
469.356326,222.061783,-8956.491898,-766.095498
469.356648,1480.411884,-8586.388927,-2145.067394
469.356970,1406.391290,-8216.285956,-1838.629195
469.357292,1036.288319,-7994.224174,-612.876398
469.357613,0.000000,-9400.615463,-459.657299
469.357935,-1924.535449,-10510.924376,-842.705048
469.358257,-3701.029710,-11473.192101,-153.219100
469.358578,-3997.112087,-11769.274478,-306.438199
469.358900,-2516.700203,-9400.615463,-1608.800546
469.359222,-666.185348,-7105.977043,-1838.629195
469.359544,1036.288319,-6587.832884,-995.924147
469.359865,1406.391290,-7402.059420,0.000000
469.360187,148.041188,-8068.244768,383.047749
469.360509,-592.164754,-8808.450710,-383.047749
469.360830,-592.164754,-10436.903782,-1915.238745
469.361152,-370.102971,-9844.739029,-1838.629195
469.361474,444.123565,-8290.306550,-1608.800546
469.361795,1776.494261,-7772.162391,-1225.752797
469.362117,2442.679609,-8216.285956,-2145.067394
469.362439,1332.370696,-9474.636058,-2221.676944
469.362761,-1036.288319,-11325.150913,-1838.629195
469.363082,-2442.679609,-11547.212695,-1685.410096
469.363404,-2368.659014,-11621.233289,-1915.238745
469.363726,-1036.288319,-10362.883188,-1838.629195
469.364047,444.123565,-8512.368333,-1378.971896
469.364369,1036.288319,-7031.956449,-1838.629195
469.364691,814.226536,-6735.874072,-2834.553343
469.365013,-148.041188,-9030.512492,-2528.115143
469.365334,-740.205942,-10288.862594,-1455.581446
469.365656,-814.226536,-10436.903782,-1685.410096
469.365978,-740.205942,-9770.718434,-1991.848295
469.366299,-1332.370696,-9474.636058,-2068.457845
469.366621,-1628.453072,-8808.450710,-2298.286494
469.366943,-2590.720797,-9844.739029,-3907.087040
469.367264,-3034.844362,-11843.295072,-3447.429741
469.367586,-2442.679609,-12657.521608,-2834.553343
469.367908,-2146.597232,-12953.603985,-2298.286494
469.368230,-1628.453072,-11325.150913,-919.314598
469.368551,148.041188,-8586.388927,-536.266849
469.368873,1998.556043,-6439.791695,-3064.381992
469.369195,3552.988522,-4885.359217,-4749.792088
469.369516,3627.009116,-5699.585753,-3600.648841
469.369838,2368.659014,-8216.285956,-1225.752797
469.370160,370.102971,-11177.109724,612.876398
469.370482,-888.247130,-12509.480420,1302.362347
469.370803,-592.164754,-11991.336260,-1608.800546
469.371125,-370.102971,-10510.924376,-3907.087040
469.371447,0.000000,-8734.430116,-2834.553343
469.371768,814.226536,-8216.285956,-1915.238745
469.372090,592.164754,-9104.533087,-995.924147
469.372412,-296.082377,-9474.636058,0.000000
469.372733,-1406.391290,-9548.656652,0.000000
469.373055,-1036.288319,-8660.409521,-2145.067394
469.373377,0.000000,-7031.956449,-3600.648841
469.373699,740.205942,-6883.915261,-2911.162892
469.374020,222.061783,-7402.059420,-1149.143247
469.374342,-888.247130,-8956.491898,-229.828649
469.374664,-2072.576638,-10955.047942,-306.438199
469.374985,-3478.967927,-11325.150913,-842.705048
469.375307,-3849.070898,-9770.718434,-1685.410096
469.375629,-2146.597232,-8364.327145,-2911.162892
469.375950,222.061783,-8216.285956,-3064.381992
469.376272,1110.308913,-8660.409521,-919.314598
469.376594,0.000000,-9326.594869,1915.238745
469.376916,-1480.411884,-9622.677246,1685.410096
469.377237,-1184.329507,-10288.862594,-1532.190996
469.377559,-814.226536,-10732.986159,-3677.258390
469.377881,-888.247130,-9696.697840,-1532.190996
469.378202,74.020594,-7476.080014,1149.143247
469.378524,1554.432478,-5995.668130,689.485948
469.378846,2072.576638,-7105.977043,-1378.971896
469.379168,-148.041188,-9844.739029,-919.314598
469.379489,-1702.473667,-11325.150913,-689.485948
469.379811,-1924.535449,-12213.398043,-1532.190996
469.380133,-1258.350101,-12657.521608,-1072.533697
469.380454,-148.041188,-11103.089130,1455.581446
469.380776,1258.350101,-7994.224174,919.314598
469.381098,3330.926739,-5847.626942,-2528.115143
469.381419,4145.153275,-5995.668130,-4366.744339
469.381741,2886.803174,-8216.285956,-2987.772442
469.382063,740.205942,-10658.965565,-306.438199
469.382385,-1332.370696,-11769.274478,766.095498
469.382706,-1554.432478,-12731.542202,76.609550
469.383028,-2294.638420,-11991.336260,-1149.143247
469.383350,-3108.864956,-10362.883188,-1991.848295
469.383671,-2664.741391,-8512.368333,-2451.505594
469.383993,-1480.411884,-9326.594869,-3064.381992
469.384315,-1184.329507,-10288.862594,-1685.410096
469.384637,-1702.473667,-9844.739029,1685.410096
469.384958,-1258.350101,-8290.306550,689.485948
469.385280,0.000000,-7254.018232,-3217.601092
469.385602,592.164754,-7179.997637,-4673.182538
469.385923,666.185348,-7772.162391,-2987.772442
469.386245,518.144159,-7772.162391,-2145.067394
469.386567,518.144159,-8956.491898,-1991.848295
469.386888,-1184.329507,-11917.315666,-1838.629195
469.387210,-3108.864956,-13619.789333,-1378.971896
469.387532,-3923.091493,-13693.809927,-1455.581446
469.387854,-3108.864956,-11547.212695,-3983.696590
469.388175,-814.226536,-9474.636058,-3677.258390
469.388497,1258.350101,-8068.244768,-2221.676944
469.388819,1480.411884,-6587.832884,-459.657299
469.389140,1480.411884,-7179.997637,919.314598
469.389462,1036.288319,-8364.327145,-536.266849
469.389784,1184.329507,-8364.327145,-2068.457845
469.390105,1480.411884,-7402.059420,-1991.848295
469.390427,2368.659014,-7105.977043,-1072.533697
469.390749,2738.761985,-7920.203579,-612.876398
469.391071,2294.638420,-9548.656652,-459.657299
469.391392,888.247130,-10288.862594,-459.657299
469.391714,0.000000,-11177.109724,-1378.971896
469.392036,-592.164754,-11029.068536,-2911.162892
469.392357,-1480.411884,-10658.965565,-2834.553343
469.392679,-1628.453072,-9992.780217,-1532.190996
469.393001,-740.205942,-8956.491898,-1149.143247
469.393323,74.020594,-7476.080014,-2451.505594
469.393644,0.000000,-7254.018232,-2451.505594
469.393966,-740.205942,-7624.121203,-1991.848295
469.394288,-1776.494261,-8734.430116,-1915.238745
469.394609,-2368.659014,-10066.800811,-1608.800546
469.394931,-2442.679609,-11473.192101,-689.485948
469.395253,-2664.741391,-11843.295072,-842.705048
469.395574,-2886.803174,-10288.862594,-1149.143247
469.395896,-2368.659014,-8512.368333,-1455.581446
469.396218,-592.164754,-8290.306550,-1762.019645
469.396540,1110.308913,-8586.388927,-2068.457845
469.396861,1406.391290,-9918.759623,-1991.848295
469.397183,1036.288319,-10584.944971,153.219100
469.397505,518.144159,-10881.027347,1838.629195
469.397826,888.247130,-10436.903782,383.047749
469.398148,1332.370696,-9400.615463,-1225.752797
469.398470,1998.556043,-7402.059420,-1991.848295
469.398792,1850.514855,-6365.771101,-2221.676944
469.399113,1406.391290,-7328.038826,-1608.800546
469.399435,148.041188,-9474.636058,76.609550
469.399757,-1776.494261,-11029.068536,76.609550
469.400078,-2442.679609,-12657.521608,-1149.143247
469.400400,-2812.782580,-12657.521608,-2068.457845
469.400722,-2368.659014,-10881.027347,-1991.848295
469.401043,-1628.453072,-8364.327145,-1455.581446
469.401365,-962.267725,-6513.812290,-536.266849
469.401687,296.082377,-6513.812290,-383.047749
469.402009,666.185348,-7328.038826,-1225.752797
469.402330,370.102971,-8068.244768,-1225.752797
469.402652,0.000000,-8290.306550,0.000000
469.402974,0.000000,-9474.636058,76.609550
469.403295,222.061783,-10436.903782,0.000000
469.403617,-296.082377,-9622.677246,-995.924147
469.403939,-814.226536,-9622.677246,-1532.190996
469.404260,-370.102971,-9844.739029,-1072.533697
469.404582,222.061783,-10214.842000,-536.266849
469.404904,666.185348,-10584.944971,-1378.971896
469.405226,518.144159,-11177.109724,-766.095498
469.405547,444.123565,-9918.759623,153.219100
469.405869,444.123565,-7550.100608,-383.047749
469.406191,444.123565,-6217.729913,-1838.629195
469.406512,740.205942,-6069.688724,-2757.943793
469.406834,74.020594,-7476.080014,-2604.724693
469.407156,-1554.432478,-10140.821405,-2298.286494
469.407478,-3256.906145,-11917.315666,-383.047749
469.407799,-4441.235652,-12139.377449,0.000000
469.408121,-4515.256246,-11695.253884,-2374.896044
469.408443,-3404.947333,-9918.759623,-3447.429741
469.408764,-1702.473667,-8068.244768,-3830.477490
469.409086,-518.144159,-8216.285956,-3983.696590
469.409408,0.000000,-8882.471304,-1991.848295
469.409729,-814.226536,-10510.924376,-536.266849
469.410051,-962.267725,-11325.150913,-766.095498
469.410373,0.000000,-11473.192101,-2681.334243
469.410695,1554.432478,-9844.739029,-3064.381992
469.411016,3330.926739,-8142.265362,-2528.115143
469.411338,4441.235652,-7402.059420,-1915.238745
469.411660,4367.215058,-7031.956449,-995.924147
469.411981,2960.823768,-8438.347739,-995.924147
469.412303,1850.514855,-10658.965565,-1608.800546
469.412625,592.164754,-11843.295072,-1915.238745
469.412947,0.000000,-11843.295072,-1762.019645
469.413268,296.082377,-11473.192101,-1072.533697
469.413590,666.185348,-9178.553681,229.828649
469.413912,1036.288319,-7031.956449,0.000000
469.414233,1036.288319,-5329.482782,-1225.752797
469.414555,1406.391290,-5773.606348,-3140.991542
469.414877,740.205942,-7179.997637,-3753.867940
469.415198,-1702.473667,-9252.574275,-2987.772442
469.415520,-3997.112087,-10288.862594,-766.095498
469.415842,-5033.400406,-11621.233289,842.705048
469.416164,-4515.256246,-11399.171507,-1225.752797
469.416485,-3775.050304,-10066.800811,-3447.429741
469.416807,-3330.926739,-8660.409521,-3677.258390
469.417129,-2738.761985,-8586.388927,-1302.362347
469.417450,-888.247130,-9178.553681,383.047749
469.417772,222.061783,-8956.491898,842.705048
469.418094,-296.082377,-7920.203579,76.609550
469.418416,-444.123565,-7328.038826,-1455.581446
469.418737,740.205942,-7624.121203,-2221.676944
469.419059,1406.391290,-7920.203579,-2757.943793
469.419381,444.123565,-9622.677246,-1915.238745
469.419702,-1110.308913,-12065.356855,919.314598
469.420024,-1702.473667,-12583.501014,1838.629195
469.420346,-1258.350101,-11843.295072,-1072.533697
469.420667,0.000000,-11177.109724,-2221.676944
469.420989,814.226536,-9030.512492,-3064.381992
469.421311,2220.617826,-7624.121203,-2528.115143
469.421633,3256.906145,-8142.265362,-1149.143247
469.421954,3182.885551,-9548.656652,76.609550
469.422276,1924.535449,-9992.780217,-459.657299
469.422598,296.082377,-10732.986159,-919.314598
469.422919,0.000000,-11103.089130,-1991.848295
469.423241,592.164754,-9918.759623,-2374.896044
469.423563,370.102971,-8660.409521,-2221.676944
469.423884,74.020594,-8142.265362,-383.047749
469.424206,-444.123565,-9252.574275,76.609550
469.424528,-2442.679609,-9918.759623,-1532.190996
469.424850,-4071.132681,-10732.986159,-2528.115143
469.425171,-3997.112087,-11103.089130,-1608.800546
469.425493,-2294.638420,-11177.109724,-1378.971896
469.425815,-666.185348,-10140.821405,-1762.019645
469.426136,-666.185348,-9400.615463,-1302.362347
469.426458,-1110.308913,-8438.347739,-383.047749
469.426780,-444.123565,-8512.368333,-1302.362347
469.427102,0.000000,-7994.224174,-2681.334243
469.427423,-222.061783,-7402.059420,-2451.505594
469.427745,-740.205942,-9104.533087,-689.485948
469.428067,-1036.288319,-9770.718434,766.095498
469.428388,-370.102971,-9474.636058,612.876398
469.428710,0.000000,-9474.636058,-1302.362347
469.429032,222.061783,-9918.759623,-1302.362347
469.429353,0.000000,-8956.491898,-306.438199
469.429675,0.000000,-8512.368333,383.047749
469.429997,1184.329507,-8142.265362,766.095498
469.430319,2368.659014,-7698.141797,153.219100
469.430640,2368.659014,-7254.018232,-1225.752797
469.430962,2220.617826,-7328.038826,-153.219100
469.431284,1924.535449,-7254.018232,0.000000
469.431605,1776.494261,-7698.141797,-612.876398
469.431927,1776.494261,-9178.553681,-1149.143247
469.432249,518.144159,-9770.718434,-995.924147
469.432571,-1036.288319,-10436.903782,-1149.143247
469.432892,-1924.535449,-11473.192101,-1378.971896
469.433214,-1850.514855,-11473.192101,-2068.457845
469.433536,-962.267725,-9474.636058,-2298.286494
469.433857,-222.061783,-7994.224174,-1991.848295
469.434179,0.000000,-8364.327145,-1455.581446
469.434501,-148.041188,-9474.636058,-1762.019645
469.434822,-1184.329507,-10066.800811,-2451.505594
469.435144,-1998.556043,-11029.068536,-2068.457845
469.435466,-2146.597232,-10066.800811,-689.485948
469.435788,-814.226536,-8438.347739,-1149.143247
469.436109,444.123565,-7624.121203,-2757.943793
469.436431,222.061783,-9252.574275,-3370.820191
469.436753,-1332.370696,-11251.130318,-2834.553343
469.437074,-2368.659014,-13323.706956,-2681.334243
469.437396,-2812.782580,-14211.954086,-2528.115143
469.437718,-2590.720797,-12731.542202,-2451.505594
469.438039,-888.247130,-11473.192101,-1685.410096
469.438361,888.247130,-8956.491898,-1302.362347
469.438683,1628.453072,-6513.812290,-2374.896044
469.439005,1184.329507,-5773.606348,-3600.648841
469.439326,370.102971,-8438.347739,-1532.190996
469.439648,-518.144159,-10066.800811,0.000000
469.439970,-1628.453072,-10140.821405,-536.266849
469.440292,-2368.659014,-9918.759623,-1225.752797
469.440613,-2368.659014,-9844.739029,-1378.971896
469.440935,-2294.638420,-9252.574275,-1838.629195
469.441257,-1850.514855,-8660.409521,-2221.676944
469.441579,-962.267725,-8512.368333,-2298.286494
469.441901,0.000000,-9844.739029,-1302.362347
469.442222,370.102971,-10140.821405,229.828649
469.442544,518.144159,-9326.594869,536.266849
469.442866,1554.432478,-8068.244768,-842.705048
469.443188,2072.576638,-7624.121203,-2604.724693
469.443510,2294.638420,-7179.997637,-2068.457845
469.443831,2072.576638,-7254.018232,-459.657299
469.444153,1554.432478,-8438.347739,0.000000
469.444475,148.041188,-10066.800811,0.000000
469.444797,-1480.411884,-9696.697840,842.705048
469.445119,-2516.700203,-9474.636058,76.609550
469.445440,-2368.659014,-9400.615463,-1915.238745
469.445762,-1184.329507,-8438.347739,-2298.286494
469.446084,-592.164754,-8290.306550,-153.219100
469.446406,0.000000,-8438.347739,1455.581446
469.446728,0.000000,-7698.141797,306.438199
469.447049,-296.082377,-8068.244768,-2451.505594
469.447371,0.000000,-9548.656652,-3294.210641
469.447693,370.102971,-9918.759623,-2604.724693
469.448015,222.061783,-9474.636058,-2834.553343
469.448337,370.102971,-10436.903782,-1991.848295
469.448658,-296.082377,-11621.233289,76.609550
469.448980,-1184.329507,-11843.295072,-536.266849
469.449302,-1702.473667,-11621.233289,-2528.115143
469.449624,-1702.473667,-10807.006753,-2834.553343
469.449946,-740.205942,-10362.883188,-2145.067394
469.450267,592.164754,-10288.862594,-1149.143247
469.450589,518.144159,-9770.718434,306.438199
469.450911,1036.288319,-8882.471304,995.924147
469.451233,1258.350101,-7402.059420,-306.438199
469.451554,1776.494261,-7105.977043,-2145.067394
469.451876,1850.514855,-7476.080014,-2528.115143
469.452198,814.226536,-8586.388927,-1838.629195
469.452520,-296.082377,-10214.842000,-306.438199
469.452842,-592.164754,-11325.150913,383.047749
469.453163,-666.185348,-11325.150913,-1072.533697
469.453485,-1332.370696,-11473.192101,-2911.162892
469.453807,-2738.761985,-11029.068536,-2757.943793
469.454129,-2738.761985,-10510.924376,-2298.286494
469.454451,-962.267725,-10658.965565,-1838.629195
469.454772,0.000000,-10066.800811,-1378.971896
469.455094,-296.082377,-8364.327145,-383.047749
469.455416,-592.164754,-6439.791695,0.000000
469.455738,74.020594,-6217.729913,-766.095498
469.456060,0.000000,-6365.771101,-3217.601092
469.456381,-666.185348,-7105.977043,-2987.772442
469.456703,-1332.370696,-9104.533087,0.000000
469.457025,-1702.473667,-10881.027347,2298.286494
469.457347,-1628.453072,-10658.965565,306.438199
469.457669,-1480.411884,-10955.047942,-2145.067394
469.457990,-666.185348,-10140.821405,-3140.991542
469.458312,888.247130,-9400.615463,-1915.238745
469.458634,2368.659014,-8512.368333,-1225.752797
469.458956,2368.659014,-7846.182985,-995.924147
469.459278,1258.350101,-8142.265362,-1302.362347
469.459599,0.000000,-8512.368333,-919.314598
469.459921,-444.123565,-8734.430116,-995.924147
469.460243,-148.041188,-8142.265362,-2757.943793
469.460565,-1184.329507,-8142.265362,-2681.334243
469.460887,-1924.535449,-10214.842000,-153.219100
469.461208,-3256.906145,-11029.068536,1455.581446
469.461530,-3701.029710,-10881.027347,153.219100
469.461852,-3182.885551,-9918.759623,-2451.505594
469.462174,-2072.576638,-9474.636058,-3677.258390
469.462496,-814.226536,-8364.327145,-3753.867940
469.462817,0.000000,-8734.430116,-1608.800546
469.463139,1258.350101,-8956.491898,-1762.019645
469.463461,2294.638420,-9030.512492,-3294.210641
469.463783,2516.700203,-10584.944971,-3753.867940
469.464105,2072.576638,-11621.233289,-2604.724693
469.464426,1554.432478,-11177.109724,-2987.772442
469.464748,2072.576638,-10362.883188,-3983.696590
469.465070,2146.597232,-10362.883188,-2757.943793
469.465392,740.205942,-9770.718434,-1608.800546
469.465714,-1110.308913,-8660.409521,-2451.505594
469.466035,-2220.617826,-9104.533087,-4060.306139
469.466357,-2146.597232,-9696.697840,-3140.991542
469.466679,-962.267725,-9400.615463,-2221.676944
469.467001,-592.164754,-8142.265362,-1915.238745
469.467323,0.000000,-6883.915261,-1225.752797
469.467644,666.185348,-6883.915261,-1838.629195
469.467966,444.123565,-7254.018232,-3217.601092
469.468288,148.041188,-7920.203579,-4290.134789
469.468610,-592.164754,-8734.430116,-3983.696590
469.468932,-1258.350101,-10140.821405,-3830.477490
469.469253,-1036.288319,-11991.336260,-2987.772442
469.469575,-1036.288319,-12287.418637,-3064.381992
469.469897,-1628.453072,-11547.212695,-3524.039291
469.470219,-2442.679609,-10881.027347,-3907.087040
469.470540,-3034.844362,-10066.800811,-3677.258390
469.470862,-2220.617826,-8808.450710,-2451.505594
469.471184,-814.226536,-8364.327145,-2911.162892
469.471506,148.041188,-7994.224174,-2298.286494
469.471828,296.082377,-6883.915261,-842.705048
469.472149,444.123565,-6143.709319,-919.314598
469.472471,592.164754,-6217.729913,-2451.505594
469.472793,888.247130,-6513.812290,-3830.477490
469.473115,1110.308913,-7550.100608,-3524.039291
469.473437,1110.308913,-8142.265362,-3217.601092
469.473758,740.205942,-9030.512492,-3217.601092
469.474080,-148.041188,-10362.883188,-3677.258390
469.474402,-962.267725,-11621.233289,-4213.525239
469.474724,-2516.700203,-11547.212695,-4903.011187
469.475046,-2886.803174,-10288.862594,-5669.106685
469.475367,-1776.494261,-10436.903782,-5439.278036
469.475689,0.000000,-10955.047942,-5286.058936
469.476011,814.226536,-9696.697840,-3983.696590
469.476333,1184.329507,-8216.285956,-3294.210641
469.476655,1554.432478,-7846.182985,-2834.553343
469.476976,1776.494261,-7402.059420,-3983.696590
469.477298,1850.514855,-7772.162391,-5439.278036
469.477620,1184.329507,-8586.388927,-5439.278036
469.477942,1554.432478,-10066.800811,-3370.820191
469.478264,1702.473667,-9918.759623,-2145.067394
469.478585,2146.597232,-10436.903782,-2911.162892
469.478907,592.164754,-11251.130318,-4136.915689
469.479229,-1332.370696,-11177.109724,-4596.572988
469.479551,-2368.659014,-11103.089130,-4136.915689
469.479873,-1776.494261,-11325.150913,-4290.134789
469.480194,-814.226536,-11843.295072,-3600.648841
469.480516,-148.041188,-9474.636058,-2451.505594
469.480838,592.164754,-7476.080014,-1532.190996
469.481160,1332.370696,-6513.812290,-2221.676944
469.481482,888.247130,-6587.832884,-3524.039291
469.481803,-1110.308913,-5773.606348,-4366.744339
469.482125,-1850.514855,-6365.771101,-4290.134789
469.482447,-1554.432478,-8216.285956,-5209.449386
469.482769,-1850.514855,-9104.533087,-5286.058936
469.483091,-1850.514855,-8438.347739,-4826.401637
469.483412,-2072.576638,-9030.512492,-4443.353888
469.483734,-2442.679609,-10288.862594,-5898.935335
469.484056,-3034.844362,-10807.006753,-6128.763984
469.484378,-4219.173869,-10658.965565,-5515.887586
469.484700,-3108.864956,-11251.130318,-4366.744339
469.485021,-1406.391290,-11325.150913,-3524.039291
469.485343,592.164754,-10436.903782,-3064.381992
469.485665,2738.761985,-8142.265362,-2528.115143
469.485987,5477.523971,-6291.750507,-1991.848295
469.486309,7105.977043,-5551.544565,-2834.553343
469.486630,7105.977043,-4959.379811,-3140.991542
469.486952,5921.647536,-6143.709319,-3600.648841
469.487274,4145.153275,-7920.203579,-3830.477490
469.487596,2368.659014,-9770.718434,-5209.449386
469.487918,1110.308913,-10807.006753,-6665.030833
469.488239,-296.082377,-12583.501014,-6588.421283
469.488561,-1850.514855,-13101.645173,-6128.763984
469.488883,-3330.926739,-14582.057057,-5362.668486
469.489205,-4663.297435,-13397.727550,-5515.887586
469.489526,-5403.503377,-11769.274478,-6128.763984
469.489848,-5773.606348,-10881.027347,-6741.640382
469.490170,-6217.729913,-9918.759623,-4979.620737
469.490492,-5625.565159,-8142.265362,-3907.087040
469.490814,-3034.844362,-6735.874072,-3983.696590
469.491135,370.102971,-5921.647536,-4366.744339
469.491457,3034.844362,-7031.956449,-3294.210641
469.491779,3478.967927,-7698.141797,-1149.143247
469.492101,2886.803174,-6735.874072,-1455.581446
469.492423,2368.659014,-5477.523971,-3217.601092
469.492744,2294.638420,-5107.421000,-5515.887586
469.493066,1258.350101,-5181.441594,-7967.393179
469.493388,-740.205942,-6735.874072,-8656.879127
469.493710,-2368.659014,-10658.965565,-7507.735880
469.494032,-3108.864956,-15026.180623,-4213.525239
469.494353,-3404.947333,-16802.674883,-3600.648841
469.494675,-3330.926739,-14952.160028,-4213.525239
469.494997,-2368.659014,-13175.665768,-4596.572988
469.495319,-1332.370696,-10288.862594,-3600.648841
469.495641,0.000000,-6587.832884,-3524.039291
469.495962,1110.308913,-2812.782580,-3064.381992
469.496284,2072.576638,-2294.638420,-2451.505594
469.496606,2812.782580,-4441.235652,-1762.019645
469.496928,2886.803174,-6291.750507,-2068.457845
469.497250,3034.844362,-8364.327145,-2145.067394
469.497571,4293.194464,-10955.047942,-2451.505594
469.497893,5329.482782,-10807.006753,-2374.896044
469.498215,5181.441594,-8438.347739,-3447.429741
469.498537,3775.050304,-6883.915261,-4979.620737
469.498859,1258.350101,-7476.080014,-6511.811733
469.499180,-1924.535449,-8660.409521,-7814.174080
469.499502,-4737.318029,-9178.553681,-9116.536426
469.499824,-5995.668130,-11621.233289,-9422.974625
469.500146,-6587.832884,-14211.954086,-7890.783629
469.500468,-6439.791695,-15692.365970,-5975.544884
469.500789,-6439.791695,-13249.686362,-4596.572988
469.501111,-4737.318029,-11177.109724,-3370.820191
469.501433,-2442.679609,-9474.636058,-3830.477490
469.501755,-814.226536,-8364.327145,-3753.867940
469.502077,296.082377,-6143.709319,-2604.724693
469.502398,2220.617826,-4811.338623,-1915.238745
469.502720,4663.297435,-5107.421000,-1608.800546
469.503042,6735.874072,-6439.791695,-2451.505594
469.503364,7031.956449,-7846.182985,-3524.039291
469.503686,5847.626942,-9178.553681,-3677.258390
469.504007,3997.112087,-10732.986159,-3830.477490
469.504329,1332.370696,-12139.377449,-4136.915689
469.504651,-740.205942,-13027.624579,-4826.401637
469.504973,-2368.659014,-12139.377449,-6665.030833
469.505295,-2146.597232,-11325.150913,-7277.907231
469.505616,-740.205942,-9918.759623,-5822.325785
469.505938,592.164754,-7920.203579,-4060.306139
469.506260,1036.288319,-5181.441594,-4596.572988
469.506582,1184.329507,-5403.503377,-4443.353888
469.506904,148.041188,-7772.162391,-3677.258390
469.507225,-2146.597232,-9400.615463,-3677.258390
469.507547,-3627.009116,-9696.697840,-2604.724693
469.507869,-3997.112087,-9770.718434,-2604.724693
469.508191,-2960.823768,-8068.244768,-2834.553343
469.508512,-1258.350101,-5625.565159,-4136.915689
469.508834,148.041188,-5033.400406,-5056.230287
469.509156,1184.329507,-6883.915261,-5286.058936
469.509478,222.061783,-9178.553681,-5592.497135
469.509800,-1258.350101,-12287.418637,-4443.353888
469.510121,-1406.391290,-14285.974681,-2834.553343
469.510443,-222.061783,-13915.871710,-4366.744339
469.510765,1924.535449,-10881.027347,-6435.202183
469.511087,4219.173869,-7994.224174,-6511.811733
469.511409,4811.338623,-5329.482782,-5286.058936
469.511730,2886.803174,-5107.421000,-3447.429741
469.512052,-518.144159,-7031.956449,-1991.848295
469.512374,-4737.318029,-8882.471304,-2911.162892
469.512696,-7920.203579,-11325.150913,-4749.792088
469.513018,-8956.491898,-13101.645173,-5592.497135
469.513339,-8216.285956,-10807.006753,-5362.668486
469.513661,-4737.318029,-7402.059420,-5898.935335
469.513983,-370.102971,-5773.606348,-6358.592633
469.514305,2886.803174,-7031.956449,-5822.325785
469.514627,2812.782580,-8586.388927,-5286.058936
469.514948,1110.308913,-10288.862594,-4826.401637
469.515270,-592.164754,-12583.501014,-5898.935335
469.515592,-296.082377,-15692.365970,-6741.640382
469.515914,1036.288319,-15618.345376,-5592.497135
469.516236,3330.926739,-11843.295072,-3983.696590
469.516557,5625.565159,-7476.080014,-1838.629195
469.516879,7550.100608,-3849.070898,-1225.752797
469.517201,8290.306550,-1480.411884,-2451.505594
469.517523,6661.853478,-740.205942,-4136.915689
469.517845,3478.967927,-2220.617826,-4673.182538
469.518166,518.144159,-4885.359217,-5515.887586
469.518488,-1702.473667,-8734.430116,-5822.325785
469.518810,-4367.215058,-13397.727550,-5745.716235
469.519132,-7994.224174,-16580.613101,-4213.525239
469.519454,-11103.089130,-16950.716072,-3294.210641
469.519775,-11843.295072,-15544.324782,-4749.792088
469.520097,-10140.821405,-12213.398043,-5592.497135
469.520419,-6217.729913,-7254.018232,-7277.907231
469.520741,-1406.391290,-3182.885551,-8733.488677
469.521063,3627.009116,-1628.453072,-7890.783629
469.521384,6735.874072,-2146.597232,-4443.353888
469.521706,8512.368333,-2146.597232,-1762.019645
469.522028,9178.553681,-6883.915261,-4749.792088
469.522350,9474.636058,-13693.809927,-7507.735880
469.522672,8364.327145,-17098.757260,-6281.983084
469.522993,4145.153275,-16284.530724,-3217.601092
469.523315,-518.144159,-15322.262999,153.219100
469.523637,-3404.947333,-11769.274478,1532.190996
469.523959,-4959.379811,-6069.688724,-4519.963438
469.524281,-6661.853478,-5847.626942,-9193.145976
469.524602,-7402.059420,-9696.697840,-6435.202183
469.524924,-6883.915261,-12435.459826,-4136.915689
469.525246,-5107.421000,-11843.295072,-3677.258390
469.525568,-1628.453072,-10955.047942,0.000000
469.525890,2368.659014,-9252.574275,1378.971896
469.526211,4219.173869,-6143.709319,-3830.477490
469.526533,5181.441594,-2960.823768,-7354.516781
469.526855,5921.647536,148.041188,-8350.440928
469.527177,6957.935855,-1554.432478,-7584.345430
469.527498,5995.668130,-6883.915261,-5362.668486
469.527820,4811.338623,-12583.501014,-4826.401637
469.528142,3627.009116,-16580.613101,-4903.011187
469.528464,1480.411884,-19615.457463,-4596.572988
469.528786,-3256.906145,-20059.581028,-1532.190996
469.529107,-7476.080014,-15322.262999,-612.876398
469.529429,-8512.368333,-8512.368333,-1991.848295
469.529751,-7402.059420,-4737.318029,-3753.867940
469.530073,-5773.606348,-4145.153275,-2834.553343
469.530395,-5921.647536,-4367.215058,536.266849
469.530716,-6809.894666,-4663.297435,3600.648841
469.531038,-6069.688724,-5995.668130,4749.792088
469.531360,-4219.173869,-8068.244768,2451.505594
469.531682,-1924.535449,-9400.615463,-919.314598
469.532004,666.185348,-8734.430116,-3600.648841
469.532325,3627.009116,-8660.409521,-5056.230287
469.532647,5995.668130,-10214.842000,-3983.696590
469.532969,7031.956449,-10510.924376,-2681.334243
469.533291,5773.606348,-9992.780217,-4060.306139
469.533613,3256.906145,-10140.821405,-5362.668486
469.533934,74.020594,-10436.903782,-4979.620737
469.534256,-2886.803174,-9844.739029,-4903.011187
469.534578,-5403.503377,-7772.162391,-5286.058936
469.534900,-7105.977043,-7105.977043,-2911.162892
469.535222,-8290.306550,-6957.935855,-459.657299
469.535543,-8438.347739,-5255.462188,-919.314598
469.535865,-7179.997637,-4737.318029,-3294.210641
469.536187,-5255.462188,-6513.812290,-5669.106685
469.536509,-5033.400406,-8734.430116,-3907.087040
469.536831,-6513.812290,-8660.409521,0.000000
469.537152,-6883.915261,-7920.203579,-842.705048
469.537474,-5181.441594,-10140.821405,-4443.353888
469.537796,-2516.700203,-11991.336260,-6511.811733
469.538118,-518.144159,-13397.727550,-7354.516781
469.538440,518.144159,-14730.098246,-6665.030833
469.538761,2220.617826,-15692.365970,-3447.429741
469.539083,2072.576638,-15692.365970,-919.314598
469.539405,-370.102971,-11843.295072,-1302.362347
469.539727,-3330.926739,-9030.512492,-3447.429741
469.540048,-5773.606348,-7476.080014,-6358.592633
469.540370,-7772.162391,-7994.224174,-7737.564530
469.540692,-9474.636058,-7772.162391,-4290.134789
469.541014,-9770.718434,-6883.915261,0.000000
469.541335,-8364.327145,-6513.812290,0.000000
469.541657,-5995.668130,-7105.977043,-1838.629195
469.541979,-4367.215058,-6143.709319,-3600.648841
469.542301,-3552.988522,-4515.256246,-5439.278036
469.542622,-2516.700203,-5773.606348,-7277.907231
469.542944,-1924.535449,-8068.244768,-6818.249932
469.543266,-1924.535449,-9844.739029,-5362.668486
469.543587,-1554.432478,-13027.624579,-4443.353888
469.543909,-518.144159,-15470.304188,-4673.182538
469.544231,740.205942,-15396.283594,-4290.134789
469.544553,148.041188,-13915.871710,-3447.429741
469.544874,-1036.288319,-11251.130318,-1532.190996
469.545196,-1554.432478,-9252.574275,-306.438199
469.545518,-2294.638420,-7920.203579,-383.047749
469.545840,-4071.132681,-6069.688724,306.438199
469.546161,-6883.915261,-5107.421000,1608.800546
469.546483,-7698.141797,-5033.400406,3370.820191
469.546805,-7105.977043,-5033.400406,2757.943793
469.547127,-4811.338623,-4737.318029,919.314598
469.547448,-518.144159,-4737.318029,-1532.190996
469.547770,2886.803174,-6809.894666,-3447.429741
469.548092,4663.297435,-9252.574275,-4213.525239
469.548414,3182.885551,-9252.574275,-2374.896044
469.548735,1406.391290,-11177.109724,-1608.800546
469.549057,-370.102971,-15396.283594,-2757.943793
469.549379,-3552.988522,-17616.901420,-4443.353888
469.549700,-9030.512492,-16136.489536,-3907.087040
469.550022,-12583.501014,-13471.748144,-1378.971896
469.550344,-12139.377449,-10732.986159,76.609550
469.550666,-10436.903782,-7698.141797,-459.657299
469.550987,-10436.903782,-3997.112087,-919.314598
469.551309,-10510.924376,-2072.576638,689.485948
469.551631,-8808.450710,-2590.720797,76.609550
469.551953,-5773.606348,-5773.606348,-1991.848295
469.552274,-3701.029710,-9252.574275,-1072.533697
469.552596,-3108.864956,-9918.759623,1378.971896
469.552918,-2516.700203,-11251.130318,1302.362347
469.553240,592.164754,-12361.439231,-689.485948
469.553561,3701.029710,-10584.944971,-3447.429741
469.553883,4737.318029,-10140.821405,-5745.716235
469.554205,5699.585753,-12731.542202,-4443.353888
469.554526,5255.462188,-14211.954086,-383.047749
469.554848,1924.535449,-11769.274478,689.485948
469.555170,-1924.535449,-10288.862594,459.657299
469.555492,-3923.091493,-9770.718434,1532.190996
469.555813,-6069.688724,-7846.182985,0.000000
469.556135,-9104.533087,-6513.812290,-995.924147
469.556457,-11103.089130,-6365.771101,1762.019645
469.556779,-11029.068536,-6069.688724,4979.620737
469.557100,-8882.471304,-4219.173869,2374.896044
