#time,accel_x,accel_y,accel_z
440.119711,-222.061783,-9400.615463,-689.485948
440.120033,-444.123565,-9252.574275,-1302.362347
440.120356,-222.061783,-9252.574275,-1378.971896
440.120678,-222.061783,-9178.553681,-1378.971896
440.121001,-222.061783,-9252.574275,-1072.533697
440.121323,-518.144159,-9326.594869,-995.924147
440.121646,-296.082377,-9252.574275,-612.876398
440.121968,-370.102971,-9252.574275,-1532.190996
440.122291,-370.102971,-9178.553681,-1302.362347
440.122613,-518.144159,-9326.594869,-1225.752797
440.122935,-518.144159,-9474.636058,-1302.362347
440.123258,-370.102971,-9252.574275,-1378.971896
440.123580,-444.123565,-9104.533087,-1378.971896
440.123903,-148.041188,-9326.594869,-1455.581446
440.124225,-666.185348,-9326.594869,-1915.238745
440.124548,-592.164754,-9400.615463,-1608.800546
440.124870,-222.061783,-9474.636058,-1838.629195
440.125193,-222.061783,-9696.697840,-1378.971896
440.125515,-148.041188,-9252.574275,-1838.629195
440.125838,-296.082377,-9400.615463,-1762.019645
440.126160,-518.144159,-9400.615463,-1532.190996
440.126483,-370.102971,-9252.574275,-2221.676944
440.126805,-518.144159,-9474.636058,-1378.971896
440.127128,-370.102971,-9400.615463,-1915.238745
440.127450,-296.082377,-9474.636058,-1838.629195
440.127772,-296.082377,-9474.636058,-1762.019645
440.128095,-370.102971,-9548.656652,-1608.800546
440.128417,-296.082377,-9178.553681,-1685.410096
440.128740,-148.041188,-9326.594869,-2145.067394
440.129062,-148.041188,-9474.636058,-1991.848295
440.129385,-592.164754,-9400.615463,-1685.410096
440.129707,-592.164754,-9474.636058,-1838.629195
440.130030,-814.226536,-9104.533087,-1532.190996
440.130352,-148.041188,-9252.574275,-2068.457845
440.130675,-444.123565,-9252.574275,-2221.676944
440.130997,-296.082377,-9400.615463,-1762.019645
440.131320,-518.144159,-9326.594869,-1455.581446
440.131642,-592.164754,-9548.656652,-1378.971896
440.131965,0.000000,-9178.553681,-1762.019645
440.132287,-444.123565,-9104.533087,-2068.457845
440.132609,-518.144159,-9474.636058,-1915.238745
440.132932,-370.102971,-9474.636058,-1455.581446
440.133254,-518.144159,-9474.636058,-1532.190996
440.133577,-222.061783,-9252.574275,-1685.410096
440.133899,-740.205942,-9104.533087,-1378.971896
440.134222,-370.102971,-9252.574275,-1991.848295
440.134544,-518.144159,-9252.574275,-1455.581446
440.134867,-518.144159,-9400.615463,-1685.410096
440.135189,-370.102971,-9252.574275,-1991.848295
440.135512,-222.061783,-9104.533087,-1685.410096
440.135834,-296.082377,-9474.636058,-1838.629195
440.136157,-666.185348,-9400.615463,-1302.362347
440.136479,-592.164754,-9400.615463,-1225.752797
440.136802,-148.041188,-9400.615463,-1225.752797
440.137124,0.000000,-8586.388927,-1608.800546
440.137447,1480.411884,-9474.636058,-1915.238745
440.137769,2442.679609,-9770.718434,-1685.410096
440.138091,2442.679609,-9474.636058,-306.438199
440.138414,1702.473667,-8882.471304,0.000000
440.138736,814.226536,-8734.430116,-1455.581446
440.139059,74.020594,-9474.636058,-2681.334243
440.139381,-1998.556043,-9474.636058,-2298.286494
440.139704,-3256.906145,-9548.656652,-1455.581446
440.140026,-3997.112087,-9696.697840,-2068.457845
440.140349,-2738.761985,-9548.656652,-2757.943793
440.140671,74.020594,-10214.842000,-2451.505594
440.140994,2368.659014,-11029.068536,-1225.752797
440.141316,2812.782580,-10362.883188,153.219100
440.141639,2072.576638,-8882.471304,536.266849
440.141961,1924.535449,-8660.409521,-612.876398
440.142284,2664.741391,-9326.594869,-2911.162892
440.142606,2590.720797,-9622.677246,-1991.848295
440.142928,1258.350101,-8882.471304,-842.705048
440.143251,0.000000,-7550.100608,0.000000
440.143573,814.226536,-7550.100608,-995.924147
440.143896,2368.659014,-9252.574275,-2451.505594
440.144218,1702.473667,-10214.842000,-1532.190996
440.144541,-518.144159,-9326.594869,0.000000
440.144863,-1258.350101,-8956.491898,-1378.971896
440.145186,-444.123565,-9326.594869,-3447.429741
440.145508,148.041188,-9252.574275,-3447.429741
440.145831,370.102971,-9918.759623,-1225.752797
440.146153,962.267725,-10807.006753,-1378.971896
440.146476,1998.556043,-9326.594869,-2451.505594
440.146798,3404.947333,-9474.636058,-1991.848295
440.147121,4441.235652,-11029.068536,-612.876398
440.147443,4367.215058,-11029.068536,-536.266849
440.147765,2812.782580,-8808.450710,-1378.971896
440.148088,2146.597232,-7698.141797,-1378.971896
440.148410,2442.679609,-8142.265362,-1225.752797
440.148733,2368.659014,-8290.306550,-1608.800546
440.149055,1776.494261,-7476.080014,-1991.848295
440.149378,1628.453072,-8438.347739,-919.314598
440.149700,2220.617826,-10066.800811,-842.705048
440.150023,2960.823768,-10881.027347,-1302.362347
440.150345,2442.679609,-9474.636058,-1915.238745
440.150668,1998.556043,-9548.656652,-2145.067394
440.150990,2812.782580,-10066.800811,-2068.457845
440.151313,2664.741391,-9474.636058,-2068.457845
440.151635,2442.679609,-9178.553681,-2604.724693
440.151958,1998.556043,-9622.677246,-2221.676944
440.152280,2516.700203,-10140.821405,-1532.190996
440.152602,3256.906145,-9992.780217,-1378.971896
440.152925,2960.823768,-9474.636058,-1915.238745
440.153247,2368.659014,-9844.739029,-1302.362347
440.153570,1850.514855,-8808.450710,-842.705048
440.153892,1258.350101,-7624.121203,-1302.362347
440.154215,296.082377,-8216.285956,-2451.505594
440.154537,-370.102971,-8734.430116,-2298.286494
440.154860,-444.123565,-10066.800811,-1455.581446
440.155182,-518.144159,-10658.965565,-842.705048
440.155505,-222.061783,-11473.192101,-1149.143247
440.155827,296.082377,-11917.315666,-995.924147
440.156150,1110.308913,-10955.047942,-536.266849
440.156472,1480.411884,-10214.842000,-306.438199
440.156795,1184.329507,-9030.512492,-612.876398
440.157117,1406.391290,-8216.285956,-1225.752797
440.157439,1702.473667,-7772.162391,-1225.752797
440.157762,1628.453072,-7846.182985,-766.095498
440.158084,1776.494261,-7994.224174,-919.314598
440.158407,1924.535449,-8808.450710,-1302.362347
440.158729,1628.453072,-8956.491898,-919.314598
440.159052,1554.432478,-8660.409521,-919.314598
440.159374,1406.391290,-8068.244768,-995.924147
440.159697,1554.432478,-7994.224174,-1915.238745
440.160019,1628.453072,-8734.430116,-1991.848295
440.160342,1406.391290,-8808.450710,-1915.238745
440.160664,1258.350101,-9474.636058,-1532.190996
440.160987,1036.288319,-10288.862594,-1762.019645
440.161309,962.267725,-10881.027347,-1455.581446
440.161632,666.185348,-11103.089130,-919.314598
440.161954,888.247130,-11251.130318,-1072.533697
440.162277,1332.370696,-10658.965565,-1149.143247
440.162599,1998.556043,-9844.739029,-1149.143247
440.162921,2886.803174,-9474.636058,-383.047749
440.163244,3478.967927,-8882.471304,-536.266849
440.163566,4441.235652,-8512.368333,-612.876398
440.163889,5477.523971,-7698.141797,-1378.971896
440.164211,6661.853478,-7772.162391,-1608.800546
440.164534,6809.894666,-8290.306550,-1225.752797
440.164856,6069.688724,-8512.368333,-842.705048
440.165179,5477.523971,-9696.697840,-1915.238745
440.165501,4367.215058,-10658.965565,-2298.286494
440.165824,2664.741391,-11769.274478,-2221.676944
440.166146,962.267725,-11991.336260,-1991.848295
440.166469,222.061783,-11695.253884,-1915.238745
440.166791,-518.144159,-10066.800811,-766.095498
440.167114,-222.061783,-9104.533087,-306.438199
440.167436,-592.164754,-7624.121203,-229.828649
440.167758,-592.164754,-6661.853478,-689.485948
440.168081,-148.041188,-5551.544565,-1225.752797
440.168403,370.102971,-5921.647536,-1838.629195
440.168726,1258.350101,-7179.997637,-1762.019645
440.169048,1258.350101,-8364.327145,-1762.019645
440.169371,666.185348,-9252.574275,-1762.019645
440.169693,518.144159,-10658.965565,-1915.238745
440.170016,666.185348,-11473.192101,-2298.286494
440.170338,444.123565,-11843.295072,-3600.648841
440.170661,-148.041188,-11029.068536,-3600.648841
440.170983,-888.247130,-10436.903782,-2834.553343
440.171306,-1184.329507,-10955.047942,-2834.553343
440.171628,-2072.576638,-10658.965565,-2374.896044
440.171951,-2738.761985,-11547.212695,-1915.238745
440.172273,-3182.885551,-11769.274478,-1302.362347
440.172595,-2590.720797,-10955.047942,-842.705048
440.172918,-1776.494261,-10362.883188,-229.828649
440.173240,-592.164754,-9400.615463,76.609550
440.173563,666.185348,-7624.121203,459.657299
440.173885,2442.679609,-6587.832884,76.609550
440.174208,4441.235652,-5773.606348,-536.266849
440.174530,5699.585753,-6069.688724,-1378.971896
440.174853,6291.750507,-6365.771101,-1149.143247
440.175175,6217.729913,-7105.977043,-1149.143247
440.175498,6217.729913,-9178.553681,-2911.162892
440.175820,6439.791695,-12731.542202,-3677.258390
440.176143,5847.626942,-13545.768739,-2298.286494
440.176465,3182.885551,-11843.295072,-1072.533697
440.176788,74.020594,-11325.150913,-383.047749
440.177110,-1628.453072,-10658.965565,-153.219100
440.177432,-4441.235652,-9844.739029,-2374.896044
440.177755,-6513.812290,-9326.594869,-2298.286494
440.178077,-7328.038826,-7772.162391,-1302.362347
440.178400,-7624.121203,-5995.668130,-1915.238745
440.178722,-4885.359217,-7254.018232,-1608.800546
440.179045,-370.102971,-8512.368333,-1378.971896
440.179367,3256.906145,-8956.491898,-2757.943793
440.179690,6883.915261,-10955.047942,-2987.772442
440.180012,9918.759623,-11621.233289,-919.314598
440.180335,12657.521608,-10362.883188,-306.438199
440.180657,14063.912898,-8660.409521,-1915.238745
440.180980,14285.974681,-7994.224174,-1455.581446
440.181302,12879.583391,-8290.306550,-842.705048
440.181625,10436.903782,-9548.656652,-842.705048
440.181947,5995.668130,-9548.656652,0.000000
440.182269,1554.432478,-11621.233289,0.000000
440.182592,-1036.288319,-12583.501014,-536.266849
440.182914,-3701.029710,-13027.624579,-306.438199
440.183237,-7550.100608,-11251.130318,1838.629195
440.183559,-9326.594869,-7402.059420,3294.210641
440.183882,-9474.636058,-2960.823768,1072.533697
440.184204,-6661.853478,-3182.885551,-2145.067394
440.184527,-2146.597232,-4737.318029,-3753.867940
440.184849,1702.473667,-7105.977043,-4979.620737
440.185172,4737.318029,-10658.965565,-3677.258390
440.185494,8290.306550,-12805.562797,-919.314598
440.185817,10584.944971,-13915.871710,-2681.334243
440.186139,10362.883188,-13471.748144,-4060.306139
440.186462,7254.018232,-11473.192101,-3294.210641
440.186784,2960.823768,-8956.491898,-4136.915689
440.187107,148.041188,-7698.141797,-6128.763984
440.187429,-370.102971,-8734.430116,-5439.278036
440.187752,-2368.659014,-9548.656652,-2451.505594
440.188074,-4367.215058,-12213.398043,1532.190996
440.188397,-7105.977043,-11843.295072,5056.230287
440.188719,-7698.141797,-10510.924376,5132.839837
440.189042,-6661.853478,-6809.894666,383.047749
440.189364,-3552.988522,-6883.915261,-1762.019645
440.189687,-592.164754,-7105.977043,-919.314598
440.190010,4293.194464,-4811.338623,-1149.143247
440.190332,9252.574275,-6957.935855,-1915.238745
440.190655,12657.521608,-9326.594869,0.000000
440.190977,12731.542202,-11843.295072,1072.533697
440.191300,8512.368333,-11769.274478,-1838.629195
440.191622,2960.823768,-13175.665768,-4979.620737
440.191945,-2072.576638,-14878.139434,-6358.592633
440.192267,-7328.038826,-14804.118840,-5745.716235
440.192590,-12287.418637,-11991.336260,-2528.115143
440.192913,-14952.160028,-6291.750507,-995.924147
440.193235,-13989.892304,-5107.421000,-2834.553343
440.193558,-9622.677246,-4293.194464,-3140.991542
440.193880,-6069.688724,-7254.018232,-2528.115143
440.194203,-5033.400406,-9770.718434,766.095498
440.194525,-2590.720797,-10807.006753,3140.991542
440.194848,1332.370696,-7846.182985,2451.505594
440.195170,4293.194464,-4515.256246,-153.219100
440.195493,5921.647536,-4885.359217,-2374.896044
440.195815,5107.421000,-7402.059420,-2451.505594
440.196138,2812.782580,-8660.409521,-1991.848295
440.196461,1998.556043,-11029.068536,-2604.724693
440.196783,2368.659014,-11991.336260,-3907.087040
440.197106,3256.906145,-13545.768739,-5132.839837
440.197428,2664.741391,-13693.809927,-4290.134789
440.197751,2146.597232,-12509.480420,-2298.286494
440.198073,370.102971,-11103.089130,-229.828649
440.198396,-1110.308913,-10955.047942,842.705048
440.198718,-1776.494261,-10066.800811,-229.828649
440.199041,-2516.700203,-7402.059420,-2068.457845
440.199363,-2146.597232,-6661.853478,-2221.676944
440.199686,-148.041188,-7624.121203,0.000000
440.200009,666.185348,-10214.842000,2451.505594
440.200331,370.102971,-9992.780217,3217.601092
440.200654,-592.164754,-8660.409521,2451.505594
440.200976,0.000000,-7031.956449,-536.266849
440.201299,1036.288319,-5995.668130,-4290.134789
440.201621,1406.391290,-4959.379811,-4903.011187
440.201944,1332.370696,-5773.606348,-4366.744339
440.202266,1554.432478,-7698.141797,-2604.724693
440.202589,1998.556043,-10881.027347,-2068.457845
440.202911,1036.288319,-12139.377449,-2221.676944
440.203234,-1036.288319,-13767.830521,-3983.696590
440.203557,-3034.844362,-14656.077652,-5439.278036
440.203879,-3478.967927,-14359.995275,-3753.867940
440.204202,-3256.906145,-12213.398043,-995.924147
440.204524,-2886.803174,-9178.553681,995.924147
440.204847,-1480.411884,-7105.977043,1302.362347
440.205169,666.185348,-5477.523971,306.438199
440.205492,3108.864956,-6143.709319,0.000000
440.205814,4737.318029,-7402.059420,536.266849
440.206137,5403.503377,-7994.224174,842.705048
440.206459,6143.709319,-7550.100608,1455.581446
440.206782,6587.832884,-7698.141797,1915.238745
440.207105,5403.503377,-8882.471304,1072.533697
440.207427,2664.741391,-9400.615463,-1302.362347
440.207750,-592.164754,-10732.986159,-2911.162892
440.208072,-2590.720797,-12065.356855,-3524.039291
440.208395,-4367.215058,-12287.418637,-2757.943793
440.208717,-5625.565159,-11473.192101,-2298.286494
440.209040,-6957.935855,-9844.739029,-1991.848295
440.209362,-5847.626942,-9548.656652,-2834.553343
440.209685,-4663.297435,-8068.244768,-2911.162892
440.210007,-3849.070898,-7624.121203,-3140.991542
440.210330,-3182.885551,-7402.059420,-2451.505594
440.210653,-1628.453072,-7698.141797,-1915.238745
440.210975,0.000000,-7624.121203,-1532.190996
440.211298,592.164754,-6883.915261,-1378.971896
440.211620,518.144159,-8438.347739,-2068.457845
440.211943,-518.144159,-10214.842000,-1685.410096
440.212265,-1332.370696,-11251.130318,-1915.238745
440.212588,-2072.576638,-11547.212695,-2604.724693
440.212910,-1628.453072,-11029.068536,-2911.162892
440.213233,-296.082377,-11029.068536,-2834.553343
440.213555,592.164754,-9474.636058,-2528.115143
440.213878,888.247130,-9030.512492,-995.924147
440.214201,1480.411884,-9326.594869,-536.266849
440.214523,2294.638420,-9992.780217,0.000000
440.214846,2516.700203,-10510.924376,-536.266849
440.215168,1850.514855,-10436.903782,-995.924147
440.215491,962.267725,-11325.150913,-1762.019645
440.215813,592.164754,-11991.336260,-229.828649
440.216136,-1184.329507,-10658.965565,1302.362347
440.216458,-3182.885551,-8290.306550,919.314598
440.216781,-4071.132681,-6587.832884,-383.047749
440.217103,-2738.761985,-5699.585753,-2221.676944
440.217426,-2220.617826,-5181.441594,-3983.696590
440.217749,-3182.885551,-5625.565159,-3447.429741
440.218071,-3182.885551,-7031.956449,-2604.724693
440.218394,-2664.741391,-8142.265362,-2374.896044
440.218716,-2590.720797,-9474.636058,-2528.115143
440.219039,-2590.720797,-10584.944971,-3677.258390
440.219361,-3108.864956,-11843.295072,-5209.449386
440.219684,-2664.741391,-13471.748144,-4213.525239
440.220006,-1998.556043,-13249.686362,-2451.505594
440.220329,-518.144159,-11843.295072,-842.705048
440.220652,444.123565,-9770.718434,-536.266849
440.220974,1850.514855,-7698.141797,0.000000
440.221297,2812.782580,-7179.997637,-612.876398
440.221619,3552.988522,-7698.141797,-612.876398
440.221942,3923.091493,-8512.368333,306.438199
440.222264,5033.400406,-8216.285956,1225.752797
440.222587,5847.626942,-7846.182985,1378.971896
440.222909,6439.791695,-8734.430116,842.705048
440.223232,5181.441594,-9252.574275,306.438199
440.223554,2664.741391,-9844.739029,-306.438199
440.223877,592.164754,-10955.047942,0.000000
440.224200,-1184.329507,-11621.233289,-919.314598
440.224522,-2960.823768,-10436.903782,-2374.896044
440.224845,-4219.173869,-9770.718434,-3064.381992
440.225167,-3330.926739,-9844.739029,-2834.553343
440.225490,-2886.803174,-9326.594869,-2987.772442
440.225812,-1998.556043,-9252.574275,-2834.553343
440.226135,-1924.535449,-8290.306550,-2528.115143
440.226457,-740.205942,-8142.265362,-2451.505594
440.226780,74.020594,-7846.182985,-2604.724693
440.227102,-222.061783,-7772.162391,-2221.676944
440.227425,-1258.350101,-8586.388927,-1608.800546
440.227748,-2368.659014,-9030.512492,-2221.676944
440.228070,-2664.741391,-10066.800811,-2068.457845
440.228393,-2960.823768,-10732.986159,-1608.800546
440.228715,-3182.885551,-9474.636058,-995.924147
440.229038,-2072.576638,-8882.471304,-2145.067394
440.229360,-592.164754,-8438.347739,-2604.724693
440.229683,1332.370696,-9178.553681,-2451.505594
440.230005,2294.638420,-9992.780217,-995.924147
440.230328,2812.782580,-10510.924376,-536.266849
440.230650,3775.050304,-11251.130318,-766.095498
440.230973,4145.153275,-11029.068536,-919.314598
440.231296,3701.029710,-10584.944971,-612.876398
440.231618,2590.720797,-10214.842000,-689.485948
440.231941,1184.329507,-10807.006753,-766.095498
440.232263,-148.041188,-10732.986159,0.000000
440.232586,-1924.535449,-8808.450710,383.047749
440.232908,-3552.988522,-7994.224174,-1149.143247
440.233231,-4219.173869,-7920.203579,-1915.238745
440.233553,-4071.132681,-7179.997637,-1838.629195
440.233876,-4071.132681,-5625.565159,-2298.286494
440.234198,-3701.029710,-5181.441594,-2834.553343
440.234521,-3330.926739,-6809.894666,-2451.505594
440.234844,-3330.926739,-8956.491898,-2987.772442
440.235166,-4293.194464,-9918.759623,-3064.381992
440.235489,-5699.585753,-10362.883188,-3370.820191
440.235811,-5699.585753,-12065.356855,-4596.572988
440.236134,-4589.276840,-13249.686362,-4213.525239
440.236456,-3923.091493,-12657.521608,-3140.991542
440.236779,-3182.885551,-10362.883188,-1455.581446
440.237101,-1406.391290,-8438.347739,-1685.410096
440.237424,1702.473667,-7994.224174,-2451.505594
440.237746,3849.070898,-7476.080014,-689.485948
440.238069,4293.194464,-7846.182985,383.047749
440.238392,5181.441594,-8438.347739,995.924147
440.238714,6513.812290,-8734.430116,919.314598
440.239037,6809.894666,-8956.491898,459.657299
440.239359,5625.565159,-9992.780217,1072.533697
440.239682,3478.967927,-10955.047942,766.095498
440.240004,1406.391290,-10955.047942,459.657299
440.240327,-222.061783,-10214.842000,-229.828649
440.240649,-2146.597232,-9844.739029,-766.095498
440.240972,-3256.906145,-8808.450710,-2145.067394
440.241294,-3701.029710,-7994.224174,-3830.477490
440.241617,-2590.720797,-8364.327145,-3753.867940
440.241940,-2294.638420,-8660.409521,-2987.772442
440.242262,-1850.514855,-8956.491898,-2987.772442
440.242585,-1258.350101,-9474.636058,-3447.429741
440.242907,-666.185348,-10066.800811,-3064.381992
440.243230,-1110.308913,-10140.821405,-1991.848295
440.243552,-2072.576638,-9992.780217,-2757.943793
440.243875,-2664.741391,-9844.739029,-3600.648841
440.244197,-2368.659014,-9696.697840,-2604.724693
440.244520,-2146.597232,-9326.594869,-1072.533697
440.244842,-1406.391290,-7994.224174,-76.609550
440.245165,-444.123565,-7179.997637,-995.924147
440.245488,962.267725,-7402.059420,-1838.629195
440.245810,2738.761985,-8438.347739,-612.876398
440.246133,3775.050304,-8882.471304,766.095498
440.246455,4145.153275,-8808.450710,229.828649
440.246778,4737.318029,-8956.491898,0.000000
440.247100,4885.359217,-9844.739029,-229.828649
440.247423,4219.173869,-10955.047942,0.000000
440.247745,2368.659014,-11843.295072,0.000000
440.248068,0.000000,-11399.171507,-919.314598
440.248391,-2886.803174,-10066.800811,-536.266849
440.248713,-4219.173869,-9178.553681,-1608.800546
440.249036,-4811.338623,-8438.347739,-3217.601092
440.249358,-5181.441594,-8438.347739,-3830.477490
440.249681,-5329.482782,-7772.162391,-3447.429741
440.250003,-4441.235652,-7772.162391,-2221.676944
440.250326,-2886.803174,-8290.306550,-2834.553343
440.250648,-1554.432478,-8956.491898,-3064.381992
440.250971,-1850.514855,-9696.697840,-2528.115143
440.251293,-2590.720797,-9400.615463,-2451.505594
440.251616,-3923.091493,-9548.656652,-3217.601092
440.251939,-3627.009116,-10510.924376,-4136.915689
440.252261,-3256.906145,-11547.212695,-3217.601092
440.252584,-2886.803174,-10955.047942,-2298.286494
440.252906,-1850.514855,-9326.594869,-1149.143247
440.253229,0.000000,-8586.388927,-995.924147
440.253551,1702.473667,-9104.533087,-459.657299
440.253874,2368.659014,-9252.574275,229.828649
440.254196,2664.741391,-8882.471304,383.047749
440.254519,2960.823768,-7846.182985,-153.219100
440.254841,3849.070898,-8216.285956,-1149.143247
440.255164,3404.947333,-9178.553681,-536.266849
440.255487,2072.576638,-9918.759623,0.000000
440.255809,-370.102971,-11029.068536,0.000000
440.256132,-2220.617826,-11621.233289,-153.219100
440.256454,-3256.906145,-11251.130318,-1378.971896
440.256777,-3701.029710,-9548.656652,-2757.943793
440.257099,-3330.926739,-8956.491898,-3294.210641
440.257422,-3034.844362,-8290.306550,-3370.820191
440.257744,-1480.411884,-8512.368333,-1991.848295
440.258067,-740.205942,-7624.121203,-1608.800546
440.258389,-518.144159,-7772.162391,-1762.019645
440.258712,0.000000,-8438.347739,-2911.162892
440.259035,0.000000,-9474.636058,-2604.724693
440.259357,-518.144159,-10955.047942,-2604.724693
440.259680,-962.267725,-10807.006753,-1991.848295
440.260002,-814.226536,-10807.006753,-1225.752797
440.260325,0.000000,-9548.656652,-689.485948
440.260647,296.082377,-8734.430116,306.438199
440.260970,296.082377,-7476.080014,-612.876398
440.261292,666.185348,-6809.894666,-1455.581446
440.261615,1850.514855,-7846.182985,-1378.971896
440.261937,2738.761985,-8586.388927,-612.876398
440.262260,2664.741391,-9474.636058,0.000000
440.262583,3034.844362,-9992.780217,-766.095498
440.262905,3478.967927,-10214.842000,-612.876398
440.263228,2960.823768,-10510.924376,-842.705048
440.263550,1702.473667,-10510.924376,-1608.800546
440.263873,0.000000,-11177.109724,-1455.581446
440.264195,-2146.597232,-11621.233289,-1149.143247
440.264518,-3256.906145,-11029.068536,-1302.362347
440.264840,-3552.988522,-9844.739029,-2374.896044
440.265163,-2960.823768,-8438.347739,-2987.772442
440.265485,-2072.576638,-8142.265362,-2987.772442
440.265808,-888.247130,-6809.894666,-1685.410096
440.266131,74.020594,-7846.182985,-919.314598
440.266453,814.226536,-8364.327145,-1302.362347
440.266776,1258.350101,-8586.388927,-2145.067394
440.267098,1332.370696,-9104.533087,-2145.067394
440.267421,-370.102971,-8734.430116,-1302.362347
440.267743,-1406.391290,-9622.677246,-2145.067394
440.268066,-2368.659014,-10584.944971,-2451.505594
440.268388,-3034.844362,-10066.800811,-1608.800546
440.268711,-3478.967927,-9548.656652,-1608.800546
440.269033,-3108.864956,-8734.430116,-2298.286494
440.269356,-1850.514855,-9030.512492,-3294.210641
440.269679,-1110.308913,-9844.739029,-2757.943793
440.270001,222.061783,-9992.780217,-1302.362347
440.270324,1184.329507,-9326.594869,-153.219100
440.270646,2516.700203,-9474.636058,-229.828649
440.270969,3552.988522,-9178.553681,-1302.362347
440.271291,2072.576638,-9474.636058,-1072.533697
440.271614,518.144159,-9770.718434,-1072.533697
440.271936,-1110.308913,-10732.986159,-612.876398
440.272259,-2368.659014,-10955.047942,-766.095498
440.272581,-3478.967927,-9474.636058,-995.924147
440.272904,-4663.297435,-8364.327145,-1685.410096
440.273227,-3627.009116,-7550.100608,-2451.505594
440.273549,-2516.700203,-7624.121203,-2451.505594
440.273872,-1702.473667,-7254.018232,-1762.019645
440.274194,-1258.350101,-7328.038826,-1455.581446
440.274517,-592.164754,-8142.265362,-1762.019645
440.274839,0.000000,-9252.574275,-3064.381992
440.275162,-592.164754,-10362.883188,-3064.381992
440.275484,-1480.411884,-10955.047942,-3524.039291
440.275807,-1924.535449,-11695.253884,-4136.915689
440.276129,-2072.576638,-12287.418637,-3370.820191
440.276452,-2294.638420,-11547.212695,-1685.410096
440.276775,-2368.659014,-9696.697840,-1149.143247
440.277097,-1332.370696,-8142.265362,-1762.019645
440.277420,-592.164754,-7254.018232,-2911.162892
440.277742,592.164754,-8364.327145,-1762.019645
440.278065,1850.514855,-9104.533087,-306.438199
440.278387,2664.741391,-9030.512492,383.047749
440.278710,3923.091493,-9104.533087,229.828649
440.279032,4885.359217,-9474.636058,0.000000
440.279355,4737.318029,-9622.677246,0.000000
440.279678,3404.947333,-9992.780217,536.266849
440.280000,1554.432478,-10732.986159,612.876398
440.280323,-592.164754,-10362.883188,842.705048
440.280645,-1628.453072,-9622.677246,-306.438199
440.280968,-1850.514855,-8660.409521,-2451.505594
440.281290,-1110.308913,-7994.224174,-2987.772442
440.281613,-222.061783,-7476.080014,-3064.381992
440.281935,0.000000,-7846.182985,-1378.971896
440.282258,74.020594,-8290.306550,-689.485948
440.282580,740.205942,-8512.368333,-1455.581446
440.282903,518.144159,-8956.491898,-2681.334243
440.283226,-444.123565,-9696.697840,-3064.381992
440.283548,-1776.494261,-9696.697840,-3370.820191
440.283871,-2960.823768,-9844.739029,-2604.724693
440.284193,-3552.988522,-10214.842000,-1225.752797
440.284516,-3256.906145,-10214.842000,-1072.533697
440.284838,-2960.823768,-9326.594869,-1225.752797
440.285161,-2442.679609,-8290.306550,-2757.943793
440.285483,-444.123565,-9030.512492,-3064.381992
440.285806,1332.370696,-9178.553681,-2068.457845
440.286128,2960.823768,-9844.739029,-229.828649
440.286451,3923.091493,-8956.491898,1455.581446
440.286774,4959.379811,-8808.450710,306.438199
440.287096,5033.400406,-9474.636058,-612.876398
440.287419,4145.153275,-9844.739029,-1302.362347
440.287741,2664.741391,-11473.192101,-1455.581446
440.288064,518.144159,-11399.171507,383.047749
440.288387,-1702.473667,-10881.027347,612.876398
440.288709,-3108.864956,-9474.636058,-383.047749
440.289032,-3627.009116,-8068.244768,-2528.115143
440.289354,-4515.256246,-6735.874072,-2604.724693
440.289677,-3849.070898,-7105.977043,-2681.334243
440.290000,-3330.926739,-6365.771101,-2757.943793
440.290322,-2886.803174,-7772.162391,-3140.991542
440.290645,-2368.659014,-9252.574275,-2834.553343
440.290968,-1850.514855,-9992.780217,-2757.943793
440.291290,-2590.720797,-10584.944971,-3294.210641
440.291613,-2886.803174,-11029.068536,-4290.134789
440.291935,-3108.864956,-12361.439231,-4596.572988
440.292258,-3256.906145,-12361.439231,-3064.381992
440.292581,-3552.988522,-10955.047942,-2451.505594
440.292903,-2960.823768,-9252.574275,-2528.115143
440.293226,-666.185348,-7994.224174,-2834.553343
440.293548,1554.432478,-8586.388927,-2528.115143
440.293871,2738.761985,-8068.244768,-612.876398
440.294194,3627.009116,-8438.347739,995.924147
440.294516,4737.318029,-8364.327145,1072.533697
440.294839,5625.565159,-8216.285956,536.266849
440.295162,5699.585753,-8068.244768,459.657299
440.295484,3997.112087,-8956.491898,306.438199
440.295807,1702.473667,-10436.903782,76.609550
440.296129,-518.144159,-11991.336260,766.095498
440.296452,-2886.803174,-11103.089130,919.314598
440.296775,-3923.091493,-9474.636058,-1072.533697
440.297097,-3034.844362,-7920.203579,-4596.572988
440.297420,-1850.514855,-8438.347739,-5132.839837
440.297742,-1480.411884,-8216.285956,-3064.381992
440.298065,-962.267725,-7476.080014,-1532.190996
440.298388,-814.226536,-8660.409521,-2987.772442
440.298710,-444.123565,-10140.821405,-3294.210641
440.299033,-666.185348,-11325.150913,-3830.477490
440.299355,-1776.494261,-11325.150913,-4213.525239
440.299678,-2368.659014,-11843.295072,-3447.429741
440.300001,-1554.432478,-11547.212695,-2298.286494
440.300323,-888.247130,-9696.697840,-536.266849
440.300646,-518.144159,-8142.265362,1149.143247
440.300969,-222.061783,-7550.100608,0.000000
440.301291,74.020594,-7698.141797,-919.314598
440.301614,1332.370696,-7031.956449,-766.095498
440.301936,2738.761985,-7550.100608,229.828649
440.302259,3404.947333,-7402.059420,1072.533697
440.302582,5107.421000,-8290.306550,766.095498
440.302904,5625.565159,-9474.636058,1072.533697
440.303227,4663.297435,-10436.903782,536.266849
440.303549,1924.535449,-10955.047942,0.000000
440.303872,-1406.391290,-11177.109724,-1225.752797
440.304195,-3108.864956,-12065.356855,-2068.457845
440.304517,-4515.256246,-11103.089130,-2221.676944
440.304840,-5107.421000,-9474.636058,-2911.162892
440.305162,-5181.441594,-7624.121203,-3370.820191
440.305485,-3256.906145,-8142.265362,-3370.820191
440.305808,-2368.659014,-7920.203579,-2604.724693
440.306130,-1628.453072,-8808.450710,-1915.238745
440.306453,-1258.350101,-8512.368333,-2221.676944
440.306776,-518.144159,-9326.594869,-2681.334243
440.307098,-222.061783,-9178.553681,-2298.286494
440.307421,0.000000,-8660.409521,-1302.362347
440.307743,-814.226536,-9548.656652,-1532.190996
440.308066,-666.185348,-9992.780217,-1532.190996
440.308389,-444.123565,-9992.780217,-1225.752797
440.308711,-814.226536,-9622.677246,-766.095498
440.309034,-518.144159,-8734.430116,-689.485948
440.309356,370.102971,-9030.512492,-1762.019645
440.309679,1332.370696,-8734.430116,-1455.581446
440.310002,2220.617826,-9178.553681,-766.095498
440.310324,2960.823768,-8882.471304,-766.095498
440.310647,3627.009116,-8438.347739,-1302.362347
440.310969,4293.194464,-9918.759623,-1762.019645
440.311292,2738.761985,-10436.903782,-842.705048
440.311615,1036.288319,-11103.089130,-1072.533697
440.311937,-1258.350101,-11621.233289,-1225.752797
440.312260,-3108.864956,-11325.150913,-1302.362347
440.312583,-4367.215058,-10288.862594,-2528.115143
440.312905,-5255.462188,-8142.265362,-2834.553343
440.313228,-5477.523971,-6217.729913,-3907.087040
440.313550,-3034.844362,-6883.915261,-4366.744339
440.313873,-1850.514855,-6809.894666,-3217.601092
440.314196,-666.185348,-7624.121203,-2068.457845
440.314518,-666.185348,-8290.306550,-1915.238745
440.314841,0.000000,-9918.759623,-2834.553343
440.315163,-148.041188,-11769.274478,-3140.991542
440.315486,-962.267725,-11399.171507,-3064.381992
440.315809,-666.185348,-11621.233289,-3907.087040
440.316131,-370.102971,-11399.171507,-2451.505594
440.316454,0.000000,-10807.006753,-842.705048
440.316776,-148.041188,-9622.677246,229.828649
440.317099,370.102971,-8586.388927,-689.485948
440.317422,1480.411884,-8068.244768,-1838.629195
440.317744,2368.659014,-8438.347739,-842.705048
440.318067,3404.947333,-9178.553681,306.438199
440.318390,3552.988522,-8512.368333,689.485948
440.318712,3701.029710,-7846.182985,459.657299
440.319035,3256.906145,-8290.306550,383.047749
440.319357,2294.638420,-9474.636058,459.657299
440.319680,-296.082377,-10214.842000,-766.095498
440.320003,-2368.659014,-11103.089130,-1685.410096
440.320325,-3923.091493,-11325.150913,-1685.410096
440.320648,-4737.318029,-10807.006753,-1302.362347
440.320970,-4885.359217,-8438.347739,-2451.505594
440.321293,-4441.235652,-7105.977043,-3140.991542
440.321616,-4219.173869,-7254.018232,-3370.820191
440.321938,-2738.761985,-8068.244768,-2221.676944
440.322261,-1776.494261,-8216.285956,-1991.848295
440.322583,-666.185348,-8512.368333,-2221.676944
440.322906,-444.123565,-9326.594869,-1762.019645
440.323229,-148.041188,-9918.759623,-995.924147
440.323551,-296.082377,-10214.842000,-1149.143247
440.323874,-296.082377,-9474.636058,-2298.286494
440.324197,-222.061783,-9992.780217,-2068.457845
440.324519,296.082377,-9474.636058,-919.314598
440.324842,74.020594,-8882.471304,0.000000
440.325164,444.123565,-8216.285956,-689.485948
440.325487,1998.556043,-8660.409521,-1532.190996
440.325810,2960.823768,-9548.656652,-766.095498
440.326132,3478.967927,-9548.656652,153.219100
440.326455,3478.967927,-9178.553681,842.705048
440.326777,2886.803174,-8808.450710,0.000000
440.327100,2442.679609,-9400.615463,-842.705048
440.327423,1702.473667,-10288.862594,-1302.362347
440.327745,592.164754,-11177.109724,-1838.629195
440.328068,-666.185348,-11843.295072,-1608.800546
440.328391,-2146.597232,-11251.130318,-229.828649
440.328713,-2812.782580,-10362.883188,-459.657299
440.329036,-3108.864956,-8808.450710,-1838.629195
440.329358,-2664.741391,-7698.141797,-3370.820191
440.329681,-2664.741391,-6587.832884,-3217.601092
440.330004,-2220.617826,-6735.874072,-2068.457845
440.330326,-1332.370696,-7402.059420,-2374.896044
440.330649,-222.061783,-8364.327145,-2604.724693
440.330971,-296.082377,-9474.636058,-2451.505594
440.331294,-518.144159,-10807.006753,-2145.067394
440.331617,-814.226536,-11843.295072,-2604.724693
440.331939,-1702.473667,-11621.233289,-3524.039291
440.332262,-1850.514855,-11029.068536,-2987.772442
440.332584,-1554.432478,-10362.883188,-1915.238745
440.332907,-1332.370696,-9252.574275,-1225.752797
440.333230,-296.082377,-8586.388927,-1915.238745
440.333552,0.000000,-8290.306550,-2681.334243
440.333875,1110.308913,-9474.636058,-1991.848295
440.334198,2368.659014,-9696.697840,-612.876398
440.334520,2886.803174,-8956.491898,-459.657299
440.334843,3182.885551,-9178.553681,-612.876398
440.335165,3034.844362,-9178.553681,76.609550
440.335488,2368.659014,-9696.697840,0.000000
440.335811,518.144159,-10510.924376,-229.828649
440.336133,-1554.432478,-11177.109724,-536.266849
440.336456,-3108.864956,-10807.006753,-306.438199
440.336778,-3404.947333,-9474.636058,-842.705048
440.337101,-2812.782580,-8660.409521,-1991.848295
440.337424,-2368.659014,-7698.141797,-2757.943793
440.337746,-1998.556043,-6957.935855,-2145.067394
440.338069,-2146.597232,-6661.853478,-1072.533697
440.338391,-2590.720797,-7031.956449,-2145.067394
440.338714,-2442.679609,-8660.409521,-3217.601092
440.339037,-3034.844362,-10140.821405,-3600.648841
440.339359,-3627.009116,-11399.171507,-3217.601092
440.339682,-3627.009116,-11843.295072,-3217.601092
440.340005,-3182.885551,-11843.295072,-2528.115143
440.340327,-2220.617826,-10584.944971,-1072.533697
440.340650,-1998.556043,-8956.491898,-766.095498
440.340972,-2072.576638,-7698.141797,-1685.410096
440.341295,-1184.329507,-7328.038826,-2451.505594
440.341618,518.144159,-8512.368333,-2834.553343
440.341940,2442.679609,-9770.718434,-1532.190996
440.342263,3923.091493,-10140.821405,459.657299
440.342585,5033.400406,-9770.718434,1762.019645
440.342908,6069.688724,-9548.656652,1149.143247
440.343231,5921.647536,-9696.697840,842.705048
440.343553,4367.215058,-9696.697840,306.438199
440.343876,2368.659014,-9918.759623,-306.438199
440.344198,740.205942,-9992.780217,0.000000
440.344521,-1184.329507,-9696.697840,0.000000
440.344844,-2516.700203,-8956.491898,-689.485948
440.345166,-2886.803174,-7846.182985,-2374.896044
440.345489,-2368.659014,-8142.265362,-2604.724693
440.345812,-2812.782580,-7328.038826,-2221.676944
440.346134,-2294.638420,-7550.100608,-2374.896044
440.346457,-2072.576638,-7994.224174,-3370.820191
440.346779,-2294.638420,-8660.409521,-3294.210641
440.347102,-2442.679609,-9030.512492,-3140.991542
440.347425,-2072.576638,-10214.842000,-3524.039291
440.347747,-1998.556043,-11325.150913,-4673.182538
440.348070,-1776.494261,-12065.356855,-3753.867940
440.348392,-1184.329507,-11843.295072,-2374.896044
440.348715,-444.123565,-11473.192101,-1225.752797
440.349038,518.144159,-10214.842000,-1838.629195
440.349360,1554.432478,-8586.388927,-1915.238745
440.349683,2590.720797,-8660.409521,-1455.581446
440.350005,3404.947333,-8216.285956,-306.438199
440.350328,4219.173869,-7624.121203,689.485948
440.350651,4663.297435,-7402.059420,1225.752797
440.350973,4589.276840,-7846.182985,842.705048
440.351296,3775.050304,-8734.430116,689.485948
440.351619,1850.514855,-9622.677246,-153.219100
440.351941,-222.061783,-11547.212695,-689.485948
440.352264,-2368.659014,-11769.274478,0.000000
440.352586,-3775.050304,-10066.800811,-306.438199
440.352909,-4737.318029,-8586.388927,-2298.286494
440.353232,-5403.503377,-8068.244768,-3830.477490
440.353554,-4515.256246,-8660.409521,-4213.525239
440.353877,-4515.256246,-7772.162391,-3600.648841
440.354199,-4219.173869,-8068.244768,-3140.991542
440.354522,-4293.194464,-9474.636058,-3217.601092
440.354845,-3627.009116,-9918.759623,-3524.039291
440.355167,-3552.988522,-10881.027347,-4136.915689
440.355490,-3849.070898,-11029.068536,-3830.477490
440.355812,-2886.803174,-10955.047942,-2757.943793
440.356135,-1702.473667,-10584.944971,-1838.629195
440.356458,-1184.329507,-9104.533087,-1225.752797
440.356780,-962.267725,-8734.430116,-536.266849
440.357103,0.000000,-7920.203579,-1072.533697
440.357426,1406.391290,-8216.285956,-995.924147
440.357748,2812.782580,-8586.388927,-536.266849
440.358071,3404.947333,-8734.430116,153.219100
440.358393,4071.132681,-8142.265362,612.876398
440.358716,4441.235652,-8512.368333,612.876398
440.359039,4441.235652,-9474.636058,229.828649
440.359361,3404.947333,-10510.924376,-612.876398
440.359684,2220.617826,-11473.192101,-1378.971896
440.360006,0.000000,-12509.480420,-919.314598
440.360329,-2072.576638,-12583.501014,76.609550
440.360652,-4145.153275,-10807.006753,0.000000
440.360974,-4737.318029,-8290.306550,-1685.410096
440.361297,-4441.235652,-7105.977043,-3447.429741
440.361620,-3849.070898,-6513.812290,-4673.182538
440.361942,-2664.741391,-6735.874072,-3140.991542
440.362265,-1850.514855,-7476.080014,-1762.019645
440.362587,-740.205942,-8734.430116,-1762.019645
440.362910,-444.123565,-9918.759623,-2451.505594
440.363233,-814.226536,-9918.759623,-2604.724693
440.363555,-1258.350101,-10066.800811,-3217.601092
440.363878,-1036.288319,-11029.068536,-3064.381992
440.364200,-444.123565,-10510.924376,-2374.896044
440.364523,-518.144159,-9548.656652,-229.828649
440.364846,-740.205942,-8586.388927,-153.219100
440.365168,222.061783,-7698.141797,-1072.533697
440.365491,1406.391290,-7772.162391,-2298.286494
440.365813,2664.741391,-8142.265362,-1532.190996
440.366136,4071.132681,-9178.553681,-229.828649
440.366459,4737.318029,-9030.512492,612.876398
440.366781,5181.441594,-8956.491898,689.485948
440.367104,4885.359217,-9918.759623,612.876398
440.367427,3775.050304,-10288.862594,306.438199
440.367749,1850.514855,-10732.986159,-536.266849
440.368072,-740.205942,-10436.903782,76.609550
440.368394,-2812.782580,-10881.027347,0.000000
440.368717,-4367.215058,-9844.739029,-842.705048
440.369040,-4589.276840,-8438.347739,-2604.724693
440.369362,-3478.967927,-7550.100608,-3907.087040
440.369685,-3330.926739,-7254.018232,-4136.915689
440.370007,-1998.556043,-7994.224174,-2528.115143
440.370330,-1554.432478,-8290.306550,-2604.724693
440.370653,-888.247130,-9474.636058,-2681.334243
440.370975,-1036.288319,-10658.965565,-2681.334243
440.371298,-1406.391290,-10658.965565,-3064.381992
440.371620,-1998.556043,-10881.027347,-4213.525239
440.371943,-2442.679609,-11029.068536,-4136.915689
440.372266,-2590.720797,-11251.130318,-2221.676944
440.372588,-2886.803174,-9992.780217,-1072.533697
440.372911,-2220.617826,-9030.512492,-1685.410096
440.373234,-1332.370696,-7994.224174,-2068.457845
440.373556,1110.308913,-7994.224174,-2451.505594
440.373879,1924.535449,-7994.224174,-995.924147
440.374201,2146.597232,-8512.368333,229.828649
440.374524,2442.679609,-8734.430116,536.266849
440.374847,2368.659014,-8290.306550,153.219100
440.375169,2590.720797,-9252.574275,-306.438199
440.375492,1628.453072,-10436.903782,-1302.362347
440.375814,666.185348,-12287.418637,-1455.581446
440.376137,-370.102971,-12805.562797,-536.266849
440.376460,-1998.556043,-12139.377449,536.266849
440.376782,-3552.988522,-9548.656652,0.000000
440.377105,-4071.132681,-7550.100608,-2451.505594
440.377427,-3552.988522,-6735.874072,-4903.011187
440.377750,-2664.741391,-7402.059420,-4673.182538
440.378073,-2294.638420,-7476.080014,-2757.943793
440.378395,-1628.453072,-7920.203579,-1302.362347
440.378718,-1110.308913,-8142.265362,-919.314598
440.379041,-370.102971,-9474.636058,-2221.676944
440.379363,-888.247130,-10288.862594,-3217.601092
440.379686,-1258.350101,-11547.212695,-3370.820191
440.380008,-1702.473667,-11399.171507,-2528.115143
440.380331,-1702.473667,-10066.800811,-766.095498
440.380654,-1850.514855,-8586.388927,0.000000
440.380976,-1258.350101,-7402.059420,-919.314598
440.381299,0.000000,-6883.915261,-2068.457845
440.381621,1406.391290,-7698.141797,-2298.286494
440.381944,2960.823768,-8216.285956,-689.485948
440.382267,3923.091493,-9400.615463,689.485948
440.382589,4737.318029,-9474.636058,766.095498
440.382912,4663.297435,-9474.636058,306.438199
440.383234,3627.009116,-10140.821405,-612.876398
440.383557,2146.597232,-11029.068536,-766.095498
440.383880,74.020594,-11917.315666,-1378.971896
440.384202,-1924.535449,-11769.274478,-689.485948
440.384525,-3404.947333,-10658.965565,-612.876398
440.384848,-4071.132681,-9696.697840,-1149.143247
440.385170,-3627.009116,-8142.265362,-2528.115143
440.385493,-2220.617826,-6957.935855,-3830.477490
440.385815,-1184.329507,-5773.606348,-3217.601092
440.386138,296.082377,-6735.874072,-2451.505594
440.386461,1184.329507,-7846.182985,-1991.848295
440.386783,1850.514855,-8586.388927,-1915.238745
440.387106,1406.391290,-10066.800811,-2068.457845
440.387428,814.226536,-11399.171507,-2604.724693
440.387751,-740.205942,-11843.295072,-2604.724693
440.388073,-1702.473667,-11547.212695,-2451.505594
440.388396,-2146.597232,-10807.006753,-1685.410096
440.388718,-2442.679609,-9548.656652,-842.705048
440.389041,-1850.514855,-7328.038826,-766.095498
440.389363,-1850.514855,-6291.750507,-3064.381992
440.389686,0.000000,-7254.018232,-2451.505594
440.390008,1258.350101,-8586.388927,-1072.533697
440.390331,1998.556043,-9696.697840,76.609550
440.390653,2442.679609,-9918.759623,459.657299
440.390976,2812.782580,-10362.883188,76.609550
440.391298,2072.576638,-10214.842000,-612.876398
440.391621,666.185348,-11029.068536,-842.705048
440.391943,-1184.329507,-11917.315666,-1072.533697
440.392266,-3108.864956,-10807.006753,-919.314598
440.392588,-3849.070898,-9252.574275,-1225.752797
440.392911,-3701.029710,-8142.265362,-1608.800546
440.393233,-2220.617826,-7846.182985,-2528.115143
440.393556,-1332.370696,-7031.956449,-3447.429741
440.393878,-1184.329507,-7031.956449,-2757.943793
440.394201,-666.185348,-7105.977043,-1608.800546
440.394523,-1258.350101,-8142.265362,-2221.676944
440.394846,-1850.514855,-8512.368333,-3140.991542
440.395168,-2368.659014,-9178.553681,-3983.696590
440.395491,-2442.679609,-11029.068536,-3907.087040
440.395813,-2294.638420,-12361.439231,-3064.381992
440.396136,-2072.576638,-12213.398043,-1685.410096
440.396458,-2220.617826,-10881.027347,-1225.752797
440.396781,-1998.556043,-9844.739029,-766.095498
440.397103,-1628.453072,-8882.471304,-1532.190996
440.397426,0.000000,-7920.203579,-2834.553343
440.397748,518.144159,-7179.997637,-2451.505594
440.398071,814.226536,-7846.182985,-842.705048
440.398393,2146.597232,-8364.327145,-229.828649
440.398716,3404.947333,-9400.615463,-459.657299
440.399038,3997.112087,-10955.047942,-306.438199
440.399361,3775.050304,-11399.171507,76.609550
440.399683,2812.782580,-11547.212695,76.609550
440.400006,1998.556043,-11399.171507,-612.876398
440.400328,444.123565,-10436.903782,-383.047749
440.400651,-962.267725,-9326.594869,0.000000
440.400973,-1998.556043,-7179.997637,-1225.752797
440.401296,-2220.617826,-5921.647536,-2834.553343
440.401618,-1332.370696,-7031.956449,-3830.477490
440.401941,0.000000,-7254.018232,-3217.601092
440.402263,666.185348,-9030.512492,-1915.238745
440.402586,1258.350101,-10214.842000,-1225.752797
440.402908,1110.308913,-10066.800811,-919.314598
440.403231,74.020594,-9770.718434,-2374.896044
440.403553,-1480.411884,-9770.718434,-3217.601092
440.403876,-2368.659014,-10214.842000,-3217.601092
440.404198,-3108.864956,-10658.965565,-2528.115143
440.404521,-3552.988522,-9918.759623,-1302.362347
440.404843,-2886.803174,-9326.594869,-612.876398
440.405166,-1776.494261,-8660.409521,-995.924147
440.405488,0.000000,-8586.388927,-1608.800546
440.405811,1702.473667,-7698.141797,-766.095498
440.406133,3034.844362,-7698.141797,-153.219100
440.406456,3849.070898,-7624.121203,383.047749
440.406778,4071.132681,-8068.244768,306.438199
440.407101,2812.782580,-9400.615463,306.438199
440.407423,1628.453072,-10584.944971,383.047749
440.407746,0.000000,-11399.171507,-306.438199
440.408068,-1184.329507,-11917.315666,-766.095498
440.408391,-2072.576638,-11473.192101,-306.438199
440.408713,-2516.700203,-9696.697840,-153.219100
440.409036,-1850.514855,-7624.121203,-995.924147
440.409358,-1332.370696,-6365.771101,-2681.334243
440.409681,-370.102971,-6587.832884,-3753.867940
440.410003,-296.082377,-6883.915261,-3217.601092
440.410326,-592.164754,-8216.285956,-1991.848295
440.410648,-518.144159,-9770.718434,-1685.410096
440.410971,-592.164754,-10955.047942,-2451.505594
440.411293,-1554.432478,-11103.089130,-2834.553343
440.411616,-2516.700203,-11621.233289,-3217.601092
440.411938,-2960.823768,-11991.336260,-2528.115143
440.412261,-3182.885551,-11029.068536,-2451.505594
440.412583,-3404.947333,-9474.636058,-2145.067394
440.412906,-2590.720797,-8734.430116,-1762.019645
440.413228,-2368.659014,-6957.935855,-2528.115143
440.413551,-814.226536,-7994.224174,-2374.896044
440.413873,592.164754,-9104.533087,-1225.752797
440.414196,1480.411884,-9104.533087,0.000000
440.414518,2442.679609,-8956.491898,-306.438199
440.414841,3478.967927,-9474.636058,459.657299
440.415163,3034.844362,-9918.759623,-153.219100
440.415486,2220.617826,-10510.924376,0.000000
440.415808,1628.453072,-10658.965565,-612.876398
440.416131,444.123565,-10584.944971,-995.924147
440.416453,-814.226536,-10066.800811,-536.266849
440.416776,-2442.679609,-9326.594869,-689.485948
440.417098,-2368.659014,-7550.100608,-1532.190996
440.417421,-2072.576638,-6809.894666,-3064.381992
440.417743,-814.226536,-7105.977043,-3294.210641
440.418066,370.102971,-8068.244768,-2604.724693
440.418388,1332.370696,-8512.368333,-2068.457845
440.418711,2220.617826,-9326.594869,-1915.238745
440.419033,2072.576638,-10584.944971,-2298.286494
440.419356,1036.288319,-11177.109724,-2528.115143
440.419678,-740.205942,-11399.171507,-3140.991542
440.420001,-1850.514855,-11843.295072,-2911.162892
440.420323,-3108.864956,-11325.150913,-2451.505594
440.420646,-3478.967927,-9770.718434,-1532.190996
440.420968,-3552.988522,-7920.203579,-2221.676944
440.421291,-2368.659014,-6957.935855,-2604.724693
440.421613,-1184.329507,-6661.853478,-2757.943793
440.421936,148.041188,-7402.059420,-995.924147
440.422258,740.205942,-7624.121203,-459.657299
440.422581,1702.473667,-8882.471304,-842.705048
440.422903,1702.473667,-9474.636058,-766.095498
440.423226,1110.308913,-10214.842000,-306.438199
440.423548,74.020594,-11103.089130,-612.876398
440.423871,0.000000,-12065.356855,-1915.238745
440.424193,-296.082377,-11843.295072,-1302.362347
440.424516,-1036.288319,-10584.944971,-306.438199
440.424838,-1332.370696,-9252.574275,-153.219100
440.425161,-740.205942,-7846.182985,-1378.971896
440.425484,0.000000,-7031.956449,-2298.286494
440.425806,370.102971,-7031.956449,-2528.115143
440.426129,740.205942,-7476.080014,-1838.629195
440.426451,1332.370696,-8438.347739,-1838.629195
440.426774,1628.453072,-9622.677246,-1762.019645
440.427096,888.247130,-10510.924376,-1072.533697
440.427419,-1258.350101,-10436.903782,-766.095498
440.427741,-2442.679609,-11621.233289,-2528.115143
440.428064,-3108.864956,-12065.356855,-3830.477490
440.428386,-3404.947333,-11547.212695,-3294.210641
440.428709,-3849.070898,-9696.697840,-1149.143247
440.429031,-3701.029710,-7772.162391,-1302.362347
440.429354,-2072.576638,-7624.121203,-2987.772442
440.429676,-518.144159,-8142.265362,-2451.505594
440.429999,296.082377,-8734.430116,-689.485948
440.430321,1628.453072,-8808.450710,-153.219100
440.430644,3108.864956,-8364.327145,-536.266849
440.430966,3775.050304,-8808.450710,229.828649
440.431289,3256.906145,-8956.491898,1225.752797
440.431611,1998.556043,-9844.739029,689.485948
440.431934,370.102971,-10140.821405,-229.828649
440.432256,-888.247130,-9844.739029,-536.266849
440.432579,-1702.473667,-9178.553681,-766.095498
440.432901,-2442.679609,-8512.368333,-1072.533697
440.433224,-2368.659014,-7550.100608,-1608.800546
440.433546,-1628.453072,-7994.224174,-2221.676944
440.433869,-962.267725,-7624.121203,-1991.848295
440.434191,-592.164754,-8808.450710,-2374.896044
440.434514,-592.164754,-9474.636058,-2221.676944
440.434836,-148.041188,-9326.594869,-2451.505594
440.435159,-370.102971,-10584.944971,-2987.772442
440.435481,-518.144159,-11843.295072,-3140.991542
440.435804,-888.247130,-12213.398043,-2604.724693
440.436126,-1110.308913,-11843.295072,-2374.896044
440.436449,-1628.453072,-11029.068536,-1302.362347
440.436771,-1406.391290,-9770.718434,-995.924147
440.437094,-1628.453072,-8068.244768,-1991.848295
440.437416,-740.205942,-7328.038826,-2451.505594
440.437739,74.020594,-7772.162391,-1378.971896
440.438061,1332.370696,-8290.306550,-689.485948
440.438384,2516.700203,-8364.327145,0.000000
440.438706,3108.864956,-8586.388927,459.657299
440.439029,2960.823768,-9474.636058,459.657299
440.439351,1702.473667,-9252.574275,229.828649
440.439674,518.144159,-10436.903782,-1072.533697
440.439996,-962.267725,-11695.253884,-1608.800546
440.440319,-2294.638420,-11473.192101,-1685.410096
440.440641,-3627.009116,-9696.697840,-1762.019645
440.440964,-4145.153275,-8734.430116,-1608.800546
440.441286,-3923.091493,-8512.368333,-2911.162892
440.441609,-2220.617826,-8438.347739,-3907.087040
440.441931,-1406.391290,-7772.162391,-3447.429741
440.442254,-1184.329507,-8068.244768,-2681.334243
440.442576,-1036.288319,-9104.533087,-2298.286494
440.442899,-592.164754,-8882.471304,-2068.457845
440.443221,-962.267725,-8882.471304,-2911.162892
440.443544,-888.247130,-9548.656652,-3907.087040
440.443866,-444.123565,-11695.253884,-3064.381992
440.444189,-148.041188,-11843.295072,-1149.143247
440.444511,148.041188,-11103.089130,0.000000
440.444834,666.185348,-9400.615463,0.000000
440.445156,1406.391290,-8290.306550,-919.314598
440.445479,1776.494261,-7624.121203,-995.924147
440.445801,1998.556043,-7179.997637,-766.095498
440.446124,2368.659014,-6809.894666,0.000000
440.446446,2442.679609,-7179.997637,0.000000
440.446769,2738.761985,-8586.388927,0.000000
440.447091,2146.597232,-9622.677246,306.438199
440.447414,888.247130,-10955.047942,-766.095498
440.447736,-296.082377,-12213.398043,-1378.971896
440.448059,-1554.432478,-12509.480420,-766.095498
440.448381,-2812.782580,-11399.171507,-842.705048
440.448704,-4441.235652,-9918.759623,-1072.533697
440.449026,-4737.318029,-7920.203579,-2374.896044
440.449349,-4885.359217,-6735.874072,-3830.477490
440.449671,-3701.029710,-7105.977043,-4213.525239
440.449994,-2590.720797,-7402.059420,-3677.258390
440.450316,-962.267725,-9030.512492,-2681.334243
440.450639,148.041188,-10066.800811,-1991.848295
440.450961,888.247130,-10214.842000,-1149.143247
440.451284,518.144159,-10510.924376,-1455.581446
440.451606,-148.041188,-10510.924376,-2834.553343
440.451929,-888.247130,-10362.883188,-2987.772442
440.452251,-2072.576638,-9548.656652,-1991.848295
440.452574,-2738.761985,-9326.594869,-536.266849
440.452896,-2442.679609,-9178.553681,-1072.533697
440.453219,-740.205942,-8956.491898,-1991.848295
440.453541,370.102971,-8956.491898,-2298.286494
440.453864,1628.453072,-9474.636058,-536.266849
440.454186,2812.782580,-9548.656652,0.000000
440.454509,3256.906145,-9030.512492,-306.438199
440.454831,2960.823768,-8290.306550,459.657299
440.455154,1850.514855,-8216.285956,-229.828649
440.455476,814.226536,-10066.800811,-1915.238745
440.455799,-444.123565,-11621.233289,-2221.676944
440.456121,-2368.659014,-11843.295072,-1149.143247
440.456444,-3404.947333,-11991.336260,-306.438199
440.456766,-2812.782580,-11473.192101,0.000000
440.457089,-2294.638420,-8882.471304,-1302.362347
440.457411,-2812.782580,-6365.771101,-3447.429741
440.457734,-1924.535449,-6365.771101,-3447.429741
440.458056,-1480.411884,-6883.915261,-2528.115143
440.458379,-1480.411884,-7402.059420,-2374.896044
440.458701,-1258.350101,-8216.285956,-2145.067394
440.459024,-1036.288319,-9770.718434,-2298.286494
440.459346,-1036.288319,-11103.089130,-2604.724693
440.459669,-518.144159,-11029.068536,-2681.334243
440.459991,-222.061783,-11695.253884,-1991.848295
440.460314,-444.123565,-10510.924376,-842.705048
440.460636,-1110.308913,-9030.512492,-383.047749
440.460959,-1776.494261,-7920.203579,-766.095498
440.461281,-1406.391290,-7846.182985,-2145.067394
440.461604,0.000000,-8882.471304,-2987.772442
440.461926,1406.391290,-9400.615463,-1762.019645
440.462249,2664.741391,-9474.636058,0.000000
440.462571,4071.132681,-9696.697840,1149.143247
440.462894,4589.276840,-9474.636058,1455.581446
440.463216,4219.173869,-9252.574275,612.876398
440.463539,3108.864956,-9844.739029,-1072.533697
440.463861,1554.432478,-10807.006753,-1685.410096
440.464184,-1258.350101,-11029.068536,-842.705048
440.464506,-3552.988522,-10362.883188,-306.438199
440.464829,-4219.173869,-9992.780217,-842.705048
440.465151,-3034.844362,-8734.430116,-2681.334243
440.465474,-1924.535449,-7772.162391,-3064.381992
440.465796,-1036.288319,-7920.203579,-2757.943793
440.466119,-592.164754,-7920.203579,-1302.362347
440.466441,0.000000,-8068.244768,-1149.143247
440.466764,0.000000,-7994.224174,-1838.629195
440.467086,-592.164754,-8734.430116,-2068.457845
440.467409,-1554.432478,-9844.739029,-3830.477490
440.467731,-1480.411884,-11399.171507,-4366.744339
440.468054,-518.144159,-11769.274478,-3064.381992
440.468376,-592.164754,-11695.253884,-766.095498
440.468699,-1184.329507,-10881.027347,766.095498
440.469021,-740.205942,-9548.656652,-459.657299
440.469344,-740.205942,-7476.080014,-2068.457845
440.469666,0.000000,-7846.182985,-3140.991542
440.469989,518.144159,-7550.100608,-1225.752797
440.470311,1110.308913,-7476.080014,459.657299
440.470634,2146.597232,-7402.059420,-306.438199
440.470956,2590.720797,-8142.265362,76.609550
440.471279,2960.823768,-9104.533087,0.000000
440.471601,2368.659014,-10362.883188,-995.924147
440.471924,814.226536,-11325.150913,-1608.800546
440.472246,-888.247130,-11917.315666,-1149.143247
440.472569,-2960.823768,-10955.047942,0.000000
440.472891,-4811.338623,-9696.697840,-1225.752797
440.473214,-5107.421000,-7846.182985,-2987.772442
440.473536,-4219.173869,-7031.956449,-5132.839837
440.473859,-2738.761985,-7920.203579,-5056.230287
440.474182,-1480.411884,-8808.450710,-2451.505594
440.474504,-740.205942,-9400.615463,-995.924147
440.474827,-1036.288319,-9326.594869,-1149.143247
440.475149,-1554.432478,-9400.615463,-2145.067394
440.475472,-1850.514855,-9992.780217,-3830.477490
440.475794,-1998.556043,-10288.862594,-4903.011187
440.476117,-1998.556043,-10362.883188,-4366.744339
440.476439,-1332.370696,-10436.903782,-1915.238745
440.476762,-1184.329507,-9992.780217,-153.219100
440.477084,-296.082377,-9474.636058,-612.876398
440.477407,222.061783,-8956.491898,-2374.896044
440.477729,2146.597232,-9992.780217,-3064.381992
440.478052,1776.494261,-9400.615463,-1302.362347
440.478374,1776.494261,-8660.409521,-383.047749
440.478697,2220.617826,-8364.327145,229.828649
440.479019,2664.741391,-7920.203579,612.876398
440.479342,2664.741391,-8068.244768,-612.876398
440.479664,2590.720797,-9918.759623,-1685.410096
440.479987,1480.411884,-11325.150913,-1378.971896
440.480309,-518.144159,-11621.233289,0.000000
440.480632,-2146.597232,-10955.047942,612.876398
440.480954,-2368.659014,-10066.800811,-766.095498
440.481277,-3034.844362,-7846.182985,-2834.553343
440.481599,-2146.597232,-6809.894666,-4596.572988
440.481922,-1998.556043,-6365.771101,-4290.134789
440.482244,-1110.308913,-7476.080014,-2451.505594
440.482567,-740.205942,-8438.347739,-1378.971896
440.482889,-222.061783,-9326.594869,-1838.629195
440.483212,-592.164754,-10510.924376,-2911.162892
440.483534,-962.267725,-11473.192101,-3907.087040
440.483857,-1332.370696,-12213.398043,-3830.477490
440.484179,-1332.370696,-11547.212695,-1991.848295
440.484502,-1258.350101,-9844.739029,-536.266849
440.484824,-444.123565,-8956.491898,306.438199
440.485147,1036.288319,-8216.285956,-919.314598
440.485469,2664.741391,-8290.306550,-1838.629195
440.485792,3552.988522,-8734.430116,-1149.143247
440.486114,4811.338623,-8956.491898,612.876398
440.486437,5033.400406,-7920.203579,1225.752797
440.486759,5625.565159,-8364.327145,919.314598
440.487081,4737.318029,-8660.409521,612.876398
440.487404,2590.720797,-8956.491898,153.219100
440.487726,370.102971,-9474.636058,-689.485948
440.488049,-1924.535449,-10066.800811,-1608.800546
440.488371,-3034.844362,-11547.212695,-1532.190996
440.488693,-4367.215058,-11251.130318,-766.095498
440.489016,-4589.276840,-9474.636058,-1302.362347
440.489338,-4589.276840,-7550.100608,-2834.553343
440.489661,-3997.112087,-6883.915261,-4366.744339
440.489983,-3478.967927,-6587.832884,-3677.258390
440.490305,-3775.050304,-8142.265362,-2911.162892
440.490628,-3627.009116,-9104.533087,-3294.210641
440.490950,-3108.864956,-9992.780217,-4060.306139
440.491273,-2220.617826,-11621.233289,-3600.648841
440.491595,-1702.473667,-11991.336260,-2528.115143
440.491917,-888.247130,-11843.295072,-2604.724693
440.492240,-444.123565,-11325.150913,-1991.848295
440.492562,0.000000,-9992.780217,-229.828649
440.492885,-518.144159,-8068.244768,0.000000
440.493207,-1480.411884,-6661.853478,-1608.800546
440.493529,-592.164754,-7624.121203,-2145.067394
440.493852,296.082377,-9030.512492,-1685.410096
440.494174,1776.494261,-9474.636058,0.000000
440.494497,2886.803174,-9104.533087,1072.533697
440.494819,3627.009116,-8290.306550,536.266849
440.495141,3997.112087,-7772.162391,612.876398
440.495464,2886.803174,-9252.574275,-766.095498
440.495786,296.082377,-10214.842000,-1532.190996
440.496109,-2442.679609,-11251.130318,-2298.286494
440.496431,-4589.276840,-11251.130318,-2298.286494
440.496753,-5477.523971,-10510.924376,-2298.286494
440.497076,-5181.441594,-9474.636058,-3064.381992
440.497398,-3330.926739,-9400.615463,-4060.306139
440.497721,-2220.617826,-8438.347739,-4366.744339
440.498043,-1036.288319,-8586.388927,-2834.553343
440.498365,-814.226536,-8068.244768,-1532.190996
440.498688,-1036.288319,-8290.306550,-1455.581446
440.499010,-1702.473667,-8512.368333,-2757.943793
440.499333,-1332.370696,-9252.574275,-3983.696590
440.499655,-296.082377,-10362.883188,-4060.306139
440.499978,1480.411884,-10955.047942,-2451.505594
440.500300,2886.803174,-11103.089130,-459.657299
440.500622,3627.009116,-10807.006753,1608.800546
440.500945,4293.194464,-9400.615463,1685.410096
440.501267,4589.276840,-8438.347739,-383.047749
440.501590,3997.112087,-8586.388927,-1915.238745
440.501912,3627.009116,-8660.409521,-1149.143247
440.502234,4293.194464,-8882.471304,153.219100
440.502557,3997.112087,-7254.018232,995.924147
440.502879,3997.112087,-6957.935855,689.485948
440.503202,3108.864956,-8142.265362,-306.438199
440.503524,1480.411884,-9474.636058,-612.876398
440.503846,-1406.391290,-11251.130318,-1149.143247
440.504169,-3849.070898,-12435.459826,-1608.800546
440.504491,-6513.812290,-12065.356855,-1225.752797
440.504814,-7402.059420,-10584.944971,-1532.190996
440.505136,-6513.812290,-8216.285956,-3140.991542
440.505458,-3775.050304,-7624.121203,-5132.839837
440.505781,-1924.535449,-6439.791695,-4290.134789
440.506103,-888.247130,-7179.997637,-1915.238745
440.506426,0.000000,-8438.347739,-1072.533697
440.506748,148.041188,-9548.656652,-1762.019645
440.507070,740.205942,-11103.089130,-2757.943793
440.507393,592.164754,-11399.171507,-3447.429741
440.507715,518.144159,-11695.253884,-3217.601092
440.508038,592.164754,-11325.150913,-842.705048
440.508360,592.164754,-9992.780217,689.485948
440.508682,370.102971,-9030.512492,995.924147
440.509005,148.041188,-8068.244768,229.828649
440.509327,0.000000,-7179.997637,-1762.019645
440.509650,518.144159,-8216.285956,-3064.381992
440.509972,1036.288319,-8882.471304,-1378.971896
440.510294,666.185348,-9326.594869,689.485948
440.510617,518.144159,-8660.409521,766.095498
440.510939,444.123565,-8808.450710,-919.314598
440.511262,-666.185348,-9844.739029,-1532.190996
440.511584,-2072.576638,-10436.903782,-2451.505594
440.511906,-3701.029710,-11547.212695,-2911.162892
440.512229,-4737.318029,-12065.356855,-2298.286494
440.512551,-4811.338623,-11547.212695,-1149.143247
440.512874,-4811.338623,-9474.636058,-2068.457845
440.513196,-3627.009116,-7550.100608,-3217.601092
440.513518,-3034.844362,-6143.709319,-3983.696590
440.513841,-1480.411884,-6513.812290,-3217.601092
440.514163,-740.205942,-7254.018232,-2604.724693
440.514486,74.020594,-8586.388927,-1685.410096
440.514808,296.082377,-9844.739029,-1685.410096
440.515130,296.082377,-10362.883188,-1838.629195
440.515453,148.041188,-11029.068536,-1685.410096
440.515775,222.061783,-10510.924376,-2987.772442
440.516098,148.041188,-10214.842000,-2451.505594
440.516420,740.205942,-10214.842000,-1072.533697
440.516742,592.164754,-9400.615463,459.657299
440.517065,1110.308913,-8586.388927,-306.438199
440.517387,1776.494261,-8290.306550,-2374.896044
440.517710,1702.473667,-9548.656652,-2221.676944
440.518032,3256.906145,-10807.006753,-689.485948
440.518354,3478.967927,-9770.718434,459.657299
440.518677,3552.988522,-8142.265362,459.657299
440.518999,3478.967927,-8068.244768,-306.438199
440.519322,2886.803174,-7994.224174,-153.219100
440.519644,1184.329507,-8882.471304,-1072.533697
440.519966,-1258.350101,-10436.903782,-1762.019645
440.520289,-3034.844362,-12139.377449,-2221.676944
440.520611,-3923.091493,-11695.253884,-1072.533697
440.520934,-4145.153275,-9178.553681,-919.314598
440.521256,-4219.173869,-7698.141797,-1991.848295
440.521578,-2368.659014,-7624.121203,-3370.820191
440.521901,-592.164754,-7254.018232,-3524.039291
440.522223,0.000000,-7402.059420,-2834.553343
440.522546,74.020594,-8734.430116,-2221.676944
440.522868,74.020594,-10140.821405,-1838.629195
440.523190,-222.061783,-10658.965565,-2374.896044
440.523513,-370.102971,-10658.965565,-2451.505594
440.523835,-148.041188,-11103.089130,-2528.115143
440.524158,0.000000,-10881.027347,-2068.457845
440.524480,0.000000,-9400.615463,-995.924147
440.524802,0.000000,-8882.471304,-306.438199
440.525125,962.267725,-8734.430116,-842.705048
440.525447,1702.473667,-9474.636058,-1532.190996
440.525770,2294.638420,-9474.636058,-1225.752797
440.526092,2960.823768,-9548.656652,995.924147
440.526414,3034.844362,-9030.512492,1455.581446
440.526737,3627.009116,-8438.347739,536.266849
440.527059,3256.906145,-7920.203579,383.047749
440.527382,1776.494261,-7994.224174,-229.828649
440.527704,-222.061783,-9326.594869,-1149.143247
440.528026,-2146.597232,-11399.171507,-1991.848295
440.528349,-4071.132681,-11769.274478,-1302.362347
440.528671,-5625.565159,-11029.068536,-1532.190996
440.528994,-5477.523971,-9326.594869,-1838.629195
440.529316,-4515.256246,-7550.100608,-2834.553343
440.529638,-3775.050304,-6513.812290,-3907.087040
440.529961,-3108.864956,-5625.565159,-4136.915689
440.530283,-2590.720797,-7031.956449,-3064.381992
440.530606,-1924.535449,-8956.491898,-2987.772442
440.530928,-1924.535449,-9844.739029,-3753.867940
440.531250,-1924.535449,-10510.924376,-3217.601092
440.531573,-1332.370696,-12065.356855,-2911.162892
440.531895,-740.205942,-12287.418637,-2987.772442
440.532218,-740.205942,-11991.336260,-1838.629195
440.532540,-1480.411884,-10584.944971,-536.266849
440.532862,-1480.411884,-8956.491898,-612.876398
440.533185,-962.267725,-6883.915261,-1685.410096
440.533507,-222.061783,-7031.956449,-2298.286494
440.533830,74.020594,-8290.306550,-1225.752797
440.534152,1258.350101,-9474.636058,-306.438199
440.534474,2886.803174,-9770.718434,-229.828649
440.534797,5107.421000,-9622.677246,0.000000
440.535119,5477.523971,-9770.718434,-153.219100
440.535442,5033.400406,-10362.883188,153.219100
440.535764,2960.823768,-9696.697840,-383.047749
440.536086,370.102971,-10288.862594,-995.924147
440.536409,-2442.679609,-11251.130318,-2068.457845
440.536731,-3478.967927,-11325.150913,-2221.676944
440.537054,-4663.297435,-9252.574275,-2451.505594
440.537376,-4515.256246,-6883.915261,-3447.429741
440.537698,-1924.535449,-7994.224174,-3524.039291
440.538021,-666.185348,-7772.162391,-2221.676944
440.538343,-1258.350101,-7624.121203,-919.314598
440.538666,-2220.617826,-7920.203579,-1991.848295
440.538988,-2590.720797,-8882.471304,-2911.162892
440.539311,-2886.803174,-10066.800811,-4519.963438
440.539633,-3108.864956,-10584.944971,-4826.401637
440.539955,-2738.761985,-11843.295072,-3217.601092
440.540278,-1924.535449,-11843.295072,-459.657299
440.540600,-1184.329507,-11251.130318,766.095498
440.540923,-444.123565,-8956.491898,612.876398
440.541245,296.082377,-7476.080014,-1685.410096
440.541567,2516.700203,-7846.182985,-2834.553343
440.541890,3923.091493,-8142.265362,-1991.848295
440.542212,4219.173869,-8068.244768,536.266849
440.542535,5033.400406,-8586.388927,1608.800546
440.542857,5921.647536,-8808.450710,1378.971896
440.543179,5847.626942,-9844.739029,1149.143247
440.543502,3775.050304,-10436.903782,1455.581446
440.543824,1776.494261,-10732.986159,0.000000
440.544147,-148.041188,-11399.171507,-919.314598
440.544469,-1036.288319,-11177.109724,-459.657299
440.544791,-1924.535449,-9178.553681,0.000000
440.545114,-2516.700203,-6661.853478,-1532.190996
440.545436,-2220.617826,-6439.791695,-2451.505594
440.545759,-2590.720797,-7402.059420,-2911.162892
440.546081,-2220.617826,-8660.409521,-2834.553343
440.546403,-2442.679609,-9252.574275,-2834.553343
440.546726,-2960.823768,-9844.739029,-2451.505594
440.547048,-2960.823768,-10214.842000,-2757.943793
440.547371,-2664.741391,-10140.821405,-3677.258390
440.547693,-2738.761985,-10584.944971,-3447.429741
440.548015,-2664.741391,-11029.068536,-3064.381992
440.548338,-2516.700203,-10584.944971,-1915.238745
440.548660,-2664.741391,-9474.636058,-459.657299
440.548983,-2146.597232,-8808.450710,-766.095498
440.549305,-740.205942,-9030.512492,-1762.019645
440.549627,888.247130,-9326.594869,-2451.505594
440.549950,1924.535449,-8808.450710,-1378.971896
440.550272,2960.823768,-8364.327145,229.828649
440.550595,4145.153275,-8290.306550,1072.533697
440.550917,4959.379811,-8586.388927,229.828649
440.551239,4515.256246,-8808.450710,306.438199
440.551562,2960.823768,-9474.636058,0.000000
440.551884,814.226536,-11251.130318,-1225.752797
440.552207,-888.247130,-12731.542202,-1225.752797
440.552529,-2294.638420,-11843.295072,-995.924147
440.552851,-4219.173869,-9622.677246,-995.924147
440.553174,-3923.091493,-7920.203579,-2145.067394
440.553496,-4071.132681,-6587.832884,-3600.648841
440.553819,-3627.009116,-6069.688724,-4213.525239
440.554141,-2960.823768,-6217.729913,-3830.477490
440.554463,-3108.864956,-7920.203579,-3294.210641
440.554786,-2590.720797,-9474.636058,-3140.991542
440.555108,-2960.823768,-9918.759623,-3677.258390
440.555431,-3404.947333,-10732.986159,-3830.477490
440.555753,-3849.070898,-11917.315666,-4366.744339
440.556075,-2294.638420,-12953.603985,-3524.039291
440.556398,-1998.556043,-10955.047942,-1915.238745
440.556720,-1998.556043,-8956.491898,-919.314598
440.557043,-666.185348,-8290.306550,-1072.533697
440.557365,1036.288319,-7550.100608,-1915.238745
440.557687,2072.576638,-8068.244768,-2911.162892
440.558010,2590.720797,-8808.450710,-383.047749
440.558332,3478.967927,-9400.615463,1762.019645
440.558655,4663.297435,-8956.491898,1302.362347
440.558977,5773.606348,-8512.368333,612.876398
440.559299,5329.482782,-8882.471304,995.924147
440.559622,3849.070898,-10584.944971,766.095498
440.559944,1998.556043,-11547.212695,612.876398
440.560267,0.000000,-10807.006753,0.000000
440.560589,-1628.453072,-10436.903782,-612.876398
440.560911,-2146.597232,-9696.697840,-1532.190996
440.561234,-1924.535449,-8068.244768,-2451.505594
440.561556,-2368.659014,-7105.977043,-3447.429741
440.561879,-1998.556043,-7698.141797,-3447.429741
440.562201,-1406.391290,-9400.615463,-2374.896044
440.562523,-1702.473667,-9770.718434,-1762.019645
440.562846,-2664.741391,-9400.615463,-2451.505594
440.563168,-3775.050304,-9400.615463,-4213.525239
440.563491,-4219.173869,-10140.821405,-4596.572988
440.563813,-4219.173869,-10214.842000,-4213.525239
440.564135,-3627.009116,-10510.924376,-3447.429741
440.564458,-2220.617826,-11251.130318,-1915.238745
440.564780,-666.185348,-11103.089130,-689.485948
440.565103,518.144159,-9474.636058,-459.657299
440.565425,2220.617826,-8438.347739,-1225.752797
440.565747,3404.947333,-8290.306550,-766.095498
440.566070,4145.153275,-7624.121203,766.095498
440.566392,5255.462188,-6587.832884,1455.581446
440.566715,5625.565159,-6883.915261,1608.800546
440.567037,5255.462188,-7550.100608,1225.752797
440.567359,3923.091493,-9178.553681,1378.971896
440.567682,2368.659014,-10658.965565,1455.581446
440.568004,666.185348,-11547.212695,-229.828649
440.568327,-888.247130,-12139.377449,0.000000
440.568649,-2516.700203,-10807.006753,306.438199
440.568971,-3997.112087,-8438.347739,-919.314598
440.569294,-4441.235652,-6883.915261,-3217.601092
440.569616,-4885.359217,-6587.832884,-4673.182538
440.569939,-4737.318029,-7328.038826,-4290.134789
440.570261,-4515.256246,-8438.347739,-4060.306139
440.570583,-3108.864956,-10140.821405,-3753.867940
440.570906,-2072.576638,-11547.212695,-3830.477490
440.571228,-1480.411884,-11843.295072,-2911.162892
440.571551,-1258.350101,-12213.398043,-2757.943793
440.571873,-1998.556043,-11177.109724,-2221.676944
440.572195,-2590.720797,-9918.759623,-2451.505594
440.572518,-2960.823768,-8586.388927,-2834.553343
440.572840,-2664.741391,-7846.182985,-2298.286494
440.573163,-1480.411884,-7179.997637,-1455.581446
440.573485,0.000000,-7994.224174,-1149.143247
440.573807,1332.370696,-8956.491898,-536.266849
440.574130,2590.720797,-9548.656652,1225.752797
440.574452,3775.050304,-9178.553681,1378.971896
440.574775,4219.173869,-8438.347739,0.000000
440.575097,3256.906145,-7846.182985,-459.657299
440.575419,1924.535449,-8290.306550,-383.047749
440.575742,0.000000,-9474.636058,-919.314598
440.576064,-1332.370696,-10658.965565,-1762.019645
440.576387,-2442.679609,-12065.356855,-2298.286494
440.576709,-3701.029710,-12361.439231,-2145.067394
440.577032,-3923.091493,-11251.130318,-1991.848295
440.577354,-3108.864956,-9474.636058,-2911.162892
440.577676,-2812.782580,-8364.327145,-4366.744339
440.577999,-2294.638420,-7105.977043,-3830.477490
440.578321,-1850.514855,-6661.853478,-3524.039291
440.578644,-222.061783,-7328.038826,-4136.915689
440.578966,0.000000,-8734.430116,-4136.915689
440.579288,-592.164754,-10436.903782,-3064.381992
440.579611,-962.267725,-11843.295072,-1762.019645
440.579933,-962.267725,-11843.295072,-1225.752797
440.580256,-444.123565,-11621.233289,-1455.581446
440.580578,0.000000,-9918.759623,-1149.143247
440.580900,518.144159,-8068.244768,-1149.143247
440.581223,1332.370696,-5921.647536,-995.924147
440.581545,2146.597232,-5625.565159,-1225.752797
440.581868,2590.720797,-7179.997637,-229.828649
440.582190,3256.906145,-9400.615463,536.266849
440.582512,4441.235652,-9992.780217,153.219100
440.582835,5181.441594,-10436.903782,-689.485948
440.583157,4811.338623,-10955.047942,0.000000
440.583480,3478.967927,-10658.965565,689.485948
440.583802,1110.308913,-10732.986159,536.266849
440.584124,-1184.329507,-10362.883188,-689.485948
440.584447,-2960.823768,-10140.821405,-1838.629195
440.584769,-4071.132681,-9474.636058,-2451.505594
440.585092,-3552.988522,-8438.347739,-1915.238745
440.585414,-3034.844362,-7402.059420,-3064.381992
440.585736,-1184.329507,-8660.409521,-3064.381992
440.586059,0.000000,-8364.327145,-1608.800546
440.586381,148.041188,-8586.388927,-1072.533697
440.586704,222.061783,-8364.327145,-1838.629195
440.587026,222.061783,-8438.347739,-2681.334243
440.587348,-592.164754,-9326.594869,-3447.429741
440.587671,-1554.432478,-10436.903782,-2834.553343
440.587993,-2146.597232,-11695.253884,-1532.190996
440.588315,-2738.761985,-11325.150913,-766.095498
440.588638,-2664.741391,-10288.862594,0.000000
440.588960,-2442.679609,-9030.512492,-766.095498
440.589283,-2220.617826,-8438.347739,-1915.238745
440.589605,-1924.535449,-7698.141797,-2068.457845
440.589927,-1110.308913,-7920.203579,-1149.143247
440.590250,518.144159,-8216.285956,-153.219100
440.590572,2146.597232,-8808.450710,-459.657299
440.590894,2072.576638,-9252.574275,-689.485948
440.591217,1110.308913,-10140.821405,229.828649
440.591539,0.000000,-11769.274478,76.609550
440.591862,-1480.411884,-12509.480420,-1072.533697
440.592184,-2960.823768,-11843.295072,-1532.190996
440.592506,-4885.359217,-10214.842000,-1149.143247
440.592829,-4811.338623,-8364.327145,-1455.581446
440.593151,-4367.215058,-6513.812290,-2451.505594
440.593474,-1850.514855,-7105.977043,-3907.087040
440.593796,-888.247130,-7105.977043,-3140.991542
440.594118,0.000000,-8216.285956,-1455.581446
440.594441,74.020594,-8586.388927,-1149.143247
440.594763,962.267725,-8734.430116,-2374.896044
440.595085,1332.370696,-10140.821405,-3524.039291
440.595408,962.267725,-10214.842000,-2987.772442
440.595730,0.000000,-10732.986159,-1762.019645
440.596053,-518.144159,-11103.089130,-1685.410096
440.596375,-962.267725,-10732.986159,-1762.019645
440.596697,-962.267725,-9770.718434,-1685.410096
440.597020,-296.082377,-8364.327145,-2145.067394
440.597342,592.164754,-7328.038826,-2451.505594
440.597664,1776.494261,-8290.306550,-2374.896044
440.597987,2664.741391,-8512.368333,-1149.143247
440.598309,3404.947333,-8586.388927,76.609550
440.598632,3997.112087,-8586.388927,-536.266849
440.598954,4589.276840,-8956.491898,-1225.752797
440.599276,3997.112087,-9770.718434,0.000000
440.599599,2294.638420,-11029.068536,-153.219100
440.599921,518.144159,-11695.253884,-383.047749
440.600243,-740.205942,-11399.171507,-536.266849
440.600566,-1924.535449,-10288.862594,-842.705048
440.600888,-2146.597232,-8808.450710,-1915.238745
440.601211,-1480.411884,-7254.018232,-3140.991542
440.601533,-888.247130,-7031.956449,-3677.258390
440.601855,-444.123565,-6957.935855,-2757.943793
440.602178,296.082377,-8734.430116,-1915.238745
440.602500,444.123565,-9844.739029,-1915.238745
440.602823,444.123565,-9474.636058,-2834.553343
440.603145,-1258.350101,-9918.759623,-3064.381992
440.603467,-2442.679609,-10807.006753,-3294.210641
440.603790,-2812.782580,-11695.253884,-2987.772442
440.604112,-3034.844362,-11325.150913,-3294.210641
440.604434,-3256.906145,-9992.780217,-1915.238745
440.604757,-2516.700203,-9696.697840,-1072.533697
440.605079,-2294.638420,-8216.285956,-1149.143247
440.605402,-666.185348,-8068.244768,-1991.848295
440.605724,222.061783,-8438.347739,-1532.190996
440.606046,518.144159,-8216.285956,-229.828649
440.606369,962.267725,-7698.141797,306.438199
440.606691,1332.370696,-7328.038826,229.828649
440.607013,1554.432478,-8364.327145,-229.828649
440.607336,1184.329507,-9770.718434,-153.219100
440.607658,222.061783,-11177.109724,306.438199
440.607981,-888.247130,-12435.459826,0.000000
440.608303,-1924.535449,-12287.418637,0.000000
440.608625,-2442.679609,-10658.965565,-459.657299
440.608948,-2812.782580,-8364.327145,-1378.971896
440.609270,-2590.720797,-7105.977043,-2221.676944
440.609593,-3034.844362,-6291.750507,-3294.210641
440.609915,-2072.576638,-6883.915261,-2834.553343
440.610237,-370.102971,-8364.327145,-2681.334243
440.610560,814.226536,-9918.759623,-2298.286494
440.610882,962.267725,-11177.109724,-1455.581446
440.611204,444.123565,-11029.068536,-995.924147
440.611527,0.000000,-10881.027347,-1991.848295
440.611849,-962.267725,-10362.883188,-2528.115143
440.612172,-1480.411884,-9844.739029,-2528.115143
440.612494,-2812.782580,-9030.512492,-1762.019645
440.612816,-3330.926739,-7920.203579,-612.876398
440.613139,-2294.638420,-7179.997637,-766.095498
440.613461,-962.267725,-7920.203579,-2221.676944
440.613783,1036.288319,-9030.512492,-1838.629195
440.614106,2220.617826,-9474.636058,-306.438199
440.614428,2664.741391,-8956.491898,0.000000
440.614751,3330.926739,-8734.430116,-689.485948
440.615073,2812.782580,-9178.553681,-1302.362347
440.615395,2220.617826,-10436.903782,-1608.800546
440.615718,0.000000,-11621.233289,-1532.190996
440.616040,-1554.432478,-12361.439231,-1378.971896
440.616362,-2294.638420,-11843.295072,-1225.752797
440.616685,-2072.576638,-11325.150913,-995.924147
440.617007,-1554.432478,-9178.553681,-1302.362347
440.617330,-370.102971,-7402.059420,-2451.505594
440.617652,370.102971,-6661.853478,-2451.505594
440.617974,1184.329507,-6587.832884,-1915.238745
440.618297,1850.514855,-7624.121203,-1685.410096
440.618619,2146.597232,-8068.244768,-1991.848295
440.618942,1776.494261,-9400.615463,-2604.724693
440.619264,962.267725,-11029.068536,-2451.505594
440.619586,370.102971,-12139.377449,-2221.676944
440.619909,-518.144159,-11547.212695,-2451.505594
440.620231,0.000000,-11695.253884,-2528.115143
440.620553,-1036.288319,-10140.821405,-1455.581446
440.620876,-1850.514855,-8290.306550,-1378.971896
440.621198,-2368.659014,-6883.915261,-2221.676944
440.621521,-1628.453072,-7254.018232,-4136.915689
440.621843,-1258.350101,-8068.244768,-2451.505594
440.622165,-370.102971,-8808.450710,-995.924147
440.622488,740.205942,-9400.615463,0.000000
440.622810,1628.453072,-9474.636058,0.000000
440.623132,2146.597232,-9770.718434,0.000000
440.623455,1480.411884,-9548.656652,-229.828649
440.623777,148.041188,-10214.842000,-306.438199
440.624100,-1406.391290,-10362.883188,-229.828649
440.624422,-2812.782580,-9992.780217,0.000000
440.624744,-3552.988522,-8882.471304,-383.047749
440.625067,-3108.864956,-8216.285956,-1685.410096
440.625389,-2072.576638,-7846.182985,-2145.067394
440.625711,-296.082377,-7624.121203,-2757.943793
440.626034,962.267725,-8068.244768,-2528.115143
440.626356,888.247130,-8364.327145,-1302.362347
440.626679,1036.288319,-8956.491898,-995.924147
440.627001,444.123565,-9770.718434,-2145.067394
440.627323,-962.267725,-10214.842000,-3524.039291
440.627646,-2146.597232,-11325.150913,-4519.963438
440.627968,-2146.597232,-12361.439231,-4136.915689
440.628291,-2146.597232,-11917.315666,-2298.286494
440.628613,-1258.350101,-10732.986159,0.000000
440.628935,-1036.288319,-9030.512492,-1072.533697
440.629258,-444.123565,-8290.306550,-2221.676944
440.629580,296.082377,-8586.388927,-2374.896044
440.629902,888.247130,-8586.388927,-1915.238745
440.630225,814.226536,-7179.997637,-1072.533697
440.630547,1406.391290,-7105.977043,-383.047749
440.630870,1850.514855,-7846.182985,0.000000
440.631192,1776.494261,-9400.615463,229.828649
440.631514,148.041188,-10584.944971,0.000000
440.631837,-1258.350101,-11399.171507,-842.705048
440.632159,-2072.576638,-11177.109724,-1608.800546
440.632481,-2738.761985,-10807.006753,-1225.752797
440.632804,-2738.761985,-9770.718434,-1149.143247
440.633126,-2368.659014,-7994.224174,-1838.629195
440.633449,-1924.535449,-7031.956449,-2987.772442
440.633771,-1110.308913,-6587.832884,-2528.115143
440.634093,-518.144159,-7254.018232,-2911.162892
440.634416,370.102971,-9030.512492,-2681.334243
440.634738,592.164754,-10288.862594,-2834.553343
440.635061,370.102971,-10881.027347,-2681.334243
440.635383,370.102971,-11843.295072,-2451.505594
440.635705,444.123565,-11103.089130,-2451.505594
440.636028,666.185348,-11029.068536,-2451.505594
440.636350,518.144159,-9770.718434,-1149.143247
440.636672,-296.082377,-8438.347739,-536.266849
440.636995,-740.205942,-7476.080014,-995.924147
440.637317,0.000000,-7328.038826,-1225.752797
440.637640,296.082377,-7550.100608,-1762.019645
440.637962,888.247130,-8438.347739,-995.924147
440.638284,1480.411884,-8512.368333,229.828649
440.638607,1702.473667,-8438.347739,459.657299
440.638929,2072.576638,-8956.491898,76.609550
440.639251,666.185348,-9844.739029,153.219100
440.639574,-962.267725,-10436.903782,-919.314598
440.639896,-2590.720797,-10955.047942,-1915.238745
440.640219,-3552.988522,-11843.295072,-1838.629195
440.640541,-3552.988522,-12213.398043,-1455.581446
440.640863,-3849.070898,-10140.821405,-1302.362347
440.641186,-2960.823768,-8512.368333,-1685.410096
440.641508,-1998.556043,-7698.141797,-2374.896044
440.641830,-666.185348,-7476.080014,-2221.676944
440.642153,-222.061783,-7402.059420,-2757.943793
440.642475,222.061783,-7402.059420,-2757.943793
440.642798,666.185348,-8882.471304,-2221.676944
440.643120,962.267725,-10510.924376,-1532.190996
440.643442,592.164754,-10881.027347,-1149.143247
440.643765,-296.082377,-11177.109724,-1532.190996
440.644087,-740.205942,-11103.089130,-1685.410096
440.644410,-888.247130,-10362.883188,-1455.581446
440.644732,-1628.453072,-8734.430116,-842.705048
440.645054,-1184.329507,-7328.038826,-1455.581446
440.645377,0.000000,-7402.059420,-1915.238745
440.645699,962.267725,-7994.224174,-1838.629195
440.646021,2072.576638,-9178.553681,-995.924147
440.646344,2220.617826,-9104.533087,0.000000
440.646666,2516.700203,-9252.574275,-383.047749
440.646989,2072.576638,-9326.594869,-229.828649
440.647311,1036.288319,-9918.759623,0.000000
440.647633,-222.061783,-10214.842000,-766.095498
440.647956,-1702.473667,-10658.965565,-1608.800546
440.648278,-2590.720797,-10732.986159,-1608.800546
440.648600,-3627.009116,-9844.739029,-1225.752797
440.648923,-4071.132681,-8734.430116,-1532.190996
440.649245,-3775.050304,-8216.285956,-2374.896044
440.649568,-2220.617826,-8290.306550,-3140.991542
440.649890,-1110.308913,-8882.471304,-2911.162892
440.650212,-222.061783,-8364.327145,-2451.505594
440.650535,1332.370696,-8068.244768,-2604.724693
440.650857,2368.659014,-8216.285956,-2528.115143
440.651179,2738.761985,-9252.574275,-2528.115143
440.651502,1924.535449,-10436.903782,-1838.629195
440.651824,0.000000,-10732.986159,-2298.286494
440.652147,-1628.453072,-11325.150913,-2298.286494
440.652469,-2368.659014,-11325.150913,-1838.629195
440.652791,-2368.659014,-9770.718434,-1915.238745
440.653114,-1702.473667,-7624.121203,-2145.067394
440.653436,-444.123565,-7105.977043,-2451.505594
440.653759,518.144159,-7772.162391,-1378.971896
440.654081,1776.494261,-7698.141797,-306.438199
440.654403,2368.659014,-8068.244768,-306.438199
440.654726,2368.659014,-8586.388927,-766.095498
440.655048,1480.411884,-9770.718434,-995.924147
440.655370,592.164754,-11177.109724,-1455.581446
440.655693,-740.205942,-12509.480420,-1225.752797
440.656015,-2368.659014,-12509.480420,-459.657299
440.656338,-3034.844362,-10955.047942,-306.438199
440.656660,-3849.070898,-9178.553681,-2221.676944
440.656982,-3849.070898,-8142.265362,-2911.162892
440.657305,-2960.823768,-8216.285956,-2911.162892
440.657627,-2738.761985,-7698.141797,-3064.381992
440.657949,-2220.617826,-8364.327145,-1915.238745
440.658272,-888.247130,-8808.450710,-1608.800546
440.658594,888.247130,-8882.471304,-2221.676944
440.658917,1480.411884,-9252.574275,-2834.553343
440.659239,1036.288319,-9622.677246,-1762.019645
440.659561,0.000000,-10362.883188,-1149.143247
440.659884,-962.267725,-9696.697840,-1991.848295
440.660206,-1406.391290,-10214.842000,-2604.724693
440.660529,-1702.473667,-10584.944971,-2068.457845
440.660851,-1998.556043,-9622.677246,-1762.019645
440.661173,-1554.432478,-8438.347739,-1532.190996
440.661496,-74.020594,-8586.388927,-1149.143247
440.661818,592.164754,-8068.244768,-612.876398
440.662140,1850.514855,-8882.471304,-383.047749
440.662463,2072.576638,-8808.450710,-383.047749
440.662785,2220.617826,-8438.347739,-842.705048
440.663108,2146.597232,-9474.636058,-612.876398
440.663430,1480.411884,-10584.944971,-153.219100
440.663752,-296.082377,-11103.089130,-306.438199
440.664075,-2368.659014,-10955.047942,76.609550
440.664397,-3478.967927,-9770.718434,-459.657299
440.664719,-3330.926739,-8808.450710,-1762.019645
440.665042,-2368.659014,-7846.182985,-2681.334243
440.665364,-962.267725,-8142.265362,-2374.896044
440.665687,-814.226536,-7846.182985,-1532.190996
440.666009,74.020594,-7698.141797,-1072.533697
440.666331,1184.329507,-8216.285956,-1225.752797
440.666654,1332.370696,-9030.512492,-2298.286494
440.666976,1480.411884,-9104.533087,-3677.258390
440.667298,222.061783,-9992.780217,-2987.772442
440.667621,0.000000,-11399.171507,-2834.553343
440.667943,0.000000,-12361.439231,-2451.505594
440.668266,-148.041188,-11917.315666,-1991.848295
440.668588,-222.061783,-11325.150913,-1149.143247
440.668910,0.000000,-9918.759623,-1608.800546
440.669233,518.144159,-8586.388927,-2221.676944
440.669555,1850.514855,-8660.409521,-2451.505594
440.669878,2220.617826,-8364.327145,-766.095498
440.670200,2442.679609,-7698.141797,919.314598
440.670522,2886.803174,-7698.141797,153.219100
440.670845,3775.050304,-8142.265362,-459.657299
440.671167,3256.906145,-9104.533087,-153.219100
440.671489,1332.370696,-9622.677246,536.266849
440.671812,-740.205942,-9992.780217,1225.752797
440.672134,-2146.597232,-10584.944971,0.000000
440.672457,-3552.988522,-10436.903782,-919.314598
440.672779,-4145.153275,-9400.615463,-1991.848295
440.673101,-3552.988522,-8068.244768,-3064.381992
440.673424,-3478.967927,-7550.100608,-3217.601092
440.673746,-3034.844362,-7698.141797,-1915.238745
440.674068,-1702.473667,-9252.574275,-1378.971896
440.674391,-1850.514855,-9474.636058,-2451.505594
440.674713,-1702.473667,-9178.553681,-3677.258390
440.675036,-2146.597232,-9770.718434,-3907.087040
440.675358,-2368.659014,-10658.965565,-3524.039291
440.675680,-2664.741391,-10436.903782,-2221.676944
440.676003,-2664.741391,-10362.883188,-2298.286494
440.676325,-2590.720797,-10140.821405,-1762.019645
440.676648,-2220.617826,-9844.739029,-1455.581446
440.676970,-2072.576638,-8882.471304,-1225.752797
440.677292,-1776.494261,-7624.121203,-1915.238745
440.677615,-148.041188,-8364.327145,-1915.238745
440.677937,1036.288319,-8438.347739,-842.705048
440.678259,2146.597232,-8216.285956,0.000000
440.678582,2812.782580,-8142.265362,153.219100
440.678904,3182.885551,-8882.471304,0.000000
440.679227,2368.659014,-9696.697840,459.657299
440.679549,740.205942,-10288.862594,-306.438199
440.679871,-592.164754,-10881.027347,-1532.190996
440.680194,-1850.514855,-11843.295072,-2068.457845
440.680516,-1850.514855,-11769.274478,-1455.581446
440.680838,-2294.638420,-9770.718434,-1072.533697
440.681161,-1776.494261,-7994.224174,-1532.190996
440.681483,-1258.350101,-7254.018232,-2451.505594
440.681806,-592.164754,-7031.956449,-2681.334243
440.682128,0.000000,-8438.347739,-3217.601092
440.682450,666.185348,-9474.636058,-3294.210641
440.682773,370.102971,-10066.800811,-3447.429741
440.683095,-444.123565,-10214.842000,-2221.676944
440.683417,-1332.370696,-9770.718434,-1762.019645
440.683740,-2368.659014,-9548.656652,-2911.162892
440.684062,-2220.617826,-10658.965565,-4749.792088
440.684385,-1850.514855,-10510.924376,-4519.963438
440.684707,-2146.597232,-9474.636058,-3217.601092
440.685029,-1036.288319,-9252.574275,-1455.581446
440.685352,888.247130,-9770.718434,-766.095498
440.685674,2812.782580,-9622.677246,-1532.190996
440.685997,4293.194464,-8882.471304,-1378.971896
440.686319,4811.338623,-9178.553681,306.438199
440.686641,5551.544565,-9178.553681,383.047749
440.686964,5403.503377,-8364.327145,536.266849
440.687286,4589.276840,-8068.244768,1915.238745
440.687608,2516.700203,-7846.182985,1532.190996
440.687931,148.041188,-8808.450710,383.047749
440.688253,-1776.494261,-10066.800811,-536.266849
440.688575,-3256.906145,-10140.821405,-842.705048
440.688898,-3627.009116,-9400.615463,-1149.143247
440.689220,-2960.823768,-8216.285956,-1532.190996
440.689543,-3256.906145,-7254.018232,-1762.019645
440.689865,-2442.679609,-8216.285956,-2298.286494
440.690187,-2072.576638,-8734.430116,-3370.820191
440.690510,-1628.453072,-9622.677246,-3830.477490
440.690832,-2294.638420,-10436.903782,-3983.696590
440.691154,-2664.741391,-11029.068536,-3524.039291
440.691477,-3108.864956,-11843.295072,-2528.115143
440.691799,-3034.844362,-11621.233289,-3064.381992
440.692122,-2664.741391,-11325.150913,-3600.648841
440.692444,-2294.638420,-10288.862594,-2604.724693
440.692766,-2664.741391,-8364.327145,-536.266849
440.693089,-1628.453072,-7624.121203,0.000000
440.693411,-518.144159,-7846.182985,-919.314598
440.693733,1110.308913,-8290.306550,-995.924147
440.694056,2368.659014,-8438.347739,-612.876398
440.694378,3256.906145,-8364.327145,229.828649
440.694701,3330.926739,-8586.388927,1072.533697
440.695023,2738.761985,-7772.162391,1532.190996
440.695345,1554.432478,-8364.327145,1149.143247
440.695668,296.082377,-9992.780217,-842.705048
440.695990,-370.102971,-12879.583391,-2451.505594
440.696312,-1184.329507,-13027.624579,-1838.629195
440.696635,-1850.514855,-11399.171507,-766.095498
440.696957,-2368.659014,-8364.327145,-459.657299
440.697280,-1924.535449,-7179.997637,-1608.800546
440.697602,-1554.432478,-7476.080014,-2757.943793
440.697924,-1332.370696,-7179.997637,-4213.525239
440.698247,-1332.370696,-7402.059420,-4749.792088
440.698569,-592.164754,-9474.636058,-3140.991542
440.698891,-296.082377,-10436.903782,-2221.676944
440.699214,-814.226536,-10140.821405,-1838.629195
440.699536,-2072.576638,-10140.821405,-1378.971896
440.699858,-2146.597232,-9474.636058,-2834.553343
440.700181,-2220.617826,-9844.739029,-4136.915689
440.700503,-2368.659014,-9918.759623,-3524.039291
440.700826,-2146.597232,-8734.430116,-1991.848295
440.701148,-1406.391290,-7254.018232,-1991.848295
440.701470,1184.329507,-9104.533087,-2374.896044
440.701793,3182.885551,-9770.718434,-1072.533697
440.702115,4293.194464,-10214.842000,-1378.971896
440.702437,4367.215058,-10066.800811,-536.266849
440.702760,4589.276840,-9622.677246,1072.533697
440.703082,4145.153275,-9622.677246,995.924147
440.703405,2590.720797,-8660.409521,306.438199
440.703727,666.185348,-8512.368333,-766.095498
440.704049,-518.144159,-9326.594869,-1608.800546
440.704372,-740.205942,-9918.759623,-1378.971896
440.704694,-1480.411884,-9474.636058,-229.828649
440.705016,-1332.370696,-8512.368333,229.828649
440.705339,-2368.659014,-8068.244768,-1072.533697
440.705661,-2072.576638,-8290.306550,-2374.896044
440.705984,-1184.329507,-8068.244768,-3677.258390
440.706306,-666.185348,-7698.141797,-4366.744339
440.706628,-666.185348,-8364.327145,-3524.039291
440.706951,-1184.329507,-9400.615463,-2068.457845
440.707273,-2516.700203,-10288.862594,-1762.019645
440.707595,-3404.947333,-11621.233289,-3064.381992
440.707918,-3404.947333,-12879.583391,-4903.011187
440.708240,-3256.906145,-12139.377449,-4290.134789
440.708562,-3997.112087,-11177.109724,-3370.820191
440.708885,-3404.947333,-8956.491898,-612.876398
440.709207,-1998.556043,-7476.080014,-536.266849
440.709530,592.164754,-7254.018232,-1838.629195
440.709852,2368.659014,-7994.224174,-1532.190996
440.710174,3108.864956,-8734.430116,0.000000
440.710497,3256.906145,-9030.512492,919.314598
440.710819,3997.112087,-8734.430116,1685.410096
440.711141,3552.988522,-9252.574275,1072.533697
440.711464,3034.844362,-10140.821405,306.438199
440.711786,1480.411884,-10214.842000,306.438199
440.712109,-296.082377,-8808.450710,0.000000
440.712431,-1184.329507,-9474.636058,-1072.533697
440.712753,-1258.350101,-9622.677246,-1149.143247
440.713076,-814.226536,-9474.636058,-766.095498
440.713398,-1998.556043,-7550.100608,-1685.410096
440.713720,-1702.473667,-7550.100608,-2221.676944
440.714043,-592.164754,-9178.553681,-3140.991542
440.714365,-444.123565,-9252.574275,-3600.648841
440.714688,-740.205942,-8882.471304,-3524.039291
440.715010,-1406.391290,-9326.594869,-3294.210641
440.715332,-2146.597232,-10510.924376,-2604.724693
440.715655,-2442.679609,-11251.130318,-3677.258390
440.715977,-3478.967927,-11695.253884,-2757.943793
440.716299,-4589.276840,-10288.862594,-2374.896044
440.716622,-5773.606348,-9326.594869,-2374.896044
440.716944,-5847.626942,-8290.306550,-2221.676944
440.717266,-3701.029710,-7624.121203,-3600.648841
440.717589,-1110.308913,-7550.100608,-4213.525239
440.717911,1628.453072,-9178.553681,-2757.943793
440.718234,3997.112087,-10066.800811,-306.438199
440.718556,5699.585753,-10288.862594,612.876398
440.718878,5995.668130,-10140.821405,1072.533697
440.719201,5551.544565,-10214.842000,1149.143247
440.719523,3034.844362,-10288.862594,153.219100
440.719845,1184.329507,-9474.636058,-459.657299
440.720168,0.000000,-8660.409521,-766.095498
440.720490,-296.082377,-8956.491898,-1608.800546
440.720813,666.185348,-9770.718434,-689.485948
440.721135,1036.288319,-8364.327145,995.924147
440.721457,0.000000,-7698.141797,0.000000
440.721780,-296.082377,-8438.347739,-1302.362347
440.722102,0.000000,-8660.409521,-1915.238745
440.722424,-666.185348,-7476.080014,-4443.353888
440.722747,-1184.329507,-7698.141797,-5439.278036
440.723069,-1850.514855,-10214.842000,-4136.915689
440.723392,-2368.659014,-12213.398043,-3370.820191
440.723714,-3330.926739,-11843.295072,-2374.896044
440.724036,-4515.256246,-10732.986159,-2834.553343
440.724359,-4885.359217,-11399.171507,-3447.429741
440.724681,-3627.009116,-11621.233289,-2987.772442
440.725003,-3330.926739,-8882.471304,-2987.772442
440.725326,-2664.741391,-7254.018232,-2987.772442
440.725648,-296.082377,-7179.997637,-1838.629195
440.725970,2294.638420,-7550.100608,-766.095498
440.726293,4219.173869,-7846.182985,-766.095498
440.726615,4441.235652,-8290.306550,383.047749
440.726938,4145.153275,-9178.553681,2145.067394
440.727260,4293.194464,-9474.636058,2451.505594
440.727582,4441.235652,-9326.594869,1302.362347
440.727905,3627.009116,-9474.636058,-1225.752797
440.728227,2368.659014,-11177.109724,-383.047749
440.728549,740.205942,-9548.656652,1762.019645
440.728872,-962.267725,-7254.018232,995.924147
440.729194,-1850.514855,-7105.977043,-766.095498
440.729517,-2368.659014,-8956.491898,-2145.067394
440.729839,-3923.091493,-8290.306550,-2528.115143
440.730161,-3404.947333,-8142.265362,-3983.696590
440.730484,-1332.370696,-9622.677246,-4366.744339
440.730806,666.185348,-11177.109724,-4136.915689
440.731128,740.205942,-11843.295072,-3370.820191
440.731451,-2072.576638,-9770.718434,-689.485948
440.731773,-4515.256246,-9918.759623,-995.924147
440.732096,-5329.482782,-11547.212695,-4213.525239
440.732418,-5403.503377,-11843.295072,-5439.278036
440.732740,-6069.688724,-10362.883188,-4903.011187
440.733063,-4737.318029,-8290.306550,-2374.896044
440.733385,-2146.597232,-8290.306550,-612.876398
440.733707,1110.308913,-8808.450710,995.924147
440.734030,2960.823768,-8586.388927,766.095498
440.734352,2812.782580,-7624.121203,383.047749
440.734674,2294.638420,-8216.285956,842.705048
440.734997,1702.473667,-8734.430116,612.876398
440.735319,1332.370696,-8660.409521,153.219100
440.735642,1702.473667,-9252.574275,-2681.334243
440.735964,1480.411884,-12065.356855,-1762.019645
440.736286,1554.432478,-11991.336260,1991.848295
440.736609,-222.061783,-9474.636058,1608.800546
440.736931,-2072.576638,-8586.388927,-612.876398
440.737253,-2442.679609,-8438.347739,-1762.019645
440.737576,-2812.782580,-7698.141797,-3447.429741
440.737898,-3256.906145,-6365.771101,-4366.744339
440.738221,-2516.700203,-7105.977043,-3753.867940
440.738543,-962.267725,-9474.636058,-3370.820191
440.738865,222.061783,-10658.965565,-3600.648841
440.739188,-518.144159,-10362.883188,-1991.848295
440.739510,-2812.782580,-10955.047942,-1302.362347
440.739832,-4737.318029,-12213.398043,-2451.505594
440.740155,-6365.771101,-12509.480420,-3294.210641
440.740477,-7254.018232,-9918.759623,-3753.867940
440.740800,-6883.915261,-7698.141797,-3370.820191
440.741122,-4737.318029,-6587.832884,-2221.676944
440.741444,-1924.535449,-6513.812290,-2145.067394
440.741767,-222.061783,-6587.832884,-842.705048
440.742089,740.205942,-8734.430116,536.266849
440.742411,1554.432478,-10658.965565,1225.752797
440.742734,2294.638420,-10214.842000,1455.581446
440.743056,3478.967927,-9104.533087,0.000000
440.743379,4441.235652,-9548.656652,-3830.477490
440.743701,3552.988522,-11251.130318,-1915.238745
440.744023,2516.700203,-9770.718434,1378.971896
440.744346,-222.061783,-8068.244768,0.000000
440.744668,-2664.741391,-9696.697840,-1991.848295
440.744990,-4959.379811,-10955.047942,-995.924147
440.745313,-7402.059420,-9770.718434,-2451.505594
440.745635,-8660.409521,-9030.512492,-4673.182538
440.745957,-7476.080014,-8364.327145,-4060.306139
440.746280,-4959.379811,-8512.368333,-3447.429741
440.746602,-2516.700203,-7328.038826,-3447.429741
440.746925,-1184.329507,-6439.791695,-2221.676944
440.747247,-1406.391290,-8142.265362,-1302.362347
440.747569,-1702.473667,-10066.800811,-1455.581446
440.747892,-2886.803174,-12509.480420,-2451.505594
440.748214,-4145.153275,-12657.521608,-3677.258390
440.748536,-4145.153275,-11251.130318,-3753.867940
440.748859,-3034.844362,-10510.924376,-2451.505594
440.749181,-2738.761985,-8956.491898,-383.047749
440.749504,-2368.659014,-8586.388927,689.485948
440.749826,-3478.967927,-7772.162391,0.000000
440.750148,-3034.844362,-8364.327145,-459.657299
440.750471,-2738.761985,-8216.285956,-383.047749
440.750793,-1184.329507,-8364.327145,-1915.238745
440.751115,666.185348,-9030.512492,-2451.505594
440.751438,2738.761985,-9474.636058,0.000000
440.751760,3627.009116,-9030.512492,2528.115143
440.752083,3923.091493,-8290.306550,919.314598
440.752405,1850.514855,-8216.285956,-766.095498
440.752727,74.020594,-9622.677246,-2911.162892
440.753050,-2812.782580,-10362.883188,-3294.210641
440.753372,-5921.647536,-11029.068536,-3370.820191
440.753694,-8290.306550,-11399.171507,-2987.772442
440.754017,-9844.739029,-11177.109724,-2145.067394
440.754339,-11177.109724,-9696.697840,-2374.896044
440.754661,-11621.233289,-9474.636058,-2757.943793
440.754984,-10881.027347,-9474.636058,-3524.039291
440.755306,-8882.471304,-9030.512492,-2221.676944
440.755629,-6735.874072,-7402.059420,-842.705048
440.755951,-3997.112087,-5921.647536,-1302.362347
440.756273,0.000000,-5033.400406,-766.095498
440.756596,3330.926739,-5255.462188,-2068.457845
440.756918,4959.379811,-7476.080014,-4443.353888
440.757240,5107.421000,-11621.233289,-2451.505594
440.757563,4663.297435,-13471.748144,995.924147
440.757885,3108.864956,-12583.501014,766.095498
440.758208,1554.432478,-12139.377449,-995.924147
440.758530,-222.061783,-11547.212695,-766.095498
440.758852,-3108.864956,-9474.636058,-1608.800546
440.759175,-5847.626942,-6661.853478,-1838.629195
440.759497,-6143.709319,-7254.018232,-2298.286494
440.759819,-5477.523971,-9992.780217,-4366.744339
440.760142,-4441.235652,-10807.006753,-2374.896044
440.760464,-4885.359217,-9400.615463,2451.505594
440.760787,-4663.297435,-7254.018232,1838.629195
440.761109,-2590.720797,-10362.883188,-1378.971896
440.761431,592.164754,-10732.986159,-1608.800546
440.761754,1184.329507,-7031.956449,-3524.039291
440.762076,1110.308913,-6587.832884,-4673.182538
440.762398,1702.473667,-7772.162391,0.000000
440.762721,2812.782580,-7846.182985,1838.629195
440.763043,2590.720797,-5551.544565,-2834.553343
440.763365,2072.576638,-8438.347739,-6588.421283
440.763688,814.226536,-15618.345376,-3677.258390
440.764010,-1776.494261,-17468.860231,0.000000
440.764333,-4737.318029,-13323.706956,1072.533697
440.764655,-7179.997637,-9918.759623,0.000000
440.764977,-6587.832884,-8290.306550,-995.924147
440.765300,-5329.482782,-5107.421000,-2604.724693
440.765622,-6513.812290,-1776.494261,-3677.258390
440.765944,-6587.832884,-3849.070898,-1149.143247
440.766267,-3923.091493,-7698.141797,306.438199
440.766589,-1184.329507,-9770.718434,-1455.581446
440.766912,-888.247130,-10214.842000,-1685.410096
440.767234,-1702.473667,-11251.130318,-2068.457845
440.767556,-2368.659014,-11621.233289,-3064.381992
440.767879,-2590.720797,-11695.253884,-2451.505594
440.768201,-3256.906145,-10807.006753,-2068.457845
440.768523,-3849.070898,-9992.780217,-2451.505594
440.768846,-3478.967927,-9992.780217,-2221.676944
440.769168,-1776.494261,-10584.944971,-995.924147
440.769491,-518.144159,-9918.759623,-536.266849
440.769813,0.000000,-9400.615463,-1378.971896
440.770135,74.020594,-9030.512492,995.924147
440.770458,-222.061783,-7105.977043,2604.724693
440.770780,-1850.514855,-5773.606348,612.876398
440.771102,-3330.926739,-5773.606348,-1302.362347
440.771425,-4515.256246,-6069.688724,-2528.115143
440.771747,-5107.421000,-6735.874072,-3907.087040
440.772069,-5551.544565,-8660.409521,-4213.525239
440.772392,-5847.626942,-11325.150913,-2298.286494
440.772714,-6069.688724,-12287.418637,-2068.457845
440.773037,-6069.688724,-12805.562797,-3524.039291
440.773359,-5699.585753,-12879.583391,-4979.620737
440.773681,-5551.544565,-12953.603985,-5515.887586
440.774004,-5699.585753,-12065.356855,-5362.668486
440.774326,-4737.318029,-11547.212695,-4060.306139
440.774648,-3404.947333,-10362.883188,-1302.362347
440.774971,-1924.535449,-9104.533087,-842.705048
440.775293,-1480.411884,-7550.100608,-306.438199
440.775616,-444.123565,-6587.832884,-76.609550
440.775938,148.041188,-5995.668130,0.000000
440.776260,962.267725,-5847.626942,-459.657299
440.776583,1776.494261,-5921.647536,-383.047749
440.776905,1554.432478,-6883.915261,383.047749
440.777227,1480.411884,-7994.224174,0.000000
440.777550,1628.453072,-9400.615463,-153.219100
440.777872,1406.391290,-10807.006753,-1455.581446
440.778195,1110.308913,-12287.418637,-2145.067394
440.778517,74.020594,-13175.665768,-1072.533697
440.778839,-1036.288319,-12435.459826,-153.219100
440.779162,-1850.514855,-11695.253884,-383.047749
440.779484,-2368.659014,-10362.883188,-1072.533697
440.779806,-2146.597232,-9252.574275,-1532.190996
440.780129,-3108.864956,-8216.285956,-1838.629195
440.780451,-4145.153275,-7254.018232,-919.314598
440.780773,-4145.153275,-7698.141797,-842.705048
440.781096,-3330.926739,-7920.203579,-1608.800546
440.781418,-2812.782580,-8290.306550,-1762.019645
440.781741,-3627.009116,-7550.100608,-2451.505594
440.782063,-4367.215058,-7994.224174,-3140.991542
440.782385,-4811.338623,-9030.512492,-3294.210641
440.782708,-5625.565159,-9326.594869,-3370.820191
440.783030,-6291.750507,-9548.656652,-3983.696590
440.783352,-5107.421000,-10807.006753,-5209.449386
440.783675,-3775.050304,-12583.501014,-4366.744339
440.783997,-2664.741391,-12953.603985,-1838.629195
440.784320,-1628.453072,-11917.315666,536.266849
440.784642,-592.164754,-10214.842000,766.095498
440.784964,296.082377,-8068.244768,-689.485948
440.785287,518.144159,-6809.894666,-766.095498
440.785609,0.000000,-7105.977043,-383.047749
440.785931,-888.247130,-7031.956449,919.314598
440.786254,-1776.494261,-6735.874072,1072.533697
440.786576,-2368.659014,-7254.018232,383.047749
440.786899,-2368.659014,-8216.285956,306.438199
440.787221,-2664.741391,-9474.636058,0.000000
440.787543,-3034.844362,-8882.471304,-1685.410096
440.787866,-2664.741391,-8882.471304,-2451.505594
440.788188,-1850.514855,-10214.842000,-3447.429741
440.788510,-740.205942,-12213.398043,-3294.210641
440.788833,-1184.329507,-12435.459826,-2681.334243
440.789155,-2368.659014,-12435.459826,-2298.286494
440.789478,-2812.782580,-12657.521608,-2834.553343
440.789801,-2516.700203,-13841.851115,-2757.943793
440.790123,-2664.741391,-12583.501014,-1838.629195
440.790445,-2738.761985,-10584.944971,-766.095498
440.790768,-2146.597232,-8956.491898,-689.485948
440.791090,-518.144159,-8216.285956,459.657299
440.791412,444.123565,-6957.935855,1838.629195
440.791735,1036.288319,-6809.894666,1532.190996
440.792057,2294.638420,-7920.203579,1302.362347
440.792379,2738.761985,-8438.347739,1991.848295
440.792702,2886.803174,-9030.512492,1225.752797
440.793024,3108.864956,-9992.780217,1302.362347
440.793346,2738.761985,-10807.006753,1378.971896
440.793669,2368.659014,-10955.047942,1608.800546
440.793991,2368.659014,-11029.068536,1455.581446
440.794314,2368.659014,-10732.986159,1302.362347
440.794636,2220.617826,-10362.883188,1532.190996
440.794958,1036.288319,-9548.656652,2145.067394
440.795281,0.000000,-9030.512492,2528.115143
440.795603,-444.123565,-8956.491898,2528.115143
440.795925,-1480.411884,-8660.409521,1838.629195
440.796248,-2738.761985,-7698.141797,1838.629195
440.796570,-3108.864956,-7550.100608,2451.505594
440.796892,-2960.823768,-7846.182985,2528.115143
440.797215,-2294.638420,-7846.182985,2374.896044
440.797537,-2294.638420,-8216.285956,2604.724693
440.797859,-2368.659014,-8734.430116,2987.772442
440.798182,-2294.638420,-8956.491898,2681.334243
440.798504,-2220.617826,-9474.636058,2528.115143
440.798826,-2368.659014,-10362.883188,2757.943793
440.799149,-2590.720797,-10510.924376,2911.162892
440.799471,-2812.782580,-10658.965565,2757.943793
440.799793,-2516.700203,-10584.944971,2451.505594
440.800116,-2368.659014,-10584.944971,2451.505594
440.800438,-1554.432478,-10584.944971,2681.334243
440.800761,-740.205942,-10066.800811,2834.553343
440.801083,-370.102971,-9474.636058,2834.553343
440.801405,370.102971,-9178.553681,2604.724693
440.801728,666.185348,-8956.491898,1915.238745
440.802050,296.082377,-9104.533087,1225.752797
440.802372,-518.144159,-9548.656652,1149.143247
440.802695,-1702.473667,-10214.842000,995.924147
440.803017,-2442.679609,-10732.986159,459.657299
440.803339,-3552.988522,-10658.965565,-383.047749
440.803662,-3849.070898,-10807.006753,-1225.752797
440.803984,-3330.926739,-10510.924376,-1532.190996
440.804306,-3256.906145,-9992.780217,-1608.800546
440.804629,-3108.864956,-9770.718434,-995.924147
440.804951,-2368.659014,-9918.759623,-383.047749
440.805273,-1480.411884,-9992.780217,-306.438199
440.805596,-666.185348,-9918.759623,-766.095498
440.805918,666.185348,-9474.636058,306.438199
440.806240,1850.514855,-8512.368333,229.828649
440.806563,3701.029710,-6587.832884,0.000000
440.806885,5551.544565,-5477.523971,-995.924147
440.807208,6735.874072,-5773.606348,-1149.143247
440.807530,6883.915261,-6735.874072,-766.095498
440.807852,4367.215058,-7476.080014,-2068.457845
440.808175,1036.288319,-10362.883188,-2834.553343
440.808497,-3034.844362,-11621.233289,-1532.190996
440.808819,-6143.709319,-10362.883188,-2451.505594
440.809142,-7772.162391,-10807.006753,-4903.011187
440.809464,-7550.100608,-11029.068536,-5975.544884
440.809786,-5329.482782,-11399.171507,-4826.401637
440.810109,-1702.473667,-11473.192101,-3983.696590
440.810431,1776.494261,-12361.439231,-1685.410096
440.810753,4885.359217,-13471.748144,1532.190996
440.811076,7624.121203,-12065.356855,1225.752797
440.811398,8808.450710,-9992.780217,689.485948
440.811720,7624.121203,-7476.080014,2604.724693
440.812043,7624.121203,-5107.421000,2757.943793
440.812365,6735.874072,-4145.153275,612.876398
440.812687,3997.112087,-3478.967927,1149.143247
440.813010,-1036.288319,-4441.235652,1225.752797
440.813332,-5403.503377,-7105.977043,76.609550
440.813655,-7550.100608,-10732.986159,-2911.162892
440.813977,-8216.285956,-13767.830521,-3907.087040
440.814299,-9030.512492,-14211.954086,-4060.306139
440.814622,-7476.080014,-15618.345376,-4673.182538
440.814944,-5403.503377,-15544.324782,-3064.381992
440.815266,-3108.864956,-14508.036463,-153.219100
440.815589,-3182.885551,-10732.986159,-1302.362347
440.815911,-3404.947333,-8438.347739,-3217.601092
440.816233,-3256.906145,-8290.306550,-3600.648841
440.816556,-3256.906145,-8290.306550,-1915.238745
440.816878,-4145.153275,-9844.739029,-459.657299
440.817200,-4959.379811,-11695.253884,2528.115143
440.817523,-4589.276840,-11843.295072,4903.011187
440.817845,-2738.761985,-10214.842000,4903.011187
440.818167,-2146.597232,-8364.327145,4290.134789
440.818490,-1628.453072,-6217.729913,4673.182538
440.818812,-740.205942,-4959.379811,3907.087040
440.819135,444.123565,-4515.256246,3294.210641
440.819457,2220.617826,-4737.318029,2604.724693
440.819779,3478.967927,-6069.688724,2145.067394
440.820102,3478.967927,-7920.203579,2451.505594
440.820424,4663.297435,-9548.656652,2681.334243
440.820746,5773.606348,-11621.233289,2681.334243
440.821069,7105.977043,-13027.624579,2298.286494
440.821391,6883.915261,-12435.459826,2451.505594
440.821713,4737.318029,-8956.491898,3907.087040
440.822036,2738.761985,-7624.121203,3524.039291
440.822358,222.061783,-9030.512492,229.828649
440.822680,-2664.741391,-9696.697840,306.438199
440.823003,-6883.915261,-8586.388927,4519.963438
440.823325,-10214.842000,-6661.853478,4136.915689
440.823647,-9992.780217,-9622.677246,1302.362347
440.823970,-6143.709319,-12731.542202,1455.581446
440.824292,-2516.700203,-11695.253884,689.485948
440.824614,0.000000,-10214.842000,-1072.533697
440.824937,4811.338623,-9770.718434,1378.971896
440.825259,9474.636058,-10955.047942,2987.772442
440.825582,10732.986159,-9918.759623,995.924147
440.825904,9030.512492,-8216.285956,1915.238745
440.826226,7402.059420,-8068.244768,4903.011187
440.826549,7105.977043,-7846.182985,0.000000
440.826871,5773.606348,-12213.398043,-5132.839837
440.827193,2590.720797,-15914.427753,-1149.143247
440.827516,-1776.494261,-11991.336260,2221.676944
440.827838,-6143.709319,-9178.553681,2221.676944
440.828160,-9030.512492,-11177.109724,2298.286494
440.828483,-9844.739029,-13249.686362,-1302.362347
440.828805,-14137.933492,-10955.047942,-4290.134789
440.829127,-18949.272115,-8512.368333,0.000000
440.829450,-17838.963202,-4219.173869,2374.896044
440.829772,-10288.862594,-4515.256246,-3600.648841
440.830094,-1258.350101,-6809.894666,-5669.106685
440.830417,5329.482782,-6809.894666,-2987.772442
440.830739,8290.306550,-8586.388927,-2451.505594
440.831061,10732.986159,-11473.192101,2987.772442
440.831384,11843.295072,-11029.068536,7124.688131
440.831706,9400.615463,-5551.544565,-1378.971896
440.832029,6291.750507,-4663.297435,-9039.926876
440.832351,5107.421000,-10362.883188,-5822.325785
440.832673,2812.782580,-12287.418637,-766.095498
440.832996,-3849.070898,-11621.233289,2451.505594
440.833318,-10140.821405,-12879.583391,5975.544884
440.833640,-12583.501014,-12139.377449,4596.572988
440.833963,-9252.574275,-10732.986159,-3217.601092
440.834285,-7402.059420,-7476.080014,-8427.050478
440.834607,-6069.688724,-7402.059420,-4673.182538
440.834930,-1480.411884,-4293.194464,842.705048
440.835252,3182.885551,-1332.370696,1838.629195
440.835574,5329.482782,-2886.803174,153.219100
440.835897,5181.441594,-7031.956449,-2068.457845
440.836219,3775.050304,-11029.068536,-6281.983084
440.836541,2368.659014,-14211.954086,-8273.831378
440.836864,1036.288319,-17024.736666,-5592.497135
440.837186,518.144159,-17542.880825,-2298.286494
440.837508,-148.041188,-16580.613101,-1455.581446
440.837831,-1850.514855,-15618.345376,-842.705048
440.838153,-4145.153275,-13101.645173,-1608.800546
440.838476,-5625.565159,-9474.636058,-2221.676944
440.838798,-4663.297435,-5847.626942,-4213.525239
440.839120,-444.123565,-4367.215058,-3140.991542
440.839443,3256.906145,-6587.832884,-459.657299
440.839765,6957.935855,-8216.285956,2911.162892
440.840087,8068.244768,-7179.997637,3064.381992
440.840410,7698.141797,-6587.832884,2528.115143
440.840732,6809.894666,-6735.874072,459.657299
440.841054,4589.276840,-7031.956449,-1378.971896
440.841377,1702.473667,-8068.244768,-2528.115143
440.841699,-370.102971,-10510.924376,-2681.334243
440.842021,-592.164754,-12361.439231,-2681.334243
440.842344,-962.267725,-12213.398043,-2528.115143
440.842666,-3330.926739,-12509.480420,-1455.581446
440.842988,-5847.626942,-12361.439231,-306.438199
440.843311,-6957.935855,-12435.459826,0.000000
440.843633,-7031.956449,-10436.903782,-229.828649
440.843955,-6069.688724,-7031.956449,-1532.190996
440.844278,-4515.256246,-4959.379811,-2681.334243
440.844600,-1702.473667,-4367.215058,-842.705048
440.844923,148.041188,-4737.318029,1532.190996
440.845245,0.000000,-5847.626942,2834.553343
440.845567,-1110.308913,-8364.327145,2834.553343
440.845890,-1554.432478,-10955.047942,536.266849
440.846212,-740.205942,-11399.171507,-2145.067394
440.846534,444.123565,-9400.615463,-3064.381992
440.846857,1554.432478,-7550.100608,-1915.238745
440.847179,3701.029710,-7994.224174,-536.266849
440.847501,5255.462188,-7550.100608,0.000000
440.847824,4293.194464,-7624.121203,-1302.362347
440.848146,1702.473667,-10288.862594,-2451.505594
440.848468,-222.061783,-13841.851115,-2681.334243
440.848791,-2220.617826,-16062.468941,-2604.724693
440.849113,-3849.070898,-15766.386565,-1455.581446
440.849435,-4959.379811,-13323.706956,689.485948
440.849758,-4885.359217,-10214.842000,306.438199
440.850080,-4293.194464,-6883.915261,-536.266849
440.850402,-2590.720797,-5477.523971,-1455.581446
440.850725,-1184.329507,-4071.132681,-1608.800546
440.851047,518.144159,-5033.400406,-1532.190996
440.851370,1480.411884,-6735.874072,-306.438199
440.851692,2294.638420,-8660.409521,229.828649
440.852014,2886.803174,-10955.047942,-612.876398
440.852337,2738.761985,-11769.274478,-1608.800546
440.852659,2294.638420,-12435.459826,-2145.067394
440.852981,1332.370696,-12583.501014,-2374.896044
440.853304,148.041188,-13323.706956,-1838.629195
440.853626,-1924.535449,-13101.645173,-1532.190996
440.853948,-3552.988522,-12213.398043,-1302.362347
440.854271,-2368.659014,-11769.274478,-1532.190996
440.854593,-962.267725,-10362.883188,-1685.410096
440.854915,370.102971,-8216.285956,-919.314598
440.855238,1702.473667,-5773.606348,1072.533697
440.855560,2442.679609,-4441.235652,1302.362347
440.855882,2368.659014,-4219.173869,0.000000
440.856205,1998.556043,-4293.194464,-766.095498
440.856527,1110.308913,-5107.421000,-1378.971896
440.856849,-148.041188,-7254.018232,-1915.238745
440.857172,-1480.411884,-9770.718434,-1149.143247
440.857494,-2812.782580,-11843.295072,-153.219100
440.857817,-3330.926739,-12509.480420,0.000000
440.858139,-4885.359217,-10807.006753,-1838.629195
440.858461,-4663.297435,-10140.821405,-3753.867940
440.858784,-2590.720797,-9696.697840,-4673.182538
440.859106,0.000000,-9992.780217,-3600.648841
440.859428,1332.370696,-9918.759623,-2451.505594
440.859751,2368.659014,-9326.594869,-842.705048
440.860073,2590.720797,-8068.244768,76.609550
440.860395,3701.029710,-5699.585753,-1302.362347
440.860718,4663.297435,-5477.523971,-3677.258390
440.861040,4219.173869,-7994.224174,-4136.915689
440.861362,1924.535449,-10658.965565,-1455.581446
440.861685,-1406.391290,-11917.315666,536.266849
440.862007,-3997.112087,-11843.295072,383.047749
440.862329,-4071.132681,-11473.192101,-1608.800546
440.862652,-3849.070898,-9770.718434,-5056.230287
440.862974,-2664.741391,-8290.306550,-5669.106685
440.863296,-1110.308913,-7476.080014,-4749.792088
440.863619,296.082377,-8364.327145,-3677.258390
440.863941,888.247130,-9992.780217,-3294.210641
440.864264,74.020594,-11029.068536,-4596.572988
440.864586,-1110.308913,-12361.439231,-5592.497135
440.864908,-2368.659014,-13175.665768,-5286.058936
440.865231,-3256.906145,-14211.954086,-3983.696590
440.865553,-4515.256246,-13101.645173,-2451.505594
440.865875,-4885.359217,-10807.006753,-1149.143247
440.866198,-4737.318029,-8068.244768,-1072.533697
440.866520,-1924.535449,-7031.956449,-1915.238745
440.866842,-296.082377,-6439.791695,-2221.676944
440.867165,518.144159,-6957.935855,-766.095498
440.867487,1628.453072,-6587.832884,919.314598
440.867809,3034.844362,-6735.874072,1532.190996
440.868132,4293.194464,-7402.059420,536.266849
440.868454,4145.153275,-7179.997637,-1072.533697
440.868776,2516.700203,-8956.491898,-1532.190996
440.869099,444.123565,-10732.986159,-383.047749
440.869421,-1924.535449,-12139.377449,459.657299
440.869743,-3701.029710,-11843.295072,612.876398
440.870066,-4293.194464,-10510.924376,-2145.067394
440.870388,-2072.576638,-9400.615463,-2604.724693
440.870711,0.000000,-8364.327145,-2451.505594
440.871033,1406.391290,-7105.977043,-995.924147
440.871355,1406.391290,-6291.750507,536.266849
440.871678,962.267725,-6291.750507,1685.410096
440.872000,-296.082377,-6735.874072,612.876398
440.872322,0.000000,-8142.265362,-1149.143247
440.872645,-296.082377,-8660.409521,-2221.676944
440.872967,-592.164754,-9252.574275,-1608.800546
440.873289,-740.205942,-10732.986159,229.828649
440.873612,-1924.535449,-11029.068536,2221.676944
440.873934,-3256.906145,-11029.068536,2374.896044
440.874256,-3627.009116,-11177.109724,76.609550
440.874579,-2220.617826,-10510.924376,-2451.505594
440.874901,0.000000,-11029.068536,-3753.867940
440.875223,1998.556043,-10066.800811,-1685.410096
440.875546,4145.153275,-8364.327145,0.000000
440.875868,4589.276840,-7920.203579,1685.410096
440.876190,4589.276840,-7920.203579,919.314598
440.876513,3478.967927,-8956.491898,-919.314598
440.876835,1554.432478,-9770.718434,-2145.067394
440.877158,-518.144159,-11399.171507,-2298.286494
440.877480,-2368.659014,-12435.459826,-1302.362347
440.877802,-2812.782580,-12065.356855,-536.266849
440.878125,-3552.988522,-10510.924376,-689.485948
440.878447,-2146.597232,-9992.780217,-1685.410096
440.878769,-592.164754,-8364.327145,-2298.286494
440.879092,444.123565,-8068.244768,-2757.943793
440.879414,74.020594,-7402.059420,-1915.238745
440.879736,0.000000,-7550.100608,-1838.629195
440.880059,148.041188,-8586.388927,-2528.115143
440.880381,592.164754,-8364.327145,-2604.724693
440.880703,444.123565,-8586.388927,-2528.115143
440.881026,0.000000,-9844.739029,-2834.553343
440.881348,-962.267725,-11325.150913,-2451.505594
440.881670,-2368.659014,-11843.295072,-995.924147
440.881993,-3182.885551,-10436.903782,-842.705048
440.882315,-3552.988522,-9326.594869,-2911.162892
440.882638,-2294.638420,-9178.553681,-4060.306139
440.882960,-740.205942,-8438.347739,-3370.820191
440.883282,0.000000,-7105.977043,-2145.067394
440.883605,370.102971,-7031.956449,-766.095498
440.883927,1110.308913,-7328.038826,-919.314598
440.884249,1776.494261,-7920.203579,-1685.410096
440.884572,1110.308913,-8586.388927,-3217.601092
440.884894,0.000000,-9474.636058,-3447.429741
440.885216,-1998.556043,-10658.965565,-2987.772442
440.885539,-4515.256246,-10881.027347,-1302.362347
440.885861,-7105.977043,-10214.842000,-1532.190996
440.886183,-6957.935855,-9622.677246,-3524.039291
440.886506,-4441.235652,-9400.615463,-5745.716235
440.886828,-1702.473667,-8290.306550,-5669.106685
440.887150,296.082377,-7994.224174,-3217.601092
440.887473,1850.514855,-6883.915261,-919.314598
440.887795,2368.659014,-7031.956449,-1302.362347
440.888117,2368.659014,-8290.306550,-3140.991542
440.888440,1776.494261,-8808.450710,-4443.353888
440.888762,1110.308913,-9622.677246,-5362.668486
440.889085,74.020594,-11029.068536,-5132.839837
440.889407,-592.164754,-13175.665768,-3140.991542
440.889729,-1480.411884,-13323.706956,-383.047749
440.890052,-1184.329507,-12657.521608,229.828649
440.890374,-1184.329507,-11177.109724,-1608.800546
440.890697,370.102971,-10066.800811,-3370.820191
440.891019,2294.638420,-8290.306550,-3294.210641
440.891342,2812.782580,-6883.915261,-1608.800546
440.891664,3478.967927,-6661.853478,-153.219100
440.891986,4145.153275,-7328.038826,0.000000
440.892309,3627.009116,-8438.347739,-1455.581446
440.892631,2146.597232,-9844.739029,-1915.238745
440.892954,666.185348,-12657.521608,-1915.238745
440.893276,-1628.453072,-14063.912898,-766.095498
440.893599,-3775.050304,-13397.727550,0.000000
440.893921,-4515.256246,-11695.253884,-919.314598
440.894244,-3701.029710,-10362.883188,-1991.848295
440.894566,-2590.720797,-8216.285956,-2451.505594
440.894889,-1702.473667,-7179.997637,-1532.190996
440.895211,-1036.288319,-6735.874072,0.000000
440.895533,-296.082377,-7031.956449,612.876398
440.895856,444.123565,-7402.059420,-229.828649
440.896178,888.247130,-7772.162391,-1302.362347
440.896501,0.000000,-7994.224174,-1532.190996
440.896823,-1036.288319,-8216.285956,-536.266849
440.897146,-1776.494261,-8438.347739,0.000000
440.897468,-2442.679609,-9104.533087,383.047749
440.897791,-3256.906145,-8586.388927,306.438199
440.898113,-3478.967927,-8142.265362,-766.095498
440.898435,-2664.741391,-9104.533087,-1685.410096
440.898758,-1036.288319,-9474.636058,-1532.190996
440.899080,296.082377,-9844.739029,0.000000
440.899403,814.226536,-9474.636058,1915.238745
440.899725,1110.308913,-7772.162391,1608.800546
440.900048,2442.679609,-5995.668130,0.000000
440.900370,3182.885551,-5107.421000,-1838.629195
440.900693,3256.906145,-5551.544565,-2528.115143
440.901015,2886.803174,-8438.347739,-1838.629195
440.901337,1406.391290,-11029.068536,-229.828649
440.901660,-444.123565,-13841.851115,76.609550
440.901982,-2072.576638,-14137.933492,0.000000
440.902305,-2146.597232,-12287.418637,-1685.410096
440.902627,-1036.288319,-9770.718434,-3907.087040
440.902950,888.247130,-7254.018232,-4060.306139
440.903272,1850.514855,-7179.997637,-3600.648841
440.903595,1110.308913,-7698.141797,-2145.067394
440.903917,-148.041188,-8956.491898,-1838.629195
440.904240,-1258.350101,-10584.944971,-3447.429741
440.904562,-1850.514855,-11843.295072,-5669.106685
440.904884,-2442.679609,-12213.398043,-6205.373534
440.905207,-3108.864956,-13175.665768,-4136.915689
440.905529,-4515.256246,-12953.603985,-1378.971896
440.905852,-5699.585753,-11843.295072,0.000000
440.906174,-5181.441594,-10732.986159,-2068.457845
440.906497,-4071.132681,-9104.533087,-4213.525239
440.906819,-3552.988522,-8512.368333,-4519.963438
440.907142,-1924.535449,-7550.100608,-3140.991542
440.907464,740.205942,-6513.812290,-1149.143247
440.907786,3478.967927,-5847.626942,-612.876398
440.908109,5181.441594,-6217.729913,-842.705048
440.908431,5181.441594,-7994.224174,-842.705048
440.908754,3552.988522,-10288.862594,-1685.410096
440.909076,1036.288319,-12287.418637,-1378.971896
440.909399,-1702.473667,-12435.459826,-1225.752797
