#time,accel_x,accel_y,accel_z
242.740584,-296.082377,-9252.574275,-1072.533697
242.740906,-370.102971,-9104.533087,-1072.533697
242.741228,0.000000,-9400.615463,-1225.752797
242.741550,-148.041188,-9252.574275,-1225.752797
242.741872,-444.123565,-9474.636058,-1225.752797
242.742194,-296.082377,-9474.636058,-1225.752797
242.742516,-296.082377,-9400.615463,-1378.971896
242.742838,-592.164754,-9400.615463,-1225.752797
242.743160,-222.061783,-9178.553681,-1455.581446
242.743482,-592.164754,-9326.594869,-1685.410096
242.743804,-592.164754,-9252.574275,-1532.190996
242.744126,-444.123565,-9474.636058,-1532.190996
242.744448,-592.164754,-9326.594869,-1149.143247
242.744770,-370.102971,-9474.636058,-1302.362347
242.745092,-444.123565,-9474.636058,-1532.190996
242.745414,-370.102971,-9400.615463,-1532.190996
242.745736,-370.102971,-9474.636058,-1685.410096
242.746058,-296.082377,-9400.615463,-1685.410096
242.746380,-814.226536,-8956.491898,-1608.800546
242.746702,-148.041188,-9400.615463,-1685.410096
242.747024,-518.144159,-9770.718434,-1532.190996
242.747346,-518.144159,-9918.759623,-1685.410096
242.747668,-592.164754,-9622.677246,-1685.410096
242.747990,-592.164754,-9474.636058,-1685.410096
242.748312,-296.082377,-9696.697840,-2374.896044
242.748633,-222.061783,-9400.615463,-1762.019645
242.748955,-296.082377,-9400.615463,-1762.019645
242.749277,-296.082377,-9326.594869,-1608.800546
242.749599,-518.144159,-9622.677246,-1608.800546
242.749921,-222.061783,-9918.759623,-1225.752797
242.750243,-370.102971,-9548.656652,-1915.238745
242.750565,-444.123565,-9400.615463,-1915.238745
242.750887,-222.061783,-9400.615463,-1685.410096
242.751209,-370.102971,-9400.615463,-1685.410096
242.751531,-148.041188,-9474.636058,-1378.971896
242.751853,148.041188,-9326.594869,-1991.848295
242.752175,-222.061783,-9474.636058,-1762.019645
242.752497,-444.123565,-9474.636058,-1685.410096
242.752819,-296.082377,-9622.677246,-1532.190996
242.753141,-370.102971,-9400.615463,-1378.971896
242.753463,-222.061783,-8882.471304,-1302.362347
242.753785,0.000000,-9548.656652,-1302.362347
242.754107,-148.041188,-9326.594869,-1532.190996
242.754429,-148.041188,-9326.594869,-1378.971896
242.754751,-222.061783,-9326.594869,-1149.143247
242.755073,-148.041188,-9474.636058,-766.095498
242.755395,0.000000,-9474.636058,-1608.800546
242.755717,-222.061783,-9474.636058,-1302.362347
242.756039,-444.123565,-9474.636058,-1225.752797
242.756361,-296.082377,-9474.636058,-1225.752797
242.756683,0.000000,-9326.594869,-919.314598
242.757005,-740.205942,-8956.491898,-995.924147
242.757327,0.000000,-9178.553681,-1302.362347
242.757648,814.226536,-9474.636058,-1532.190996
242.757970,1406.391290,-9622.677246,-995.924147
242.758292,962.267725,-9696.697840,-459.657299
242.758614,370.102971,-9030.512492,-153.219100
242.758936,222.061783,-8808.450710,-995.924147
242.759258,-444.123565,-9178.553681,-1532.190996
242.759580,-1480.411884,-9104.533087,-1378.971896
242.759902,-1702.473667,-8734.430116,-1455.581446
242.760224,-962.267725,-8808.450710,-1991.848295
242.760546,0.000000,-9622.677246,-1608.800546
242.760868,0.000000,-10214.842000,-995.924147
242.761190,-296.082377,-9770.718434,-612.876398
242.761512,0.000000,-9400.615463,-1302.362347
242.761834,1332.370696,-10140.821405,-1915.238745
242.762156,1850.514855,-10658.965565,-1378.971896
242.762478,1184.329507,-9400.615463,-459.657299
242.762800,1406.391290,-8438.347739,-153.219100
242.763122,2886.803174,-9252.574275,-1302.362347
242.763444,3701.029710,-9918.759623,-995.924147
242.763766,3256.906145,-9474.636058,-919.314598
242.764088,2220.617826,-7994.224174,229.828649
242.764410,2738.761985,-8438.347739,-689.485948
242.764732,2886.803174,-9030.512492,-1072.533697
242.765054,2294.638420,-9104.533087,-919.314598
242.765376,1776.494261,-8142.265362,-1378.971896
242.765698,2590.720797,-8290.306550,-2145.067394
242.766020,3775.050304,-9622.677246,-2681.334243
242.766342,4293.194464,-11103.089130,-1991.848295
242.766664,4145.153275,-10807.006753,-1455.581446
242.766985,3997.112087,-10288.862594,-1302.362347
242.767307,4367.215058,-10436.903782,-1685.410096
242.767629,4367.215058,-10140.821405,-2221.676944
242.767951,3849.070898,-9474.636058,-2681.334243
242.768273,3404.947333,-9104.533087,-1991.848295
242.768595,3256.906145,-9030.512492,-1225.752797
242.768917,3923.091493,-8586.388927,-766.095498
242.769239,4959.379811,-9104.533087,-1608.800546
242.769561,5403.503377,-9030.512492,-1532.190996
242.769883,6143.709319,-8956.491898,-1302.362347
242.770205,6365.771101,-8586.388927,-1532.190996
242.770527,6439.791695,-9030.512492,-1608.800546
242.770849,5625.565159,-9400.615463,-1685.410096
242.771171,4071.132681,-9918.759623,-2145.067394
242.771493,2368.659014,-10584.944971,-2221.676944
242.771815,1554.432478,-11769.274478,-2221.676944
242.772137,1036.288319,-12731.542202,-1608.800546
242.772459,962.267725,-13175.665768,0.000000
242.772781,888.247130,-12583.501014,0.000000
242.773103,1036.288319,-11843.295072,689.485948
242.773425,1998.556043,-10362.883188,995.924147
242.773747,1776.494261,-8808.450710,1455.581446
242.774069,296.082377,-6735.874072,1302.362347
242.774391,-888.247130,-4959.379811,919.314598
242.774713,-2072.576638,-4441.235652,-995.924147
242.775035,-1480.411884,-4663.297435,-2374.896044
242.775357,0.000000,-5181.441594,-3370.820191
242.775679,1850.514855,-5699.585753,-3830.477490
242.776000,3923.091493,-6809.894666,-4366.744339
242.776322,5699.585753,-9400.615463,-4519.963438
242.776644,5773.606348,-12065.356855,-3677.258390
242.776966,4737.318029,-14211.954086,-3753.867940
242.777288,3701.029710,-15692.365970,-3370.820191
242.777610,3404.947333,-15544.324782,-2221.676944
242.777932,1850.514855,-13693.809927,-1072.533697
242.778254,296.082377,-12213.398043,1072.533697
242.778576,-1480.411884,-9844.739029,3677.258390
242.778898,-1850.514855,-7328.038826,3983.696590
242.779220,-1702.473667,-5403.503377,2374.896044
242.779542,-1628.453072,-4367.215058,1762.019645
242.779864,-2516.700203,-3627.009116,2451.505594
242.780186,-3997.112087,-3256.906145,3140.991542
242.780508,-3997.112087,-3849.070898,1991.848295
242.780830,-2738.761985,-6291.750507,-2987.772442
242.781152,-1332.370696,-8586.388927,-7354.516781
242.781474,-370.102971,-10584.944971,-7890.783629
242.781796,148.041188,-14359.995275,-5975.544884
242.782118,1036.288319,-18949.272115,-3677.258390
242.782440,814.226536,-20355.663405,-2451.505594
242.782762,-222.061783,-17690.922014,-3753.867940
242.783084,-666.185348,-14137.933492,-3983.696590
242.783406,-814.226536,-10214.842000,-3447.429741
242.783728,-1184.329507,-6661.853478,-2451.505594
242.784050,-1776.494261,-3701.029710,0.000000
242.784372,-1184.329507,-2960.823768,3447.429741
242.784694,-370.102971,-4219.173869,3677.258390
242.785016,-296.082377,-5773.606348,3370.820191
242.785337,740.205942,-6069.688724,3140.991542
242.785659,2886.803174,-5107.421000,689.485948
242.785981,4811.338623,-6217.729913,-1532.190996
242.786303,3997.112087,-8512.368333,1532.190996
242.786625,2072.576638,-9030.512492,2451.505594
242.786947,1110.308913,-10066.800811,-2987.772442
242.787269,1628.453072,-11621.233289,-7354.516781
242.787591,444.123565,-11547.212695,-6971.469032
242.787913,-2294.638420,-11251.130318,-5439.278036
242.788235,-3775.050304,-13101.645173,-3907.087040
242.788557,-2886.803174,-14359.995275,-3140.991542
242.788879,-1554.432478,-11843.295072,-4213.525239
242.789201,-1036.288319,-9770.718434,-4596.572988
242.789523,-1406.391290,-10658.965565,-1915.238745
242.789845,-3108.864956,-9474.636058,536.266849
242.790167,-3330.926739,-7105.977043,612.876398
242.790489,-1554.432478,-5033.400406,842.705048
242.790811,518.144159,-5033.400406,-229.828649
242.791133,1110.308913,-5921.647536,-1072.533697
242.791455,740.205942,-6513.812290,76.609550
242.791777,3108.864956,-7624.121203,153.219100
242.792099,6883.915261,-9844.739029,-2145.067394
242.792421,9326.594869,-13323.706956,-3447.429741
242.792743,8512.368333,-14285.974681,-2145.067394
242.793065,6069.688724,-14211.954086,689.485948
242.793387,3627.009116,-13619.789333,1072.533697
242.793709,1480.411884,-12361.439231,-766.095498
242.794031,-1406.391290,-7994.224174,-3600.648841
242.794352,-3997.112087,-4811.338623,-5592.497135
242.794674,-6439.791695,-5847.626942,-3907.087040
242.794996,-7994.224174,-7550.100608,-1225.752797
242.795318,-8882.471304,-8142.265362,-612.876398
242.795640,-9178.553681,-8956.491898,-1608.800546
242.795962,-7920.203579,-11103.089130,-2068.457845
242.796284,-7105.977043,-12731.542202,-2068.457845
242.796606,-6809.894666,-11917.315666,-2604.724693
242.796928,-5921.647536,-9548.656652,-2145.067394
242.797250,-3997.112087,-8660.409521,-306.438199
242.797572,-1628.453072,-8586.388927,-153.219100
242.797894,-222.061783,-8290.306550,-1685.410096
242.798216,1184.329507,-7698.141797,-2834.553343
242.798538,4663.297435,-9548.656652,-3370.820191
242.798860,8364.327145,-11547.212695,-2298.286494
242.799182,9474.636058,-11029.068536,919.314598
242.799504,8512.368333,-7994.224174,2987.772442
242.799826,7994.224174,-7328.038826,2681.334243
242.800148,6291.750507,-7550.100608,1149.143247
242.800470,2516.700203,-7105.977043,-842.705048
242.800792,-1702.473667,-7031.956449,-919.314598
242.801114,-3923.091493,-7031.956449,612.876398
242.801436,-4219.173869,-6587.832884,1225.752797
242.801758,-4219.173869,-7402.059420,0.000000
242.802080,-4663.297435,-8660.409521,-1149.143247
242.802402,-4663.297435,-9400.615463,-1915.238745
242.802724,-4367.215058,-11029.068536,-4213.525239
242.803046,-3997.112087,-14285.974681,-4596.572988
242.803368,-3849.070898,-15766.386565,-2757.943793
242.803689,-4071.132681,-13027.624579,-842.705048
242.804011,-3775.050304,-11621.233289,-995.924147
242.804333,-1702.473667,-10584.944971,-2145.067394
242.804655,1406.391290,-8586.388927,-4366.744339
242.804977,3478.967927,-6587.832884,-4443.353888
242.805298,4367.215058,-6217.729913,-919.314598
242.805620,5181.441594,-7031.956449,2911.162892
242.805942,6439.791695,-6217.729913,1455.581446
242.806264,8216.285956,-7402.059420,-2068.457845
242.806585,9474.636058,-10362.883188,-2987.772442
242.806907,7994.224174,-11843.295072,-1608.800546
242.807229,5107.421000,-10955.047942,1991.848295
242.807551,2738.761985,-9696.697840,2681.334243
242.807872,2368.659014,-10140.821405,1685.410096
242.808194,1110.308913,-8586.388927,-995.924147
242.808516,-1776.494261,-7179.997637,-3217.601092
242.808838,-5403.503377,-7105.977043,-2987.772442
242.809159,-7105.977043,-7031.956449,-1378.971896
242.809481,-7476.080014,-8142.265362,-1532.190996
242.809803,-7698.141797,-10510.924376,-3140.991542
242.810125,-7105.977043,-12213.398043,-4443.353888
242.810446,-6883.915261,-13545.768739,-4979.620737
242.810768,-5995.668130,-13915.871710,-4443.353888
242.811090,-5403.503377,-12435.459826,-2221.676944
242.811412,-5181.441594,-9622.677246,-1608.800546
242.811733,-3849.070898,-7920.203579,-3064.381992
242.812055,-2146.597232,-6587.832884,-3753.867940
242.812377,222.061783,-4885.359217,-4519.963438
242.812699,2368.659014,-5625.565159,-4903.011187
242.813020,5107.421000,-10732.986159,-3907.087040
242.813342,6735.874072,-13619.789333,0.000000
242.813664,7476.080014,-11473.192101,3600.648841
242.813986,7698.141797,-9104.533087,2757.943793
242.814307,7994.224174,-9844.739029,383.047749
242.814629,5181.441594,-7920.203579,-383.047749
242.814951,740.205942,-5699.585753,-612.876398
242.815273,-2886.803174,-6661.853478,0.000000
242.815595,-4219.173869,-7328.038826,1225.752797
242.815916,-4811.338623,-6883.915261,-612.876398
242.816238,-5847.626942,-8216.285956,-2987.772442
242.816560,-6291.750507,-10881.027347,-2987.772442
242.816882,-5699.585753,-10955.047942,-2374.896044
242.817203,-4811.338623,-11103.089130,-4443.353888
242.817525,-3923.091493,-13915.871710,-4596.572988
242.817847,-2886.803174,-14952.160028,-2911.162892
242.818169,-3552.988522,-12509.480420,-2221.676944
242.818490,-4515.256246,-9918.759623,-2298.286494
242.818812,-2516.700203,-8586.388927,-2451.505594
242.819134,222.061783,-8512.368333,-3447.429741
242.819456,2368.659014,-7105.977043,-3064.381992
242.819777,2146.597232,-7328.038826,0.000000
242.820099,4367.215058,-8660.409521,2374.896044
242.820421,6883.915261,-8364.327145,1762.019645
242.820743,8956.491898,-8290.306550,0.000000
242.821064,10066.800811,-8290.306550,76.609550
242.821386,9474.636058,-9400.615463,1532.190996
242.821708,7105.977043,-9030.512492,2987.772442
242.822030,4071.132681,-8734.430116,3064.381992
242.822351,2294.638420,-8290.306550,1838.629195
242.822673,370.102971,-7846.182985,153.219100
242.822995,-3256.906145,-7624.121203,-1915.238745
242.823317,-6883.915261,-9178.553681,-2298.286494
242.823638,-7920.203579,-9104.533087,-1608.800546
242.823960,-7550.100608,-10140.821405,-3064.381992
242.824282,-6069.688724,-12361.439231,-4290.134789
242.824604,-5699.585753,-12139.377449,-3753.867940
242.824925,-5477.523971,-10140.821405,-3524.039291
242.825247,-5181.441594,-11251.130318,-2834.553343
242.825569,-4293.194464,-10436.903782,-1455.581446
242.825891,-5255.462188,-8808.450710,-2221.676944
242.826212,-4145.153275,-7994.224174,-2298.286494
242.826534,-2442.679609,-7624.121203,-1532.190996
242.826856,0.000000,-6439.791695,-2221.676944
242.827178,2812.782580,-7105.977043,-3447.429741
242.827499,6513.812290,-11251.130318,-2528.115143
242.827821,7772.162391,-12287.418637,229.828649
242.828143,7994.224174,-9992.780217,2987.772442
242.828465,7920.203579,-7994.224174,2451.505594
242.828786,7105.977043,-8734.430116,0.000000
242.829108,4663.297435,-8734.430116,-1149.143247
242.829430,148.041188,-7920.203579,-689.485948
242.829752,-3108.864956,-7920.203579,-383.047749
242.830073,-4145.153275,-7179.997637,0.000000
242.830395,-4737.318029,-6957.935855,-2451.505594
242.830717,-5551.544565,-9474.636058,-4136.915689
242.831039,-6143.709319,-13027.624579,-3524.039291
242.831360,-5773.606348,-12657.521608,-2298.286494
242.831682,-4811.338623,-11029.068536,-3907.087040
242.832004,-3552.988522,-11843.295072,-4136.915689
242.832326,-2442.679609,-12361.439231,-3753.867940
242.832647,-3849.070898,-11103.089130,-3524.039291
242.832969,-4737.318029,-9992.780217,-2451.505594
242.833291,-2072.576638,-8586.388927,-1302.362347
242.833613,74.020594,-7179.997637,-2681.334243
242.833934,1480.411884,-6513.812290,-3677.258390
242.834256,2368.659014,-7846.182985,-1838.629195
242.834578,5329.482782,-9622.677246,0.000000
242.834900,7179.997637,-9622.677246,-306.438199
242.835221,7698.141797,-8734.430116,1685.410096
242.835543,6587.832884,-7254.018232,2911.162892
242.835865,5477.523971,-8882.471304,1685.410096
242.836187,3182.885551,-10140.821405,766.095498
242.836508,296.082377,-8956.491898,306.438199
242.836830,-1332.370696,-6883.915261,0.000000
242.837152,-1998.556043,-6883.915261,-306.438199
242.837474,-4071.132681,-7179.997637,-306.438199
242.837795,-5995.668130,-7772.162391,-1762.019645
242.838117,-6069.688724,-10955.047942,-3294.210641
242.838439,-5403.503377,-14211.954086,-2911.162892
242.838761,-4737.318029,-13027.624579,-2987.772442
242.839082,-5403.503377,-11399.171507,-2757.943793
242.839404,-4367.215058,-11917.315666,-2221.676944
242.839726,-4219.173869,-11843.295072,-1915.238745
242.840048,-4737.318029,-9400.615463,-2068.457845
242.840369,-3701.029710,-6661.853478,-1302.362347
242.840691,-1184.329507,-5625.565159,-1532.190996
242.841013,1332.370696,-5033.400406,-2604.724693
242.841335,3034.844362,-7105.977043,-2374.896044
242.841656,5329.482782,-10362.883188,-153.219100
242.841978,6143.709319,-10510.924376,1378.971896
242.842300,5847.626942,-9474.636058,1685.410096
242.842622,6217.729913,-8512.368333,1838.629195
242.842943,5551.544565,-9474.636058,-383.047749
242.843265,3923.091493,-9474.636058,-1608.800546
242.843587,1406.391290,-9104.533087,-306.438199
242.843909,-370.102971,-8290.306550,1455.581446
242.844230,-1184.329507,-7254.018232,1455.581446
242.844552,-2146.597232,-6513.812290,-1685.410096
242.844874,-3701.029710,-8438.347739,-3600.648841
242.845196,-5329.482782,-10955.047942,-3600.648841
242.845517,-6439.791695,-12435.459826,-2987.772442
242.845839,-5181.441594,-11547.212695,-4443.353888
242.846161,-2738.761985,-13027.624579,-4979.620737
242.846483,-1110.308913,-14211.954086,-3370.820191
242.846804,-2220.617826,-12435.459826,-1302.362347
242.847126,-3330.926739,-10214.842000,-459.657299
242.847448,-1184.329507,-7624.121203,-1532.190996
242.847770,1258.350101,-7031.956449,-4060.306139
242.848091,1924.535449,-6291.750507,-4596.572988
242.848413,1998.556043,-6809.894666,-919.314598
242.848735,3627.009116,-7920.203579,1915.238745
242.849057,6217.729913,-9696.697840,-153.219100
242.849378,7846.182985,-11473.192101,-1302.362347
242.849700,8586.388927,-10807.006753,306.438199
242.850022,6735.874072,-9252.574275,1378.971896
242.850344,4293.194464,-10140.821405,1762.019645
242.850665,2368.659014,-8364.327145,1455.581446
242.850987,296.082377,-5847.626942,383.047749
242.851309,-2294.638420,-5847.626942,-2145.067394
242.851631,-5403.503377,-8290.306550,-2604.724693
242.851952,-8438.347739,-7994.224174,-2298.286494
242.852274,-9548.656652,-7624.121203,-2604.724693
242.852596,-8734.430116,-11177.109724,-2987.772442
242.852918,-7624.121203,-13619.789333,-2911.162892
242.853239,-7031.956449,-11843.295072,-4826.401637
242.853561,-6661.853478,-11325.150913,-5056.230287
242.853883,-4737.318029,-12731.542202,-3370.820191
242.854205,-3701.029710,-11399.171507,-1762.019645
242.854526,-3775.050304,-8882.471304,-1915.238745
242.854848,-2442.679609,-7254.018232,-1532.190996
242.855170,740.205942,-6365.771101,-2451.505594
242.855492,4071.132681,-6439.791695,-4673.182538
242.855814,6069.688724,-9474.636058,-3677.258390
242.856135,7179.997637,-11769.274478,689.485948
242.856457,7105.977043,-10658.965565,3907.087040
242.856779,7031.956449,-8512.368333,2834.553343
242.857101,6957.935855,-9178.553681,689.485948
242.857422,5255.462188,-8364.327145,-1225.752797
242.857744,1554.432478,-7994.224174,-1225.752797
242.858066,-1924.535449,-8438.347739,383.047749
242.858388,-3108.864956,-7476.080014,1915.238745
242.858709,-3108.864956,-6291.750507,-383.047749
242.859031,-3701.029710,-8438.347739,-3447.429741
242.859353,-5181.441594,-11177.109724,-3600.648841
242.859675,-5921.647536,-11473.192101,-2604.724693
242.859996,-5477.523971,-10732.986159,-4213.525239
242.860318,-3404.947333,-12361.439231,-4826.401637
242.860640,-1776.494261,-14137.933492,-3600.648841
242.860962,-2590.720797,-11991.336260,-2451.505594
242.861283,-3404.947333,-10584.944971,-1915.238745
242.861605,-1850.514855,-9548.656652,-1149.143247
242.861927,74.020594,-8216.285956,-2451.505594
242.862249,1480.411884,-5921.647536,-2911.162892
242.862570,1480.411884,-6143.709319,-766.095498
242.862892,3256.906145,-8364.327145,1991.848295
242.863214,6365.771101,-9918.759623,842.705048
242.863536,8216.285956,-9918.759623,-612.876398
242.863857,8734.430116,-8734.430116,842.705048
242.864179,8068.244768,-7402.059420,2451.505594
242.864501,5995.668130,-8290.306550,1838.629195
242.864823,3404.947333,-9400.615463,1149.143247
242.865144,814.226536,-8586.388927,0.000000
242.865466,-1850.514855,-7624.121203,-612.876398
242.865788,-4737.318029,-9252.574275,-1608.800546
242.866110,-6587.832884,-9400.615463,-1455.581446
242.866431,-7402.059420,-8290.306550,-2604.724693
242.866753,-6957.935855,-10214.842000,-3830.477490
242.867075,-5699.585753,-13471.748144,-3447.429741
242.867397,-5773.606348,-11769.274478,-2681.334243
242.867718,-6735.874072,-9696.697840,-3294.210641
242.868040,-5625.565159,-11103.089130,-2451.505594
242.868362,-4441.235652,-11621.233289,-2834.553343
242.868684,-5329.482782,-9400.615463,-2451.505594
242.869005,-3997.112087,-7179.997637,-1072.533697
242.869327,-1258.350101,-6217.729913,-1072.533697
242.869649,2590.720797,-5477.523971,-3524.039291
242.869971,4737.318029,-7846.182985,-3753.867940
242.870292,5551.544565,-11029.068536,-842.705048
242.870614,5773.606348,-10955.047942,1915.238745
242.870936,6143.709319,-8586.388927,1915.238745
242.871258,6957.935855,-9474.636058,153.219100
242.871579,5773.606348,-9474.636058,-1532.190996
242.871901,2590.720797,-8956.491898,-919.314598
242.872223,-1184.329507,-8512.368333,76.609550
242.872545,-2368.659014,-7920.203579,766.095498
242.872866,-2368.659014,-5477.523971,-919.314598
242.873188,-3256.906145,-6513.812290,-3753.867940
242.873510,-5551.544565,-10214.842000,-3753.867940
242.873832,-7179.997637,-12731.542202,-2298.286494
242.874153,-7105.977043,-11547.212695,-3677.258390
242.874475,-4145.153275,-11843.295072,-5592.497135
242.874797,-1628.453072,-14508.036463,-4826.401637
242.875119,-1036.288319,-14878.139434,-3140.991542
242.875440,-3256.906145,-12213.398043,-995.924147
242.875762,-2442.679609,-10362.883188,-153.219100
242.876084,444.123565,-8068.244768,-1455.581446
242.876406,2516.700203,-6069.688724,-3753.867940
242.876727,2442.679609,-4145.153275,-3064.381992
242.877049,2812.782580,-5847.626942,0.000000
242.877371,5921.647536,-9696.697840,766.095498
242.877693,7550.100608,-10881.027347,0.000000
242.878014,7846.182985,-10140.821405,919.314598
242.878336,6735.874072,-8586.388927,1991.848295
242.878658,5107.421000,-9918.759623,1608.800546
242.878980,2590.720797,-10807.006753,689.485948
242.879301,370.102971,-8586.388927,0.000000
242.879623,-1480.411884,-6069.688724,-536.266849
242.879945,-2516.700203,-7550.100608,-1149.143247
242.880267,-4663.297435,-7105.977043,-1455.581446
242.880588,-5773.606348,-7179.997637,-2374.896044
242.880910,-5921.647536,-9548.656652,-3294.210641
242.881232,-5403.503377,-13323.706956,-2528.115143
242.881554,-5699.585753,-11917.315666,-2528.115143
242.881875,-6587.832884,-9844.739029,-4213.525239
242.882197,-5329.482782,-11547.212695,-3294.210641
242.882519,-3627.009116,-12287.418637,-2298.286494
242.882841,-3997.112087,-10066.800811,-1915.238745
242.883162,-3034.844362,-7328.038826,-766.095498
242.883484,0.000000,-6439.791695,-612.876398
242.883806,3404.947333,-5551.544565,-2451.505594
242.884128,4589.276840,-7254.018232,-4060.306139
242.884449,4885.359217,-9844.739029,-1532.190996
242.884771,5329.482782,-10584.944971,1455.581446
242.885093,5477.523971,-9548.656652,1608.800546
242.885415,5625.565159,-9474.636058,459.657299
242.885736,4959.379811,-9548.656652,0.000000
242.886058,2812.782580,-9400.615463,-995.924147
242.886380,222.061783,-9178.553681,-306.438199
242.886702,-1850.514855,-7994.224174,842.705048
242.887023,-2072.576638,-5625.565159,0.000000
242.887345,-2368.659014,-6587.832884,-3907.087040
242.887667,-5107.421000,-9252.574275,-4443.353888
242.887989,-6735.874072,-11177.109724,-3140.991542
242.888310,-6661.853478,-11325.150913,-4213.525239
242.888632,-4811.338623,-11917.315666,-5745.716235
242.888954,-2220.617826,-14508.036463,-4673.182538
242.889276,-1850.514855,-13471.748144,-3140.991542
242.889597,-2294.638420,-12139.377449,-2145.067394
242.889919,-1480.411884,-10288.862594,-919.314598
242.890241,148.041188,-8808.450710,-1455.581446
242.890563,1480.411884,-6439.791695,-2604.724693
242.890884,1998.556043,-3923.091493,-1991.848295
242.891206,3108.864956,-6291.750507,-1225.752797
242.891528,5625.565159,-10362.883188,-612.876398
242.891850,6513.812290,-11621.233289,229.828649
242.892171,6883.915261,-9252.574275,2068.457845
242.892493,7105.977043,-7846.182985,2374.896044
242.892815,6439.791695,-9474.636058,383.047749
242.893137,3997.112087,-9474.636058,-842.705048
242.893458,74.020594,-7476.080014,-459.657299
242.893780,-2220.617826,-6883.915261,-689.485948
242.894102,-3330.926739,-8586.388927,-1608.800546
242.894424,-5255.462188,-8586.388927,-2834.553343
242.894745,-7328.038826,-8882.471304,-3064.381992
242.895067,-8068.244768,-10955.047942,-2911.162892
242.895389,-7179.997637,-13545.768739,-2451.505594
242.895711,-6809.894666,-11399.171507,-4213.525239
242.896032,-6735.874072,-9030.512492,-5439.278036
242.896354,-5255.462188,-11103.089130,-3830.477490
242.896676,-3478.967927,-12065.356855,-2374.896044
242.896998,-3997.112087,-10658.965565,-1302.362347
242.897320,-3108.864956,-7772.162391,0.000000
242.897641,0.000000,-7031.956449,0.000000
242.897963,3034.844362,-6439.791695,-2068.457845
242.898285,4589.276840,-7328.038826,-3370.820191
242.898607,5181.441594,-9400.615463,-995.924147
242.898928,6069.688724,-9992.780217,1532.190996
242.899250,6513.812290,-8290.306550,2451.505594
242.899572,6883.915261,-9030.512492,1685.410096
242.899894,5699.585753,-9992.780217,0.000000
242.900215,3256.906145,-9474.636058,-766.095498
242.900537,0.000000,-9548.656652,0.000000
242.900859,-2368.659014,-9252.574275,536.266849
242.901181,-2886.803174,-6439.791695,383.047749
242.901502,-3849.070898,-5107.421000,-2681.334243
242.901824,-4959.379811,-8660.409521,-4060.306139
242.902146,-6809.894666,-11399.171507,-2221.676944
242.902468,-7402.059420,-10732.986159,-2604.724693
242.902789,-6143.709319,-9474.636058,-4673.182538
242.903111,-2442.679609,-11843.295072,-4749.792088
242.903433,-2368.659014,-14285.974681,-3753.867940
242.903755,-2960.823768,-13249.686362,-2221.676944
242.904076,-3256.906145,-10658.965565,-383.047749
242.904398,-1110.308913,-8956.491898,-766.095498
242.904720,962.267725,-7994.224174,-2681.334243
242.905042,1554.432478,-6069.688724,-2451.505594
242.905363,2220.617826,-4589.276840,-842.705048
242.905685,4959.379811,-7254.018232,0.000000
242.906007,7328.038826,-11103.089130,-306.438199
242.906329,7698.141797,-11473.192101,995.924147
242.906650,7476.080014,-8660.409521,3217.601092
242.906972,7328.038826,-8734.430116,1915.238745
242.907294,6809.894666,-10881.027347,383.047749
242.907616,3997.112087,-9918.759623,306.438199
242.907937,0.000000,-6587.832884,0.000000
242.908259,-2146.597232,-7550.100608,-459.657299
242.908581,-3923.091493,-8660.409521,-1608.800546
242.908903,-6365.771101,-7846.182985,-2757.943793
242.909225,-7624.121203,-7254.018232,-3447.429741
242.909546,-7476.080014,-11177.109724,-3677.258390
242.909868,-6365.771101,-13989.892304,-2604.724693
242.910190,-6661.853478,-10955.047942,-3983.696590
242.910512,-6513.812290,-9696.697840,-4903.011187
242.910834,-4885.359217,-12139.377449,-3524.039291
242.911156,-4737.318029,-11917.315666,-2528.115143
242.911477,-5995.668130,-9400.615463,-2221.676944
242.911799,-3849.070898,-7328.038826,-1302.362347
242.912121,-370.102971,-7550.100608,-1455.581446
242.912443,2368.659014,-7328.038826,-3217.601092
242.912765,3182.885551,-7105.977043,-2757.943793
242.913086,5329.482782,-9178.553681,-536.266849
242.913408,7179.997637,-10140.821405,153.219100
242.913730,7994.224174,-10807.006753,1302.362347
242.914052,7920.203579,-9030.512492,1532.190996
242.914374,7179.997637,-9992.780217,153.219100
242.914695,5329.482782,-10732.986159,-306.438199
242.915017,2294.638420,-9178.553681,612.876398
242.915339,-1036.288319,-7402.059420,229.828649
242.915661,-2294.638420,-6661.853478,-1072.533697
242.915983,-4071.132681,-6439.791695,-2145.067394
242.916304,-6069.688724,-7550.100608,-3524.039291
242.916626,-6957.935855,-10732.986159,-3983.696590
242.916948,-6217.729913,-13989.892304,-3753.867940
242.917270,-5255.462188,-12139.377449,-2757.943793
242.917592,-4589.276840,-9696.697840,-3600.648841
242.917913,-3775.050304,-11547.212695,-3524.039291
242.918235,-2960.823768,-13397.727550,-3294.210641
242.918557,-3404.947333,-12287.418637,-2604.724693
242.918879,-2664.741391,-8808.450710,-1455.581446
242.919201,0.000000,-7476.080014,-1072.533697
242.919522,2072.576638,-6513.812290,-2068.457845
242.919844,2960.823768,-5181.441594,-1915.238745
242.920166,5255.462188,-6291.750507,-383.047749
242.920488,8364.327145,-9622.677246,0.000000
242.920810,9326.594869,-12065.356855,0.000000
242.921131,8586.388927,-11843.295072,2145.067394
242.921453,7031.956449,-8882.471304,3524.039291
242.921775,5995.668130,-8364.327145,2068.457845
242.922097,4737.318029,-9548.656652,0.000000
242.922419,2220.617826,-8068.244768,-1072.533697
242.922740,-1184.329507,-5847.626942,-612.876398
242.923062,-3701.029710,-6957.935855,-536.266849
242.923384,-5033.400406,-8956.491898,-842.705048
242.923706,-5255.462188,-9548.656652,-2604.724693
242.924028,-5477.523971,-11251.130318,-4519.963438
242.924349,-5773.606348,-13545.768739,-3447.429741
242.924671,-7031.956449,-11991.336260,-1685.410096
242.924993,-8216.285956,-9548.656652,-2604.724693
242.925315,-7328.038826,-10066.800811,-3140.991542
242.925637,-5995.668130,-10288.862594,-3217.601092
242.925959,-5773.606348,-9326.594869,-3907.087040
242.926280,-4071.132681,-7698.141797,-2528.115143
242.926602,-888.247130,-7105.977043,-1225.752797
242.926924,1850.514855,-6957.935855,-2221.676944
242.927246,3923.091493,-8808.450710,-3217.601092
242.927568,5255.462188,-10955.047942,-1762.019645
242.927889,4589.276840,-10214.842000,612.876398
242.928211,4515.256246,-7994.224174,1838.629195
242.928533,5551.544565,-9326.594869,0.000000
242.928855,5477.523971,-10584.944971,-1532.190996
242.929177,4293.194464,-9622.677246,-306.438199
242.929498,1332.370696,-8512.368333,1072.533697
242.929820,222.061783,-8068.244768,1455.581446
242.930142,-518.144159,-5255.462188,153.219100
242.930464,-2590.720797,-6439.791695,-3370.820191
242.930786,-4811.338623,-9844.739029,-4596.572988
242.931107,-6365.771101,-13397.727550,-3600.648841
242.931429,-7031.956449,-11769.274478,-2987.772442
242.931751,-5181.441594,-9992.780217,-4060.306139
242.932073,-2146.597232,-12361.439231,-4826.401637
242.932395,-666.185348,-13619.789333,-4136.915689
242.932716,-3034.844362,-12213.398043,-2604.724693
242.933038,-3256.906145,-10732.986159,0.000000
242.933360,-1184.329507,-7476.080014,-459.657299
242.933682,1258.350101,-5403.503377,-3140.991542
242.934004,2146.597232,-4737.318029,-4366.744339
242.934325,2590.720797,-7846.182985,-2145.067394
242.934647,4663.297435,-11325.150913,229.828649
242.934969,5847.626942,-11769.274478,1072.533697
242.935291,5403.503377,-10288.862594,2681.334243
242.935613,5181.441594,-7031.956449,2987.772442
242.935934,5329.482782,-7920.203579,-229.828649
242.936256,3404.947333,-9178.553681,-1685.410096
242.936578,1480.411884,-7550.100608,-612.876398
242.936900,-518.144159,-6217.729913,842.705048
242.937222,-2294.638420,-7476.080014,229.828649
242.937543,-3923.091493,-8438.347739,-153.219100
242.937865,-5773.606348,-9474.636058,-3140.991542
242.938187,-6217.729913,-12879.583391,-4903.011187
242.938509,-6291.750507,-15248.242405,-3370.820191
242.938831,-6957.935855,-11843.295072,-2374.896044
242.939152,-7476.080014,-9178.553681,-3217.601092
242.939474,-4441.235652,-11325.150913,-3677.258390
242.939796,-3552.988522,-11177.109724,-3677.258390
242.940118,-4219.173869,-9770.718434,-2987.772442
242.940440,-2960.823768,-8142.265362,-919.314598
242.940762,-148.041188,-7031.956449,76.609550
242.941083,2812.782580,-6513.812290,-2298.286494
242.941405,4145.153275,-7994.224174,-2834.553343
242.941727,4959.379811,-10288.862594,-919.314598
242.942049,4737.318029,-9622.677246,383.047749
242.942371,4219.173869,-8290.306550,1455.581446
242.942692,3849.070898,-8290.306550,1838.629195
242.943014,3330.926739,-9844.739029,-995.924147
242.943336,2368.659014,-11103.089130,-1915.238745
242.943658,0.000000,-10140.821405,459.657299
242.943980,-1776.494261,-7624.121203,2298.286494
242.944301,-2072.576638,-5107.421000,919.314598
242.944623,-2146.597232,-4885.359217,-1915.238745
242.944945,-4811.338623,-8364.327145,-4443.353888
242.945267,-6957.935855,-12509.480420,-3753.867940
242.945589,-7624.121203,-12139.377449,-2528.115143
242.945910,-6217.729913,-11399.171507,-3830.477490
242.946232,-3034.844362,-13545.768739,-4443.353888
242.946554,-148.041188,-15100.201217,-4060.306139
242.946876,-1258.350101,-13027.624579,-2221.676944
242.947198,-1332.370696,-11177.109724,306.438199
242.947519,592.164754,-7698.141797,842.705048
242.947841,2812.782580,-3775.050304,-2145.067394
242.948163,3923.091493,-1998.556043,-3524.039291
242.948485,4515.256246,-6365.771101,-1762.019645
242.948807,5329.482782,-10214.842000,306.438199
242.949128,6069.688724,-10955.047942,1455.581446
242.949450,6587.832884,-10510.924376,2145.067394
242.949772,6217.729913,-9104.533087,2757.943793
242.950094,4219.173869,-8660.409521,842.705048
242.950416,1702.473667,-9326.594869,-459.657299
242.950737,0.000000,-8956.491898,-689.485948
242.951059,-1184.329507,-6587.832884,-229.828649
242.951381,-3108.864956,-6143.709319,-612.876398
242.951703,-3923.091493,-7550.100608,-1532.190996
242.952025,-4441.235652,-8956.491898,-3830.477490
242.952346,-5181.441594,-10214.842000,-4826.401637
242.952668,-5773.606348,-11917.315666,-3677.258390
242.952990,-6587.832884,-13767.830521,-3753.867940
242.953312,-6291.750507,-14211.954086,-4136.915689
242.953634,-5699.585753,-13767.830521,-4366.744339
242.953955,-4663.297435,-12953.603985,-3140.991542
242.954277,-3552.988522,-9992.780217,-1838.629195
242.954599,-1332.370696,-6661.853478,-1225.752797
242.954921,1110.308913,-3552.988522,-2451.505594
242.955243,3775.050304,-4663.297435,-2834.553343
242.955564,5181.441594,-9400.615463,-2451.505594
242.955886,4589.276840,-12065.356855,-1225.752797
242.956208,3627.009116,-10807.006753,612.876398
242.956530,4071.132681,-7698.141797,1608.800546
242.956852,4959.379811,-8734.430116,306.438199
242.957174,4145.153275,-10214.842000,-1455.581446
242.957495,1924.535449,-9548.656652,-1532.190996
242.957817,-444.123565,-8216.285956,153.219100
242.958139,-1406.391290,-8956.491898,995.924147
242.958461,-2146.597232,-6735.874072,153.219100
242.958783,-3256.906145,-5625.565159,-2604.724693
242.959104,-4885.359217,-8586.388927,-4826.401637
242.959426,-6291.750507,-13249.686362,-3600.648841
242.959748,-7179.997637,-11917.315666,-2221.676944
242.960070,-6217.729913,-9030.512492,-4596.572988
242.960392,-3108.864956,-11991.336260,-4979.620737
242.960713,-222.061783,-14730.098246,-3294.210641
242.961035,-1332.370696,-12361.439231,-2451.505594
242.961357,-1924.535449,-10214.842000,229.828649
242.961679,222.061783,-8068.244768,2528.115143
242.962001,2146.597232,-5255.462188,-689.485948
242.962322,2294.638420,-3849.070898,-3524.039291
242.962644,3034.844362,-6439.791695,-995.924147
242.962966,5477.523971,-9622.677246,1378.971896
242.963288,7550.100608,-10288.862594,383.047749
242.963610,8586.388927,-10288.862594,1838.629195
242.963931,8142.265362,-8364.327145,4136.915689
242.964253,5773.606348,-7402.059420,2681.334243
242.964575,3627.009116,-9252.574275,-383.047749
242.964897,1628.453072,-9326.594869,-842.705048
242.965219,-444.123565,-7105.977043,-919.314598
242.965540,-2442.679609,-7105.977043,-536.266849
242.965862,-4367.215058,-8808.450710,0.000000
242.966184,-5107.421000,-8586.388927,-995.924147
242.966506,-5773.606348,-10288.862594,-4903.011187
242.966828,-6291.750507,-13323.706956,-4749.792088
242.967149,-7846.182985,-12139.377449,-2451.505594
242.967471,-9474.636058,-10436.903782,-3140.991542
242.967793,-7994.224174,-11695.253884,-4443.353888
242.968115,-5033.400406,-11991.336260,-4060.306139
242.968437,-4515.256246,-10658.965565,-3753.867940
242.968758,-3330.926739,-9104.533087,-1378.971896
242.969080,-1184.329507,-6957.935855,1225.752797
242.969402,2368.659014,-5773.606348,-1915.238745
242.969724,5255.462188,-7179.997637,-3907.087040
242.970046,6661.853478,-11103.089130,-2298.286494
242.970367,5181.441594,-10362.883188,-153.219100
242.970689,4071.132681,-8142.265362,1762.019645
242.971011,5329.482782,-7402.059420,2145.067394
242.971333,5699.585753,-10214.842000,-919.314598
242.971655,4145.153275,-11103.089130,-2374.896044
242.971977,1036.288319,-10140.821405,-306.438199
242.972298,-1628.453072,-8956.491898,1685.410096
242.972620,-1110.308913,-7105.977043,1378.971896
242.972942,-1850.514855,-5551.544565,-1838.629195
242.973264,-3923.091493,-6957.935855,-4903.011187
242.973586,-6661.853478,-10955.047942,-4443.353888
242.973907,-8142.265362,-12509.480420,-2681.334243
242.974229,-7550.100608,-10732.986159,-3830.477490
242.974551,-4885.359217,-12509.480420,-5515.887586
242.974873,-1406.391290,-15396.283594,-4366.744339
242.975195,-1480.411884,-13397.727550,-2757.943793
242.975516,-3034.844362,-11325.150913,-1149.143247
242.975838,-962.267725,-8808.450710,842.705048
242.976160,1480.411884,-6587.832884,-1455.581446
242.976482,2664.741391,-2664.741391,-3370.820191
242.976804,2442.679609,-3478.967927,-1838.629195
242.977125,4663.297435,-8512.368333,995.924147
242.977447,6587.832884,-11029.068536,383.047749
242.977769,8438.347739,-11473.192101,689.485948
242.978091,9104.533087,-9844.739029,2911.162892
242.978413,7328.038826,-8216.285956,3064.381992
242.978734,4959.379811,-9030.512492,1225.752797
242.979056,2368.659014,-9622.677246,0.000000
242.979378,444.123565,-7328.038826,-459.657299
242.979700,-1702.473667,-5995.668130,-919.314598
242.980022,-3775.050304,-8438.347739,-842.705048
242.980343,-4959.379811,-8216.285956,-766.095498
242.980665,-5625.565159,-8660.409521,-3140.991542
242.980987,-5699.585753,-12361.439231,-3907.087040
242.981309,-6217.729913,-11991.336260,-2757.943793
242.981631,-7698.141797,-10140.821405,-3677.258390
242.981952,-7772.162391,-11991.336260,-5515.887586
242.982274,-5699.585753,-13471.748144,-3600.648841
242.982596,-5255.462188,-12139.377449,-1991.848295
242.982918,-5033.400406,-9622.677246,-919.314598
242.983240,-2220.617826,-7550.100608,689.485948
242.983561,814.226536,-5107.421000,-842.705048
242.983883,3552.988522,-4663.297435,-3677.258390
242.984205,5181.441594,-8956.491898,-2757.943793
242.984527,6143.709319,-11473.192101,-842.705048
242.984849,5033.400406,-9622.677246,842.705048
242.985170,5921.647536,-8660.409521,3140.991542
242.985492,5995.668130,-8808.450710,1608.800546
242.985814,5551.544565,-10881.027347,-1225.752797
242.986136,3034.844362,-9770.718434,-1991.848295
242.986458,0.000000,-8882.471304,306.438199
242.986780,-2442.679609,-7994.224174,1378.971896
242.987101,-2664.741391,-6513.812290,229.828649
242.987423,-3552.988522,-6587.832884,-3294.210641
242.987745,-5699.585753,-9104.533087,-5286.058936
242.988067,-7254.018232,-12583.501014,-3524.039291
242.988389,-8438.347739,-11917.315666,-2451.505594
242.988710,-6957.935855,-11177.109724,-4213.525239
242.989032,-3552.988522,-13989.892304,-5286.058936
242.989354,-1110.308913,-14137.933492,-3447.429741
242.989676,-2368.659014,-11621.233289,-1838.629195
242.989998,-2442.679609,-9696.697840,612.876398
242.990319,-370.102971,-7031.956449,1149.143247
242.990641,2146.597232,-4071.132681,-2528.115143
242.990963,3108.864956,-3330.926739,-3830.477490
242.991285,4515.256246,-6439.791695,-459.657299
242.991607,7105.977043,-9992.780217,-689.485948
242.991928,8512.368333,-11547.212695,153.219100
242.992250,9400.615463,-10658.965565,2298.286494
242.992572,7920.203579,-9252.574275,3064.381992
242.992894,5403.503377,-8586.388927,1455.581446
242.993216,2812.782580,-9770.718434,383.047749
242.993537,370.102971,-8364.327145,-842.705048
242.993859,-1258.350101,-5773.606348,-1608.800546
242.994181,-3108.864956,-7105.977043,-1378.971896
242.994503,-4293.194464,-8438.347739,-229.828649
242.994825,-4885.359217,-7920.203579,-1838.629195
242.995146,-4811.338623,-10881.027347,-4136.915689
242.995468,-4737.318029,-12805.562797,-3600.648841
242.995790,-5329.482782,-12435.459826,-3524.039291
242.996112,-6513.812290,-11843.295072,-5056.230287
242.996434,-5995.668130,-12583.501014,-3524.039291
242.996755,-4219.173869,-11399.171507,-1915.238745
242.997077,-5403.503377,-9326.594869,-2834.553343
242.997399,-3108.864956,-8068.244768,-2068.457845
242.997721,-814.226536,-7179.997637,-2145.067394
242.998043,1258.350101,-6735.874072,-3370.820191
242.998364,2072.576638,-7846.182985,-1225.752797
242.998686,3552.988522,-8882.471304,842.705048
242.999008,5625.565159,-9326.594869,-2068.457845
242.999330,7846.182985,-10362.883188,-2145.067394
242.999652,7994.224174,-10955.047942,-153.219100
242.999973,5699.585753,-11251.130318,1149.143247
243.000295,3404.947333,-10658.965565,1302.362347
243.000617,1998.556043,-10807.006753,1532.190996
243.000939,592.164754,-8142.265362,-612.876398
243.001261,-888.247130,-6365.771101,-2451.505594
243.001582,-3552.988522,-7031.956449,-2528.115143
243.001904,-5477.523971,-7031.956449,-919.314598
243.002226,-6809.894666,-6735.874072,-1532.190996
243.002548,-6365.771101,-11547.212695,-3600.648841
243.002870,-5625.565159,-14804.118840,-3447.429741
243.003192,-5773.606348,-12361.439231,-2681.334243
243.003513,-7031.956449,-9548.656652,-2834.553343
243.003835,-4737.318029,-11103.089130,-2911.162892
243.004157,-3256.906145,-10436.903782,-2374.896044
243.004479,-4071.132681,-9178.553681,-3294.210641
243.004801,-2738.761985,-8364.327145,-1838.629195
243.005122,0.000000,-8660.409521,-1149.143247
243.005444,2368.659014,-7550.100608,-2528.115143
243.005766,3256.906145,-7105.977043,-1991.848295
243.006088,5773.606348,-8660.409521,842.705048
243.006410,7254.018232,-9474.636058,459.657299
243.006731,8290.306550,-10658.965565,229.828649
243.007053,8142.265362,-8808.450710,2068.457845
243.007375,6809.894666,-7476.080014,1455.581446
243.007697,4293.194464,-7698.141797,1455.581446
243.008018,2294.638420,-8438.347739,1762.019645
243.008340,592.164754,-7105.977043,383.047749
243.008662,-666.185348,-7031.956449,-1225.752797
243.008984,-1998.556043,-8882.471304,-1225.752797
243.009305,-4219.173869,-10436.903782,-536.266849
243.009627,-4737.318029,-11473.192101,-2068.457845
243.009949,-4811.338623,-11843.295072,-3294.210641
243.010271,-5477.523971,-11325.150913,-2451.505594
243.010592,-6439.791695,-10510.924376,-2911.162892
243.010914,-6957.935855,-10658.965565,-3830.477490
243.011236,-6291.750507,-10436.903782,-4136.915689
243.011558,-4959.379811,-10510.924376,-3217.601092
243.011879,-2812.782580,-9548.656652,-2145.067394
243.012201,-740.205942,-7254.018232,-2068.457845
243.012523,1036.288319,-5995.668130,-1685.410096
243.012844,2960.823768,-6957.935855,-2681.334243
243.013166,4737.318029,-9548.656652,-2834.553343
243.013488,5551.544565,-10807.006753,-2298.286494
243.013810,5551.544565,-10955.047942,-306.438199
243.014131,5699.585753,-10288.862594,1072.533697
243.014453,5181.441594,-8734.430116,536.266849
243.014775,4145.153275,-8660.409521,-306.438199
243.015097,2368.659014,-8734.430116,-766.095498
243.015418,1184.329507,-8142.265362,-306.438199
243.015740,-222.061783,-7254.018232,-383.047749
243.016062,-1258.350101,-8216.285956,0.000000
243.016384,-2146.597232,-10066.800811,-1455.581446
243.016705,-2960.823768,-11473.192101,-2987.772442
243.017027,-4293.194464,-11547.212695,-3140.991542
243.017349,-5477.523971,-11621.233289,-2834.553343
243.017671,-5773.606348,-12509.480420,-3524.039291
243.017992,-5773.606348,-12805.562797,-3600.648841
243.018314,-5477.523971,-12065.356855,-2528.115143
243.018636,-4515.256246,-10584.944971,-1991.848295
243.018958,-2072.576638,-8216.285956,-1532.190996
243.019279,370.102971,-5551.544565,-2068.457845
243.019601,2072.576638,-4441.235652,-2298.286494
243.019923,2294.638420,-6291.750507,-1915.238745
243.020245,3182.885551,-9104.533087,-1072.533697
243.020566,3552.988522,-10436.903782,-1378.971896
243.020888,3404.947333,-11029.068536,-383.047749
243.021210,3849.070898,-10510.924376,1149.143247
243.021532,2960.823768,-9474.636058,1378.971896
243.021853,2368.659014,-8734.430116,1072.533697
243.022175,2220.617826,-7920.203579,919.314598
243.022497,1776.494261,-6661.853478,536.266849
243.022819,1332.370696,-6143.709319,0.000000
243.023140,-1036.288319,-6143.709319,229.828649
243.023462,-2442.679609,-7624.121203,0.000000
243.023784,-3256.906145,-10214.842000,-2451.505594
243.024106,-4071.132681,-12213.398043,-3447.429741
243.024427,-5773.606348,-12583.501014,-2374.896044
243.024749,-6291.750507,-12879.583391,-1608.800546
243.025071,-6291.750507,-13027.624579,-2528.115143
243.025392,-4737.318029,-11843.295072,-3294.210641
243.025714,-3552.988522,-10140.821405,-3217.601092
243.026036,-2146.597232,-8068.244768,-1762.019645
243.026358,-888.247130,-5181.441594,-919.314598
243.026679,592.164754,-4515.256246,-2221.676944
243.027001,2368.659014,-6291.750507,-2911.162892
243.027323,3775.050304,-9474.636058,-2681.334243
243.027645,3923.091493,-11103.089130,-2451.505594
243.027966,3775.050304,-11769.274478,-383.047749
243.028288,3849.070898,-11399.171507,1302.362347
243.028610,3256.906145,-9918.759623,536.266849
243.028932,2516.700203,-8882.471304,76.609550
243.029253,2072.576638,-8660.409521,-306.438199
243.029575,1258.350101,-7698.141797,-766.095498
243.029897,-222.061783,-7328.038826,-306.438199
243.030219,-1628.453072,-6735.874072,459.657299
243.030540,-2220.617826,-7476.080014,-612.876398
243.030862,-2664.741391,-9918.759623,-3677.258390
243.031184,-3701.029710,-11769.274478,-4673.182538
243.031506,-5033.400406,-12805.562797,-3524.039291
243.031827,-5255.462188,-13027.624579,-2987.772442
243.032149,-3404.947333,-13767.830521,-3447.429741
243.032471,-1702.473667,-12805.562797,-3370.820191
243.032793,-666.185348,-11769.274478,-3064.381992
243.033114,592.164754,-9474.636058,-1302.362347
243.033436,1850.514855,-6291.750507,-919.314598
243.033758,2516.700203,-3923.091493,-2221.676944
243.034080,3108.864956,-5329.482782,-2451.505594
243.034401,3108.864956,-8512.368333,-1455.581446
243.034723,2886.803174,-9400.615463,-1532.190996
243.035045,4441.235652,-10807.006753,-1072.533697
243.035367,5625.565159,-11547.212695,306.438199
243.035688,5329.482782,-10584.944971,1072.533697
243.036010,2368.659014,-8512.368333,1838.629195
243.036332,0.000000,-7031.956449,1991.848295
243.036654,-962.267725,-6217.729913,766.095498
243.036975,-1332.370696,-6809.894666,-2068.457845
243.037297,-3627.009116,-7254.018232,-2681.334243
243.037619,-5773.606348,-8734.430116,-1225.752797
243.037940,-6365.771101,-10362.883188,-689.485948
243.038262,-5699.585753,-11177.109724,-1685.410096
243.038584,-5255.462188,-11917.315666,-3830.477490
243.038906,-5033.400406,-13545.768739,-3983.696590
243.039227,-5625.565159,-13323.706956,-3294.210641
243.039549,-5847.626942,-11473.192101,-2374.896044
243.039871,-4293.194464,-9548.656652,-1225.752797
243.040193,-1628.453072,-7698.141797,-995.924147
243.040514,518.144159,-5773.606348,-2451.505594
243.040836,1776.494261,-5477.523971,-3217.601092
243.041158,2960.823768,-8142.265362,-1532.190996
243.041480,3478.967927,-9696.697840,0.000000
243.041801,3478.967927,-10362.883188,-1072.533697
243.042123,3849.070898,-10510.924376,-766.095498
243.042445,3627.009116,-10214.842000,0.000000
243.042767,2368.659014,-9252.574275,-536.266849
243.043088,1036.288319,-8438.347739,-459.657299
243.043410,74.020594,-8068.244768,306.438199
243.043732,-370.102971,-8068.244768,229.828649
243.044054,-888.247130,-8290.306550,229.828649
243.044375,-1776.494261,-7846.182985,229.828649
243.044697,-2368.659014,-8216.285956,-919.314598
243.045019,-3256.906145,-9400.615463,-2834.553343
243.045341,-4589.276840,-10658.965565,-3600.648841
243.045662,-6143.709319,-11399.171507,-2987.772442
243.045984,-5699.585753,-12361.439231,-3294.210641
243.046306,-4145.153275,-13397.727550,-3907.087040
243.046628,-2294.638420,-12731.542202,-3677.258390
243.046949,-518.144159,-11029.068536,-2528.115143
243.047271,518.144159,-9104.533087,-229.828649
243.047593,1332.370696,-6957.935855,229.828649
243.047915,2738.761985,-4885.359217,-842.705048
243.048236,3923.091493,-4811.338623,-2221.676944
243.048558,4293.194464,-7031.956449,-2374.896044
243.048880,4293.194464,-9474.636058,-1302.362347
243.049202,4811.338623,-11029.068536,153.219100
243.049523,5551.544565,-12065.356855,1225.752797
243.049845,4811.338623,-11177.109724,1762.019645
243.050167,3478.967927,-9400.615463,1149.143247
243.050488,1924.535449,-7772.162391,919.314598
243.050810,592.164754,-6735.874072,76.609550
243.051132,-1110.308913,-6513.812290,-766.095498
243.051454,-2738.761985,-6217.729913,-995.924147
243.051775,-3775.050304,-7179.997637,-1225.752797
243.052097,-4441.235652,-8956.491898,-2298.286494
243.052419,-4737.318029,-10584.944971,-4060.306139
243.052741,-5625.565159,-12287.418637,-3753.867940
243.053062,-6217.729913,-12879.583391,-3064.381992
243.053384,-6661.853478,-13175.665768,-3370.820191
243.053706,-5403.503377,-12583.501014,-4213.525239
243.054028,-3849.070898,-11399.171507,-2987.772442
243.054349,-2294.638420,-9474.636058,-2145.067394
243.054671,-1332.370696,-7105.977043,-1378.971896
243.054993,1332.370696,-5773.606348,-1532.190996
243.055315,3478.967927,-6069.688724,-2528.115143
243.055636,4811.338623,-8586.388927,-2145.067394
243.055958,4959.379811,-10362.883188,-842.705048
243.056280,4737.318029,-10066.800811,-995.924147
243.056602,4515.256246,-10510.924376,0.000000
243.056923,3997.112087,-9918.759623,536.266849
243.057245,2664.741391,-9178.553681,0.000000
243.057567,2146.597232,-8882.471304,-919.314598
243.057889,814.226536,-8956.491898,-383.047749
243.058210,-666.185348,-9030.512492,306.438199
243.058532,-2146.597232,-7179.997637,76.609550
243.058854,-3034.844362,-6217.729913,-689.485948
243.059176,-3552.988522,-8364.327145,-2681.334243
243.059497,-4737.318029,-10807.006753,-4136.915689
243.059819,-6513.812290,-11843.295072,-3907.087040
243.060141,-7698.141797,-11621.233289,-2834.553343
243.060463,-6957.935855,-12213.398043,-3217.601092
243.060784,-4145.153275,-12509.480420,-4213.525239
243.061106,-2146.597232,-11991.336260,-4519.963438
243.061428,-1332.370696,-11399.171507,-1685.410096
243.061749,0.000000,-9030.512492,536.266849
243.062071,1998.556043,-5625.565159,153.219100
243.062393,3775.050304,-3775.050304,-1762.019645
243.062715,4811.338623,-5181.441594,-2068.457845
243.063036,5477.523971,-8290.306550,-1838.629195
243.063358,5255.462188,-10140.821405,-766.095498
243.063680,5921.647536,-11251.130318,689.485948
243.064002,6513.812290,-11547.212695,2298.286494
243.064323,5181.441594,-10140.821405,2528.115143
243.064645,2368.659014,-8364.327145,1455.581446
243.064967,444.123565,-7698.141797,766.095498
243.065289,-148.041188,-6661.853478,-536.266849
243.065610,-1628.453072,-5847.626942,-1378.971896
243.065932,-3627.009116,-6587.832884,-1149.143247
243.066254,-4959.379811,-8068.244768,-766.095498
243.066576,-5033.400406,-10658.965565,-2451.505594
243.066897,-5699.585753,-11473.192101,-3753.867940
243.067219,-6143.709319,-12509.480420,-3907.087040
243.067541,-6365.771101,-13323.706956,-3524.039291
243.067863,-6069.688724,-12953.603985,-3524.039291
243.068184,-5255.462188,-11843.295072,-3677.258390
243.068506,-3256.906145,-10288.862594,-1915.238745
243.068828,-1110.308913,-8290.306550,-1685.410096
243.069150,1110.308913,-5551.544565,-1915.238745
243.069471,2738.761985,-4811.338623,-2604.724693
243.069793,4515.256246,-7105.977043,-1532.190996
243.070115,4811.338623,-9770.718434,-1762.019645
243.070437,4737.318029,-10510.924376,-1378.971896
243.070758,4811.338623,-10732.986159,-1072.533697
243.071080,4441.235652,-10436.903782,0.000000
243.071402,3478.967927,-9474.636058,536.266849
243.071724,2590.720797,-9622.677246,-612.876398
243.072045,1406.391290,-9104.533087,-153.219100
243.072367,0.000000,-8364.327145,76.609550
243.072689,-962.267725,-7698.141797,-306.438199
243.073011,-1554.432478,-7105.977043,-1149.143247
243.073332,-2442.679609,-8364.327145,-2221.676944
243.073654,-4293.194464,-10066.800811,-3983.696590
243.073976,-5847.626942,-11029.068536,-3600.648841
243.074297,-6587.832884,-11547.212695,-3600.648841
243.074619,-5699.585753,-12805.562797,-4673.182538
243.074941,-4293.194464,-13915.871710,-4443.353888
243.075263,-2516.700203,-12731.542202,-3447.429741
243.075584,-1406.391290,-10584.944971,-1532.190996
243.075906,0.000000,-8364.327145,0.000000
243.076228,1332.370696,-5847.626942,-689.485948
243.076550,2368.659014,-4219.173869,-2451.505594
243.076871,3182.885551,-5847.626942,-2145.067394
243.077193,2960.823768,-8734.430116,-1762.019645
243.077515,3701.029710,-10807.006753,-1991.848295
243.077837,4811.338623,-11547.212695,-459.657299
243.078158,5107.421000,-11621.233289,1455.581446
243.078480,3997.112087,-9400.615463,2451.505594
243.078802,2368.659014,-7698.141797,1685.410096
243.079124,1184.329507,-6883.915261,76.609550
243.079445,222.061783,-6291.750507,-1378.971896
243.079767,-1702.473667,-7031.956449,-1685.410096
243.080089,-4145.153275,-7698.141797,0.000000
243.080411,-5403.503377,-7624.121203,459.657299
243.080732,-6069.688724,-9622.677246,-2145.067394
243.081054,-5847.626942,-12583.501014,-4673.182538
243.081376,-6439.791695,-13249.686362,-3983.696590
243.081698,-7476.080014,-11917.315666,-2911.162892
243.082019,-6883.915261,-11399.171507,-2451.505594
243.082341,-4145.153275,-11103.089130,-2451.505594
243.082663,-2738.761985,-10140.821405,-2451.505594
243.082985,-1998.556043,-9178.553681,-2374.896044
243.083306,-444.123565,-8068.244768,-612.876398
243.083628,2294.638420,-6513.812290,-995.924147
243.083950,4145.153275,-6217.729913,-2145.067394
243.084272,5403.503377,-8956.491898,-2068.457845
243.084593,5477.523971,-10436.903782,-995.924147
243.084915,5181.441594,-10214.842000,-153.219100
243.085237,4959.379811,-9992.780217,306.438199
243.085559,4663.297435,-9474.636058,612.876398
243.085880,3330.926739,-9474.636058,-612.876398
243.086202,1332.370696,-9548.656652,-306.438199
243.086524,-296.082377,-9400.615463,536.266849
243.086845,-962.267725,-8068.244768,766.095498
243.087167,-962.267725,-6513.812290,-842.705048
243.087489,-2812.782580,-6291.750507,-2145.067394
243.087811,-4737.318029,-8438.347739,-2681.334243
243.088132,-6069.688724,-10807.006753,-3447.429741
243.088454,-6957.935855,-12509.480420,-3600.648841
243.088776,-6439.791695,-12805.562797,-3447.429741
243.089098,-5033.400406,-12805.562797,-3600.648841
243.089419,-3923.091493,-12953.603985,-3600.648841
243.089741,-3552.988522,-11769.274478,-2068.457845
243.090063,-2516.700203,-8882.471304,-612.876398
243.090385,0.000000,-6217.729913,-1225.752797
243.090706,2960.823768,-4811.338623,-3447.429741
243.091028,4737.318029,-6143.709319,-3370.820191
243.091350,4663.297435,-8290.306550,-1302.362347
243.091672,4071.132681,-9400.615463,919.314598
243.091993,4737.318029,-9696.697840,1608.800546
243.092315,6217.729913,-10288.862594,612.876398
243.092637,6143.709319,-10732.986159,-1302.362347
243.092959,5625.565159,-10288.862594,-766.095498
243.093280,4367.215058,-9326.594869,1532.190996
243.093602,3182.885551,-8734.430116,2145.067394
243.093924,2368.659014,-7105.977043,1762.019645
243.094246,518.144159,-5625.565159,0.000000
243.094567,-1850.514855,-6217.729913,-2451.505594
243.094889,-3701.029710,-8290.306550,-3217.601092
243.095211,-4589.276840,-11103.089130,-3140.991542
243.095533,-5033.400406,-11843.295072,-2604.724693
243.095854,-5699.585753,-11547.212695,-2528.115143
243.096176,-5995.668130,-12213.398043,-2451.505594
243.096498,-6069.688724,-11917.315666,-3600.648841
243.096820,-6291.750507,-11029.068536,-4136.915689
243.097141,-5921.647536,-9400.615463,-2987.772442
243.097463,-4219.173869,-7624.121203,-2987.772442
243.097785,-1924.535449,-7328.038826,-2681.334243
243.098107,-296.082377,-8142.265362,-2681.334243
243.098428,962.267725,-8364.327145,-1838.629195
243.098750,2738.761985,-8882.471304,-2068.457845
243.099072,4293.194464,-10214.842000,-2834.553343
243.099393,5403.503377,-11251.130318,-1915.238745
243.099715,5625.565159,-11029.068536,-383.047749
243.100037,4959.379811,-10214.842000,-306.438199
243.100359,4589.276840,-9992.780217,459.657299
243.100680,3552.988522,-9252.574275,919.314598
243.101002,2220.617826,-7254.018232,0.000000
243.101324,222.061783,-6957.935855,-766.095498
243.101646,-1332.370696,-7846.182985,-689.485948
243.101967,-2886.803174,-8734.430116,-1072.533697
243.102289,-3923.091493,-9252.574275,-2298.286494
243.102611,-4145.153275,-9918.759623,-2834.553343
243.102933,-4293.194464,-11769.274478,-2451.505594
243.103254,-4885.359217,-11917.315666,-2528.115143
243.103576,-5551.544565,-11399.171507,-2451.505594
243.103898,-5921.647536,-11325.150913,-2451.505594
243.104220,-4737.318029,-10658.965565,-2221.676944
243.104541,-2886.803174,-8660.409521,-1608.800546
243.104863,-1258.350101,-6587.832884,-2374.896044
243.105185,296.082377,-5921.647536,-2374.896044
243.105507,1776.494261,-6957.935855,-1532.190996
243.105828,2368.659014,-7254.018232,-1149.143247
243.106150,2960.823768,-9400.615463,-1608.800546
243.106472,4219.173869,-10807.006753,-229.828649
243.106794,5033.400406,-10807.006753,229.828649
243.107115,4885.359217,-9622.677246,459.657299
243.107437,3997.112087,-8808.450710,1149.143247
243.107759,3108.864956,-7550.100608,1915.238745
243.108081,1998.556043,-6217.729913,1225.752797
243.108402,148.041188,-6217.729913,-612.876398
243.108724,-1332.370696,-7476.080014,-689.485948
243.109046,-3034.844362,-8660.409521,-306.438199
243.109367,-4219.173869,-9622.677246,-995.924147
243.109689,-4441.235652,-10510.924376,-1838.629195
243.110011,-4293.194464,-11843.295072,-3064.381992
243.110333,-4737.318029,-12435.459826,-3447.429741
243.110654,-5107.421000,-12657.521608,-3370.820191
243.110976,-4811.338623,-12287.418637,-3064.381992
243.111298,-3627.009116,-11621.233289,-2068.457845
243.111620,-2368.659014,-9474.636058,-1532.190996
243.111941,-1036.288319,-7105.977043,-2068.457845
243.112263,592.164754,-6291.750507,-2834.553343
243.112585,1776.494261,-7105.977043,-2911.162892
243.112907,2220.617826,-8364.327145,-2834.553343
243.113228,2368.659014,-9252.574275,-2221.676944
243.113550,3997.112087,-11029.068536,-919.314598
243.113872,4663.297435,-12065.356855,-766.095498
243.114193,4515.256246,-11621.233289,-459.657299
243.114515,3552.988522,-9918.759623,76.609550
243.114837,2146.597232,-8216.285956,1072.533697
243.115159,1924.535449,-7772.162391,76.609550
243.115480,148.041188,-7402.059420,-1149.143247
243.115802,-666.185348,-7031.956449,-1915.238745
243.116124,-1776.494261,-8068.244768,-1915.238745
243.116446,-2812.782580,-10066.800811,-1915.238745
243.116767,-3478.967927,-11029.068536,-2298.286494
243.117089,-3701.029710,-11843.295072,-2911.162892
243.117411,-4293.194464,-12953.603985,-3217.601092
243.117733,-4515.256246,-13471.748144,-2681.334243
243.118054,-4737.318029,-11991.336260,-2221.676944
243.118376,-4293.194464,-9474.636058,-1915.238745
243.118698,-1702.473667,-8142.265362,-2068.457845
243.119020,1184.329507,-6957.935855,-2068.457845
243.119341,2442.679609,-5847.626942,-2681.334243
243.119663,2812.782580,-6661.853478,-1762.019645
243.119985,3330.926739,-7994.224174,612.876398
243.120306,3034.844362,-8586.388927,536.266849
243.120628,3478.967927,-10288.862594,-1225.752797
243.120950,3404.947333,-11399.171507,-1608.800546
243.121272,2886.803174,-10807.006753,0.000000
243.121593,1480.411884,-9030.512492,1149.143247
243.121915,740.205942,-7624.121203,1532.190996
243.122237,666.185348,-7105.977043,1378.971896
243.122559,222.061783,-6217.729913,0.000000
243.122880,-1628.453072,-6513.812290,-1378.971896
243.123202,-3256.906145,-7254.018232,-689.485948
243.123524,-4367.215058,-7920.203579,-766.095498
243.123846,-4885.359217,-9178.553681,-2834.553343
243.124167,-4885.359217,-11547.212695,-3830.477490
243.124489,-5329.482782,-12953.603985,-3140.991542
243.124811,-6217.729913,-13767.830521,-2757.943793
243.125132,-5921.647536,-13989.892304,-2451.505594
243.125454,-4367.215058,-12213.398043,-1991.848295
243.125776,-1924.535449,-9770.718434,-1838.629195
243.126098,-222.061783,-6957.935855,-2298.286494
243.126419,1110.308913,-5773.606348,-2681.334243
243.126741,2590.720797,-5699.585753,-1838.629195
243.127063,3552.988522,-6735.874072,-1991.848295
243.127385,2886.803174,-9326.594869,-1838.629195
243.127706,3478.967927,-11399.171507,-919.314598
243.128028,4219.173869,-12065.356855,-459.657299
243.128350,4145.153275,-11029.068536,-306.438199
243.128672,3627.009116,-9178.553681,612.876398
243.128993,2886.803174,-7846.182985,612.876398
243.129315,1406.391290,-7254.018232,536.266849
243.129637,-444.123565,-7031.956449,-229.828649
243.129958,-1702.473667,-7105.977043,-1072.533697
243.130280,-2368.659014,-7476.080014,-2374.896044
243.130602,-3330.926739,-8956.491898,-2987.772442
243.130924,-4219.173869,-11621.233289,-3370.820191
243.131245,-4811.338623,-12435.459826,-2834.553343
243.131567,-5107.421000,-13249.686362,-2604.724693
243.131889,-4589.276840,-13619.789333,-3217.601092
243.132211,-3108.864956,-11917.315666,-3600.648841
243.132532,-1776.494261,-10955.047942,-3140.991542
243.132854,-296.082377,-9326.594869,-1915.238745
243.133176,2220.617826,-8068.244768,-766.095498
243.133498,4589.276840,-6143.709319,-1608.800546
243.133819,5551.544565,-6439.791695,-1608.800546
243.134141,5699.585753,-7994.224174,0.000000
243.134463,4663.297435,-8216.285956,306.438199
243.134785,4071.132681,-8882.471304,-766.095498
243.135106,4293.194464,-10214.842000,-995.924147
243.135428,4145.153275,-10288.862594,0.000000
243.135750,2516.700203,-9474.636058,766.095498
243.136071,962.267725,-8956.491898,1072.533697
243.136393,-148.041188,-8438.347739,2068.457845
243.136715,-1036.288319,-6809.894666,306.438199
243.137037,-2368.659014,-6217.729913,-2298.286494
243.137358,-3701.029710,-6883.915261,-2298.286494
243.137680,-5551.544565,-7994.224174,-919.314598
243.138002,-6587.832884,-9474.636058,-2681.334243
243.138324,-6143.709319,-11843.295072,-3983.696590
243.138645,-5847.626942,-13397.727550,-3677.258390
243.138967,-6217.729913,-13693.809927,-2911.162892
243.139289,-6809.894666,-12657.521608,-2451.505594
243.139611,-5329.482782,-11695.253884,-2145.067394
243.139932,-3478.967927,-9474.636058,-2068.457845
243.140254,-1554.432478,-7550.100608,-2987.772442
243.140576,148.041188,-6217.729913,-2451.505594
243.140897,2294.638420,-5773.606348,-1455.581446
243.141219,3775.050304,-7105.977043,-1532.190996
243.141541,4219.173869,-8882.471304,-1225.752797
243.141863,4663.297435,-10732.986159,-842.705048
243.142184,4367.215058,-11769.274478,-612.876398
243.142506,4219.173869,-11769.274478,0.000000
243.142828,3849.070898,-10436.903782,383.047749
243.143150,3478.967927,-9252.574275,0.000000
243.143471,2812.782580,-8808.450710,0.000000
243.143793,1184.329507,-8290.306550,459.657299
243.144115,-666.185348,-7698.141797,383.047749
243.144437,-1998.556043,-6587.832884,-1225.752797
243.144758,-2738.761985,-7772.162391,-2221.676944
243.145080,-3775.050304,-9696.697840,-3524.039291
243.145402,-4737.318029,-12361.439231,-3753.867940
243.145724,-5921.647536,-12731.542202,-2221.676944
243.146045,-5699.585753,-11695.253884,-1072.533697
243.146367,-5107.421000,-11547.212695,-2451.505594
243.146689,-3182.885551,-11917.315666,-4519.963438
243.147010,-2812.782580,-10436.903782,-2987.772442
243.147332,-1998.556043,-8290.306550,-1455.581446
243.147654,518.144159,-6809.894666,-766.095498
243.147976,3701.029710,-6069.688724,-1915.238745
243.148297,4367.215058,-7179.997637,-1762.019645
243.148619,3849.070898,-7698.141797,-766.095498
243.148941,4145.153275,-8956.491898,0.000000
243.149263,4737.318029,-10362.883188,-536.266849
243.149584,5847.626942,-10955.047942,-612.876398
243.149906,4885.359217,-9622.677246,306.438199
243.150228,3849.070898,-8290.306550,766.095498
243.150550,2368.659014,-8290.306550,1225.752797
243.150871,1480.411884,-7920.203579,1225.752797
243.151193,74.020594,-6217.729913,-306.438199
243.151515,-1406.391290,-6513.812290,-2298.286494
243.151836,-3627.009116,-8438.347739,-1225.752797
243.152158,-4811.338623,-9696.697840,-1532.190996
243.152480,-5329.482782,-10732.986159,-3294.210641
243.152802,-5181.441594,-12361.439231,-3370.820191
243.153123,-5403.503377,-13323.706956,-2451.505594
243.153445,-6661.853478,-12213.398043,-2681.334243
243.153767,-6143.709319,-11547.212695,-2451.505594
243.154089,-4663.297435,-10288.862594,-2451.505594
243.154410,-2812.782580,-9030.512492,-2911.162892
243.154732,-1036.288319,-7698.141797,-2374.896044
243.155054,148.041188,-5921.647536,-1762.019645
243.155376,1480.411884,-6365.771101,-1838.629195
243.155697,2812.782580,-8734.430116,-2374.896044
243.156019,3775.050304,-10658.965565,-2068.457845
243.156341,4441.235652,-11251.130318,-1685.410096
243.156663,5033.400406,-11251.130318,-1149.143247
243.156984,4589.276840,-10807.006753,229.828649
243.157306,3775.050304,-9474.636058,536.266849
243.157628,2516.700203,-8660.409521,0.000000
243.157949,1332.370696,-8364.327145,0.000000
243.158271,0.000000,-8142.265362,0.000000
243.158593,-1776.494261,-7031.956449,-766.095498
243.158915,-2738.761985,-7031.956449,-1455.581446
243.159236,-3034.844362,-9030.512492,-2374.896044
243.159558,-3701.029710,-10732.986159,-2987.772442
243.159880,-5403.503377,-12361.439231,-2987.772442
243.160202,-5329.482782,-12805.562797,-2604.724693
243.160523,-5477.523971,-13471.748144,-2604.724693
243.160845,-4663.297435,-13249.686362,-2834.553343
243.161167,-3552.988522,-11177.109724,-2451.505594
243.161489,-2146.597232,-8660.409521,-1608.800546
243.161810,814.226536,-6809.894666,-1455.581446
243.162132,3330.926739,-5181.441594,-2451.505594
243.162454,4441.235652,-5699.585753,-1915.238745
243.162775,4367.215058,-7550.100608,-536.266849
243.163097,3849.070898,-9474.636058,0.000000
243.163419,4219.173869,-10436.903782,0.000000
243.163741,4219.173869,-10436.903782,-229.828649
243.164062,3627.009116,-10140.821405,-383.047749
243.164384,2664.741391,-9400.615463,229.828649
243.164706,1998.556043,-8734.430116,1302.362347
243.165028,1110.308913,-7772.162391,1838.629195
243.165349,666.185348,-6439.791695,1532.190996
243.165671,-962.267725,-6143.709319,-383.047749
243.165993,-2590.720797,-6735.874072,-536.266849
243.166315,-4293.194464,-7698.141797,-1455.581446
243.166636,-4885.359217,-9474.636058,-2911.162892
243.166958,-4811.338623,-12139.377449,-3217.601092
243.167280,-4885.359217,-12805.562797,-2221.676944
243.167602,-6217.729913,-12435.459826,-2451.505594
243.167923,-6291.750507,-12361.439231,-2911.162892
243.168245,-4589.276840,-11917.315666,-2757.943793
243.168567,-3182.885551,-9844.739029,-2604.724693
243.168888,-1480.411884,-7179.997637,-3217.601092
243.169210,296.082377,-6291.750507,-2374.896044
243.169532,1998.556043,-6365.771101,-1762.019645
243.169854,2664.741391,-7772.162391,-1991.848295
243.170175,2960.823768,-9474.636058,-1991.848295
243.170497,3627.009116,-10658.965565,-1149.143247
243.170819,4145.153275,-11547.212695,-1149.143247
243.171141,4219.173869,-10881.027347,-766.095498
243.171462,3627.009116,-9252.574275,229.828649
243.171784,3404.947333,-8364.327145,0.000000
243.172106,3108.864956,-8438.347739,76.609550
243.172428,1628.453072,-7772.162391,383.047749
243.172749,0.000000,-7624.121203,0.000000
243.173071,-1480.411884,-7105.977043,-995.924147
243.173393,-2220.617826,-8438.347739,-1608.800546
243.173714,-2886.803174,-9992.780217,-3064.381992
243.174036,-3256.906145,-11695.253884,-4290.134789
243.174358,-4515.256246,-12435.459826,-3524.039291
243.174680,-4885.359217,-13027.624579,-2834.553343
243.175001,-4811.338623,-12583.501014,-2528.115143
243.175323,-4293.194464,-11695.253884,-2834.553343
243.175645,-3256.906145,-10807.006753,-2911.162892
243.175967,-1480.411884,-7994.224174,-1915.238745
243.176288,1406.391290,-6809.894666,-2604.724693
243.176610,3404.947333,-5921.647536,-2911.162892
243.176932,4145.153275,-7698.141797,-1608.800546
243.177254,3627.009116,-9400.615463,-383.047749
243.177575,3997.112087,-9548.656652,76.609550
243.177897,4071.132681,-10066.800811,-153.219100
243.178219,4367.215058,-10732.986159,-842.705048
243.178540,4219.173869,-10288.862594,-842.705048
243.178862,3404.947333,-8882.471304,612.876398
243.179184,2220.617826,-7698.141797,2221.676944
243.179506,1850.514855,-6809.894666,2451.505594
243.179827,444.123565,-6513.812290,612.876398
243.180149,-1850.514855,-6439.791695,-689.485948
243.180471,-4515.256246,-7994.224174,-1302.362347
243.180793,-6217.729913,-10214.842000,-1838.629195
243.181114,-7105.977043,-11473.192101,-2221.676944
243.181436,-6883.915261,-11547.212695,-2451.505594
243.181758,-6291.750507,-11621.233289,-3140.991542
243.182080,-5699.585753,-11917.315666,-3677.258390
243.182401,-5477.523971,-12213.398043,-3140.991542
243.182723,-5699.585753,-10362.883188,-995.924147
243.183045,-4737.318029,-7994.224174,-1302.362347
243.183367,-1924.535449,-6735.874072,-3064.381992
243.183688,-370.102971,-6661.853478,-4366.744339
243.184010,518.144159,-7402.059420,-3447.429741
243.184332,1332.370696,-7698.141797,-1455.581446
243.184653,2812.782580,-8438.347739,-612.876398
243.184975,4663.297435,-11177.109724,-383.047749
243.185297,5477.523971,-11917.315666,-229.828649
243.185619,5255.462188,-11029.068536,-689.485948
243.185940,4885.359217,-9918.759623,-229.828649
243.186262,4293.194464,-9252.574275,1225.752797
243.186584,3404.947333,-8068.244768,1149.143247
243.186906,1776.494261,-6513.812290,76.609550
243.187227,0.000000,-6809.894666,-995.924147
243.187549,-1554.432478,-8660.409521,-1225.752797
243.187871,-2738.761985,-9770.718434,-2451.505594
243.188193,-2960.823768,-10807.006753,-2987.772442
243.188514,-2960.823768,-12213.398043,-2451.505594
243.188836,-3034.844362,-12731.542202,-1838.629195
243.189158,-3923.091493,-11843.295072,-1608.800546
243.189479,-4737.318029,-10510.924376,-2451.505594
243.189801,-4145.153275,-9400.615463,-3140.991542
243.190123,-2294.638420,-8438.347739,-3983.696590
243.190445,0.000000,-7476.080014,-3600.648841
243.190766,1850.514855,-7105.977043,-2834.553343
243.191088,2960.823768,-7994.224174,-995.924147
243.191410,3478.967927,-8142.265362,0.000000
243.191732,3552.988522,-9252.574275,-612.876398
243.192053,3478.967927,-10140.821405,-1378.971896
243.192375,3256.906145,-10881.027347,-1532.190996
243.192697,3256.906145,-10510.924376,-1225.752797
243.193019,2886.803174,-9474.636058,306.438199
243.193340,2072.576638,-7846.182985,1991.848295
243.193662,1406.391290,-7698.141797,2374.896044
243.193984,148.041188,-6735.874072,1225.752797
243.194306,-1406.391290,-6365.771101,-766.095498
243.194627,-3330.926739,-7476.080014,-1608.800546
243.194949,-4885.359217,-9178.553681,-2068.457845
243.195271,-5255.462188,-10807.006753,-2834.553343
243.195592,-5477.523971,-12065.356855,-2451.505594
243.195914,-5329.482782,-12361.439231,-1915.238745
243.196236,-5329.482782,-12879.583391,-2757.943793
243.196558,-5181.441594,-12805.562797,-3140.991542
243.196879,-4589.276840,-11695.253884,-3217.601092
243.197201,-3552.988522,-9400.615463,-2528.115143
243.197523,-1702.473667,-7476.080014,-2451.505594
243.197845,0.000000,-7105.977043,-2298.286494
243.198166,1258.350101,-6883.915261,-2221.676944
243.198488,1258.350101,-6809.894666,-2068.457845
243.198810,1776.494261,-9178.553681,-2221.676944
243.199132,2664.741391,-10732.986159,-1455.581446
243.199453,3256.906145,-11251.130318,-1378.971896
243.199775,3552.988522,-10732.986159,-383.047749
243.200097,4145.153275,-9770.718434,612.876398
243.200418,3034.844362,-8438.347739,1378.971896
243.200740,2072.576638,-7550.100608,536.266849
243.201062,888.247130,-7179.997637,-383.047749
243.201384,-222.061783,-7105.977043,-1072.533697
243.201705,-1258.350101,-8068.244768,-1608.800546
243.202027,-2368.659014,-8882.471304,-1762.019645
243.202349,-2664.741391,-10584.944971,-2604.724693
243.202671,-3182.885551,-12139.377449,-3524.039291
243.202992,-3849.070898,-12805.562797,-2987.772442
243.203314,-4219.173869,-12435.459826,-2145.067394
243.203636,-3478.967927,-12065.356855,-2298.286494
243.203958,-2368.659014,-11325.150913,-2757.943793
243.204279,148.041188,-9696.697840,-2451.505594
243.204601,2368.659014,-7772.162391,-2681.334243
243.204923,4589.276840,-7105.977043,-1915.238745
243.205245,5699.585753,-6513.812290,-459.657299
243.205566,6143.709319,-7624.121203,-612.876398
243.205888,4885.359217,-8142.265362,-229.828649
243.206210,3775.050304,-9326.594869,0.000000
243.206532,2960.823768,-10066.800811,-536.266849
243.206854,2590.720797,-9696.697840,-995.924147
243.207175,2442.679609,-9844.739029,-229.828649
243.207497,1480.411884,-9400.615463,1225.752797
243.207819,370.102971,-8438.347739,2374.896044
243.208141,-814.226536,-6735.874072,1685.410096
243.208463,-1702.473667,-5995.668130,-919.314598
243.208785,-3701.029710,-5921.647536,-2068.457845
243.209107,-5551.544565,-8142.265362,-2987.772442
243.209429,-7179.997637,-10288.862594,-3064.381992
243.209751,-7254.018232,-12361.439231,-3600.648841
243.210073,-6735.874072,-13323.706956,-3064.381992
243.210394,-5699.585753,-13841.851115,-2834.553343
243.210716,-5329.482782,-12805.562797,-3217.601092
243.211038,-3923.091493,-11843.295072,-3524.039291
243.211360,-2442.679609,-9696.697840,-2451.505594
243.211682,-444.123565,-7550.100608,-2298.286494
243.212004,1258.350101,-6365.771101,-2757.943793
243.212326,2368.659014,-5847.626942,-3140.991542
243.212648,2590.720797,-6735.874072,-1455.581446
243.212970,2738.761985,-8068.244768,-919.314598
243.213292,3330.926739,-9548.656652,-1072.533697
243.213613,4367.215058,-11103.089130,-1072.533697
243.213935,4811.338623,-11843.295072,-766.095498
243.214257,4071.132681,-10584.944971,0.000000
243.214579,3034.844362,-9474.636058,1378.971896
243.214901,1554.432478,-8512.368333,1915.238745
243.215223,0.000000,-7179.997637,306.438199
243.215545,-2072.576638,-6513.812290,-1685.410096
243.215867,-4145.153275,-6587.832884,-2451.505594
243.216189,-5329.482782,-8216.285956,-2221.676944
243.216511,-5477.523971,-10140.821405,-3294.210641
243.216832,-4885.359217,-12139.377449,-4060.306139
243.217154,-4885.359217,-13323.706956,-3217.601092
243.217476,-4811.338623,-12953.603985,-2221.676944
243.217798,-4737.318029,-11991.336260,-2298.286494
243.218120,-4219.173869,-11029.068536,-3140.991542
243.218442,-2294.638420,-9696.697840,-3294.210641
243.218764,148.041188,-8512.368333,-3677.258390
243.219086,2442.679609,-7920.203579,-2451.505594
243.219408,4515.256246,-6883.915261,-612.876398
243.219730,5699.585753,-7031.956449,229.828649
243.220051,6143.709319,-7550.100608,383.047749
243.220373,5995.668130,-8512.368333,-536.266849
243.220695,5255.462188,-10140.821405,-919.314598
243.221017,4737.318029,-9844.739029,0.000000
243.221339,3627.009116,-9770.718434,536.266849
243.221661,2442.679609,-9770.718434,995.924147
243.221983,1258.350101,-9326.594869,2221.676944
243.222305,0.000000,-8068.244768,1838.629195
243.222627,-1406.391290,-6365.771101,383.047749
243.222949,-3034.844362,-5921.647536,-1149.143247
243.223270,-4737.318029,-7179.997637,-2221.676944
243.223592,-6217.729913,-8956.491898,-3447.429741
243.223914,-6735.874072,-11251.130318,-4366.744339
243.224236,-6439.791695,-13249.686362,-3217.601092
243.224558,-6365.771101,-13545.768739,-2604.724693
243.224880,-7179.997637,-13323.706956,-2604.724693
243.225202,-6587.832884,-12065.356855,-2604.724693
243.225524,-4811.338623,-10436.903782,-2451.505594
243.225846,-2368.659014,-8216.285956,-3217.601092
243.226168,0.000000,-5921.647536,-3600.648841
243.226489,2442.679609,-5699.585753,-3140.991542
243.226811,3404.947333,-6883.915261,-842.705048
243.227133,3997.112087,-8364.327145,306.438199
243.227455,4145.153275,-9548.656652,229.828649
243.227777,4959.379811,-10881.027347,-536.266849
243.228099,5773.606348,-11029.068536,-1225.752797
243.228421,5995.668130,-11029.068536,-995.924147
243.228743,5181.441594,-9992.780217,0.000000
243.229065,4071.132681,-8734.430116,2451.505594
243.229387,2294.638420,-7698.141797,2298.286494
243.229708,74.020594,-6883.915261,612.876398
243.230030,-2442.679609,-6439.791695,-1532.190996
243.230352,-4885.359217,-6439.791695,-3140.991542
243.230674,-6069.688724,-8364.327145,-3983.696590
243.230996,-5329.482782,-11103.089130,-3524.039291
243.231318,-4811.338623,-12509.480420,-2834.553343
243.231640,-5181.441594,-12805.562797,-2298.286494
243.231962,-5403.503377,-12805.562797,-1991.848295
243.232284,-5847.626942,-12065.356855,-2528.115143
243.232606,-5107.421000,-10436.903782,-3217.601092
243.232927,-3478.967927,-7772.162391,-3600.648841
243.233249,-518.144159,-6217.729913,-3600.648841
243.233571,2368.659014,-6587.832884,-2911.162892
243.233893,3997.112087,-7254.018232,-1302.362347
243.234215,4737.318029,-8216.285956,0.000000
243.234537,5403.503377,-8882.471304,1072.533697
243.234859,6217.729913,-10066.800811,306.438199
243.235181,5477.523971,-11399.171507,-1455.581446
243.235503,4589.276840,-10436.903782,-306.438199
243.235825,4071.132681,-9178.553681,766.095498
243.236146,3552.988522,-9474.636058,842.705048
243.236468,3478.967927,-9844.739029,1915.238745
243.236790,1924.535449,-7624.121203,1608.800546
243.237112,-148.041188,-6587.832884,0.000000
243.237434,-2738.761985,-7254.018232,-1149.143247
243.237756,-4663.297435,-8142.265362,-1915.238745
243.238078,-5625.565159,-9030.512492,-3983.696590
243.238400,-5773.606348,-10955.047942,-5132.839837
243.238722,-6365.771101,-12583.501014,-3140.991542
243.239044,-6809.894666,-13249.686362,-2068.457845
243.239365,-7031.956449,-12287.418637,-2374.896044
243.239687,-6587.832884,-11547.212695,-2987.772442
243.240009,-4811.338623,-10584.944971,-3600.648841
243.240331,-3182.885551,-8068.244768,-2757.943793
243.240653,-1924.535449,-6883.915261,-2987.772442
243.240975,0.000000,-6365.771101,-1762.019645
243.241297,1258.350101,-7254.018232,-1225.752797
243.241619,2960.823768,-9252.574275,-1991.848295
243.241941,3701.029710,-11251.130318,-1685.410096
243.242263,4737.318029,-11177.109724,153.219100
243.242584,5551.544565,-10140.821405,995.924147
243.242906,6143.709319,-9326.594869,383.047749
243.243228,6439.791695,-8956.491898,459.657299
243.243550,5551.544565,-7994.224174,919.314598
243.243872,3108.864956,-6957.935855,1149.143247
243.244194,518.144159,-7476.080014,459.657299
243.244516,-1258.350101,-7772.162391,-383.047749
243.244838,-2886.803174,-7772.162391,-2221.676944
243.245160,-3478.967927,-9400.615463,-3294.210641
243.245482,-3478.967927,-11991.336260,-3600.648841
243.245803,-3552.988522,-13175.665768,-2451.505594
243.246125,-4071.132681,-11991.336260,-1685.410096
243.246447,-4663.297435,-11695.253884,-1915.238745
243.246769,-4515.256246,-11399.171507,-2221.676944
243.247091,-4515.256246,-8956.491898,-2374.896044
243.247413,-3701.029710,-6957.935855,-2911.162892
243.247735,-1184.329507,-6143.709319,-3524.039291
243.248057,1776.494261,-6661.853478,-2528.115143
243.248379,2738.761985,-7772.162391,-1685.410096
243.248701,2664.741391,-9104.533087,153.219100
243.249022,3775.050304,-9918.759623,689.485948
243.249344,4145.153275,-10510.924376,-536.266849
243.249666,4367.215058,-11029.068536,-2145.067394
243.249988,3997.112087,-9844.739029,-1149.143247
243.250310,3552.988522,-8660.409521,0.000000
243.250632,2516.700203,-8956.491898,1685.410096
243.250954,2294.638420,-8438.347739,1915.238745
243.251276,1110.308913,-7105.977043,536.266849
243.251598,-888.247130,-6513.812290,-1072.533697
243.251920,-3034.844362,-8364.327145,-1532.190996
243.252241,-4737.318029,-8512.368333,-995.924147
243.252563,-4959.379811,-9178.553681,-3294.210641
243.252885,-4293.194464,-11029.068536,-3294.210641
243.253207,-4515.256246,-12583.501014,-1838.629195
243.253529,-6143.709319,-12065.356855,-1915.238745
243.253851,-7105.977043,-11325.150913,-2221.676944
243.254173,-6365.771101,-10584.944971,-2298.286494
243.254495,-4515.256246,-9178.553681,-3830.477490
243.254817,-2516.700203,-7254.018232,-4060.306139
243.255139,-1554.432478,-6735.874072,-2834.553343
243.255460,-148.041188,-7402.059420,-1608.800546
243.255782,1480.411884,-8512.368333,-1991.848295
243.256104,2886.803174,-10140.821405,-3294.210641
243.256426,3404.947333,-11695.253884,-1838.629195
243.256748,3701.029710,-11991.336260,-766.095498
243.257070,3849.070898,-11695.253884,-536.266849
243.257392,4219.173869,-10510.924376,459.657299
243.257714,3627.009116,-8364.327145,2374.896044
243.258036,2442.679609,-6957.935855,1149.143247
243.258358,962.267725,-6587.832884,306.438199
243.258679,-666.185348,-6291.750507,-306.438199
243.259001,-2146.597232,-6809.894666,-1915.238745
243.259323,-2072.576638,-8808.450710,-2451.505594
243.259645,-2368.659014,-10807.006753,-2451.505594
243.259967,-3256.906145,-12509.480420,-2298.286494
243.260289,-3701.029710,-12953.603985,-1532.190996
243.260611,-4071.132681,-13471.748144,-2374.896044
243.260933,-4441.235652,-13471.748144,-3370.820191
243.261255,-4145.153275,-11621.233289,-2604.724693
243.261577,-2812.782580,-8142.265362,-1762.019645
243.261898,-148.041188,-5625.565159,-2451.505594
243.262220,2664.741391,-5181.441594,-2757.943793
243.262542,4071.132681,-6513.812290,-1915.238745
243.262864,2664.741391,-7105.977043,-689.485948
243.263186,2886.803174,-8882.471304,76.609550
243.263508,3404.947333,-11029.068536,-229.828649
243.263830,3849.070898,-11917.315666,-842.705048
243.264152,3552.988522,-10362.883188,-306.438199
243.264474,3404.947333,-9104.533087,229.828649
243.264796,2812.782580,-8586.388927,2068.457845
243.265117,2516.700203,-7550.100608,2068.457845
243.265439,1258.350101,-5625.565159,383.047749
243.265761,0.000000,-5847.626942,-919.314598
243.266083,-1480.411884,-7402.059420,-995.924147
243.266405,-3478.967927,-8956.491898,-2221.676944
243.266727,-4737.318029,-10066.800811,-2911.162892
243.267049,-4737.318029,-11843.295072,-2834.553343
243.267371,-4737.318029,-13175.665768,-2451.505594
243.267693,-4959.379811,-13249.686362,-2681.334243
243.268015,-4959.379811,-12287.418637,-3064.381992
243.268336,-4589.276840,-11251.130318,-2604.724693
243.268658,-3034.844362,-9474.636058,-1685.410096
243.268980,-2220.617826,-7328.038826,-1991.848295
243.269302,-1258.350101,-6809.894666,-2451.505594
243.269624,74.020594,-7402.059420,-2145.067394
243.269946,592.164754,-8068.244768,-1685.410096
243.270268,888.247130,-8882.471304,-1915.238745
243.270590,2072.576638,-9770.718434,-1378.971896
243.270912,2960.823768,-10584.944971,-995.924147
243.271234,3849.070898,-10510.924376,-689.485948
243.271555,3849.070898,-9474.636058,-1072.533697
243.271877,4145.153275,-8956.491898,0.000000
243.272199,2960.823768,-8438.347739,995.924147
243.272521,1998.556043,-7920.203579,612.876398
243.272843,74.020594,-7179.997637,-383.047749
243.273165,-1776.494261,-7550.100608,-1149.143247
243.273487,-3849.070898,-8808.450710,-2604.724693
243.273809,-4737.318029,-10584.944971,-3217.601092
243.274131,-4219.173869,-11251.130318,-2911.162892
243.274453,-3108.864956,-11399.171507,-2681.334243
243.274774,-1924.535449,-11843.295072,-2374.896044
243.275096,-2072.576638,-11177.109724,-2145.067394
243.275418,-2960.823768,-10584.944971,-1302.362347
243.275740,-3701.029710,-8882.471304,-995.924147
243.276062,-2590.720797,-7031.956449,-2374.896044
243.276384,-444.123565,-6883.915261,-4290.134789
243.276706,1998.556043,-7402.059420,-3753.867940
243.277028,3330.926739,-9622.677246,-2221.676944
243.277350,4293.194464,-10436.903782,-842.705048
243.277672,5181.441594,-11473.192101,1072.533697
243.277993,5625.565159,-10881.027347,995.924147
243.278315,5477.523971,-9548.656652,-1608.800546
243.278637,3849.070898,-9474.636058,-1608.800546
243.278959,2590.720797,-9400.615463,-153.219100
243.279281,1776.494261,-8512.368333,689.485948
243.279603,1628.453072,-7105.977043,842.705048
243.279925,1184.329507,-6883.915261,1378.971896
243.280247,0.000000,-7624.121203,0.000000
243.280569,-1924.535449,-7846.182985,-1455.581446
243.280891,-3552.988522,-9474.636058,-3294.210641
243.281212,-3849.070898,-11325.150913,-2911.162892
243.281534,-4145.153275,-11843.295072,-1991.848295
243.281856,-4737.318029,-11399.171507,-1915.238745
243.282178,-4589.276840,-11473.192101,-2068.457845
243.282500,-4367.215058,-11177.109724,-2374.896044
243.282822,-4145.153275,-10066.800811,-2834.553343
243.283144,-3478.967927,-8734.430116,-2757.943793
243.283466,-1924.535449,-7476.080014,-1991.848295
243.283788,-1110.308913,-7698.141797,-1915.238745
243.284110,-888.247130,-7476.080014,-1915.238745
243.284431,0.000000,-7698.141797,-2145.067394
243.284753,1332.370696,-8734.430116,-2757.943793
243.285075,2590.720797,-10362.883188,-2145.067394
243.285397,3182.885551,-11103.089130,-536.266849
243.285719,3552.988522,-10955.047942,-229.828649
243.286041,3256.906145,-10807.006753,689.485948
243.286363,2886.803174,-10362.883188,1302.362347
243.286685,1406.391290,-8290.306550,842.705048
243.287007,0.000000,-5847.626942,0.000000
243.287329,-1332.370696,-5699.585753,-2068.457845
243.287650,-3034.844362,-6661.853478,-2528.115143
243.287972,-3849.070898,-8586.388927,-2604.724693
243.288294,-3849.070898,-11029.068536,-2604.724693
243.288616,-3034.844362,-13249.686362,-2757.943793
243.288938,-2442.679609,-13915.871710,-1915.238745
243.289260,-3182.885551,-14137.933492,-1302.362347
243.289582,-4219.173869,-12509.480420,-995.924147
243.289904,-4071.132681,-9252.574275,-1072.533697
243.290226,-2368.659014,-6217.729913,-2987.772442
243.290548,518.144159,-5107.421000,-4903.011187
243.290869,1776.494261,-5921.647536,-3600.648841
243.291191,1554.432478,-7105.977043,-1378.971896
243.291513,1628.453072,-8290.306550,0.000000
243.291835,2590.720797,-10436.903782,-306.438199
243.292157,3108.864956,-12213.398043,-995.924147
243.292479,3256.906145,-12139.377449,-2451.505594
243.292801,2738.761985,-10140.821405,-1225.752797
243.293123,2442.679609,-9104.533087,536.266849
243.293445,2220.617826,-8364.327145,1762.019645
243.293767,1110.308913,-7031.956449,1532.190996
243.294088,-296.082377,-5699.585753,536.266849
243.294410,-1258.350101,-6513.812290,-1378.971896
243.294732,-2442.679609,-7920.203579,-1838.629195
243.295054,-3552.988522,-9030.512492,-2298.286494
243.295376,-4071.132681,-10436.903782,-2221.676944
243.295698,-3552.988522,-12065.356855,-1378.971896
243.296020,-3701.029710,-12879.583391,-1915.238745
243.296342,-3923.091493,-12583.501014,-2528.115143
243.296664,-3997.112087,-11917.315666,-2528.115143
243.296986,-3552.988522,-10214.842000,-2068.457845
243.297307,-2368.659014,-8808.450710,-1915.238745
243.297629,-148.041188,-7031.956449,-2528.115143
243.297951,1184.329507,-7105.977043,-2145.067394
243.298273,1554.432478,-7402.059420,-1762.019645
243.298595,1628.453072,-7846.182985,-919.314598
243.298917,1850.514855,-8882.471304,-1378.971896
243.299239,3404.947333,-10584.944971,-1762.019645
243.299561,4293.194464,-11621.233289,-1915.238745
243.299883,4663.297435,-11547.212695,-842.705048
243.300205,3775.050304,-10140.821405,766.095498
243.300526,2590.720797,-8734.430116,2068.457845
243.300848,1110.308913,-7179.997637,1915.238745
243.301170,-296.082377,-6217.729913,-1302.362347
243.301492,-1554.432478,-6365.771101,-2834.553343
243.301814,-2812.782580,-7772.162391,-2987.772442
243.302136,-3701.029710,-9252.574275,-2604.724693
243.302458,-3552.988522,-11251.130318,-2298.286494
243.302780,-2812.782580,-12879.583391,-2298.286494
243.303102,-3034.844362,-13767.830521,-2451.505594
243.303424,-3849.070898,-13619.789333,-2298.286494
243.303745,-4071.132681,-11769.274478,-1915.238745
243.304067,-3330.926739,-9474.636058,-2451.505594
243.304389,-296.082377,-8068.244768,-3064.381992
243.304711,1850.514855,-7254.018232,-2757.943793
243.305033,3627.009116,-7105.977043,-1762.019645
243.305355,3849.070898,-7550.100608,-536.266849
243.305677,3627.009116,-8216.285956,766.095498
243.305999,3404.947333,-8290.306550,306.438199
243.306321,3330.926739,-8808.450710,-1378.971896
243.306643,3627.009116,-10658.965565,-2298.286494
243.306964,3478.967927,-11251.130318,-995.924147
243.307286,2516.700203,-10140.821405,919.314598
243.307608,1110.308913,-8438.347739,2528.115143
243.307930,0.000000,-7328.038826,3064.381992
243.308252,-1258.350101,-6069.688724,919.314598
243.308574,-2590.720797,-5255.462188,-2911.162892
243.308896,-4589.276840,-6439.791695,-3677.258390
243.309218,-5625.565159,-8068.244768,-2451.505594
243.309540,-6217.729913,-10288.862594,-2911.162892
243.309862,-5181.441594,-12657.521608,-2911.162892
243.310184,-4663.297435,-13767.830521,-2451.505594
243.310506,-4959.379811,-14285.974681,-2374.896044
243.310828,-5625.565159,-13027.624579,-2298.286494
243.311150,-5033.400406,-10288.862594,-1838.629195
243.311472,-3256.906145,-7328.038826,-2145.067394
243.311793,-518.144159,-6587.832884,-3600.648841
243.312115,888.247130,-7254.018232,-2757.943793
243.312437,1406.391290,-7624.121203,-153.219100
243.312759,1332.370696,-7402.059420,1072.533697
243.313081,2442.679609,-7772.162391,-306.438199
243.313403,4367.215058,-9474.636058,-2221.676944
243.313725,5329.482782,-11473.192101,-3064.381992
243.314047,5033.400406,-11325.150913,-1455.581446
243.314369,4071.132681,-9030.512492,1302.362347
243.314691,2590.720797,-7031.956449,2451.505594
243.315013,1554.432478,-7328.038826,995.924147
243.315335,-518.144159,-7772.162391,-1455.581446
243.315657,-2442.679609,-8216.285956,-3753.867940
243.315979,-4441.235652,-8660.409521,-3600.648841
243.316301,-4663.297435,-9030.512492,-1608.800546
243.316623,-3404.947333,-9918.759623,-2451.505594
243.316945,-2368.659014,-12435.459826,-4826.401637
243.317267,-2368.659014,-14285.974681,-3447.429741
243.317589,-4293.194464,-13619.789333,-1455.581446
243.317911,-5329.482782,-11917.315666,-1378.971896
243.318233,-4145.153275,-10436.903782,-1991.848295
243.318555,-444.123565,-8882.471304,-3370.820191
243.318877,2146.597232,-8142.265362,-4213.525239
243.319199,3923.091493,-8216.285956,-2298.286494
243.319521,5403.503377,-7994.224174,766.095498
243.319843,6069.688724,-7476.080014,766.095498
243.320165,6143.709319,-8142.265362,0.000000
243.320487,5625.565159,-9474.636058,-306.438199
243.320809,4737.318029,-9844.739029,-1149.143247
243.321130,3997.112087,-10214.842000,-1532.190996
243.321452,4367.215058,-10807.006753,-842.705048
243.321774,3849.070898,-9770.718434,919.314598
243.322096,1998.556043,-8882.471304,2451.505594
243.322418,-740.205942,-8068.244768,2757.943793
243.322740,-2442.679609,-6513.812290,153.219100
243.323062,-3849.070898,-5107.421000,-2911.162892
243.323384,-5403.503377,-6143.709319,-4596.572988
243.323706,-6957.935855,-8956.491898,-4290.134789
243.324028,-7179.997637,-11917.315666,-2987.772442
243.324350,-6365.771101,-12731.542202,-1378.971896
243.324672,-5995.668130,-13101.645173,-1302.362347
243.324994,-6143.709319,-13249.686362,-2145.067394
243.325316,-6069.688724,-12139.377449,-2451.505594
243.325638,-5625.565159,-8734.430116,-1991.848295
243.325960,-3330.926739,-6439.791695,-2757.943793
243.326282,-518.144159,-6439.791695,-3447.429741
243.326604,1184.329507,-6587.832884,-1838.629195
243.326926,1480.411884,-6513.812290,-383.047749
243.327248,2072.576638,-7105.977043,612.876398
243.327570,4367.215058,-9770.718434,-459.657299
243.327892,6291.750507,-11917.315666,-2451.505594
243.328214,6439.791695,-13249.686362,-2221.676944
243.328536,4737.318029,-11399.171507,919.314598
243.328858,3256.906145,-8734.430116,2451.505594
243.329180,1332.370696,-7476.080014,2298.286494
243.329502,0.000000,-6291.750507,-306.438199
243.329824,-1924.535449,-5921.647536,-2834.553343
243.330145,-3552.988522,-7031.956449,-3677.258390
243.330467,-5847.626942,-8142.265362,-2145.067394
243.330789,-5847.626942,-8660.409521,-766.095498
243.331111,-4737.318029,-9844.739029,-2757.943793
243.331433,-3627.009116,-13545.768739,-5822.325785
243.331755,-3997.112087,-15840.407159,-4443.353888
243.332077,-6217.729913,-13989.892304,-842.705048
243.332399,-7031.956449,-10807.006753,-536.266849
243.332721,-4515.256246,-9400.615463,-1685.410096
243.333043,518.144159,-7179.997637,-4443.353888
243.333365,4145.153275,-6439.791695,-6281.983084
243.333687,5033.400406,-6809.894666,-3524.039291
243.334009,5625.565159,-9104.533087,1838.629195
243.334331,5625.565159,-8364.327145,3370.820191
243.334653,5921.647536,-8364.327145,689.485948
243.334975,5699.585753,-9474.636058,-1378.971896
243.335297,5995.668130,-10436.903782,-2451.505594
243.335619,5625.565159,-9474.636058,-1991.848295
243.335941,4663.297435,-8882.471304,766.095498
243.336263,3775.050304,-8734.430116,3907.087040
243.336585,2146.597232,-8586.388927,4290.134789
243.336907,-222.061783,-7846.182985,842.705048
243.337229,-2960.823768,-6217.729913,-2528.115143
243.337551,-4219.173869,-6735.874072,-4673.182538
243.337873,-5181.441594,-8364.327145,-5056.230287
243.338195,-5699.585753,-11325.150913,-4290.134789
243.338517,-5921.647536,-13323.706956,-1838.629195
243.338839,-5255.462188,-13767.830521,-842.705048
243.339160,-4811.338623,-14211.954086,-2374.896044
243.339482,-4737.318029,-13397.727550,-3217.601092
243.339804,-5255.462188,-10362.883188,-2451.505594
243.340126,-3849.070898,-7550.100608,-2528.115143
243.340448,-1332.370696,-6809.894666,-2221.676944
243.340770,1036.288319,-7105.977043,-1225.752797
243.341092,2516.700203,-7254.018232,-995.924147
243.341414,2368.659014,-7476.080014,76.609550
243.341736,3034.844362,-8586.388927,995.924147
243.342058,4441.235652,-10362.883188,-689.485948
243.342380,5477.523971,-11399.171507,-2221.676944
243.342702,5847.626942,-10214.842000,-536.266849
243.343024,4737.318029,-7994.224174,0.000000
243.343346,2960.823768,-7105.977043,1762.019645
243.343668,740.205942,-7105.977043,1532.190996
243.343990,-1628.453072,-7179.997637,-536.266849
243.344312,-3256.906145,-8216.285956,-3370.820191
243.344634,-4737.318029,-9992.780217,-2757.943793
243.344956,-5921.647536,-10510.924376,-1762.019645
243.345278,-5847.626942,-9474.636058,-1838.629195
243.345600,-4663.297435,-10066.800811,-3524.039291
243.345922,-3108.864956,-12139.377449,-3983.696590
243.346244,-3627.009116,-13027.624579,-3217.601092
243.346566,-5625.565159,-12065.356855,-1762.019645
243.346888,-5699.585753,-9770.718434,-383.047749
243.347210,-3108.864956,-8216.285956,-1532.190996
243.347532,592.164754,-7772.162391,-3907.087040
243.347854,2960.823768,-7402.059420,-4290.134789
243.348176,3256.906145,-7254.018232,-1455.581446
243.348497,3701.029710,-7550.100608,1455.581446
243.348819,4589.276840,-8364.327145,1455.581446
243.349141,5625.565159,-9770.718434,-1762.019645
243.349463,6291.750507,-11029.068536,-3677.258390
243.349785,5033.400406,-11695.253884,-1915.238745
243.350107,2960.823768,-10658.965565,1072.533697
243.350429,740.205942,-9252.574275,2757.943793
243.350751,-592.164754,-8068.244768,1991.848295
243.351073,-1258.350101,-7105.977043,-536.266849
243.351395,-1998.556043,-6883.915261,-3370.820191
243.351717,-3108.864956,-7105.977043,-3524.039291
243.352039,-4145.153275,-7476.080014,-2451.505594
243.352361,-4219.173869,-8512.368333,-2374.896044
243.352683,-3627.009116,-10658.965565,-3140.991542
243.353005,-3108.864956,-13027.624579,-4136.915689
243.353327,-4515.256246,-14434.015869,-3294.210641
243.353649,-5847.626942,-14285.974681,-1685.410096
243.353971,-5699.585753,-11473.192101,-1378.971896
243.354293,-3108.864956,-8660.409521,-2221.676944
243.354615,148.041188,-6883.915261,-3600.648841
243.354937,2664.741391,-6291.750507,-3907.087040
243.355259,3404.947333,-6883.915261,-2298.286494
243.355581,3182.885551,-7994.224174,766.095498
243.355903,3108.864956,-8586.388927,1838.629195
243.356225,3330.926739,-8808.450710,0.000000
243.356547,4071.132681,-9770.718434,-1838.629195
243.356869,5329.482782,-10881.027347,-2374.896044
243.357191,4959.379811,-9844.739029,-919.314598
243.357512,4071.132681,-7846.182985,919.314598
243.357834,2590.720797,-7846.182985,2987.772442
243.358156,962.267725,-8216.285956,2604.724693
243.358478,-1332.370696,-7254.018232,-1149.143247
243.358800,-3404.947333,-7624.121203,-3830.477490
243.359122,-4737.318029,-8882.471304,-4290.134789
243.359444,-5329.482782,-9622.677246,-3140.991542
243.359766,-5329.482782,-10214.842000,-2604.724693
243.360088,-3627.009116,-12213.398043,-2374.896044
243.360410,-3404.947333,-14804.118840,-2757.943793
243.360732,-4663.297435,-15100.201217,-2451.505594
243.361054,-6069.688724,-12731.542202,-1072.533697
243.361376,-5625.565159,-8586.388927,-919.314598
243.361698,-2146.597232,-6143.709319,-3677.258390
243.362020,2072.576638,-5847.626942,-4443.353888
243.362342,4219.173869,-6661.853478,-3064.381992
243.362664,4589.276840,-8142.265362,-153.219100
243.362986,4589.276840,-9622.677246,2145.067394
243.363308,4737.318029,-10732.986159,2451.505594
243.363630,4663.297435,-9918.759623,0.000000
243.363952,3627.009116,-10214.842000,-2068.457845
243.364274,3182.885551,-10066.800811,-1455.581446
243.364596,2886.803174,-9622.677246,-766.095498
243.364918,2072.576638,-8734.430116,919.314598
243.365240,1406.391290,-7846.182985,2604.724693
243.365562,-296.082377,-7402.059420,2911.162892
243.365884,-2146.597232,-6661.853478,0.000000
243.366206,-3701.029710,-7031.956449,-3140.991542
243.366527,-4959.379811,-8364.327145,-3983.696590
243.366849,-5921.647536,-9992.780217,-2987.772442
243.367171,-6217.729913,-11177.109724,-2068.457845
243.367493,-5625.565159,-11991.336260,-1302.362347
243.367815,-4885.359217,-12287.418637,-2145.067394
243.368137,-4737.318029,-12213.398043,-2757.943793
243.368459,-4885.359217,-11103.089130,-2068.457845
243.368781,-4145.153275,-8290.306550,-1302.362347
243.369103,-2146.597232,-5995.668130,-2221.676944
243.369425,-148.041188,-5847.626942,-3217.601092
243.369747,518.144159,-7105.977043,-2757.943793
243.370069,1184.329507,-7772.162391,-1378.971896
243.370391,1628.453072,-8586.388927,-1149.143247
243.370713,3923.091493,-10658.965565,-842.705048
243.371035,5403.503377,-11917.315666,-1149.143247
243.371357,5995.668130,-11473.192101,-1608.800546
243.371679,5329.482782,-10214.842000,0.000000
243.372001,4367.215058,-8660.409521,1302.362347
243.372323,2516.700203,-6957.935855,1149.143247
243.372645,592.164754,-6809.894666,-1302.362347
243.372967,-1184.329507,-7402.059420,-2528.115143
243.373289,-3478.967927,-8660.409521,-3217.601092
243.373611,-4515.256246,-9474.636058,-3140.991542
243.373933,-3552.988522,-10955.047942,-2757.943793
243.374255,-2220.617826,-12657.521608,-3600.648841
243.374577,-1998.556043,-13101.645173,-3140.991542
243.374899,-2812.782580,-12583.501014,-2221.676944
243.375221,-4885.359217,-11399.171507,-1149.143247
243.375542,-4959.379811,-9104.533087,-1762.019645
243.375864,-3108.864956,-7254.018232,-4213.525239
243.376186,-666.185348,-6809.894666,-4749.792088
243.376508,1924.535449,-8068.244768,-3217.601092
243.376830,3330.926739,-8956.491898,-1072.533697
243.377152,3552.988522,-9030.512492,689.485948
243.377474,4145.153275,-8734.430116,1302.362347
243.377796,4885.359217,-9104.533087,-919.314598
243.378118,4663.297435,-9474.636058,-3140.991542
243.378440,4515.256246,-10362.883188,-2757.943793
243.378762,3627.009116,-10732.986159,-919.314598
243.379084,2368.659014,-9844.739029,1225.752797
243.379406,1554.432478,-8808.450710,3753.867940
243.379728,518.144159,-7254.018232,2221.676944
243.380050,0.000000,-6513.812290,-1455.581446
243.380372,-1924.535449,-7105.977043,-3217.601092
243.380694,-4071.132681,-8142.265362,-2604.724693
243.381016,-4515.256246,-9104.533087,-2451.505594
243.381338,-3923.091493,-11177.109724,-2221.676944
243.381660,-3330.926739,-12435.459826,-1455.581446
243.381982,-3478.967927,-13027.624579,-1915.238745
243.382304,-4515.256246,-13397.727550,-2451.505594
243.382626,-5403.503377,-11917.315666,-1072.533697
243.382948,-4441.235652,-9178.553681,-995.924147
243.383270,-2516.700203,-6439.791695,-2451.505594
243.383592,-592.164754,-6587.832884,-3447.429741
243.383914,148.041188,-7402.059420,-1762.019645
243.384236,222.061783,-6587.832884,-919.314598
243.384558,814.226536,-7105.977043,-766.095498
243.384879,3256.906145,-10436.903782,-1378.971896
243.385201,4589.276840,-12583.501014,-2451.505594
243.385523,4441.235652,-12731.542202,-2068.457845
243.385845,3108.864956,-10436.903782,766.095498
243.386167,2368.659014,-8586.388927,2681.334243
243.386489,1036.288319,-7402.059420,1608.800546
243.386811,0.000000,-6217.729913,-1302.362347
243.387133,-1776.494261,-6883.915261,-3217.601092
243.387455,-2738.761985,-8068.244768,-2911.162892
243.387777,-3478.967927,-9104.533087,-1991.848295
243.388099,-2960.823768,-8660.409521,-2145.067394
243.388421,-1702.473667,-11029.068536,-2834.553343
243.388743,-962.267725,-14211.954086,-3064.381992
243.389065,-2738.761985,-14952.160028,-2221.676944
243.389387,-4737.318029,-13027.624579,-842.705048
243.389709,-4737.318029,-9770.718434,-306.438199
243.390031,-2368.659014,-7476.080014,-2757.943793
243.390353,1110.308913,-6217.729913,-4903.011187
243.390675,3330.926739,-5995.668130,-4136.915689
243.390997,3701.029710,-6883.915261,-1302.362347
243.391319,3627.009116,-7772.162391,1225.752797
243.391641,2664.741391,-8586.388927,1455.581446
243.391963,2812.782580,-9030.512492,-995.924147
243.392285,2812.782580,-10436.903782,-3983.696590
243.392607,2664.741391,-11843.295072,-3830.477490
243.392929,2294.638420,-10955.047942,-536.266849
243.393251,888.247130,-8216.285956,1838.629195
243.393573,0.000000,-7476.080014,2681.334243
243.393894,-296.082377,-7772.162391,1302.362347
243.394216,-1332.370696,-7402.059420,-2298.286494
243.394538,-3182.885551,-6957.935855,-4366.744339
243.394860,-3997.112087,-7994.224174,-2757.943793
243.395182,-4219.173869,-9400.615463,-2221.676944
243.395504,-3478.967927,-10955.047942,-2528.115143
243.395826,-2812.782580,-12287.418637,-2451.505594
243.396148,-2368.659014,-13323.706956,-2298.286494
243.396470,-3552.988522,-13397.727550,-2528.115143
243.396792,-4293.194464,-11399.171507,-1532.190996
243.397114,-3108.864956,-8734.430116,-1302.362347
243.397436,-518.144159,-6587.832884,-2681.334243
243.397758,1332.370696,-7179.997637,-3524.039291
243.398080,1554.432478,-7328.038826,-1608.800546
243.398402,740.205942,-5847.626942,383.047749
243.398724,1628.453072,-6513.812290,-536.266849
243.399046,3108.864956,-9844.739029,-2604.724693
243.399368,3775.050304,-12731.542202,-3370.820191
243.399690,2664.741391,-12953.603985,-1225.752797
243.400012,1036.288319,-10881.027347,919.314598
243.400334,-148.041188,-8956.491898,2221.676944
243.400656,-518.144159,-7550.100608,1149.143247
243.400978,-1702.473667,-6291.750507,-1378.971896
243.401300,-2738.761985,-7254.018232,-3064.381992
243.401622,-3701.029710,-8068.244768,-2374.896044
243.401944,-3256.906145,-8734.430116,-766.095498
243.402266,-2886.803174,-8882.471304,-2068.457845
243.402588,-1850.514855,-11251.130318,-3677.258390
243.402909,-1480.411884,-14285.974681,-3677.258390
243.403231,-2738.761985,-15100.201217,-2451.505594
243.403553,-3849.070898,-13989.892304,-383.047749
243.403875,-3849.070898,-10955.047942,0.000000
243.404197,-1184.329507,-8734.430116,-1532.190996
243.404519,1332.370696,-7476.080014,-3524.039291
243.404841,3775.050304,-6365.771101,-3140.991542
243.405163,4959.379811,-6143.709319,-1532.190996
243.405485,4663.297435,-7402.059420,1072.533697
243.405807,3330.926739,-7772.162391,2604.724693
243.406129,2368.659014,-7550.100608,1072.533697
243.406451,2146.597232,-9030.512492,-2528.115143
243.406773,2590.720797,-11547.212695,-3600.648841
243.407095,2294.638420,-11695.253884,-1991.848295
243.407417,0.000000,-9178.553681,1302.362347
243.407739,-1110.308913,-8882.471304,3907.087040
243.408061,-1332.370696,-8586.388927,2834.553343
243.408383,-2072.576638,-7031.956449,-1225.752797
243.408705,-3108.864956,-5921.647536,-4060.306139
243.409027,-3775.050304,-6439.791695,-3370.820191
243.409349,-4293.194464,-8364.327145,-2451.505594
243.409671,-4145.153275,-9992.780217,-2451.505594
243.409992,-3404.947333,-11991.336260,-1915.238745
243.410314,-2516.700203,-14063.912898,-1762.019645
243.410636,-1702.473667,-14434.015869,-3064.381992
243.410958,-3256.906145,-13397.727550,-2374.896044
243.411280,-3256.906145,-10288.862594,-919.314598
243.411602,-1776.494261,-7402.059420,-689.485948
243.411924,222.061783,-6217.729913,-2451.505594
243.412246,1554.432478,-6439.791695,-3064.381992
243.412568,2146.597232,-7402.059420,-1685.410096
243.412889,1554.432478,-7846.182985,0.000000
243.413211,1998.556043,-9030.512492,0.000000
243.413533,3256.906145,-11103.089130,-995.924147
243.413855,4293.194464,-11177.109724,-2221.676944
243.414177,4737.318029,-9918.759623,-2298.286494
243.414499,3849.070898,-8364.327145,-1532.190996
243.414821,1998.556043,-7994.224174,229.828649
243.415143,-444.123565,-7920.203579,995.924147
243.415465,-2368.659014,-8142.265362,-612.876398
243.415786,-2738.761985,-9030.512492,-3370.820191
243.416108,-3627.009116,-9400.615463,-4060.306139
243.416430,-4663.297435,-9622.677246,-3830.477490
243.416752,-4589.276840,-9622.677246,-2757.943793
243.417074,-3627.009116,-10214.842000,-2451.505594
243.417396,-2442.679609,-11917.315666,-2528.115143
243.417718,-1258.350101,-12805.562797,-2987.772442
243.418040,-2516.700203,-12435.459826,-2451.505594
243.418362,-2960.823768,-10658.965565,-612.876398
243.418683,-1554.432478,-8290.306550,0.000000
243.419005,1110.308913,-6809.894666,-1608.800546
243.419327,3552.988522,-6809.894666,-2451.505594
243.419649,4515.256246,-7550.100608,-2374.896044
243.419971,4293.194464,-8734.430116,-612.876398
243.420293,4219.173869,-9474.636058,536.266849
243.420615,4737.318029,-10658.965565,-383.047749
243.420937,5329.482782,-11251.130318,-1225.752797
243.421259,4663.297435,-11177.109724,-1455.581446
243.421580,2516.700203,-10066.800811,-612.876398
243.421902,74.020594,-9030.512492,995.924147
243.422224,-1554.432478,-8216.285956,1838.629195
243.422546,-2664.741391,-7105.977043,459.657299
243.422868,-3775.050304,-6217.729913,-1532.190996
243.423190,-4515.256246,-7698.141797,-2374.896044
243.423512,-5033.400406,-8586.388927,-2068.457845
243.423834,-4885.359217,-9400.615463,-2298.286494
243.424156,-4441.235652,-9918.759623,-2145.067394
243.424477,-3923.091493,-10807.006753,-2221.676944
243.424799,-4071.132681,-12731.542202,-1991.848295
243.425121,-4663.297435,-12435.459826,-1685.410096
243.425443,-4367.215058,-10288.862594,-1378.971896
243.425765,-2738.761985,-8512.368333,-1685.410096
243.426087,-814.226536,-7254.018232,-1685.410096
243.426409,888.247130,-6809.894666,-1455.581446
243.426731,1554.432478,-6735.874072,-995.924147
243.427053,2294.638420,-7105.977043,-995.924147
243.427374,3627.009116,-8438.347739,-1225.752797
243.427696,4367.215058,-9844.739029,-1455.581446
243.428018,4219.173869,-11621.233289,-1685.410096
243.428340,4441.235652,-11547.212695,-842.705048
243.428662,3330.926739,-10140.821405,153.219100
243.428984,2516.700203,-9178.553681,689.485948
243.429306,888.247130,-8586.388927,76.609550
243.429628,-666.185348,-7698.141797,-919.314598
243.429950,-2072.576638,-7402.059420,-2221.676944
243.430271,-2812.782580,-7550.100608,-2834.553343
243.430593,-3552.988522,-8586.388927,-2911.162892
243.430915,-3923.091493,-9770.718434,-2911.162892
243.431237,-4663.297435,-11325.150913,-3447.429741
243.431559,-3849.070898,-13841.851115,-3140.991542
243.431881,-3775.050304,-14582.057057,-2757.943793
243.432203,-4145.153275,-13397.727550,-1762.019645
243.432525,-3775.050304,-10510.924376,-1685.410096
243.432847,-2220.617826,-8364.327145,-1838.629195
243.433168,740.205942,-6661.853478,-3064.381992
243.433490,3108.864956,-5921.647536,-3370.820191
243.433812,4071.132681,-6809.894666,-2221.676944
243.434134,3552.988522,-7846.182985,536.266849
243.434456,2960.823768,-8290.306550,1378.971896
243.434778,3923.091493,-9622.677246,-919.314598
243.435100,5033.400406,-11843.295072,-3524.039291
243.435422,4737.318029,-12509.480420,-2528.115143
243.435744,2960.823768,-10288.862594,0.000000
243.436065,1036.288319,-8734.430116,2145.067394
243.436387,148.041188,-7994.224174,2834.553343
243.436709,-666.185348,-7179.997637,153.219100
243.437031,-2368.659014,-6661.853478,-2681.334243
243.437353,-3923.091493,-7105.977043,-2451.505594
243.437675,-5033.400406,-7772.162391,-1455.581446
243.437997,-5477.523971,-8364.327145,-1762.019645
243.438319,-5255.462188,-8808.450710,-1915.238745
243.438641,-4589.276840,-11473.192101,-2528.115143
243.438962,-4367.215058,-13545.768739,-2987.772442
243.439284,-4737.318029,-13323.706956,-2834.553343
243.439606,-4737.318029,-11843.295072,-1685.410096
243.439928,-3478.967927,-9474.636058,-689.485948
243.440250,-740.205942,-7550.100608,-995.924147
243.440572,444.123565,-6365.771101,-1991.848295
243.440894,1332.370696,-5551.544565,-2451.505594
243.441216,2368.659014,-6365.771101,-919.314598
243.441538,3256.906145,-8364.327145,-1225.752797
243.441859,4145.153275,-10214.842000,-1991.848295
243.442181,4737.318029,-11769.274478,-842.705048
243.442503,4737.318029,-11621.233289,153.219100
243.442825,3775.050304,-10584.944971,0.000000
243.443147,2146.597232,-8512.368333,536.266849
243.443469,814.226536,-7624.121203,383.047749
243.443791,-444.123565,-8290.306550,-689.485948
243.444113,-1702.473667,-8734.430116,-1532.190996
243.444435,-2294.638420,-8142.265362,-1685.410096
243.444756,-2590.720797,-7402.059420,-2221.676944
243.445078,-3034.844362,-8216.285956,-2451.505594
243.445400,-3627.009116,-10584.944971,-3600.648841
243.445722,-4071.132681,-13767.830521,-4290.134789
243.446044,-4293.194464,-15470.304188,-3524.039291
243.446366,-4737.318029,-14952.160028,-2221.676944
243.446688,-4367.215058,-12879.583391,-1149.143247
243.447010,-2368.659014,-9474.636058,-919.314598
243.447332,0.000000,-6809.894666,-1915.238745
243.447653,2072.576638,-4515.256246,-2911.162892
243.447975,3997.112087,-5181.441594,-2221.676944
243.448297,3775.050304,-7994.224174,-766.095498
243.448619,2072.576638,-9770.718434,459.657299
243.448941,1110.308913,-9474.636058,1915.238745
243.449263,2590.720797,-9474.636058,306.438199
243.449585,3997.112087,-10807.006753,-2757.943793
243.449907,3997.112087,-11029.068536,-2834.553343
243.450229,2886.803174,-9696.697840,76.609550
243.450550,1332.370696,-9178.553681,2834.553343
243.450872,148.041188,-8956.491898,2528.115143
243.451194,-222.061783,-7698.141797,459.657299
243.451516,-1776.494261,-5995.668130,-2834.553343
243.451838,-3404.947333,-6883.915261,-4136.915689
243.452160,-4737.318029,-8586.388927,-2604.724693
243.452482,-5107.421000,-9326.594869,-1225.752797
243.452804,-4293.194464,-9622.677246,-1915.238745
243.453126,-2590.720797,-11251.130318,-2987.772442
243.453447,-1924.535449,-13175.665768,-3217.601092
243.453769,-2960.823768,-13027.624579,-2757.943793
243.454091,-4959.379811,-11029.068536,-842.705048
243.454413,-4219.173869,-7624.121203,153.219100
243.454735,-1850.514855,-6069.688724,-2221.676944
243.455057,0.000000,-6587.832884,-4213.525239
243.455379,1406.391290,-7550.100608,-3370.820191
243.455701,2146.597232,-8290.306550,-1915.238745
243.456023,3256.906145,-10214.842000,-383.047749
243.456344,4367.215058,-11621.233289,1608.800546
243.456666,4959.379811,-10214.842000,1685.410096
243.456988,5181.441594,-8216.285956,-1532.190996
243.457310,5477.523971,-8290.306550,-2681.334243
243.457632,4959.379811,-8956.491898,-2298.286494
243.457954,3182.885551,-9178.553681,-919.314598
243.458276,1036.288319,-9030.512492,689.485948
243.458598,-518.144159,-9326.594869,1378.971896
243.458920,-1184.329507,-9178.553681,-1149.143247
243.459241,-2072.576638,-8438.347739,-4749.792088
243.459563,-2812.782580,-9844.739029,-5515.887586
243.459885,-3330.926739,-11621.233289,-2911.162892
243.460207,-3775.050304,-11843.295072,-1762.019645
243.460529,-3701.029710,-11251.130318,-1532.190996
243.460851,-2886.803174,-11843.295072,-1915.238745
243.461173,-3256.906145,-11843.295072,-2757.943793
243.461495,-3552.988522,-10288.862594,-2604.724693
243.461817,-2368.659014,-7402.059420,-1149.143247
243.462138,-222.061783,-6291.750507,-1378.971896
243.462460,2220.617826,-7476.080014,-1915.238745
243.462782,2368.659014,-8438.347739,-1608.800546
243.463104,1998.556043,-9104.533087,-1608.800546
243.463426,2146.597232,-10066.800811,-612.876398
243.463748,3404.947333,-11103.089130,0.000000
243.464070,4367.215058,-12065.356855,-1302.362347
243.464392,4737.318029,-11621.233289,-1991.848295
243.464714,3627.009116,-10362.883188,306.438199
243.465035,1850.514855,-8808.450710,995.924147
243.465357,-222.061783,-7179.997637,1072.533697
243.465679,-1850.514855,-5847.626942,-536.266849
243.466001,-3256.906145,-6957.935855,-2528.115143
243.466323,-5107.421000,-8956.491898,-2374.896044
243.466645,-6513.812290,-10955.047942,-1072.533697
243.466967,-6587.832884,-11029.068536,-229.828649
243.467289,-4959.379811,-9844.739029,-1378.971896
243.467610,-3775.050304,-9548.656652,-1838.629195
243.467932,-3997.112087,-10362.883188,-2528.115143
243.468254,-5847.626942,-9474.636058,-1455.581446
243.468576,-5847.626942,-7846.182985,-1072.533697
243.468898,-3775.050304,-7105.977043,-1915.238745
243.469220,-1406.391290,-7402.059420,-2221.676944
243.469542,148.041188,-7624.121203,-1685.410096
243.469864,740.205942,-7994.224174,-1608.800546
243.470186,1998.556043,-8956.491898,-1915.238745
243.470507,3478.967927,-10288.862594,-1762.019645
243.470829,4071.132681,-11177.109724,-1302.362347
243.471151,3552.988522,-10362.883188,-842.705048
243.471473,3182.885551,-10066.800811,-689.485948
243.471795,2072.576638,-9178.553681,-229.828649
243.472117,1110.308913,-8882.471304,0.000000
243.472439,296.082377,-7846.182985,-612.876398
243.472761,0.000000,-7402.059420,-1685.410096
243.473083,0.000000,-7994.224174,-2145.067394
243.473404,-1036.288319,-8660.409521,-1991.848295
243.473726,-1776.494261,-9474.636058,-1991.848295
243.474048,-1924.535449,-10807.006753,-3217.601092
243.474370,-2072.576638,-13767.830521,-3830.477490
243.474692,-2442.679609,-14359.995275,-2451.505594
243.475014,-2738.761985,-12435.459826,-995.924147
243.475336,-1924.535449,-11029.068536,-1991.848295
243.475658,222.061783,-10140.821405,-2681.334243
243.475980,2738.761985,-8438.347739,-2528.115143
243.476301,3775.050304,-6957.935855,-2451.505594
243.476623,4515.256246,-6883.915261,-1302.362347
243.476945,3552.988522,-8068.244768,306.438199
243.477267,2886.803174,-8364.327145,153.219100
243.477589,2738.761985,-7698.141797,-612.876398
243.477911,3182.885551,-9474.636058,-1838.629195
243.478233,3404.947333,-11769.274478,-2374.896044
243.478555,2516.700203,-10658.965565,0.000000
243.478877,1110.308913,-9326.594869,1455.581446
243.479198,0.000000,-9178.553681,1991.848295
243.479520,-296.082377,-8586.388927,1072.533697
243.479842,-1332.370696,-6513.812290,-1685.410096
243.480164,-1998.556043,-6069.688724,-3524.039291
243.480486,-3256.906145,-8216.285956,-2757.943793
243.480808,-4663.297435,-9844.739029,-1378.971896
243.481130,-5477.523971,-9844.739029,-2145.067394
243.481452,-4219.173869,-10955.047942,-2757.943793
243.481774,-2812.782580,-13101.645173,-3830.477490
243.482095,-3330.926739,-14063.912898,-2374.896044
243.482417,-4589.276840,-11843.295072,-612.876398
243.482739,-4293.194464,-8808.450710,153.219100
243.483061,-1332.370696,-7179.997637,-1378.971896
243.483383,1554.432478,-7105.977043,-2374.896044
243.483705,1036.288319,-6365.771101,-2374.896044
243.484027,962.267725,-6291.750507,-306.438199
243.484349,2072.576638,-7254.018232,919.314598
243.484671,3256.906145,-9770.718434,-995.924147
243.484992,3849.070898,-11177.109724,-2221.676944
243.485314,3256.906145,-11325.150913,-1302.362347
243.485636,1628.453072,-9474.636058,-995.924147
243.485958,962.267725,-9548.656652,-306.438199
243.486280,0.000000,-8660.409521,0.000000
243.486602,-444.123565,-7846.182985,-766.095498
243.486924,-1258.350101,-8142.265362,-995.924147
243.487246,-2220.617826,-8660.409521,-919.314598
243.487568,-3034.844362,-7920.203579,-1072.533697
243.487889,-3034.844362,-7846.182985,-3217.601092
243.488211,-3330.926739,-10066.800811,-4290.134789
243.488533,-4441.235652,-11103.089130,-3140.991542
243.488855,-4737.318029,-12139.377449,-3447.429741
243.489177,-4737.318029,-14211.954086,-3830.477490
243.489499,-2664.741391,-14434.015869,-2834.553343
243.489821,-1850.514855,-11621.233289,-1225.752797
243.490143,-740.205942,-8438.347739,-1149.143247
243.490465,1850.514855,-6291.750507,-995.924147
243.490786,4885.359217,-5107.421000,-2451.505594
243.491108,6069.688724,-5551.544565,-3907.087040
243.491430,4811.338623,-8438.347739,-1608.800546
243.491752,3552.988522,-9770.718434,2451.505594
243.492074,3627.009116,-10214.842000,1378.971896
243.492396,4663.297435,-11473.192101,-1838.629195
243.492718,4663.297435,-12139.377449,-1915.238745
243.493040,2590.720797,-11103.089130,-229.828649
243.493362,-444.123565,-8660.409521,1149.143247
243.493683,-1924.535449,-7550.100608,1838.629195
243.494005,-1184.329507,-6661.853478,306.438199
243.494327,-1480.411884,-5995.668130,-2987.772442
243.494649,-3256.906145,-7550.100608,-4519.963438
243.494971,-5255.462188,-9770.718434,-2374.896044
243.495293,-6513.812290,-9770.718434,-766.095498
243.495615,-5551.544565,-9474.636058,-2221.676944
243.495937,-3923.091493,-11843.295072,-4213.525239
243.496259,-3182.885551,-13915.871710,-3983.696590
243.496580,-4293.194464,-13619.789333,-2451.505594
243.496902,-4515.256246,-11029.068536,-459.657299
243.497224,-2220.617826,-7772.162391,459.657299
243.497546,1036.288319,-6439.791695,-2145.067394
243.497868,2960.823768,-5773.606348,-3753.867940
243.498190,3182.885551,-6069.688724,-2528.115143
243.498512,2886.803174,-6883.915261,383.047749
243.498834,3849.070898,-8068.244768,995.924147
243.499156,5255.462188,-9548.656652,-229.828649
243.499477,5329.482782,-11399.171507,-1378.971896
243.499799,4589.276840,-11547.212695,-1455.581446
243.500121,2812.782580,-10510.924376,0.000000
243.500443,1036.288319,-9252.574275,766.095498
243.500765,0.000000,-8660.409521,459.657299
243.501087,-1184.329507,-7105.977043,0.000000
243.501409,-1924.535449,-8364.327145,-2374.896044
243.501731,-2960.823768,-9252.574275,-2451.505594
243.502053,-3627.009116,-9400.615463,-2298.286494
243.502374,-3997.112087,-9918.759623,-2757.943793
243.502696,-4071.132681,-10066.800811,-3064.381992
243.503018,-3997.112087,-11399.171507,-2834.553343
243.503340,-4737.318029,-12953.603985,-3677.258390
243.503662,-4589.276840,-13471.748144,-3370.820191
243.503984,-4293.194464,-11695.253884,-1991.848295
243.504306,-2886.803174,-9696.697840,-1302.362347
243.504628,-592.164754,-7698.141797,-1378.971896
243.504950,2072.576638,-7105.977043,-1762.019645
243.505271,3627.009116,-6291.750507,-2298.286494
243.505593,3997.112087,-7105.977043,-1072.533697
243.505915,3478.967927,-8660.409521,995.924147
243.506237,3627.009116,-9326.594869,0.000000
243.506559,3330.926739,-10658.965565,-1838.629195
243.506881,3330.926739,-11325.150913,-1225.752797
243.507203,2368.659014,-10807.006753,-459.657299
243.507525,962.267725,-9622.677246,459.657299
243.507847,-444.123565,-8438.347739,1915.238745
243.508168,-1406.391290,-7179.997637,1455.581446
243.508490,-1776.494261,-6957.935855,-1072.533697
243.508812,-2738.761985,-6957.935855,-2221.676944
243.509134,-3923.091493,-7698.141797,-1762.019645
243.509456,-5033.400406,-8068.244768,-1608.800546
243.509778,-4737.318029,-9844.739029,-2451.505594
243.510100,-4885.359217,-11769.274478,-2298.286494
243.510422,-5403.503377,-12657.521608,-1915.238745
243.510744,-6069.688724,-12509.480420,-2145.067394
243.511065,-5329.482782,-11399.171507,-2451.505594
243.511387,-3627.009116,-9918.759623,-2298.286494
243.511709,-1554.432478,-7772.162391,-1608.800546
243.512031,0.000000,-6365.771101,-1225.752797
243.512353,1258.350101,-6069.688724,-1072.533697
243.512675,2220.617826,-6735.874072,-1072.533697
243.512997,2886.803174,-7254.018232,-1455.581446
243.513319,3775.050304,-9178.553681,-2145.067394
243.513641,4737.318029,-11621.233289,-1455.581446
243.513963,5699.585753,-11769.274478,-612.876398
243.514285,5625.565159,-10288.862594,-153.219100
243.514607,4737.318029,-9178.553681,536.266849
243.514929,3108.864956,-8882.471304,1838.629195
243.515251,962.267725,-8068.244768,-229.828649
243.515573,-814.226536,-7772.162391,-2221.676944
243.515894,-1110.308913,-8290.306550,-3140.991542
243.516216,-1702.473667,-8882.471304,-2987.772442
243.516538,-2590.720797,-9474.636058,-2757.943793
243.516860,-2516.700203,-10362.883188,-2528.115143
243.517182,-2812.782580,-12213.398043,-3140.991542
243.517504,-2960.823768,-13767.830521,-3524.039291
243.517826,-3627.009116,-13471.748144,-2604.724693
243.518148,-4071.132681,-11399.171507,-1762.019645
243.518470,-2368.659014,-9622.677246,-2145.067394
243.518792,814.226536,-7920.203579,-2451.505594
243.519114,3182.885551,-7179.997637,-2451.505594
243.519436,4293.194464,-6883.915261,-1685.410096
243.519758,3775.050304,-7772.162391,76.609550
243.520080,3256.906145,-8734.430116,766.095498
243.520402,3330.926739,-8734.430116,-612.876398
243.520724,3923.091493,-10510.924376,-2451.505594
243.521046,3404.947333,-11325.150913,-2221.676944
243.521368,2442.679609,-10362.883188,-306.438199
243.521690,74.020594,-8808.450710,1532.190996
243.522012,-740.205942,-8734.430116,1685.410096
243.522333,-1406.391290,-8216.285956,459.657299
243.522655,-2146.597232,-7179.997637,-1532.190996
243.522977,-2812.782580,-7105.977043,-2451.505594
243.523299,-3108.864956,-8068.244768,-1532.190996
243.523621,-3997.112087,-8364.327145,-1302.362347
243.523943,-4737.318029,-9326.594869,-2298.286494
243.524265,-4885.359217,-9844.739029,-2528.115143
243.524587,-5033.400406,-11991.336260,-3064.381992
243.524909,-5773.606348,-13915.871710,-3600.648841
243.525231,-6217.729913,-13397.727550,-2451.505594
243.525553,-5403.503377,-11399.171507,-995.924147
243.525875,-3034.844362,-8364.327145,0.000000
243.526197,-592.164754,-6661.853478,-1149.143247
