#time,accel_x,accel_y,accel_z
538.114483,-370.102971,-9252.574275,-1685.410096
538.114805,-370.102971,-9252.574275,-1532.190996
538.115127,-296.082377,-9474.636058,-1378.971896
538.115449,-444.123565,-8586.388927,-1762.019645
538.115772,148.041188,-9474.636058,-2145.067394
538.116094,-296.082377,-9252.574275,-1762.019645
538.116416,-370.102971,-9104.533087,-1608.800546
538.116739,-222.061783,-9400.615463,-1838.629195
538.117061,-666.185348,-9030.512492,-1915.238745
538.117383,-370.102971,-9400.615463,-1608.800546
538.117706,-444.123565,-9400.615463,-1532.190996
538.118028,-518.144159,-9548.656652,-1915.238745
538.118350,-370.102971,-9474.636058,-1838.629195
538.118673,-296.082377,-9474.636058,-2068.457845
538.118995,-370.102971,-9104.533087,-1762.019645
538.119317,-592.164754,-9400.615463,-1915.238745
538.119640,-518.144159,-9474.636058,-2068.457845
538.119962,-518.144159,-9622.677246,-1608.800546
538.120284,-444.123565,-9474.636058,-1762.019645
538.120606,-296.082377,-9326.594869,-1608.800546
538.120929,0.000000,-9400.615463,-2451.505594
538.121251,-370.102971,-9548.656652,-1762.019645
538.121573,-592.164754,-9548.656652,-1915.238745
538.121896,-518.144159,-9548.656652,-1532.190996
538.122218,-518.144159,-9696.697840,-1608.800546
538.122540,-222.061783,-9400.615463,-1991.848295
538.122863,-296.082377,-9622.677246,-1685.410096
538.123185,-370.102971,-9548.656652,-1608.800546
538.123507,-444.123565,-9400.615463,-1455.581446
538.123830,-222.061783,-9400.615463,-1225.752797
538.124152,0.000000,-9326.594869,-1225.752797
538.124474,-222.061783,-9548.656652,-1685.410096
538.124797,-518.144159,-9548.656652,-1225.752797
538.125119,-518.144159,-9474.636058,-1302.362347
538.125441,-518.144159,-9326.594869,-1225.752797
538.125763,0.000000,-8734.430116,-1072.533697
538.126086,-592.164754,-8882.471304,-1149.143247
538.126408,-222.061783,-9030.512492,-1302.362347
538.126730,-370.102971,-9474.636058,-1149.143247
538.127053,-592.164754,-9400.615463,-1225.752797
538.127375,-592.164754,-9252.574275,-1225.752797
538.127697,-296.082377,-9030.512492,-1225.752797
538.128020,-296.082377,-9252.574275,-1378.971896
538.128342,-296.082377,-9030.512492,-1302.362347
538.128664,-370.102971,-9030.512492,-1149.143247
538.128987,-296.082377,-9326.594869,-1378.971896
538.129309,-444.123565,-9104.533087,-1762.019645
538.129631,-370.102971,-8956.491898,-1685.410096
538.129954,-592.164754,-9400.615463,-1455.581446
538.130276,-592.164754,-9474.636058,-1378.971896
538.130598,-444.123565,-9326.594869,-1378.971896
538.130920,-518.144159,-9030.512492,-1608.800546
538.131243,-296.082377,-8734.430116,-1072.533697
538.131565,-222.061783,-9326.594869,-1302.362347
538.131887,-222.061783,-9326.594869,-1455.581446
538.132210,-518.144159,-9400.615463,-1685.410096
538.132532,-444.123565,-9474.636058,-1991.848295
538.132854,-518.144159,-9770.718434,-1915.238745
538.133177,-148.041188,-9474.636058,-1532.190996
538.133499,-370.102971,-9474.636058,-1915.238745
538.133821,-296.082377,-9326.594869,-1915.238745
538.134144,-222.061783,-9474.636058,-2221.676944
538.134466,-518.144159,-9400.615463,-2451.505594
538.134788,-370.102971,-9622.677246,-1532.190996
538.135111,-592.164754,-9622.677246,-1762.019645
538.135433,-518.144159,-9622.677246,-1838.629195
538.135755,-592.164754,-9548.656652,-1762.019645
538.136077,-518.144159,-9400.615463,-1915.238745
538.136400,-370.102971,-8882.471304,-1608.800546
538.136722,-222.061783,-9178.553681,-2298.286494
538.137044,-518.144159,-9326.594869,-1762.019645
538.137367,-518.144159,-9474.636058,-1762.019645
538.137689,-592.164754,-9400.615463,-1608.800546
538.138011,-814.226536,-9104.533087,-1838.629195
538.138334,370.102971,-9696.697840,-2374.896044
538.138656,1406.391290,-9844.739029,-2221.676944
538.138978,2516.700203,-9992.780217,-1991.848295
538.139301,2664.741391,-9178.553681,-689.485948
538.139623,2294.638420,-8216.285956,0.000000
538.139945,1110.308913,-8216.285956,-995.924147
538.140268,-444.123565,-8734.430116,-2451.505594
538.140590,-1924.535449,-9548.656652,-2528.115143
538.140912,-3552.988522,-9844.739029,-1991.848295
538.141234,-4145.153275,-9844.739029,-2374.896044
538.141557,-2442.679609,-9326.594869,-2757.943793
538.141879,0.000000,-9992.780217,-2374.896044
538.142201,2590.720797,-11251.130318,-1685.410096
538.142524,3256.906145,-10510.924376,0.000000
538.142846,2590.720797,-8882.471304,612.876398
538.143168,1924.535449,-8734.430116,-306.438199
538.143491,2590.720797,-9252.574275,-2298.286494
538.143813,2368.659014,-9918.759623,-2221.676944
538.144135,888.247130,-8882.471304,-919.314598
538.144458,-296.082377,-7402.059420,153.219100
538.144780,740.205942,-7476.080014,-689.485948
538.145102,1850.514855,-8808.450710,-2221.676944
538.145425,1628.453072,-10140.821405,-1762.019645
538.145747,-370.102971,-9696.697840,153.219100
538.146069,-1628.453072,-9326.594869,-1149.143247
538.146391,-444.123565,-9400.615463,-3370.820191
538.146714,518.144159,-9548.656652,-2757.943793
538.147036,296.082377,-10584.944971,-1225.752797
538.147358,1036.288319,-10807.006753,-842.705048
538.147681,2072.576638,-9326.594869,-1762.019645
538.148003,3701.029710,-9770.718434,-1685.410096
538.148325,4737.318029,-11695.253884,-612.876398
538.148648,3997.112087,-11029.068536,0.000000
538.148970,2442.679609,-9178.553681,-1225.752797
538.149292,2146.597232,-7550.100608,-919.314598
538.149615,2368.659014,-8216.285956,-842.705048
538.149937,2368.659014,-8142.265362,-1455.581446
538.150259,1850.514855,-7105.977043,-383.047749
538.150582,1332.370696,-7846.182985,-612.876398
538.150904,2368.659014,-9844.739029,-459.657299
538.151226,2886.803174,-10807.006753,-766.095498
538.151548,2368.659014,-9474.636058,-1532.190996
538.151871,1924.535449,-9178.553681,-1225.752797
538.152193,2960.823768,-9770.718434,-1225.752797
538.152515,2960.823768,-9400.615463,-1838.629195
538.152838,2960.823768,-8808.450710,-2451.505594
538.153160,2590.720797,-9252.574275,-1991.848295
538.153482,3108.864956,-9474.636058,-842.705048
538.153805,3775.050304,-9548.656652,-995.924147
538.154127,2886.803174,-9474.636058,-1838.629195
538.154449,2220.617826,-9326.594869,-1378.971896
538.154772,1776.494261,-8808.450710,-842.705048
538.155094,1110.308913,-7476.080014,-995.924147
538.155416,740.205942,-8068.244768,-2528.115143
538.155739,-148.041188,-8290.306550,-2068.457845
538.156061,-222.061783,-9696.697840,-1378.971896
538.156383,0.000000,-10584.944971,-766.095498
538.156705,0.000000,-11399.171507,-1455.581446
538.157028,740.205942,-11843.295072,-1302.362347
538.157350,1258.350101,-11769.274478,-536.266849
538.157672,1628.453072,-10732.986159,-689.485948
538.157995,1776.494261,-9474.636058,-1532.190996
538.158317,1850.514855,-8438.347739,-1685.410096
538.158639,1628.453072,-7550.100608,-1532.190996
538.158962,1406.391290,-7920.203579,-1455.581446
538.159284,1406.391290,-8438.347739,-1991.848295
538.159606,1258.350101,-8882.471304,-2068.457845
538.159929,1184.329507,-9104.533087,-1532.190996
538.160251,1184.329507,-8808.450710,-1455.581446
538.160573,1258.350101,-7994.224174,-1915.238745
538.160896,1776.494261,-8290.306550,-2987.772442
538.161218,1554.432478,-9030.512492,-2451.505594
538.161540,1406.391290,-9770.718434,-2145.067394
538.161862,962.267725,-10214.842000,-2145.067394
538.162185,888.247130,-11251.130318,-2604.724693
538.162507,814.226536,-12139.377449,-2068.457845
538.162829,888.247130,-12361.439231,-1302.362347
538.163152,962.267725,-11547.212695,-766.095498
538.163474,1258.350101,-10436.903782,-766.095498
538.163796,1628.453072,-9252.574275,-612.876398
538.164119,2368.659014,-8586.388927,-689.485948
538.164441,2368.659014,-7846.182985,-459.657299
538.164763,2738.761985,-7624.121203,-995.924147
538.165086,3849.070898,-7698.141797,-1455.581446
538.165408,5107.421000,-8068.244768,-1915.238745
538.165730,5847.626942,-8734.430116,-1378.971896
538.166053,5699.585753,-9104.533087,-1378.971896
538.166375,4589.276840,-9844.739029,-1532.190996
538.166697,3849.070898,-10732.986159,-2068.457845
538.167019,2516.700203,-11769.274478,-2987.772442
538.167342,1258.350101,-11917.315666,-2221.676944
538.167664,0.000000,-11473.192101,-1225.752797
538.167986,-296.082377,-10584.944971,-689.485948
538.168309,-518.144159,-9178.553681,153.219100
538.168631,-296.082377,-8068.244768,536.266849
538.168953,0.000000,-6439.791695,306.438199
538.169276,444.123565,-5255.462188,306.438199
538.169598,296.082377,-4811.338623,76.609550
538.169920,1110.308913,-5477.523971,-383.047749
538.170243,1332.370696,-6661.853478,-689.485948
538.170565,1258.350101,-7920.203579,-1225.752797
538.170887,888.247130,-9696.697840,-2145.067394
538.171210,740.205942,-10807.006753,-2145.067394
538.171532,1036.288319,-11843.295072,-2987.772442
538.171854,444.123565,-11917.315666,-3370.820191
538.172176,0.000000,-11991.336260,-2911.162892
538.172499,-296.082377,-12065.356855,-2681.334243
538.172821,-666.185348,-12213.398043,-2221.676944
538.173143,-1480.411884,-11843.295072,-1991.848295
538.173466,-2072.576638,-11843.295072,-1455.581446
538.173788,-1850.514855,-11251.130318,-995.924147
538.174110,-1110.308913,-10436.903782,-383.047749
538.174433,0.000000,-9918.759623,229.828649
538.174755,740.205942,-7476.080014,459.657299
538.175077,2590.720797,-6365.771101,229.828649
538.175400,4885.359217,-5477.523971,-459.657299
538.175722,6143.709319,-5329.482782,-1149.143247
538.176044,6809.894666,-5699.585753,-919.314598
538.176367,6957.935855,-6143.709319,-612.876398
538.176689,6809.894666,-7698.141797,-3370.820191
538.177011,6217.729913,-11325.150913,-4443.353888
538.177333,5033.400406,-13545.768739,-3140.991542
538.177656,2738.761985,-13175.665768,-1762.019645
538.177978,0.000000,-12287.418637,-1532.190996
538.178300,-2516.700203,-11843.295072,-1608.800546
538.178623,-4589.276840,-11177.109724,-2451.505594
538.178945,-5773.606348,-9326.594869,-2834.553343
538.179267,-6809.894666,-7254.018232,-2681.334243
538.179590,-6291.750507,-6809.894666,-2374.896044
538.179912,-3108.864956,-8216.285956,-919.314598
538.180234,444.123565,-7994.224174,-995.924147
538.180557,4071.132681,-8734.430116,-1685.410096
538.180879,7550.100608,-11029.068536,-2145.067394
538.181201,10807.006753,-11103.089130,-689.485948
538.181524,13101.645173,-10214.842000,-229.828649
538.181846,14063.912898,-8364.327145,-995.924147
538.182168,13767.830521,-7550.100608,-689.485948
538.182490,12361.439231,-7994.224174,-1149.143247
538.182813,9474.636058,-9474.636058,-1762.019645
538.183135,4441.235652,-10510.924376,-536.266849
538.183457,-222.061783,-11843.295072,-689.485948
538.183780,-4515.256246,-11843.295072,459.657299
538.184102,-7550.100608,-12139.377449,-306.438199
538.184424,-9622.677246,-12509.480420,-842.705048
538.184747,-10436.903782,-9104.533087,1072.533697
538.185069,-9770.718434,-4663.297435,919.314598
538.185391,-8142.265362,-2960.823768,-536.266849
538.185714,-3330.926739,-5995.668130,-2451.505594
538.186036,1998.556043,-7772.162391,-4060.306139
538.186358,5773.606348,-8438.347739,-4136.915689
538.186680,8586.388927,-11103.089130,-2451.505594
538.187003,10362.883188,-12953.603985,-1532.190996
538.187325,11029.068536,-11769.274478,-2451.505594
538.187647,9400.615463,-9770.718434,-3370.820191
538.187969,6143.709319,-8882.471304,-4290.134789
538.188291,3627.009116,-10807.006753,-5362.668486
538.188614,1184.329507,-10288.862594,-4443.353888
538.188936,-1776.494261,-9918.759623,-459.657299
538.189258,-4737.318029,-11029.068536,1838.629195
538.189580,-6513.812290,-12657.521608,2374.896044
538.189903,-6661.853478,-10658.965565,3447.429741
538.190225,-5255.462188,-7920.203579,306.438199
538.190547,-4589.276840,-6217.729913,-153.219100
538.190869,0.000000,-7476.080014,76.609550
538.191191,6069.688724,-5551.544565,-383.047749
538.191514,11029.068536,-3923.091493,-3217.601092
538.191836,13397.727550,-8586.388927,-3064.381992
538.192158,12361.439231,-12879.583391,612.876398
538.192480,8586.388927,-12213.398043,1072.533697
538.192803,2960.823768,-11621.233289,-3217.601092
538.193125,-1776.494261,-13545.768739,-7354.516781
538.193447,-4737.318029,-15026.180623,-7124.688131
538.193769,-7402.059420,-12065.356855,-3217.601092
538.194091,-9252.574275,-5699.585753,-1149.143247
538.194414,-6957.935855,-5847.626942,-2451.505594
538.194736,-3034.844362,-7031.956449,-766.095498
538.195058,-444.123565,-8734.430116,766.095498
538.195380,-1184.329507,-8586.388927,1915.238745
538.195703,-1184.329507,-8364.327145,3294.210641
538.196025,444.123565,-6217.729913,459.657299
538.196347,3849.070898,-3923.091493,-1762.019645
538.196669,5625.565159,-5181.441594,-1532.190996
538.196991,4589.276840,-6143.709319,-1991.848295
538.197314,3701.029710,-9400.615463,-3447.429741
538.197636,4737.318029,-12953.603985,-2528.115143
538.197958,5699.585753,-13619.789333,-4213.525239
538.198280,5773.606348,-13915.871710,-6665.030833
538.198603,4515.256246,-14359.995275,-4903.011187
538.198925,2146.597232,-11991.336260,0.000000
538.199247,148.041188,-10288.862594,-306.438199
538.199569,-592.164754,-10436.903782,-3447.429741
538.199891,-1850.514855,-11473.192101,-3447.429741
538.200214,-2590.720797,-11399.171507,76.609550
538.200536,-1258.350101,-10807.006753,3140.991542
538.200858,2960.823768,-9474.636058,2374.896044
538.201180,7105.977043,-7328.038826,1225.752797
538.201503,10214.842000,-4959.379811,2451.505594
538.201825,10881.027347,-3256.906145,3677.258390
538.202147,9474.636058,-2146.597232,2145.067394
538.202469,6809.894666,-1998.556043,-1685.410096
538.202791,4441.235652,-5699.585753,-3524.039291
538.203114,2738.761985,-10214.842000,-4826.401637
538.203436,0.000000,-13101.645173,-6052.154434
538.203758,-3627.009116,-14582.057057,-6281.983084
538.204080,-5329.482782,-14878.139434,-2987.772442
538.204403,-4219.173869,-14434.015869,-1149.143247
538.204725,-3478.967927,-13915.871710,-4826.401637
538.205047,-4219.173869,-11547.212695,-5898.935335
538.205369,-4219.173869,-11251.130318,-2604.724693
538.205691,-1332.370696,-10140.821405,0.000000
538.206014,3552.988522,-11177.109724,-306.438199
538.206336,5403.503377,-10510.924376,689.485948
538.206658,5773.606348,-9548.656652,2911.162892
538.206980,6439.791695,-8216.285956,4979.620737
538.207303,6587.832884,-6883.915261,5898.935335
538.207625,7550.100608,-2960.823768,3447.429741
538.207947,8364.327145,-2072.576638,-1991.848295
538.208269,10140.821405,-3404.947333,-3370.820191
538.208591,9622.677246,-7031.956449,229.828649
538.208914,6217.729913,-7994.224174,2911.162892
538.209236,1702.473667,-10214.842000,689.485948
538.209558,-2664.741391,-12731.542202,-3907.087040
538.209880,-7105.977043,-12435.459826,-5515.887586
538.210203,-10658.965565,-11103.089130,-5822.325785
538.210525,-11473.192101,-11621.233289,-7201.297681
538.210847,-8438.347739,-13693.809927,-7201.297681
538.211169,-4219.173869,-11991.336260,-3217.601092
538.211491,-2738.761985,-9918.759623,306.438199
538.211814,-2812.782580,-9030.512492,2757.943793
538.212136,-2146.597232,-10436.903782,0.000000
538.212458,-1924.535449,-9844.739029,-3447.429741
538.212780,-1332.370696,-7772.162391,-2451.505594
538.213103,592.164754,-6439.791695,0.000000
538.213425,4441.235652,-5921.647536,-229.828649
538.213747,7254.018232,-5181.441594,-459.657299
538.214069,9178.553681,-4959.379811,2374.896044
538.214392,10584.944971,-6735.874072,2068.457845
538.214714,9474.636058,-9844.739029,-1378.971896
538.215036,7105.977043,-12065.356855,-3140.991542
538.215358,2886.803174,-11843.295072,-2757.943793
538.215680,-518.144159,-11473.192101,-2298.286494
538.216003,-962.267725,-11399.171507,-2834.553343
538.216325,-444.123565,-12435.459826,-4826.401637
538.216647,-1406.391290,-10807.006753,-4673.182538
538.216969,-2220.617826,-9474.636058,-2451.505594
538.217292,-2960.823768,-11843.295072,-842.705048
538.217614,-3182.885551,-14508.036463,-459.657299
538.217936,-3849.070898,-12805.562797,-229.828649
538.218258,-4663.297435,-7772.162391,-1225.752797
538.218580,-2738.761985,-4737.318029,-1225.752797
538.218903,2072.576638,-4145.153275,-3217.601092
538.219225,5403.503377,-4293.194464,-3983.696590
538.219547,6661.853478,-5551.544565,-842.705048
538.219869,7624.121203,-7105.977043,2834.553343
538.220192,7846.182985,-9326.594869,612.876398
538.220514,6143.709319,-10658.965565,-2604.724693
538.220836,2072.576638,-10732.986159,-2834.553343
538.221158,-444.123565,-10732.986159,-2451.505594
538.221480,0.000000,-10881.027347,-3064.381992
538.221803,444.123565,-9844.739029,-4060.306139
538.222125,-296.082377,-8216.285956,-2757.943793
538.222447,0.000000,-10362.883188,-459.657299
538.222769,888.247130,-13619.789333,1072.533697
538.223092,1110.308913,-14804.118840,766.095498
538.223414,-370.102971,-12879.583391,229.828649
538.223736,296.082377,-11621.233289,1225.752797
538.224058,3997.112087,-8512.368333,995.924147
538.224380,6735.874072,-4515.256246,-766.095498
538.224703,6661.853478,-2886.803174,-306.438199
538.225025,6069.688724,-2664.741391,2145.067394
538.225347,5107.421000,-4589.276840,306.438199
538.225669,2220.617826,-7328.038826,-2604.724693
538.225992,-2442.679609,-10807.006753,-3064.381992
538.226314,-5403.503377,-13767.830521,-3370.820191
538.226636,-5403.503377,-13989.892304,-5056.230287
538.226958,-5921.647536,-11547.212695,-5745.716235
538.227280,-7772.162391,-9696.697840,-4826.401637
538.227603,-8216.285956,-10658.965565,-2145.067394
538.227925,-7772.162391,-12435.459826,76.609550
538.228247,-7624.121203,-11769.274478,-995.924147
538.228569,-5403.503377,-11695.253884,-2451.505594
538.228892,-1258.350101,-12583.501014,-2834.553343
538.229214,2294.638420,-10732.986159,153.219100
538.229536,3849.070898,-6661.853478,3753.867940
538.229858,4959.379811,-2812.782580,4519.963438
538.230180,6291.750507,-592.164754,1225.752797
538.230503,4959.379811,-2146.597232,-2221.676944
538.230825,518.144159,-4515.256246,-3217.601092
538.231147,-3256.906145,-8142.265362,-4366.744339
538.231469,-5255.462188,-12139.377449,-4826.401637
538.231792,-5181.441594,-12435.459826,-4290.134789
538.232114,-5625.565159,-12213.398043,-5745.716235
538.232436,-5033.400406,-14285.974681,-6511.811733
538.232758,-5033.400406,-15766.386565,-4443.353888
538.233080,-5033.400406,-15914.427753,-1225.752797
538.233403,-5181.441594,-13619.789333,-229.828649
538.233725,-1702.473667,-11843.295072,-1225.752797
538.234047,1776.494261,-9770.718434,-1608.800546
538.234369,4959.379811,-7402.059420,1302.362347
538.234692,6809.894666,-5403.503377,3447.429741
538.235014,8808.450710,-3404.947333,2911.162892
538.235336,9104.533087,-2072.576638,1685.410096
538.235658,6735.874072,-1702.473667,1608.800546
538.235980,2590.720797,-3849.070898,1072.533697
538.236303,-1184.329507,-6661.853478,-1915.238745
538.236625,-4071.132681,-7846.182985,-5669.106685
538.236947,-5403.503377,-8956.491898,-7814.174080
538.237269,-6587.832884,-11325.150913,-7660.954980
538.237592,-6365.771101,-15248.242405,-5745.716235
538.237914,-6587.832884,-16432.571912,-4060.306139
538.238236,-5773.606348,-16802.674883,-2834.553343
538.238558,-3256.906145,-16580.613101,-2834.553343
538.238880,148.041188,-15618.345376,-3600.648841
538.239203,2590.720797,-12435.459826,-1149.143247
538.239525,4959.379811,-7772.162391,995.924147
538.239847,7846.182985,-5033.400406,1838.629195
538.240169,10658.965565,-3627.009116,3064.381992
538.240492,10288.862594,-1406.391290,3140.991542
538.240814,7550.100608,-1110.308913,1991.848295
538.241136,5255.462188,-3256.906145,153.219100
538.241458,1924.535449,-6735.874072,-1149.143247
538.241780,-2516.700203,-9252.574275,-2451.505594
538.242103,-5773.606348,-11473.192101,-3064.381992
538.242425,-6957.935855,-12657.521608,-3600.648841
538.242747,-7179.997637,-12509.480420,-4903.011187
538.243069,-6291.750507,-13101.645173,-4826.401637
538.243392,-4515.256246,-14508.036463,-3830.477490
538.243714,-1998.556043,-16136.489536,-2221.676944
538.244036,888.247130,-15322.262999,-689.485948
538.244358,2812.782580,-12509.480420,-612.876398
538.244680,3108.864956,-9104.533087,-229.828649
538.245003,1998.556043,-5773.606348,383.047749
538.245325,-148.041188,-4293.194464,689.485948
538.245647,-2368.659014,-3849.070898,536.266849
538.245969,-3627.009116,-2368.659014,-1072.533697
538.246292,-3775.050304,-3552.988522,-3830.477490
538.246614,-3404.947333,-6143.709319,-3064.381992
538.246936,-4737.318029,-8734.430116,-766.095498
538.247258,-4959.379811,-11325.150913,-2221.676944
538.247580,-5921.647536,-13693.809927,-1991.848295
538.247903,-5699.585753,-15618.345376,-2451.505594
538.248225,-4885.359217,-15100.201217,-3064.381992
538.248547,-2442.679609,-13915.871710,-3064.381992
538.248869,1110.308913,-11621.233289,-1838.629195
538.249192,5477.523971,-10288.862594,-1608.800546
538.249514,8956.491898,-10881.027347,459.657299
538.249836,9770.718434,-9844.739029,2374.896044
538.250158,6957.935855,-7179.997637,3677.258390
538.250480,2590.720797,-5477.523971,3294.210641
538.250803,0.000000,-4663.297435,536.266849
538.251125,-2072.576638,-3256.906145,-2374.896044
538.251447,-6291.750507,-2738.761985,-4213.525239
538.251769,-9474.636058,-4145.153275,-2451.505594
538.252092,-9918.759623,-7179.997637,-1991.848295
538.252414,-7846.182985,-11621.233289,-4979.620737
538.252736,-6587.832884,-13397.727550,-4519.963438
538.253058,-5699.585753,-15396.283594,-3064.381992
538.253380,-2664.741391,-15692.365970,-2911.162892
538.253703,1184.329507,-14137.933492,-3294.210641
538.254025,4071.132681,-11103.089130,-2221.676944
538.254347,6587.832884,-7476.080014,-612.876398
538.254669,7698.141797,-6513.812290,-2068.457845
538.254992,6513.812290,-8068.244768,-1685.410096
538.255314,4589.276840,-8512.368333,536.266849
538.255636,2960.823768,-7550.100608,919.314598
538.255958,1332.370696,-7328.038826,-842.705048
538.256280,-1332.370696,-5181.441594,0.000000
538.256603,-4071.132681,-4515.256246,-842.705048
538.256925,-5403.503377,-6217.729913,-2681.334243
538.257247,-5551.544565,-8216.285956,-3140.991542
538.257569,-5995.668130,-8882.471304,-2528.115143
538.257892,-2960.823768,-11029.068536,-3677.258390
538.258214,3330.926739,-14656.077652,-4749.792088
538.258536,8142.265362,-17246.798449,-3524.039291
538.258858,9326.594869,-16728.654289,229.828649
538.259180,8734.430116,-12657.521608,2757.943793
538.259503,8068.244768,-9918.759623,0.000000
538.259825,5181.441594,-7105.977043,-3140.991542
538.260147,1036.288319,-6735.874072,-4136.915689
538.260469,-3849.070898,-6069.688724,-3064.381992
538.260792,-5847.626942,-5699.585753,-2681.334243
538.261114,-6957.935855,-5921.647536,-2911.162892
538.261436,-7476.080014,-7402.059420,-2221.676944
538.261758,-8068.244768,-8216.285956,-1072.533697
538.262080,-7994.224174,-10436.903782,-2145.067394
538.262403,-7402.059420,-11251.130318,-4213.525239
538.262725,-4219.173869,-11843.295072,-4213.525239
538.263047,74.020594,-12287.418637,-3677.258390
538.263369,3775.050304,-11547.212695,-2911.162892
538.263692,5403.503377,-9992.780217,153.219100
538.264014,7328.038826,-10955.047942,2221.676944
538.264336,8734.430116,-11621.233289,306.438199
538.264658,7254.018232,-11029.068536,-842.705048
538.264980,2516.700203,-9030.512492,842.705048
538.265303,-740.205942,-6513.812290,2374.896044
538.265625,-1628.453072,-5477.523971,689.485948
538.265947,-2442.679609,-4737.318029,-919.314598
538.266269,-5699.585753,-3256.906145,-229.828649
538.266592,-8364.327145,-4515.256246,0.000000
538.266914,-10362.883188,-8586.388927,-1302.362347
538.267236,-9548.656652,-12435.459826,-2451.505594
538.267558,-7402.059420,-13693.809927,-3294.210641
538.267880,-3627.009116,-14211.954086,-4443.353888
538.268203,740.205942,-13989.892304,-2757.943793
538.268525,3478.967927,-11843.295072,153.219100
538.268847,5847.626942,-10436.903782,459.657299
538.269169,6439.791695,-9474.636058,-919.314598
538.269492,5107.421000,-8882.471304,-2145.067394
538.269814,2442.679609,-7994.224174,-2451.505594
538.270136,518.144159,-6661.853478,-1685.410096
538.270458,148.041188,-8068.244768,-689.485948
538.270780,-888.247130,-7254.018232,-153.219100
538.271103,-3330.926739,-5551.544565,612.876398
538.271425,-5033.400406,-6291.750507,995.924147
538.271747,-7105.977043,-9030.512492,-1225.752797
538.272069,-6957.935855,-11029.068536,-2298.286494
538.272392,-5255.462188,-9770.718434,-2834.553343
538.272714,-370.102971,-10732.986159,-3753.867940
538.273036,5033.400406,-13249.686362,-2681.334243
538.273358,8882.471304,-12139.377449,306.438199
538.273680,8660.409521,-10214.842000,2145.067394
538.274003,8068.244768,-10362.883188,919.314598
538.274325,6957.935855,-10955.047942,-2451.505594
538.274647,2664.741391,-9474.636058,-4443.353888
538.274969,-1924.535449,-8068.244768,-3447.429741
538.275292,-4737.318029,-7624.121203,-2145.067394
538.275614,-5107.421000,-6883.915261,-2834.553343
538.275936,-6217.729913,-5033.400406,-2757.943793
538.276258,-9326.594869,-5255.462188,-2451.505594
538.276581,-10807.006753,-10140.821405,-2451.505594
538.276903,-11473.192101,-11621.233289,-3294.210641
538.277225,-8142.265362,-11843.295072,-3600.648841
538.277547,-2146.597232,-12435.459826,-4826.401637
538.277869,5625.565159,-12435.459826,-4826.401637
538.278192,10807.006753,-11399.171507,-1225.752797
538.278514,12287.418637,-8512.368333,3677.258390
538.278836,12139.377449,-8216.285956,4673.182538
538.279158,10140.821405,-7772.162391,766.095498
538.279481,6143.709319,-7994.224174,-2451.505594
538.279803,1110.308913,-7105.977043,-2834.553343
538.280125,-2146.597232,-7994.224174,-2528.115143
538.280447,-3108.864956,-8586.388927,-1378.971896
538.280769,-4293.194464,-5921.647536,-306.438199
538.281092,-7550.100608,-4145.153275,-1532.190996
538.281414,-8808.450710,-7698.141797,-2681.334243
538.281736,-9252.574275,-10955.047942,-3447.429741
538.282058,-8956.491898,-12065.356855,-3600.648841
538.282381,-5847.626942,-13471.748144,-5209.449386
538.282703,-222.061783,-14952.160028,-4749.792088
538.283025,4145.153275,-14211.954086,-1915.238745
538.283347,6587.832884,-10881.027347,842.705048
538.283669,7402.059420,-8734.430116,1302.362347
538.283992,8438.347739,-8142.265362,-1685.410096
538.284314,6217.729913,-7624.121203,-2374.896044
538.284636,1628.453072,-6883.915261,-1762.019645
538.284958,-2368.659014,-7920.203579,-1149.143247
538.285281,-3849.070898,-8068.244768,-766.095498
538.285603,-5033.400406,-6587.832884,-1378.971896
538.285925,-6439.791695,-7476.080014,-919.314598
538.286247,-8068.244768,-8068.244768,-1072.533697
538.286570,-9030.512492,-9770.718434,-766.095498
538.286892,-8438.347739,-10436.903782,-1225.752797
538.287215,-4293.194464,-11473.192101,-1991.848295
538.287537,666.185348,-13027.624579,-3907.087040
538.287859,5181.441594,-12361.439231,-2987.772442
538.288182,7476.080014,-10584.944971,842.705048
538.288504,8364.327145,-9474.636058,2911.162892
538.288826,7920.203579,-8808.450710,919.314598
538.289149,5699.585753,-9252.574275,-2451.505594
538.289471,1924.535449,-8068.244768,-2987.772442
538.289794,-1184.329507,-7772.162391,-1608.800546
538.290116,-3478.967927,-6957.935855,-1685.410096
538.290438,-5477.523971,-6069.688724,-1838.629195
538.290761,-8290.306550,-6217.729913,-1225.752797
538.291083,-8216.285956,-9474.636058,-1072.533697
538.291406,-9992.780217,-11251.130318,-1072.533697
538.291728,-10066.800811,-10881.027347,-2374.896044
538.292050,-5477.523971,-10584.944971,-3677.258390
538.292373,2294.638420,-11917.315666,-4903.011187
538.292695,9178.553681,-12509.480420,-2451.505594
538.293018,11251.130318,-11621.233289,2528.115143
538.293340,12213.398043,-9400.615463,4826.401637
538.293662,12065.356855,-7179.997637,2068.457845
538.293985,9178.553681,-7105.977043,-1991.848295
538.294307,4515.256246,-7624.121203,-2451.505594
538.294630,0.000000,-7994.224174,-1608.800546
538.294952,-2960.823768,-7254.018232,-2298.286494
538.295274,-5033.400406,-6217.729913,-2451.505594
538.295597,-7846.182985,-6365.771101,-1455.581446
538.295919,-9030.512492,-9104.533087,-1378.971896
538.296241,-11029.068536,-9104.533087,-2681.334243
538.296564,-11769.274478,-11325.150913,-3140.991542
538.296886,-8734.430116,-11917.315666,-4749.792088
538.297209,-666.185348,-13619.789333,-6741.640382
538.297531,6291.750507,-14434.015869,-3983.696590
538.297853,10140.821405,-12213.398043,1072.533697
538.298176,11917.315666,-9622.677246,3677.258390
538.298498,11917.315666,-7994.224174,2374.896044
538.298821,8956.491898,-6661.853478,-1225.752797
538.299143,3404.947333,-7105.977043,-3753.867940
538.299465,-1258.350101,-7254.018232,-3677.258390
538.299788,-4145.153275,-7994.224174,-2451.505594
538.300110,-6217.729913,-7402.059420,-1762.019645
538.300433,-9770.718434,-6217.729913,-536.266849
538.300755,-10658.965565,-7624.121203,-919.314598
538.301077,-12065.356855,-9548.656652,-1532.190996
538.301400,-11695.253884,-10955.047942,-3677.258390
538.301722,-8586.388927,-11621.233289,-6281.983084
538.302044,-666.185348,-14211.954086,-7660.954980
538.302367,6661.853478,-15618.345376,-3753.867940
538.302689,11991.336260,-13471.748144,1915.238745
538.303012,13175.665768,-10807.006753,5362.668486
538.303334,11843.295072,-7846.182985,3217.601092
538.303656,8586.388927,-6069.688724,-995.924147
538.303979,3404.947333,-5847.626942,-2987.772442
538.304301,-1184.329507,-6439.791695,-2528.115143
538.304624,-3849.070898,-6809.894666,-1608.800546
538.304946,-5477.523971,-5477.523971,-1302.362347
538.305268,-7994.224174,-5625.565159,0.000000
538.305591,-8734.430116,-8364.327145,612.876398
538.305913,-11251.130318,-10214.842000,76.609550
538.306236,-13101.645173,-10732.986159,-2528.115143
538.306558,-10807.006753,-10807.006753,-5515.887586
538.306880,-3701.029710,-13027.624579,-7584.345430
538.307203,2886.803174,-13915.871710,-4673.182538
538.307525,7402.059420,-12435.459826,229.828649
538.307848,9474.636058,-11029.068536,2757.943793
538.308170,10807.006753,-9178.553681,1838.629195
538.308492,9622.677246,-9252.574275,-1455.581446
538.308815,4959.379811,-8290.306550,-2911.162892
538.309137,592.164754,-7846.182985,-2681.334243
538.309459,-1554.432478,-8068.244768,-2068.457845
538.309782,-3108.864956,-6439.791695,-1685.410096
538.310104,-4737.318029,-4811.338623,1302.362347
538.310427,-8808.450710,-5403.503377,536.266849
538.310749,-10288.862594,-8364.327145,-766.095498
538.311071,-9474.636058,-10066.800811,-1991.848295
538.311394,-6143.709319,-11547.212695,-3370.820191
538.311716,-1110.308913,-12139.377449,-4443.353888
538.312039,5181.441594,-13841.851115,-2834.553343
538.312361,10436.903782,-13101.645173,689.485948
538.312683,13101.645173,-11325.150913,3294.210641
538.313006,12657.521608,-8660.409521,2374.896044
538.313328,10066.800811,-6217.729913,-1072.533697
538.313651,5699.585753,-7031.956449,-3677.258390
538.313973,1554.432478,-8068.244768,-3447.429741
538.314295,-2294.638420,-8660.409521,-2757.943793
538.314618,-5255.462188,-7476.080014,-2681.334243
538.314940,-6365.771101,-6587.832884,-1838.629195
538.315262,-9178.553681,-7550.100608,-1915.238745
538.315585,-12361.439231,-10066.800811,-766.095498
538.315907,-13841.851115,-10066.800811,-1225.752797
538.316230,-11325.150913,-10214.842000,-3064.381992
538.316552,-5477.523971,-11621.233289,-5745.716235
538.316874,2664.741391,-11917.315666,-5592.497135
538.317197,7994.224174,-12213.398043,-1838.629195
538.317519,10362.883188,-11325.150913,2987.772442
538.317842,12139.377449,-10955.047942,4826.401637
538.318164,11325.150913,-7994.224174,1149.143247
538.318486,7624.121203,-4737.318029,-2145.067394
538.318809,2812.782580,-6365.771101,-2757.943793
538.319131,-296.082377,-7772.162391,-2834.553343
538.319454,-2664.741391,-7550.100608,-2757.943793
538.319776,-5329.482782,-5921.647536,-2221.676944
538.320098,-8808.450710,-7920.203579,-766.095498
538.320421,-11843.295072,-10584.944971,689.485948
538.320743,-13693.809927,-12583.501014,-612.876398
538.321066,-12731.542202,-11029.068536,-4749.792088
538.321388,-7772.162391,-11843.295072,-6358.592633
538.321710,-1628.453072,-12953.603985,-3907.087040
538.322033,5403.503377,-10881.027347,-306.438199
538.322355,9918.759623,-9474.636058,383.047749
538.322677,13693.809927,-10732.986159,1149.143247
538.323000,14211.954086,-10140.821405,1685.410096
538.323322,10140.821405,-6365.771101,76.609550
538.323645,3627.009116,-6143.709319,-1608.800546
538.323967,-888.247130,-7402.059420,-2298.286494
538.324289,-3627.009116,-9104.533087,-3753.867940
538.324612,-7254.018232,-6809.894666,-4443.353888
538.324934,-10732.986159,-5995.668130,-1991.848295
538.325257,-11991.336260,-9178.553681,-1532.190996
538.325579,-11547.212695,-10066.800811,-536.266849
538.325901,-9770.718434,-11547.212695,-2528.115143
538.326224,-7105.977043,-12509.480420,-4519.963438
538.326546,-370.102971,-13989.892304,-5209.449386
538.326869,6365.771101,-13175.665768,-2834.553343
538.327191,10584.944971,-11251.130318,995.924147
538.327513,11843.295072,-8956.491898,3677.258390
538.327836,11103.089130,-6143.709319,3753.867940
538.328158,8290.306550,-4737.318029,1225.752797
538.328480,5551.544565,-6513.812290,-2451.505594
538.328803,1258.350101,-7328.038826,-4443.353888
538.329125,-2368.659014,-7994.224174,-3524.039291
538.329448,-5403.503377,-7402.059420,-1838.629195
538.329770,-7105.977043,-8660.409521,-306.438199
538.330092,-7994.224174,-10362.883188,-995.924147
538.330415,-9474.636058,-11177.109724,-2374.896044
538.330737,-10955.047942,-10732.986159,-3524.039291
538.331060,-7254.018232,-12065.356855,-4213.525239
538.331382,-814.226536,-13619.789333,-4979.620737
538.331704,5773.606348,-13471.748144,-3524.039291
538.332027,9770.718434,-12435.459826,919.314598
538.332349,12583.501014,-11029.068536,4596.572988
538.332672,14211.954086,-7698.141797,3600.648841
538.332994,11695.253884,-4737.318029,383.047749
538.333316,6439.791695,-4515.256246,-306.438199
538.333639,740.205942,-5403.503377,-459.657299
538.333961,-2664.741391,-6291.750507,-1991.848295
538.334284,-5255.462188,-5921.647536,-2451.505594
538.334606,-7624.121203,-7031.956449,-1685.410096
538.334928,-11325.150913,-8882.471304,-1455.581446
538.335251,-13249.686362,-10807.006753,-383.047749
538.335573,-13101.645173,-11029.068536,-1608.800546
538.335895,-10066.800811,-11621.233289,-4213.525239
538.336218,-4071.132681,-13767.830521,-6665.030833
538.336540,2368.659014,-13545.768739,-5056.230287
538.336863,6809.894666,-12287.418637,-1072.533697
538.337185,9622.677246,-11325.150913,2834.553343
538.337507,10510.924376,-9844.739029,3983.696590
538.337830,9474.636058,-7105.977043,306.438199
538.338152,4959.379811,-5107.421000,-2068.457845
538.338475,1110.308913,-5403.503377,-2604.724693
538.338797,-1776.494261,-6365.771101,-2911.162892
538.339119,-4219.173869,-5403.503377,-2528.115143
538.339442,-5995.668130,-4737.318029,-1608.800546
538.339764,-8882.471304,-7698.141797,-1149.143247
538.340087,-10955.047942,-11029.068536,229.828649
538.340409,-12065.356855,-12139.377449,-1685.410096
538.340731,-10510.924376,-11473.192101,-5209.449386
538.341054,-5181.441594,-13619.789333,-6741.640382
538.341376,1554.432478,-14730.098246,-5209.449386
538.341698,7179.997637,-12879.583391,-1915.238745
538.342021,10288.862594,-10584.944971,1378.971896
538.342343,12065.356855,-9844.739029,3294.210641
538.342666,11251.130318,-8142.265362,1378.971896
538.342988,7772.162391,-5699.585753,-1608.800546
538.343310,2886.803174,-6069.688724,-3830.477490
538.343633,-592.164754,-7179.997637,-4903.011187
538.343955,-4071.132681,-7550.100608,-3753.867940
538.344278,-7179.997637,-6957.935855,-1225.752797
538.344600,-9696.697840,-7920.203579,-766.095498
538.344922,-9770.718434,-10510.924376,-2757.943793
538.345245,-9918.759623,-10436.903782,-3524.039291
538.345567,-8364.327145,-12879.583391,-3907.087040
538.345890,-4293.194464,-13841.851115,-3677.258390
538.346212,1998.556043,-14211.954086,-2681.334243
538.346534,7328.038826,-11547.212695,-1072.533697
538.346857,10658.965565,-10362.883188,1991.848295
538.347179,11251.130318,-9696.697840,3140.991542
538.347502,8660.409521,-6439.791695,2298.286494
538.347824,4589.276840,-4441.235652,306.438199
538.348146,1850.514855,-5551.544565,-1991.848295
538.348469,888.247130,-7328.038826,-4903.011187
538.348791,-814.226536,-7031.956449,-3370.820191
538.349113,-2812.782580,-6365.771101,-383.047749
538.349436,-4959.379811,-7920.203579,76.609550
538.349758,-8290.306550,-9400.615463,0.000000
538.350081,-11399.171507,-9326.594869,-919.314598
538.350403,-11843.295072,-10436.903782,-4903.011187
538.350725,-8216.285956,-12583.501014,-6128.763984
538.351048,-2886.803174,-14359.995275,-5745.716235
538.351370,3256.906145,-12435.459826,-2911.162892
538.351693,8142.265362,-11325.150913,995.924147
538.352015,11399.171507,-11769.274478,3753.867940
538.352337,11325.150913,-9252.574275,3524.039291
538.352660,7846.182985,-5107.421000,76.609550
538.352982,3404.947333,-3256.906145,-2451.505594
538.353305,1258.350101,-5403.503377,-2528.115143
538.353627,-1628.453072,-7698.141797,-2834.553343
538.353949,-5107.421000,-6587.832884,-1072.533697
538.354272,-6365.771101,-7994.224174,-536.266849
538.354594,-5625.565159,-12065.356855,-1455.581446
538.354916,-5477.523971,-12805.562797,-1302.362347
538.355239,-6735.874072,-11399.171507,-306.438199
538.355561,-5921.647536,-11843.295072,-2834.553343
538.355884,-1332.370696,-13619.789333,-4366.744339
538.356206,1776.494261,-11991.336260,-4290.134789
538.356528,2590.720797,-9326.594869,-2068.457845
538.356851,3701.029710,-9252.574275,536.266849
538.357173,4737.318029,-10362.883188,1455.581446
538.357496,3775.050304,-7772.162391,0.000000
538.357818,1184.329507,-5699.585753,-1225.752797
538.358140,-592.164754,-7254.018232,-2068.457845
538.358463,-1850.514855,-8808.450710,-1915.238745
538.358785,-3330.926739,-7994.224174,-1149.143247
538.359108,-6217.729913,-4959.379811,-1225.752797
538.359430,-7031.956449,-7328.038826,-2068.457845
538.359752,-8068.244768,-9178.553681,-1608.800546
538.360075,-7624.121203,-11473.192101,-1225.752797
538.360397,-5329.482782,-11917.315666,-3217.601092
538.360720,-962.267725,-12879.583391,-4596.572988
538.361042,3256.906145,-13323.706956,-3370.820191
538.361364,5921.647536,-11621.233289,1149.143247
538.361687,6883.915261,-10362.883188,3447.429741
538.362009,6735.874072,-9030.512492,1608.800546
538.362331,5403.503377,-6587.832884,-1608.800546
538.362654,2812.782580,-5847.626942,-2681.334243
538.362976,592.164754,-6365.771101,-3140.991542
538.363299,-962.267725,-7328.038826,-2834.553343
538.363621,-3182.885551,-7105.977043,-383.047749
538.363943,-4293.194464,-6513.812290,-153.219100
538.364266,-5033.400406,-9104.533087,-2451.505594
538.364588,-7105.977043,-11251.130318,-3217.601092
538.364911,-8068.244768,-11177.109724,-2451.505594
538.365233,-6069.688724,-11473.192101,-3983.696590
538.365555,-1480.411884,-12287.418637,-5209.449386
538.365878,3552.988522,-12583.501014,-3524.039291
538.366200,7105.977043,-12213.398043,-919.314598
538.366523,8364.327145,-11325.150913,1991.848295
538.366845,8142.265362,-9992.780217,3217.601092
538.367167,5551.544565,-6661.853478,1149.143247
538.367490,2442.679609,-4811.338623,-2374.896044
538.367812,1406.391290,-6291.750507,-3600.648841
538.368134,0.000000,-6439.791695,-3524.039291
538.368457,-2738.761985,-5403.503377,-2145.067394
538.368779,-5033.400406,-6587.832884,-842.705048
538.369102,-5477.523971,-10436.903782,-1762.019645
538.369424,-7254.018232,-12509.480420,-2834.553343
538.369746,-9252.574275,-13323.706956,-3217.601092
538.370069,-7624.121203,-13989.892304,-4366.744339
538.370391,-2220.617826,-14063.912898,-4826.401637
538.370714,2442.679609,-12361.439231,-3447.429741
538.371036,5477.523971,-10658.965565,-689.485948
538.371358,7179.997637,-10807.006753,2604.724693
538.371681,7179.997637,-9178.553681,3140.991542
538.372003,5773.606348,-5329.482782,0.000000
538.372326,3182.885551,-3849.070898,-2528.115143
538.372648,1258.350101,-6661.853478,-1072.533697
538.372970,-296.082377,-7402.059420,229.828649
538.373293,-3034.844362,-5699.585753,0.000000
538.373615,-4367.215058,-6587.832884,-459.657299
538.373938,-4737.318029,-9474.636058,-1225.752797
538.374260,-5921.647536,-9844.739029,-1915.238745
538.374582,-7920.203579,-9622.677246,-1991.848295
538.374905,-8290.306550,-9992.780217,-3140.991542
538.375227,-3849.070898,-12139.377449,-4826.401637
538.375549,1480.411884,-13619.789333,-4903.011187
538.375872,4663.297435,-12287.418637,-2911.162892
538.376194,4737.318029,-11547.212695,766.095498
538.376517,5033.400406,-10658.965565,2604.724693
538.376839,4811.338623,-8512.368333,229.828649
538.377161,3108.864956,-6513.812290,-2834.553343
538.377484,814.226536,-6217.729913,-2911.162892
538.377806,-222.061783,-7031.956449,-1225.752797
538.378129,-2516.700203,-5995.668130,-766.095498
538.378451,-3849.070898,-6513.812290,0.000000
538.378773,-4885.359217,-8586.388927,-919.314598
538.379096,-5625.565159,-9770.718434,-2068.457845
538.379418,-5847.626942,-10732.986159,-1762.019645
538.379741,-4515.256246,-11399.171507,-3447.429741
538.380063,-148.041188,-11917.315666,-5056.230287
538.380385,4441.235652,-12731.542202,-4519.963438
538.380708,6587.832884,-11843.295072,0.000000
538.381030,6143.709319,-9400.615463,4213.525239
538.381352,5181.441594,-7550.100608,1302.362347
538.381675,3478.967927,-8438.347739,-2987.772442
538.381997,1258.350101,-9844.739029,-3447.429741
538.382320,-814.226536,-9400.615463,-2451.505594
538.382642,-3404.947333,-7328.038826,-2145.067394
538.382964,-3775.050304,-6661.853478,-1225.752797
538.383287,-3552.988522,-6883.915261,-153.219100
538.383609,-6143.709319,-8956.491898,-2221.676944
538.383932,-7846.182985,-10436.903782,-2374.896044
538.384254,-9548.656652,-10510.924376,-2374.896044
538.384576,-7624.121203,-10288.862594,-4136.915689
538.384899,-2294.638420,-12065.356855,-4979.620737
538.385221,2886.803174,-12583.501014,-3830.477490
538.385544,4959.379811,-11473.192101,-2451.505594
538.385866,5995.668130,-11177.109724,842.705048
538.386188,7698.141797,-11251.130318,4060.306139
538.386511,7920.203579,-9400.615463,229.828649
538.386833,5477.523971,-5255.462188,-3524.039291
538.387156,2960.823768,-5033.400406,-1378.971896
538.387478,2442.679609,-7698.141797,153.219100
538.387801,1036.288319,-8512.368333,-919.314598
538.388123,-2812.782580,-7254.018232,766.095498
538.388445,-7254.018232,-6291.750507,1149.143247
538.388768,-8142.265362,-8808.450710,-1072.533697
538.389090,-7254.018232,-10955.047942,-3600.648841
538.389413,-6587.832884,-11473.192101,-4290.134789
538.389735,-3627.009116,-11843.295072,-4136.915689
538.390058,1628.453072,-13027.624579,-3140.991542
538.390380,5255.462188,-12509.480420,459.657299
538.390703,5995.668130,-9992.780217,2681.334243
538.391025,4959.379811,-7254.018232,383.047749
538.391347,4515.256246,-6957.935855,-2221.676944
538.391670,4441.235652,-8216.285956,-3217.601092
538.391992,2368.659014,-8956.491898,-2068.457845
538.392315,0.000000,-8586.388927,-153.219100
538.392637,-1258.350101,-7476.080014,689.485948
538.392960,-2590.720797,-7920.203579,-229.828649
538.393282,-5107.421000,-8290.306550,-1608.800546
538.393604,-7105.977043,-9252.574275,-1838.629195
538.393927,-9030.512492,-8586.388927,-2604.724693
538.394249,-7254.018232,-10807.006753,-3600.648841
538.394572,-2664.741391,-11991.336260,-2987.772442
538.394894,1924.535449,-11843.295072,-3064.381992
538.395217,4737.318029,-12139.377449,-2834.553343
538.395539,6513.812290,-12287.418637,842.705048
538.395862,7994.224174,-11473.192101,3524.039291
538.396184,7624.121203,-7994.224174,536.266849
538.396506,5033.400406,-4737.318029,-3753.867940
538.396829,2220.617826,-6365.771101,-2221.676944
538.397151,-148.041188,-8660.409521,-1072.533697
538.397474,-3627.009116,-7105.977043,-1072.533697
538.397796,-7179.997637,-5551.544565,-1378.971896
538.398119,-8882.471304,-7772.162391,-2221.676944
538.398441,-8808.450710,-12287.418637,-2604.724693
538.398763,-9696.697840,-11843.295072,-766.095498
538.399086,-10362.883188,-10214.842000,-1608.800546
538.399408,-7179.997637,-9622.677246,-4060.306139
538.399731,-296.082377,-11547.212695,-4903.011187
538.400053,4145.153275,-10288.862594,-2451.505594
538.400376,5625.565159,-9178.553681,-1455.581446
538.400698,6365.771101,-10140.821405,153.219100
538.401020,8512.368333,-10066.800811,1532.190996
538.401343,8438.347739,-7846.182985,-1455.581446
538.401665,4959.379811,-7328.038826,-3907.087040
538.401988,1184.329507,-7920.203579,-2604.724693
538.402310,-962.267725,-9326.594869,-1225.752797
538.402633,-3404.947333,-8438.347739,-2221.676944
538.402955,-4811.338623,-8142.265362,-1991.848295
538.403278,-7105.977043,-8660.409521,-1915.238745
538.403600,-7402.059420,-9474.636058,-1608.800546
538.403922,-6661.853478,-9844.739029,-1685.410096
538.404245,-4145.153275,-12139.377449,-2757.943793
538.404567,518.144159,-13101.645173,-3830.477490
538.404890,4737.318029,-11917.315666,-3370.820191
538.405212,6883.915261,-10955.047942,0.000000
538.405535,8216.285956,-9252.574275,2451.505594
538.405857,7920.203579,-7254.018232,536.266849
538.406179,6957.935855,-6069.688724,-2604.724693
538.406502,4441.235652,-7328.038826,-3294.210641
538.406824,666.185348,-8808.450710,-3217.601092
538.407147,-3034.844362,-9104.533087,-2757.943793
538.407469,-5625.565159,-10288.862594,-2757.943793
538.407792,-7105.977043,-11399.171507,-2298.286494
538.408114,-7994.224174,-11843.295072,-2145.067394
538.408437,-9400.615463,-8956.491898,-2298.286494
538.408759,-8660.409521,-8734.430116,-2911.162892
538.409081,-5477.523971,-9844.739029,-2298.286494
538.409404,296.082377,-11251.130318,-3064.381992
538.409726,4367.215058,-10584.944971,-3064.381992
538.410049,5847.626942,-9474.636058,995.924147
538.410371,7624.121203,-9918.759623,4519.963438
538.410694,9474.636058,-8660.409521,1455.581446
538.411016,8808.450710,-5477.523971,-2757.943793
538.411338,5625.565159,-5847.626942,-1455.581446
538.411661,2368.659014,-7476.080014,612.876398
538.411983,-1184.329507,-8290.306550,-229.828649
538.412306,-4441.235652,-8438.347739,-536.266849
538.412628,-6883.915261,-8364.327145,-536.266849
538.412951,-8734.430116,-11029.068536,-3064.381992
538.413273,-9548.656652,-11473.192101,-2145.067394
538.413596,-10436.903782,-10510.924376,-689.485948
538.413918,-9252.574275,-8734.430116,-612.876398
538.414240,-3701.029710,-9326.594869,-4060.306139
538.414563,3256.906145,-11029.068536,-4826.401637
538.414885,6587.832884,-11547.212695,-2681.334243
538.415208,7550.100608,-10214.842000,1149.143247
538.415530,7550.100608,-9178.553681,4443.353888
538.415853,7772.162391,-8068.244768,1302.362347
538.416175,5847.626942,-7994.224174,-2298.286494
538.416497,2590.720797,-7846.182985,-2221.676944
538.416820,-370.102971,-6809.894666,-2221.676944
538.417142,-2146.597232,-7254.018232,-2528.115143
538.417465,-3997.112087,-7920.203579,-1762.019645
538.417787,-5329.482782,-9548.656652,-1302.362347
538.418110,-8882.471304,-11103.089130,-842.705048
538.418432,-11325.150913,-11399.171507,-1455.581446
538.418755,-9844.739029,-11251.130318,-3447.429741
538.419077,-4367.215058,-11769.274478,-5822.325785
538.419399,1406.391290,-11177.109724,-4903.011187
538.419722,5847.626942,-10807.006753,-1532.190996
538.420044,8586.388927,-9178.553681,2068.457845
538.420367,10140.821405,-8956.491898,3524.039291
538.420689,9844.739029,-8512.368333,383.047749
538.421012,6661.853478,-6735.874072,-2451.505594
538.421334,2516.700203,-5699.585753,-1991.848295
538.421656,-592.164754,-8068.244768,-2374.896044
538.421979,-3182.885551,-9474.636058,-2911.162892
538.422301,-6661.853478,-9030.512492,-2068.457845
538.422624,-9252.574275,-7402.059420,-1685.410096
538.422946,-8808.450710,-9548.656652,-3524.039291
538.423269,-8512.368333,-10066.800811,-3830.477490
538.423591,-7254.018232,-11843.295072,-3447.429741
538.423914,-4737.318029,-12805.562797,-2528.115143
538.424236,814.226536,-13249.686362,-3294.210641
538.424558,5773.606348,-11695.253884,-2451.505594
538.424881,9178.553681,-9474.636058,76.609550
538.425203,10288.862594,-8216.285956,0.000000
538.425526,10214.842000,-6735.874072,0.000000
538.425848,7328.038826,-5847.626942,0.000000
538.426171,3108.864956,-7179.997637,-766.095498
538.426493,-1406.391290,-8068.244768,-2221.676944
538.426815,-4219.173869,-9252.574275,-3370.820191
538.427138,-6439.791695,-7920.203579,-3753.867940
538.427460,-6883.915261,-9474.636058,-2528.115143
538.427783,-8216.285956,-10214.842000,-1225.752797
538.428105,-9030.512492,-10214.842000,229.828649
538.428428,-8364.327145,-10214.842000,-1149.143247
538.428750,-3775.050304,-12509.480420,-3830.477490
538.429073,1776.494261,-13767.830521,-6205.373534
538.429395,5921.647536,-12213.398043,-3370.820191
538.429717,8438.347739,-10658.965565,1455.581446
538.430040,10140.821405,-7476.080014,2604.724693
538.430362,10066.800811,-5551.544565,1455.581446
538.430685,6291.750507,-5995.668130,229.828649
538.431007,1184.329507,-7402.059420,-1378.971896
538.431330,-3256.906145,-7254.018232,-3064.381992
538.431652,-5329.482782,-8068.244768,-3983.696590
538.431974,-5625.565159,-8438.347739,-2145.067394
538.432297,-7624.121203,-8290.306550,-1072.533697
538.432619,-10066.800811,-9252.574275,-459.657299
538.432942,-11177.109724,-10807.006753,-1455.581446
538.433264,-9770.718434,-11103.089130,-3294.210641
538.433587,-6291.750507,-11843.295072,-4979.620737
538.433909,-1998.556043,-12139.377449,-5898.935335
538.434232,2516.700203,-12805.562797,-3677.258390
538.434554,5255.462188,-11621.233289,995.924147
538.434876,7846.182985,-9104.533087,4060.306139
538.435199,9770.718434,-6883.915261,1378.971896
538.435521,8882.471304,-4441.235652,-3064.381992
538.435844,5181.441594,-4737.318029,-2528.115143
538.436166,1332.370696,-5921.647536,229.828649
538.436489,-1480.411884,-7698.141797,-229.828649
538.436811,-3256.906145,-9844.739029,-1608.800546
538.437133,-5033.400406,-10362.883188,-1378.971896
538.437456,-6587.832884,-11843.295072,-995.924147
538.437778,-8586.388927,-11325.150913,-153.219100
538.438101,-8956.491898,-10584.944971,-306.438199
538.438423,-5107.421000,-10658.965565,-3447.429741
538.438746,0.000000,-11177.109724,-5745.716235
538.439068,4737.318029,-10732.986159,-4136.915689
538.439391,6883.915261,-9622.677246,-1072.533697
538.439713,8290.306550,-9178.553681,1302.362347
538.440035,8956.491898,-9770.718434,2145.067394
538.440358,7994.224174,-9030.512492,306.438199
538.440680,4367.215058,-7254.018232,-995.924147
538.441003,518.144159,-7031.956449,-1762.019645
538.441325,-1998.556043,-6957.935855,-2911.162892
538.441648,-4515.256246,-7624.121203,-3064.381992
538.441970,-6809.894666,-8216.285956,-1302.362347
538.442292,-9474.636058,-9252.574275,-766.095498
538.442615,-9918.759623,-10140.821405,-2528.115143
538.442937,-8586.388927,-12435.459826,-3600.648841
538.443260,-5107.421000,-13989.892304,-3140.991542
538.443582,-888.247130,-13323.706956,-4213.525239
538.443905,5255.462188,-12879.583391,-3370.820191
538.444227,8586.388927,-10955.047942,766.095498
538.444550,11473.192101,-8068.244768,3217.601092
538.444872,12065.356855,-5625.565159,1608.800546
538.445194,9474.636058,-3330.926739,229.828649
538.445517,5033.400406,-5625.565159,229.828649
538.445839,1110.308913,-7476.080014,-1991.848295
538.446162,-1850.514855,-8438.347739,-3600.648841
538.446484,-3923.091493,-8364.327145,-2834.553343
538.446807,-6069.688724,-9030.512492,-1915.238745
538.447129,-9696.697840,-9918.759623,-1149.143247
538.447451,-11769.274478,-11029.068536,-536.266849
538.447774,-11843.295072,-11399.171507,-3370.820191
538.448096,-8956.491898,-11843.295072,-5592.497135
538.448419,-3330.926739,-12731.542202,-7048.078582
538.448741,1554.432478,-11769.274478,-5898.935335
538.449064,4663.297435,-11769.274478,-2681.334243
538.449386,7105.977043,-10807.006753,1532.190996
538.449709,9326.594869,-10362.883188,2298.286494
538.450031,9030.512492,-7624.121203,-153.219100
538.450353,5551.544565,-5033.400406,-1378.971896
538.450676,1480.411884,-5107.421000,-536.266849
538.450998,-1036.288319,-7402.059420,-229.828649
538.451321,-3182.885551,-6439.791695,-1072.533697
538.451643,-5255.462188,-5625.565159,-1608.800546
538.451966,-6661.853478,-8512.368333,-1608.800546
538.452288,-7920.203579,-11399.171507,459.657299
538.452610,-9178.553681,-11769.274478,-76.609550
538.452933,-8290.306550,-11991.336260,-3140.991542
538.453255,-3849.070898,-13175.665768,-4673.182538
538.453578,1110.308913,-13471.748144,-5056.230287
538.453900,5403.503377,-11325.150913,-3447.429741
538.454223,7994.224174,-9326.594869,919.314598
538.454545,9474.636058,-8660.409521,2681.334243
538.454868,8290.306550,-8068.244768,919.314598
538.455190,4737.318029,-7698.141797,-536.266849
538.455512,0.000000,-7994.224174,-1532.190996
538.455835,-2960.823768,-7550.100608,-3524.039291
538.456157,-5107.421000,-6439.791695,-4290.134789
538.456480,-6735.874072,-5921.647536,-2757.943793
538.456802,-7179.997637,-7624.121203,-919.314598
538.457125,-8586.388927,-9622.677246,-1072.533697
538.457447,-9474.636058,-11177.109724,-995.924147
538.457769,-7402.059420,-12139.377449,-2298.286494
538.458092,-3330.926739,-13249.686362,-3983.696590
538.458414,1184.329507,-12953.603985,-5515.887586
538.458737,5181.441594,-11621.233289,-1532.190996
538.459059,7920.203579,-10288.862594,3294.210641
538.459382,11103.089130,-7254.018232,3447.429741
538.459704,10732.986159,-4367.215058,612.876398
538.460027,6957.935855,-3849.070898,0.000000
538.460349,3034.844362,-6365.771101,-1149.143247
538.460671,222.061783,-8290.306550,-2757.943793
538.460994,-1184.329507,-9474.636058,-2757.943793
538.461316,-2368.659014,-9474.636058,-2145.067394
538.461639,-5033.400406,-9474.636058,-766.095498
538.461961,-6217.729913,-10955.047942,0.000000
538.462284,-8142.265362,-9770.718434,0.000000
538.462606,-9030.512492,-10214.842000,-2987.772442
538.462928,-7031.956449,-11473.192101,-4826.401637
538.463251,-1480.411884,-13397.727550,-6511.811733
538.463573,3404.947333,-12805.562797,-5592.497135
538.463896,6809.894666,-10436.903782,-536.266849
538.464218,9178.553681,-10436.903782,4749.792088
538.464541,9400.615463,-9178.553681,4136.915689
538.464863,6587.832884,-5921.647536,-1225.752797
538.465186,2368.659014,-5033.400406,-2528.115143
538.465508,-1258.350101,-6513.812290,-2757.943793
538.465830,-2960.823768,-7402.059420,-3217.601092
538.466153,-4737.318029,-7328.038826,-2604.724693
538.466475,-4589.276840,-8512.368333,-1991.848295
538.466798,-5921.647536,-11917.315666,-459.657299
538.467120,-7254.018232,-12731.542202,459.657299
538.467443,-7402.059420,-12879.583391,-1378.971896
538.467765,-4885.359217,-11843.295072,-3907.087040
538.468087,-814.226536,-12805.562797,-5745.716235
538.468410,3108.864956,-11917.315666,-2987.772442
538.468732,4293.194464,-8956.491898,1915.238745
538.469055,5551.544565,-7105.977043,3524.039291
538.469377,7105.977043,-5699.585753,919.314598
538.469700,6143.709319,-5181.441594,-766.095498
538.470022,2442.679609,-6957.935855,-995.924147
538.470345,-814.226536,-8734.430116,-1302.362347
538.470667,-1850.514855,-8586.388927,-2298.286494
538.470989,-2368.659014,-7846.182985,-3064.381992
538.471312,-4145.153275,-7624.121203,-1915.238745
538.471634,-7328.038826,-9252.574275,-383.047749
538.471957,-10510.924376,-9918.759623,-536.266849
538.472279,-10510.924376,-10955.047942,-2221.676944
538.472602,-6291.750507,-12287.418637,-4749.792088
538.472924,-1924.535449,-12879.583391,-6205.373534
538.473246,1776.494261,-12287.418637,-4213.525239
538.473569,3923.091493,-11177.109724,919.314598
538.473891,6217.729913,-9474.636058,2987.772442
538.474214,7920.203579,-7328.038826,919.314598
538.474536,6365.771101,-4885.359217,-1915.238745
538.474859,2368.659014,-4811.338623,-1378.971896
538.475181,-1036.288319,-6661.853478,-1302.362347
538.475504,-2664.741391,-7846.182985,-2681.334243
538.475826,-3256.906145,-7772.162391,-2987.772442
538.476148,-2664.741391,-8512.368333,-2221.676944
538.476471,-3627.009116,-9844.739029,-1915.238745
538.476793,-5477.523971,-11621.233289,-766.095498
538.477116,-6661.853478,-12657.521608,-766.095498
538.477438,-3701.029710,-14434.015869,-3140.991542
538.477761,370.102971,-14878.139434,-5822.325785
538.478083,4071.132681,-12879.583391,-4596.572988
538.478405,5551.544565,-9918.759623,-612.876398
538.478728,7328.038826,-7994.224174,2681.334243
538.479050,9326.594869,-7550.100608,2451.505594
538.479373,8068.244768,-6587.832884,536.266849
538.479695,3404.947333,-6883.915261,-536.266849
538.480018,-1332.370696,-7105.977043,-1302.362347
538.480340,-3478.967927,-6365.771101,-2834.553343
538.480663,-3997.112087,-6735.874072,-4826.401637
538.480985,-3627.009116,-7698.141797,-4290.134789
538.481307,-6587.832884,-7994.224174,-2374.896044
538.481630,-7994.224174,-10140.821405,-612.876398
538.481952,-7550.100608,-12213.398043,-2528.115143
538.482275,-4589.276840,-15026.180623,-4443.353888
538.482597,-1850.514855,-15692.365970,-5439.278036
538.482920,370.102971,-14582.057057,-3830.477490
538.483242,3330.926739,-11547.212695,-842.705048
538.483564,7254.018232,-7698.141797,1378.971896
538.483887,9918.759623,-5033.400406,2145.067394
538.484209,7994.224174,-3182.885551,1455.581446
538.484532,2738.761985,-3256.906145,1762.019645
538.484854,0.000000,-5847.626942,229.828649
538.485177,-2294.638420,-7179.997637,-2911.162892
538.485499,-4293.194464,-7179.997637,-4060.306139
538.485822,-5107.421000,-8586.388927,-1991.848295
538.486144,-5329.482782,-10362.883188,-459.657299
538.486466,-5181.441594,-11251.130318,-1072.533697
538.486789,-6809.894666,-10955.047942,-153.219100
538.487111,-7179.997637,-11103.089130,-1532.190996
538.487434,-5255.462188,-12583.501014,-5132.839837
538.487756,-1628.453072,-14211.954086,-6741.640382
538.488078,1258.350101,-13027.624579,-5209.449386
538.488401,4293.194464,-11103.089130,-2451.505594
538.488723,7550.100608,-11843.295072,459.657299
538.489046,7994.224174,-9474.636058,2757.943793
538.489368,4293.194464,-6365.771101,919.314598
538.489690,888.247130,-4293.194464,-689.485948
538.490013,-444.123565,-5847.626942,-3064.381992
538.490335,-2294.638420,-6069.688724,-3447.429741
538.490658,-4737.318029,-5181.441594,-1608.800546
538.490980,-5403.503377,-7254.018232,76.609550
538.491302,-5255.462188,-10807.006753,-612.876398
538.491625,-4663.297435,-13249.686362,-1149.143247
538.491947,-4145.153275,-13767.830521,-3140.991542
538.492270,-1850.514855,-14582.057057,-4826.401637
538.492592,1850.514855,-14063.912898,-4290.134789
538.492914,4589.276840,-11843.295072,-1762.019645
538.493237,5699.585753,-8290.306550,1685.410096
538.493559,6513.812290,-6291.750507,2528.115143
538.493882,6291.750507,-6143.709319,766.095498
538.494204,3552.988522,-6735.874072,-459.657299
538.494526,222.061783,-7179.997637,0.000000
538.494849,-2072.576638,-6883.915261,-1455.581446
538.495171,-2442.679609,-7994.224174,-2451.505594
538.495494,-2738.761985,-8068.244768,-1455.581446
538.495816,-4367.215058,-7772.162391,-919.314598
538.496138,-6883.915261,-9178.553681,-919.314598
538.496461,-8956.491898,-8586.388927,-1532.190996
538.496783,-8438.347739,-10510.924376,-3753.867940
538.497106,-4811.338623,-12657.521608,-5592.497135
538.497428,-444.123565,-13619.789333,-5515.887586
538.497750,2960.823768,-11991.336260,-3983.696590
538.498073,6143.709319,-12213.398043,459.657299
538.498395,8216.285956,-10732.986159,3753.867940
538.498718,9474.636058,-8808.450710,919.314598
538.499040,6365.771101,-6069.688724,-1915.238745
538.499362,1998.556043,-4737.318029,306.438199
538.499685,0.000000,-6365.771101,-383.047749
538.500007,-2368.659014,-6883.915261,-2987.772442
538.500330,-4219.173869,-5033.400406,-919.314598
538.500652,-5033.400406,-7105.977043,-383.047749
538.500974,-4811.338623,-9992.780217,-1685.410096
538.501297,-5551.544565,-12139.377449,-1302.362347
538.501619,-6217.729913,-12139.377449,-2604.724693
538.501942,-3478.967927,-12731.542202,-4673.182538
538.502264,1406.391290,-14359.995275,-5286.058936
538.502586,3923.091493,-12953.603985,-3140.991542
538.502909,3627.009116,-8956.491898,689.485948
538.503231,4589.276840,-5403.503377,842.705048
538.503554,6217.729913,-8068.244768,-3217.601092
538.503876,5107.421000,-11547.212695,-1915.238745
538.504198,0.000000,-10732.986159,229.828649
538.504521,-4811.338623,-6587.832884,0.000000
538.504843,-5847.626942,-7031.956449,-1762.019645
538.505166,-4811.338623,-7179.997637,-3217.601092
538.505488,-5773.606348,-7476.080014,-4979.620737
538.505810,-9326.594869,-7994.224174,-4136.915689
538.506133,-11177.109724,-9844.739029,1225.752797
538.506455,-10732.986159,-9696.697840,383.047749
538.506778,-5699.585753,-11843.295072,-3753.867940
538.507100,222.061783,-13249.686362,-6894.859482
538.507422,3627.009116,-12805.562797,-6052.154434
538.507745,4811.338623,-12139.377449,0.000000
538.508067,6809.894666,-9474.636058,5822.325785
538.508390,7846.182985,-6291.750507,3524.039291
538.508712,6143.709319,-5181.441594,-3983.696590
538.509034,2072.576638,-7698.141797,-3140.991542
538.509357,-2220.617826,-8956.491898,0.000000
538.509679,-5477.523971,-7846.182985,-842.705048
538.510002,-8142.265362,-6957.935855,-1608.800546
538.510324,-7698.141797,-6661.853478,-612.876398
538.510646,-8586.388927,-7105.977043,-2987.772442
538.510969,-9326.594869,-10510.924376,-3983.696590
538.511291,-11251.130318,-12065.356855,-2834.553343
538.511614,-10807.006753,-12435.459826,-1225.752797
538.511936,-6365.771101,-11843.295072,-3677.258390
538.512258,-814.226536,-10510.924376,-5209.449386
538.512581,2368.659014,-8808.450710,-3370.820191
538.512903,4737.318029,-9104.533087,229.828649
538.513226,6957.935855,-10140.821405,306.438199
538.513548,7328.038826,-9770.718434,-1149.143247
538.513870,3701.029710,-8068.244768,-1378.971896
538.514193,-962.267725,-7105.977043,0.000000
538.514515,-3775.050304,-7105.977043,-689.485948
538.514838,-4367.215058,-7105.977043,-3983.696590
538.515160,-4885.359217,-7550.100608,-4826.401637
538.515482,-7179.997637,-8364.327145,-2068.457845
538.515805,-8808.450710,-10214.842000,1455.581446
538.516127,-9918.759623,-11695.253884,919.314598
538.516450,-8808.450710,-12139.377449,-1302.362347
538.516772,-6143.709319,-12731.542202,-3907.087040
538.517094,-1850.514855,-11325.150913,-5286.058936
538.517417,2442.679609,-9918.759623,-3600.648841
538.517739,6957.935855,-9622.677246,1455.581446
538.518062,9400.615463,-7402.059420,2834.553343
538.518384,10732.986159,-6365.771101,536.266849
538.518706,9474.636058,-7179.997637,-536.266849
538.519029,5181.441594,-8512.368333,-1072.533697
538.519351,-2960.823768,-8808.450710,-2145.067394
538.519674,-9548.656652,-9030.512492,-995.924147
538.519996,-11621.233289,-7031.956449,-612.876398
538.520318,-9474.636058,-6587.832884,-6281.983084
538.520641,-11177.109724,-8512.368333,-9806.022374
538.520963,-13397.727550,-11991.336260,-3217.601092
538.521286,-13397.727550,-13397.727550,1455.581446
538.521608,-9326.594869,-13027.624579,0.000000
538.521930,-5181.441594,-12361.439231,-4979.620737
538.522253,-3108.864956,-12213.398043,-5898.935335
538.522575,-2146.597232,-11103.089130,-3064.381992
538.522898,0.000000,-8216.285956,919.314598
538.523220,5255.462188,-4885.359217,3140.991542
538.523542,10584.944971,-3627.009116,76.609550
538.523865,12509.480420,-4959.379811,-1302.362347
538.524187,10881.027347,-6883.915261,2068.457845
538.524510,7476.080014,-7550.100608,4519.963438
538.524832,2220.617826,-9844.739029,689.485948
538.525154,-2590.720797,-11029.068536,-1455.581446
538.525477,-7105.977043,-7328.038826,-1991.848295
538.525799,-10214.842000,-5403.503377,-6894.859482
538.526122,-11029.068536,-10214.842000,-8350.440928
538.526444,-10362.883188,-14878.139434,-4596.572988
538.526766,-9770.718434,-14582.057057,-536.266849
538.527089,-7772.162391,-12805.562797,-153.219100
538.527411,-3701.029710,-11177.109724,-2374.896044
538.527734,-962.267725,-11843.295072,-4903.011187
538.528056,-1258.350101,-12139.377449,-4060.306139
538.528378,-2960.823768,-9400.615463,459.657299
538.528701,-2516.700203,-5921.647536,2604.724693
538.529023,-296.082377,-3923.091493,919.314598
538.529346,1332.370696,-3330.926739,-1225.752797
538.529668,1332.370696,-4441.235652,-1608.800546
538.529990,962.267725,-6883.915261,-1225.752797
538.530313,1036.288319,-10510.924376,-536.266849
538.530635,444.123565,-12287.418637,-766.095498
538.530958,222.061783,-11177.109724,-1608.800546
538.531280,-1628.453072,-9622.677246,-3447.429741
538.531602,-4959.379811,-10510.924376,-4673.182538
538.531925,-8216.285956,-12509.480420,-3677.258390
538.532247,-9474.636058,-13323.706956,-3217.601092
538.532570,-7846.182985,-11621.233289,-3907.087040
538.532892,-4071.132681,-10584.944971,-3370.820191
538.533214,-1332.370696,-10066.800811,-1378.971896
538.533537,0.000000,-9030.512492,1838.629195
538.533859,1258.350101,-6587.832884,3294.210641
538.534182,2146.597232,-4737.318029,2298.286494
538.534504,1850.514855,-3997.112087,-1838.629195
538.534826,-1110.308913,-4885.359217,-2834.553343
538.535149,-5625.565159,-7772.162391,-1225.752797
538.535471,-8956.491898,-10214.842000,0.000000
538.535794,-8956.491898,-12435.459826,-2068.457845
538.536116,-6587.832884,-13175.665768,-4673.182538
538.536438,-3701.029710,-12213.398043,-5286.058936
538.536761,-1850.514855,-11029.068536,-3983.696590
538.537083,-666.185348,-10140.821405,-1455.581446
538.537406,74.020594,-10362.883188,-383.047749
538.537728,1480.411884,-9474.636058,-1378.971896
538.538050,1036.288319,-8956.491898,-3370.820191
538.538373,592.164754,-9400.615463,-3677.258390
538.538695,0.000000,-9622.677246,-2604.724693
538.539018,0.000000,-10066.800811,-76.609550
538.539340,-370.102971,-10214.842000,2757.943793
538.539662,-814.226536,-7550.100608,2681.334243
538.539985,-1998.556043,-4959.379811,-153.219100
538.540307,-3404.947333,-4737.318029,-2374.896044
538.540630,-3627.009116,-6661.853478,-3140.991542
538.540952,-4441.235652,-7550.100608,-3217.601092
538.541274,-3701.029710,-9178.553681,-2604.724693
538.541597,-3108.864956,-10658.965565,-2221.676944
538.541919,-1850.514855,-12509.480420,-1915.238745
538.542242,-1702.473667,-12731.542202,-2681.334243
538.542564,-2146.597232,-12361.439231,-4136.915689
538.542886,-2294.638420,-12509.480420,-4519.963438
538.543209,-2886.803174,-12805.562797,-2374.896044
538.543531,-4219.173869,-11177.109724,-1149.143247
538.543854,-5403.503377,-8512.368333,0.000000
538.544176,-5847.626942,-6439.791695,-383.047749
538.544498,-4515.256246,-5403.503377,-2145.067394
538.544821,-2738.761985,-5773.606348,-2604.724693
538.545143,-1702.473667,-5625.565159,-1991.848295
538.545466,-666.185348,-5847.626942,-1378.971896
538.545788,1258.350101,-7476.080014,-1455.581446
538.546110,2886.803174,-9548.656652,-2221.676944
538.546433,2072.576638,-10584.944971,-2757.943793
538.546755,-222.061783,-10807.006753,-3524.039291
538.547078,-2664.741391,-11695.253884,-3524.039291
538.547400,-3701.029710,-12583.501014,-3294.210641
538.547722,-3256.906145,-12509.480420,-2528.115143
538.548045,-3330.926739,-11991.336260,-2298.286494
538.548367,-3701.029710,-11547.212695,-306.438199
538.548690,-4145.153275,-9400.615463,536.266849
538.549012,-3997.112087,-7698.141797,0.000000
538.549334,-3404.947333,-6217.729913,-459.657299
538.549657,-3034.844362,-4811.338623,-153.219100
538.549979,-2960.823768,-4737.318029,-229.828649
538.550302,-1850.514855,-5033.400406,-612.876398
538.550624,0.000000,-7254.018232,-995.924147
538.550946,1258.350101,-10510.924376,-1455.581446
538.551269,1554.432478,-12287.418637,-1225.752797
538.551591,0.000000,-12509.480420,-1455.581446
538.551914,-2812.782580,-11843.295072,-2298.286494
538.552236,-5033.400406,-11769.274478,-3983.696590
538.552558,-7179.997637,-11473.192101,-5056.230287
538.552881,-9696.697840,-10807.006753,-4903.011187
538.553203,-10584.944971,-11621.233289,-4519.963438
538.553526,-11399.171507,-9844.739029,-1532.190996
538.553848,-9622.677246,-10066.800811,-1072.533697
538.554170,-7179.997637,-8438.347739,-612.876398
538.554493,-4071.132681,-7698.141797,-689.485948
538.554815,-1036.288319,-5699.585753,-995.924147
538.555138,1702.473667,-3256.906145,383.047749
538.555460,3775.050304,-3330.926739,306.438199
538.555782,4811.338623,-4515.256246,-689.485948
538.556105,5033.400406,-7698.141797,-1838.629195
538.556427,5033.400406,-11103.089130,-2221.676944
538.556750,3775.050304,-13249.686362,-1991.848295
538.557072,1332.370696,-14878.139434,-995.924147
538.557394,-1258.350101,-14285.974681,-306.438199
538.557717,-3478.967927,-12361.439231,-459.657299
538.558039,-5033.400406,-10214.842000,-1532.190996
538.558362,-8068.244768,-6957.935855,-2528.115143
538.558684,-8956.491898,-6661.853478,-3064.381992
538.559006,-8364.327145,-7624.121203,-2757.943793
538.559329,-6365.771101,-9474.636058,-1149.143247
538.559651,-4293.194464,-9918.759623,1072.533697
538.559974,-2072.576638,-9548.656652,1915.238745
538.560296,-592.164754,-8364.327145,612.876398
538.560618,1258.350101,-7846.182985,-1149.143247
538.560941,2442.679609,-7105.977043,-2451.505594
538.561263,2368.659014,-6143.709319,-2987.772442
538.561586,2442.679609,-5847.626942,-3064.381992
538.561908,2442.679609,-7031.956449,-4213.525239
538.562230,2368.659014,-10436.903782,-5592.497135
538.562553,888.247130,-14211.954086,-4826.401637
538.562875,-1998.556043,-15914.427753,-2298.286494
538.563198,-4737.318029,-16210.510130,-842.705048
538.563520,-6809.894666,-14359.995275,-306.438199
538.563842,-6809.894666,-11621.233289,-1915.238745
538.564165,-7179.997637,-7328.038826,-2834.553343
538.564487,-7031.956449,-4737.318029,-1838.629195
538.564810,-5699.585753,-3997.112087,0.000000
538.565132,-3701.029710,-3997.112087,612.876398
538.565454,-1332.370696,-4663.297435,0.000000
538.565777,-296.082377,-7105.977043,76.609550
538.566099,-370.102971,-9918.759623,-306.438199
538.566422,-1110.308913,-11695.253884,-1532.190996
538.566744,-1628.453072,-12139.377449,-2374.896044
538.567066,-1628.453072,-12287.418637,-3447.429741
538.567389,-2294.638420,-11769.274478,-2987.772442
538.567711,-2368.659014,-10807.006753,-2604.724693
538.568034,-2738.761985,-10140.821405,-2528.115143
538.568356,-2664.741391,-10955.047942,-1838.629195
538.568678,-3108.864956,-10436.903782,-1225.752797
538.569001,-3997.112087,-9178.553681,-1225.752797
538.569323,-5477.523971,-7031.956449,-1302.362347
538.569646,-6069.688724,-5329.482782,-1455.581446
538.569968,-6069.688724,-5329.482782,-2451.505594
538.570290,-5847.626942,-5033.400406,-2604.724693
538.570613,-5033.400406,-5625.565159,-2451.505594
538.570935,-4293.194464,-7772.162391,-3217.601092
538.571258,-3034.844362,-10436.903782,-2834.553343
538.571580,-2442.679609,-12361.439231,-2681.334243
538.571902,-2146.597232,-12879.583391,-3217.601092
538.572225,-2220.617826,-12879.583391,-3753.867940
538.572547,-1554.432478,-12509.480420,-3753.867940
538.572870,-1702.473667,-11399.171507,-3217.601092
538.573192,-1998.556043,-10288.862594,-2834.553343
538.573514,-1850.514855,-9770.718434,-1838.629195
538.573837,-592.164754,-10140.821405,-1225.752797
538.574159,222.061783,-9400.615463,-1378.971896
538.574482,370.102971,-8734.430116,0.000000
538.574804,1110.308913,-7846.182985,612.876398
538.575126,1850.514855,-7031.956449,536.266849
538.575449,1702.473667,-6217.729913,-153.219100
538.575771,1036.288319,-6809.894666,76.609550
538.576094,-370.102971,-7550.100608,-1149.143247
538.576416,-740.205942,-9030.512492,-2221.676944
538.576738,-148.041188,-10807.006753,-2298.286494
538.577061,0.000000,-12139.377449,-1915.238745
538.577383,-222.061783,-12657.521608,-1149.143247
538.577706,-814.226536,-12139.377449,-689.485948
538.578028,-1702.473667,-11399.171507,-612.876398
538.578350,-2886.803174,-10510.924376,-1072.533697
538.578673,-3775.050304,-9252.574275,-1838.629195
538.578995,-4515.256246,-8290.306550,-1685.410096
538.579318,-5551.544565,-7698.141797,-1608.800546
538.579640,-4811.338623,-7846.182985,-612.876398
538.579962,-4441.235652,-7698.141797,-689.485948
538.580285,-3997.112087,-7772.162391,-919.314598
538.580607,-3849.070898,-7105.977043,-1302.362347
538.580930,-3627.009116,-7254.018232,-2298.286494
538.581252,-3775.050304,-8216.285956,-2528.115143
538.581574,-4293.194464,-8290.306550,-1991.848295
538.581897,-4811.338623,-8660.409521,-2221.676944
538.582219,-4737.318029,-9918.759623,-3140.991542
538.582542,-3108.864956,-11843.295072,-3064.381992
538.582864,-2294.638420,-12361.439231,-1991.848295
538.583186,-1850.514855,-11991.336260,-459.657299
538.583509,-1110.308913,-11251.130318,153.219100
538.583831,-740.205942,-10288.862594,-153.219100
538.584154,-1554.432478,-8364.327145,0.000000
538.584476,-2590.720797,-8290.306550,0.000000
538.584798,-4145.153275,-7179.997637,0.000000
538.585121,-5033.400406,-6587.832884,-995.924147
538.585443,-4885.359217,-6809.894666,-1378.971896
538.585766,-4515.256246,-7920.203579,-1072.533697
538.586088,-3627.009116,-9400.615463,-919.314598
538.586410,-2886.803174,-9770.718434,-919.314598
538.586733,-2220.617826,-9474.636058,-2068.457845
538.587055,-962.267725,-10658.965565,-3217.601092
538.587378,-592.164754,-12213.398043,-3753.867940
538.587700,-814.226536,-12509.480420,-2528.115143
538.588022,-1998.556043,-11029.068536,-2681.334243
538.588345,-1480.411884,-11769.274478,-3064.381992
538.588667,-444.123565,-13101.645173,-2681.334243
538.588990,-518.144159,-12731.542202,-766.095498
538.589312,-1184.329507,-11399.171507,1378.971896
538.589634,-444.123565,-9844.739029,1762.019645
538.589957,370.102971,-8438.347739,1149.143247
538.590279,1702.473667,-6513.812290,1149.143247
538.590602,2590.720797,-5329.482782,995.924147
538.590924,3478.967927,-5477.523971,1072.533697
538.591246,3923.091493,-5995.668130,1838.629195
538.591569,4441.235652,-8512.368333,1685.410096
538.591891,4219.173869,-10881.027347,1302.362347
538.592214,3775.050304,-12953.603985,1225.752797
538.592536,2960.823768,-12953.603985,1225.752797
538.592858,2516.700203,-12435.459826,842.705048
538.593181,2072.576638,-11103.089130,919.314598
538.593503,1628.453072,-9770.718434,1302.362347
538.593826,518.144159,-8068.244768,2068.457845
538.594148,-592.164754,-7328.038826,2145.067394
538.594470,-1332.370696,-7328.038826,1685.410096
538.594793,-1628.453072,-7994.224174,1072.533697
538.595115,-2294.638420,-8438.347739,2145.067394
538.595438,-3256.906145,-8808.450710,2987.772442
538.595760,-3330.926739,-8438.347739,3370.820191
538.596082,-2886.803174,-7920.203579,2757.943793
538.596405,-2738.761985,-7402.059420,1608.800546
538.596727,-3034.844362,-7624.121203,1762.019645
538.597050,-2664.741391,-8364.327145,1838.629195
538.597372,-2516.700203,-9474.636058,1838.629195
538.597694,-2516.700203,-10881.027347,1991.848295
538.598017,-2442.679609,-12139.377449,2757.943793
538.598339,-2960.823768,-11769.274478,2528.115143
538.598662,-3182.885551,-11473.192101,2221.676944
538.598984,-2738.761985,-10955.047942,1915.238745
538.599306,-2294.638420,-10214.842000,2068.457845
538.599629,-1702.473667,-9252.574275,2681.334243
538.599951,-1036.288319,-8512.368333,3217.601092
538.600274,-222.061783,-8512.368333,2987.772442
538.600596,0.000000,-8882.471304,2451.505594
538.600918,0.000000,-9178.553681,1991.848295
538.601241,-666.185348,-9548.656652,1685.410096
538.601563,-1258.350101,-9548.656652,995.924147
538.601886,-1924.535449,-10066.800811,919.314598
538.602208,-2442.679609,-10732.986159,-536.266849
538.602530,-3034.844362,-10510.924376,-919.314598
538.602853,-2590.720797,-10732.986159,-766.095498
538.603175,-2146.597232,-10436.903782,-842.705048
538.603498,-2220.617826,-9696.697840,-306.438199
538.603820,-2220.617826,-9548.656652,0.000000
538.604142,-2146.597232,-9474.636058,-766.095498
538.604465,-962.267725,-9696.697840,-1991.848295
538.604787,592.164754,-9770.718434,-1149.143247
538.605110,2368.659014,-9104.533087,0.000000
538.605432,4515.256246,-8142.265362,229.828649
538.605754,5477.523971,-7105.977043,229.828649
538.606077,6217.729913,-7105.977043,-229.828649
538.606399,5699.585753,-7624.121203,-1225.752797
538.606721,4145.153275,-7698.141797,-2374.896044
538.607044,592.164754,-7476.080014,-2374.896044
538.607366,-1702.473667,-8512.368333,-2911.162892
538.607689,-3404.947333,-11029.068536,-3600.648841
538.608011,-3997.112087,-12805.562797,-3140.991542
538.608333,-4663.297435,-12361.439231,-3370.820191
538.608656,-3256.906145,-11621.233289,-3447.429741
538.608978,592.164754,-12879.583391,-3217.601092
538.609301,3182.885551,-12879.583391,-1225.752797
538.609623,4293.194464,-11177.109724,842.705048
538.609945,4811.338623,-9400.615463,1149.143247
538.610268,5033.400406,-8216.285956,1685.410096
538.610590,5329.482782,-7328.038826,1991.848295
538.610913,4367.215058,-5255.462188,919.314598
538.611235,2368.659014,-4959.379811,-153.219100
538.611557,666.185348,-6883.915261,842.705048
538.611880,-1702.473667,-6587.832884,766.095498
538.612202,-3775.050304,-6957.935855,-919.314598
538.612525,-5699.585753,-9474.636058,-2604.724693
538.612847,-7624.121203,-11251.130318,-3524.039291
538.613169,-8512.368333,-12435.459826,-4213.525239
538.613492,-7772.162391,-15174.221811,-4903.011187
538.613814,-5773.606348,-17246.798449,-3140.991542
538.614137,-4663.297435,-15914.427753,-995.924147
538.614459,-3404.947333,-12509.480420,-1532.190996
538.614781,-1924.535449,-9548.656652,-1915.238745
538.615104,-444.123565,-8142.265362,-1915.238745
538.615426,-148.041188,-8068.244768,0.000000
538.615749,-1776.494261,-7179.997637,1991.848295
538.616071,-3478.967927,-7994.224174,3753.867940
538.616393,-3849.070898,-9252.574275,3447.429741
538.616716,-2960.823768,-9548.656652,3064.381992
538.617038,-2368.659014,-9474.636058,3600.648841
538.617361,-2516.700203,-8882.471304,4213.525239
538.617683,-1776.494261,-7920.203579,5132.839837
538.618005,-1332.370696,-5921.647536,3983.696590
538.618328,-222.061783,-5255.462188,1378.971896
538.618650,518.144159,-6587.832884,-153.219100
538.618973,2072.576638,-8216.285956,229.828649
538.619295,2812.782580,-9992.780217,1225.752797
538.619617,3404.947333,-10732.986159,2987.772442
538.619940,4589.276840,-10955.047942,3370.820191
538.620262,5773.606348,-11029.068536,2834.553343
538.620585,5847.626942,-10658.965565,2451.505594
538.620907,4071.132681,-9696.697840,1532.190996
538.621229,1110.308913,-8808.450710,1991.848295
538.621552,-1850.514855,-8512.368333,4749.792088
538.621874,-4367.215058,-6439.791695,5515.887586
538.622197,-4737.318029,-7105.977043,3524.039291
538.622519,-3849.070898,-9474.636058,766.095498
538.622841,-1776.494261,-10658.965565,1685.410096
538.623164,296.082377,-11991.336260,2068.457845
538.623486,2368.659014,-12065.356855,3677.258390
538.623808,4885.359217,-12065.356855,4749.792088
538.624131,7550.100608,-9622.677246,2068.457845
538.624453,7328.038826,-8586.388927,0.000000
538.624776,5995.668130,-8364.327145,2068.457845
538.625098,5625.565159,-6513.812290,3064.381992
538.625420,4737.318029,-5847.626942,-1302.362347
538.625743,3330.926739,-10732.986159,-3753.867940
538.626065,1258.350101,-15766.386565,-536.266849
538.626388,-3034.844362,-12953.603985,1685.410096
538.626710,-8808.450710,-11029.068536,1149.143247
538.627032,-10658.965565,-14211.954086,919.314598
538.627355,-11251.130318,-12953.603985,-2374.896044
538.627677,-14804.118840,-9918.759623,-4596.572988
538.628000,-17172.777854,-7624.121203,229.828649
538.628322,-15988.448347,-5551.544565,3140.991542
538.628644,-9400.615463,-7031.956449,-2911.162892
538.628967,-740.205942,-8216.285956,-4673.182538
538.629289,5181.441594,-8068.244768,-1838.629195
538.629612,8068.244768,-9252.574275,-919.314598
538.629934,11695.253884,-9622.677246,3677.258390
538.630256,14508.036463,-7105.977043,6435.202183
538.630579,13027.624579,-4441.235652,-3217.601092
538.630901,10362.883188,-7698.141797,-7354.516781
538.631224,6809.894666,-11769.274478,-689.485948
538.631546,296.082377,-11843.295072,2145.067394
538.631868,-6883.915261,-13841.851115,1685.410096
538.632191,-11177.109724,-14878.139434,4596.572988
538.632513,-12805.562797,-11917.315666,1302.362347
538.632836,-10066.800811,-10140.821405,-6894.859482
538.633158,-7550.100608,-9400.615463,-5132.839837
538.633480,-6291.750507,-9104.533087,2528.115143
538.633803,-3330.926739,-1776.494261,3447.429741
538.634125,518.144159,1110.308913,-689.485948
538.634448,3997.112087,-3552.988522,-2221.676944
538.634770,5181.441594,-7105.977043,-4136.915689
538.635092,2812.782580,-10066.800811,-5132.839837
538.635415,0.000000,-12583.501014,-1685.410096
538.635737,-1184.329507,-15322.262999,536.266849
538.636060,-296.082377,-15322.262999,-2068.457845
538.636382,0.000000,-13989.892304,-5209.449386
538.636704,-1036.288319,-13397.727550,-2604.724693
538.637027,-1480.411884,-12287.418637,-2757.943793
538.637349,-740.205942,-10584.944971,-1685.410096
538.637672,296.082377,-8364.327145,2221.676944
538.637994,888.247130,-5477.523971,2298.286494
538.638316,1480.411884,-6587.832884,536.266849
538.638639,3849.070898,-9844.739029,689.485948
538.638961,6291.750507,-9622.677246,1072.533697
538.639284,6587.832884,-6735.874072,689.485948
538.639606,6069.688724,-6439.791695,2528.115143
538.639928,4589.276840,-7994.224174,4903.011187
538.640251,2368.659014,-10510.924376,2298.286494
538.640573,0.000000,-13027.624579,-995.924147
538.640896,-888.247130,-14582.057057,-2221.676944
538.641218,-370.102971,-14434.015869,-2068.457845
538.641540,-962.267725,-11029.068536,459.657299
538.641863,-3034.844362,-9474.636058,3064.381992
538.642185,-3404.947333,-9474.636058,1991.848295
538.642507,-2664.741391,-10288.862594,-842.705048
538.642830,-4219.173869,-11399.171507,-995.924147
538.643152,-7846.182985,-11917.315666,2145.067394
538.643475,-11325.150913,-11251.130318,5209.449386
538.643797,-10066.800811,-10140.821405,4979.620737
538.644119,-5625.565159,-8290.306550,2528.115143
538.644442,-666.185348,-4885.359217,2451.505594
538.644764,1110.308913,-740.205942,2911.162892
538.645087,1184.329507,370.102971,3600.648841
538.645409,1184.329507,-2738.761985,4213.525239
538.645731,1406.391290,-8586.388927,2451.505594
538.646054,148.041188,-12361.439231,1302.362347
538.646376,-1924.535449,-13101.645173,1225.752797
538.646699,-3478.967927,-12361.439231,612.876398
538.647021,-2812.782580,-11769.274478,1838.629195
538.647343,-1628.453072,-11177.109724,3140.991542
538.647666,-222.061783,-10362.883188,3600.648841
538.647988,-518.144159,-10140.821405,2681.334243
538.648311,1480.411884,-10214.842000,2911.162892
538.648633,3552.988522,-8068.244768,766.095498
538.648955,5255.462188,-9178.553681,0.000000
538.649278,4663.297435,-11251.130318,4290.134789
538.649600,3478.967927,-9622.677246,8120.612279
538.649923,1776.494261,-5995.668130,5515.887586
538.650245,2072.576638,-4367.215058,-229.828649
538.650567,4441.235652,-8068.244768,-3600.648841
538.650890,4663.297435,-9622.677246,-2451.505594
538.651212,3108.864956,-9030.512492,1225.752797
538.651535,1628.453072,-9474.636058,2068.457845
538.651857,1554.432478,-12213.398043,-612.876398
538.652179,0.000000,-14952.160028,-3524.039291
538.652502,-5329.482782,-16802.674883,-3447.429741
538.652824,-11769.274478,-17172.777854,-2757.943793
538.653147,-13471.748144,-15692.365970,-3140.991542
538.653469,-10658.965565,-12953.603985,-3447.429741
538.653791,-6513.812290,-10288.862594,-2374.896044
538.654114,-3627.009116,-7254.018232,1302.362347
538.654436,-370.102971,-5477.523971,2528.115143
538.654759,2072.576638,-4663.297435,842.705048
538.655081,2368.659014,-6883.915261,0.000000
538.655403,814.226536,-9474.636058,1532.190996
538.655726,-222.061783,-9622.677246,1838.629195
538.656048,888.247130,-8808.450710,-536.266849
538.656371,3923.091493,-7105.977043,-612.876398
538.656693,6661.853478,-6217.729913,229.828649
538.657015,8142.265362,-6587.832884,306.438199
538.657338,8142.265362,-7624.121203,-536.266849
538.657660,7476.080014,-8438.347739,-306.438199
538.657983,4145.153275,-9474.636058,-689.485948
538.658305,-296.082377,-11473.192101,-1378.971896
538.658627,-4737.318029,-11991.336260,-1608.800546
538.658950,-6661.853478,-11621.233289,-2068.457845
538.659272,-7105.977043,-10732.986159,-612.876398
538.659594,-5847.626942,-9770.718434,459.657299
538.659917,-4737.318029,-6661.853478,0.000000
538.660239,-2812.782580,-4885.359217,-383.047749
538.660562,-1702.473667,-3775.050304,689.485948
538.660884,-1776.494261,-5255.462188,536.266849
538.661206,-2220.617826,-7476.080014,-306.438199
538.661529,-1628.453072,-8808.450710,-2145.067394
538.661851,-1924.535449,-10140.821405,-2451.505594
538.662174,-2146.597232,-11177.109724,-2374.896044
538.662496,-1258.350101,-11769.274478,-2528.115143
538.662818,74.020594,-12731.542202,-4826.401637
538.663141,296.082377,-12805.562797,-4060.306139
538.663463,-1628.453072,-13619.789333,-2374.896044
538.663786,-3552.988522,-13989.892304,-2145.067394
538.664108,-3923.091493,-13915.871710,-3370.820191
538.664430,-3330.926739,-12731.542202,-2834.553343
538.664753,-2294.638420,-11547.212695,-995.924147
538.665075,-888.247130,-9474.636058,306.438199
538.665398,0.000000,-8808.450710,1302.362347
538.665720,740.205942,-7698.141797,4060.306139
538.666042,2072.576638,-7550.100608,5132.839837
538.666365,3775.050304,-7846.182985,2451.505594
538.666687,5477.523971,-7550.100608,0.000000
538.667010,5699.585753,-4811.338623,1072.533697
538.667332,4959.379811,-2738.761985,1838.629195
538.667654,5773.606348,-4589.276840,-536.266849
538.667977,5329.482782,-8882.471304,-2221.676944
538.668299,2220.617826,-11177.109724,-1302.362347
538.668622,-2664.741391,-12287.418637,0.000000
538.668944,-5181.441594,-15470.304188,-2221.676944
538.669266,-4885.359217,-17690.922014,-4290.134789
538.669589,-5847.626942,-14285.974681,-1378.971896
538.669911,-5403.503377,-8734.430116,766.095498
538.670234,-4737.318029,-5329.482782,919.314598
538.670556,-2812.782580,-5107.421000,306.438199
538.670878,-2664.741391,-4885.359217,1608.800546
538.671201,-3478.967927,-5477.523971,2911.162892
538.671523,-2368.659014,-9252.574275,1225.752797
538.671846,0.000000,-11103.089130,1685.410096
538.672168,2146.597232,-7846.182985,2834.553343
538.672490,4367.215058,-4293.194464,1225.752797
538.672813,6143.709319,-5773.606348,-612.876398
538.673135,6217.729913,-7846.182985,0.000000
538.673458,3108.864956,-8364.327145,536.266849
538.673780,-1184.329507,-10510.924376,-1762.019645
538.674102,-3256.906145,-14804.118840,-4749.792088
538.674425,-3552.988522,-17172.777854,-5362.668486
538.674747,-5255.462188,-14878.139434,-2528.115143
538.675070,-5033.400406,-11547.212695,-919.314598
538.675392,-3108.864956,-10436.903782,-995.924147
538.675714,-1406.391290,-8586.388927,-536.266849
538.676037,-2886.803174,-7105.977043,306.438199
538.676359,-4737.318029,-8438.347739,1225.752797
538.676682,-2960.823768,-8956.491898,459.657299
538.677004,1258.350101,-5477.523971,-1302.362347
538.677326,4219.173869,-1702.473667,-2451.505594
538.677649,6217.729913,-2886.803174,-1378.971896
538.677971,6513.812290,-5551.544565,612.876398
538.678293,4959.379811,-7105.977043,153.219100
538.678616,1110.308913,-9474.636058,-3447.429741
538.678938,-2294.638420,-14211.954086,-7660.954980
538.679261,-3997.112087,-17024.736666,-8350.440928
538.679583,-4811.338623,-15322.262999,-6435.202183
538.679905,-3330.926739,-14211.954086,-5056.230287
538.680228,-1850.514855,-13471.748144,-4060.306139
538.680550,-740.205942,-11769.274478,-2451.505594
538.680873,-1776.494261,-10214.842000,-1149.143247
538.681195,-1924.535449,-11251.130318,-229.828649
538.681517,518.144159,-10732.986159,-1685.410096
538.681840,3552.988522,-6661.853478,-2834.553343
538.682162,5773.606348,-2516.700203,-2604.724693
538.682485,7476.080014,-2294.638420,-842.705048
538.682807,6661.853478,-3478.967927,1149.143247
538.683129,1924.535449,-4663.297435,1685.410096
538.683452,-4293.194464,-7105.977043,-995.924147
538.683774,-7254.018232,-11695.253884,-6665.030833
538.684097,-7105.977043,-13989.892304,-9959.241474
538.684419,-6365.771101,-14137.933492,-8273.831378
538.684741,-5773.606348,-13249.686362,-5669.106685
538.685064,-4737.318029,-12361.439231,-3140.991542
538.685386,-4071.132681,-11399.171507,-1762.019645
538.685709,-4885.359217,-11621.233289,-1608.800546
538.686031,-6439.791695,-13989.892304,-3600.648841
538.686353,-4811.338623,-13545.768739,-4213.525239
538.686676,-1332.370696,-7846.182985,-1838.629195
538.686998,4219.173869,-1480.411884,-842.705048
538.687321,11251.130318,-1850.514855,-383.047749
538.687643,14508.036463,-3552.988522,2757.943793
538.687965,11473.192101,-2886.803174,6052.154434
538.688288,4071.132681,-3034.844362,4213.525239
538.688610,-296.082377,-9030.512492,0.000000
538.688933,-1554.432478,-13249.686362,-4596.572988
538.689255,-2516.700203,-12805.562797,-5745.716235
538.689577,-2960.823768,-12583.501014,-4443.353888
538.689900,-2368.659014,-12805.562797,-1149.143247
538.690222,-296.082377,-13249.686362,1072.533697
538.690544,-888.247130,-11917.315666,1225.752797
538.690867,-2664.741391,-13101.645173,-995.924147
538.691189,-4663.297435,-13545.768739,-2528.115143
538.691511,-3404.947333,-10881.027347,-2451.505594
538.691834,-592.164754,-5699.585753,-2068.457845
538.692156,2664.741391,-3108.864956,-1455.581446
538.692478,4367.215058,-3997.112087,0.000000
538.692801,2294.638420,-4515.256246,3524.039291
538.693123,-2368.659014,-5033.400406,2987.772442
538.693445,-5477.523971,-9474.636058,-2145.067394
538.693768,-5699.585753,-13323.706956,-5669.106685
538.694090,-6291.750507,-12287.418637,-4673.182538
538.694412,-5995.668130,-10288.862594,-2221.676944
538.694735,-3701.029710,-10807.006753,-1685.410096
538.695057,-2590.720797,-9992.780217,-1455.581446
538.695380,-3849.070898,-10436.903782,-383.047749
538.695702,-4737.318029,-14656.077652,-1149.143247
538.696024,-3701.029710,-16136.489536,-3064.381992
538.696347,-222.061783,-11547.212695,-2145.067394
538.696669,4811.338623,-5847.626942,-459.657299
538.696991,11177.109724,-5181.441594,-1378.971896
538.697314,15174.221811,-7476.080014,1838.629195
538.697636,12361.439231,-7402.059420,6665.030833
538.697958,5033.400406,-5847.626942,5286.058936
538.698281,-1110.308913,-7994.224174,-306.438199
538.698603,-2294.638420,-10510.924376,-5286.058936
538.698925,-2886.803174,-9400.615463,-7431.126331
538.699248,-4071.132681,-7031.956449,-4366.744339
538.699570,-2960.823768,-8438.347739,-612.876398
538.699892,-1924.535449,-11399.171507,842.705048
538.700215,-4293.194464,-11843.295072,1149.143247
538.700537,-7994.224174,-11399.171507,306.438199
538.700859,-9548.656652,-11991.336260,-3217.601092
538.701182,-7402.059420,-10807.006753,-6511.811733
538.701504,-3034.844362,-8290.306550,-5209.449386
538.701827,444.123565,-5329.482782,-2451.505594
538.702149,3330.926739,-4219.173869,1532.190996
538.702471,5403.503377,-4219.173869,3907.087040
538.702794,4515.256246,-5107.421000,383.047749
538.703116,1702.473667,-8808.450710,-5056.230287
538.703438,-1702.473667,-12361.439231,-6741.640382
538.703761,-3701.029710,-12953.603985,-3370.820191
538.704083,-2664.741391,-11325.150913,-1378.971896
538.704405,-740.205942,-10066.800811,-2604.724693
538.704728,0.000000,-8586.388927,-3370.820191
538.705050,-1184.329507,-7402.059420,-1532.190996
538.705372,-2368.659014,-9400.615463,-536.266849
538.705695,-1036.288319,-13545.768739,-1072.533697
538.706017,2146.597232,-13397.727550,-1302.362347
538.706339,5699.585753,-8068.244768,-1378.971896
538.706662,9400.615463,-4219.173869,-1915.238745
538.706984,13175.665768,-6217.729913,-2451.505594
538.707306,13471.748144,-9104.533087,-153.219100
538.707629,7994.224174,-8808.450710,1072.533697
538.707951,-296.082377,-8734.430116,-919.314598
538.708273,-4737.318029,-11991.336260,-4366.744339
538.708596,-5773.606348,-13101.645173,-7354.516781
538.708918,-6513.812290,-11547.212695,-8733.488677
538.709241,-6809.894666,-10955.047942,-7431.126331
538.709563,-6587.832884,-12879.583391,-4290.134789
538.709885,-7994.224174,-13989.892304,-2221.676944
538.710208,-9030.512492,-15174.221811,-995.924147
538.710530,-8956.491898,-14878.139434,-2068.457845
538.710852,-7254.018232,-11991.336260,-4749.792088
538.711175,-2738.761985,-5773.606348,-4979.620737
538.711497,1702.473667,-2146.597232,-3140.991542
538.711819,7179.997637,-2442.679609,-1532.190996
538.712142,9104.533087,-5255.462188,1762.019645
538.712464,6143.709319,-6957.935855,3140.991542
538.712786,1998.556043,-9474.636058,842.705048
538.713109,-1036.288319,-11621.233289,-2528.115143
538.713431,-2664.741391,-12287.418637,-4213.525239
538.713753,-3552.988522,-10732.986159,-2604.724693
538.714076,-1998.556043,-7402.059420,-919.314598
538.714398,-222.061783,-5033.400406,-1378.971896
538.714720,0.000000,-6957.935855,153.219100
538.715043,-1258.350101,-9770.718434,1378.971896
538.715365,-2664.741391,-11251.130318,0.000000
538.715687,-2146.597232,-10807.006753,-995.924147
538.716010,1850.514855,-7476.080014,0.000000
538.716332,6069.688724,-4737.318029,-1532.190996
538.716655,9104.533087,-5847.626942,-689.485948
538.716977,9326.594869,-5847.626942,3217.601092
538.717299,4737.318029,-3478.967927,3983.696590
538.717622,-518.144159,-4811.338623,0.000000
538.717944,-3182.885551,-9696.697840,-4749.792088
538.718266,-5995.668130,-11325.150913,-6818.249932
538.718589,-7698.141797,-11251.130318,-5286.058936
538.718911,-7550.100608,-12139.377449,-4060.306139
538.719233,-4885.359217,-14285.974681,-3983.696590
538.719556,-4811.338623,-15914.427753,-3753.867940
538.719878,-8216.285956,-14656.077652,229.828649
538.720200,-9622.677246,-14582.057057,-995.924147
538.720523,-5921.647536,-14211.954086,-5515.887586
538.720845,-296.082377,-11399.171507,-5822.325785
538.721167,3701.029710,-5403.503377,-2834.553343
538.721490,7698.141797,-2442.679609,-229.828649
538.721812,10362.883188,-4811.338623,2374.896044
538.722134,10214.842000,-9400.615463,3140.991542
538.722457,6513.812290,-10955.047942,1378.971896
538.722779,2368.659014,-10214.842000,-2987.772442
538.723102,-1332.370696,-10214.842000,-4443.353888
538.723424,-3330.926739,-10510.924376,-1225.752797
538.723746,-2886.803174,-9474.636058,-612.876398
538.724069,-3404.947333,-8956.491898,-3677.258390
538.724391,-4589.276840,-10362.883188,-2911.162892
538.724713,-5551.544565,-12731.542202,689.485948
538.725036,-5551.544565,-13471.748144,-536.266849
538.725358,-3923.091493,-12287.418637,-3294.210641
538.725680,-666.185348,-8364.327145,-2298.286494
538.726003,3256.906145,-3997.112087,-842.705048
538.726325,6957.935855,-2072.576638,-1302.362347
538.726647,8512.368333,-2664.741391,612.876398
538.726970,6587.832884,-3330.926739,1225.752797
538.727292,3182.885551,-5403.503377,-153.219100
538.727614,814.226536,-9252.574275,-1072.533697
538.727937,-740.205942,-11473.192101,-2145.067394
538.728259,-2516.700203,-12361.439231,-1608.800546
538.728581,-2368.659014,-11843.295072,-459.657299
538.728904,-3330.926739,-10658.965565,-2068.457845
538.729226,-4293.194464,-8956.491898,-2757.943793
538.729548,-6217.729913,-8956.491898,-1915.238745
538.729871,-7105.977043,-10807.006753,-1608.800546
538.730193,-5033.400406,-13249.686362,-3524.039291
538.730516,-1702.473667,-11251.130318,-2911.162892
538.730838,1184.329507,-6587.832884,-612.876398
538.731160,4663.297435,-5107.421000,-842.705048
538.731483,7550.100608,-7254.018232,-1762.019645
538.731805,6365.771101,-7698.141797,-1378.971896
538.732127,3256.906145,-7772.162391,-459.657299
538.732450,-148.041188,-9622.677246,-3370.820191
538.732772,-3330.926739,-12139.377449,-6052.154434
538.733094,-6587.832884,-14285.974681,-4213.525239
538.733417,-8586.388927,-13693.809927,-1991.848295
538.733739,-8364.327145,-11769.274478,-3753.867940
538.734061,-6069.688724,-10658.965565,-5822.325785
538.734384,-4145.153275,-11991.336260,-5132.839837
538.734706,-3701.029710,-11843.295072,-2451.505594
538.735028,-2146.597232,-12657.521608,-459.657299
538.735351,0.000000,-12065.356855,1378.971896
538.735673,2886.803174,-7994.224174,919.314598
538.735995,7254.018232,-4737.318029,-2451.505594
538.736318,11547.212695,-4959.379811,-4903.011187
538.736640,12287.418637,-5995.668130,-1225.752797
538.736962,9844.739029,-5477.523971,4213.525239
538.737285,5625.565159,-6291.750507,3907.087040
538.737607,1924.535449,-9770.718434,76.609550
538.737930,-2072.576638,-11103.089130,-1685.410096
538.738252,-5625.565159,-11547.212695,-3217.601092
538.738574,-5773.606348,-12287.418637,-5209.449386
538.738897,-6069.688724,-13101.645173,-4366.744339
538.739219,-7402.059420,-10807.006753,1838.629195
538.739541,-8512.368333,-7846.182985,5056.230287
538.739864,-6809.894666,-6661.853478,766.095498
538.740186,-2812.782580,-8882.471304,-4903.011187
538.740508,1924.535449,-7402.059420,-5898.935335
538.740831,3256.906145,-4441.235652,-4519.963438
538.741153,3182.885551,-6291.750507,536.266849
538.741475,3775.050304,-6957.935855,7277.907231
538.741798,3923.091493,-5033.400406,3907.087040
538.742120,3627.009116,-6661.853478,-4673.182538
538.742442,2368.659014,-10066.800811,-6588.421283
538.742765,-518.144159,-9548.656652,-3140.991542
538.743087,-3330.926739,-8216.285956,612.876398
538.743409,-3256.906145,-8734.430116,1915.238745
538.743732,-2812.782580,-9474.636058,-2987.772442
538.744054,-4885.359217,-11251.130318,-5439.278036
538.744377,-7179.997637,-15470.304188,-2451.505594
538.744699,-7920.203579,-17912.983796,-995.924147
538.745021,-5403.503377,-14285.974681,-1685.410096
538.745344,1332.370696,-7994.224174,-766.095498
538.745666,8512.368333,-4219.173869,-3064.381992
538.745988,12805.562797,-5847.626942,-5745.716235
538.746311,12287.418637,-9696.697840,-229.828649
538.746633,6809.894666,-9178.553681,4749.792088
538.746955,444.123565,-9030.512492,612.876398
538.747278,-2664.741391,-11399.171507,-4903.011187
538.747600,-4515.256246,-11547.212695,-6741.640382
538.747922,-6291.750507,-10066.800811,-7277.907231
538.748245,-7105.977043,-10066.800811,-4826.401637
538.748567,-5847.626942,-14211.954086,-3217.601092
538.748889,-6883.915261,-14878.139434,-1532.190996
538.749212,-8586.388927,-15248.242405,995.924147
538.749534,-9696.697840,-13397.727550,2451.505594
538.749856,-7179.997637,-11917.315666,-3600.648841
538.750179,-1628.453072,-8586.388927,-6435.202183
538.750501,3997.112087,-4959.379811,-3830.477490
538.750823,7698.141797,-2442.679609,1608.800546
538.751146,8216.285956,-666.185348,6894.859482
538.751468,6883.915261,-1702.473667,6511.811733
538.751791,5847.626942,-6217.729913,-995.924147
538.752113,5255.462188,-10288.862594,-6741.640382
538.752435,3108.864956,-9030.512492,-4519.963438
538.752758,-814.226536,-7254.018232,689.485948
538.753080,-1924.535449,-8734.430116,3064.381992
538.753402,-1332.370696,-10362.883188,995.924147
538.753725,-3997.112087,-9696.697840,-2298.286494
538.754047,-8808.450710,-10807.006753,-3064.381992
538.754369,-9770.718434,-14359.995275,-3140.991542
538.754692,-5921.647536,-14804.118840,-2834.553343
538.755014,-1110.308913,-9474.636058,0.000000
538.755336,2738.761985,-2960.823768,1838.629195
538.755659,6661.853478,-1554.432478,306.438199
538.755981,9030.512492,-3182.885551,0.000000
538.756303,7772.162391,-3923.091493,-383.047749
538.756626,3404.947333,-6957.935855,-3830.477490
538.756948,888.247130,-11621.233289,-4443.353888
538.757270,666.185348,-14137.933492,-2298.286494
538.757593,0.000000,-13767.830521,-1378.971896
538.757915,-592.164754,-13989.892304,-995.924147
538.758237,-888.247130,-14211.954086,-3140.991542
538.758560,-3627.009116,-13027.624579,-4596.572988
538.758882,-6291.750507,-12731.542202,-3370.820191
538.759205,-7846.182985,-14730.098246,-2298.286494
538.759527,-5995.668130,-15396.283594,-3370.820191
538.759849,-3330.926739,-11547.212695,-2451.505594
538.760172,814.226536,-7402.059420,0.000000
538.760494,6217.729913,-5625.565159,153.219100
538.760816,9104.533087,-6661.853478,-1302.362347
538.761139,6069.688724,-7328.038826,1225.752797
538.761461,296.082377,-6735.874072,3140.991542
538.761783,-2516.700203,-8438.347739,-766.095498
538.762106,-3775.050304,-9474.636058,-4673.182538
538.762428,-4663.297435,-8660.409521,-5592.497135
538.762750,-5921.647536,-6957.935855,-4136.915689
538.763073,-5033.400406,-8734.430116,-2298.286494
538.763395,-4663.297435,-10510.924376,-995.924147
538.763717,-5033.400406,-14137.933492,-1149.143247
538.764040,-5847.626942,-16284.530724,-1608.800546
538.764362,-5181.441594,-15322.262999,-1838.629195
538.764684,-3849.070898,-10510.924376,229.828649
538.765007,666.185348,-3108.864956,1455.581446
538.765329,6365.771101,-518.144159,919.314598
538.765652,11325.150913,962.267725,612.876398
538.765974,11029.068536,148.041188,2068.457845
538.766296,8808.450710,-3849.070898,1915.238745
538.766619,6957.935855,-11325.150913,1072.533697
538.766941,4959.379811,-13175.665768,-459.657299
538.767263,814.226536,-9326.594869,-995.924147
538.767586,-2368.659014,-8586.388927,-1302.362347
538.767908,-2664.741391,-8956.491898,-3294.210641
538.768230,-3478.967927,-9474.636058,-5286.058936
538.768553,-7698.141797,-11621.233289,-3830.477490
538.768875,-11177.109724,-16432.571912,-1762.019645
538.769197,-10658.965565,-18209.066173,-2451.505594
538.769520,-7105.977043,-15248.242405,-2757.943793
538.769842,-2368.659014,-10658.965565,-2604.724693
538.770164,2516.700203,-7254.018232,-4136.915689
538.770487,4959.379811,-4811.338623,-3294.210641
538.770809,4663.297435,-3701.029710,612.876398
538.771131,1554.432478,-3775.050304,1378.971896
538.771454,0.000000,-6883.915261,-2834.553343
538.771776,370.102971,-10436.903782,-4903.011187
538.772098,444.123565,-11103.089130,-4979.620737
538.772421,-592.164754,-11917.315666,-3140.991542
538.772743,-814.226536,-14730.098246,-842.705048
538.773066,-592.164754,-16580.613101,-689.485948
538.773388,-3330.926739,-14878.139434,-1225.752797
538.773710,-5329.482782,-13841.851115,-2604.724693
538.774033,-4737.318029,-12805.562797,-4903.011187
538.774355,-1110.308913,-9548.656652,-4749.792088
538.774677,3256.906145,-6291.750507,-1685.410096
538.775000,7402.059420,-4663.297435,1149.143247
538.775322,10066.800811,-6735.874072,2298.286494
538.775644,9400.615463,-8438.347739,3753.867940
538.775967,4811.338623,-9104.533087,4596.572988
538.776289,-296.082377,-7994.224174,842.705048
538.776611,-3108.864956,-6809.894666,-2374.896044
538.776934,-3627.009116,-4737.318029,-2604.724693
538.777256,-3627.009116,-2368.659014,-2451.505594
538.777578,-2960.823768,-3849.070898,-1302.362347
538.777901,-4071.132681,-7994.224174,-229.828649
538.778223,-6291.750507,-12213.398043,-459.657299
538.778545,-8586.388927,-15100.201217,-1915.238745
538.778868,-8142.265362,-17542.880825,-3447.429741
538.779190,-7994.224174,-16802.674883,-3064.381992
538.779512,-4737.318029,-11547.212695,0.000000
538.779835,-666.185348,-6587.832884,1915.238745
538.780157,4145.153275,-3404.947333,306.438199
538.780480,5995.668130,518.144159,2298.286494
538.780802,4811.338623,2220.617826,2451.505594
538.781124,4959.379811,-2368.659014,-1072.533697
538.781447,5403.503377,-8808.450710,-3677.258390
538.781769,4071.132681,-11473.192101,-1685.410096
538.782091,962.267725,-12213.398043,842.705048
538.782414,-1036.288319,-14211.954086,153.219100
538.782736,-2368.659014,-15248.242405,-2451.505594
538.783058,-3478.967927,-12361.439231,-3677.258390
538.783381,-4663.297435,-9622.677246,-4979.620737
538.783703,-3330.926739,-12805.562797,-5898.935335
538.784025,-296.082377,-15174.221811,-3983.696590
538.784348,1776.494261,-12509.480420,0.000000
538.784670,2664.741391,-10436.903782,76.609550
538.784992,4367.215058,-11621.233289,-2451.505594
538.785315,5181.441594,-10658.965565,-3217.601092
538.785637,3330.926739,-6809.894666,-1838.629195
538.785959,222.061783,-5847.626942,-1685.410096
538.786282,-1480.411884,-9104.533087,-1532.190996
538.786604,-2664.741391,-8808.450710,-536.266849
538.786927,-3701.029710,-6291.750507,-1378.971896
538.787249,-3701.029710,-6513.812290,-3600.648841
538.787571,-1998.556043,-10436.903782,-5515.887586
538.787894,-1998.556043,-13027.624579,-3753.867940
538.788216,-4811.338623,-13915.871710,-766.095498
538.788538,-5699.585753,-14656.077652,919.314598
538.788861,-3923.091493,-16802.674883,-1532.190996
538.789183,-666.185348,-14211.954086,-3294.210641
538.789505,1850.514855,-9622.677246,-3600.648841
538.789828,3923.091493,-6069.688724,-1608.800546
538.790150,5995.668130,-1628.453072,2604.724693
538.790472,6365.771101,2220.617826,4443.353888
538.790795,5033.400406,592.164754,2374.896044
538.791117,4145.153275,-4737.318029,-842.705048
538.791439,296.082377,-7994.224174,-1915.238745
538.791762,-4145.153275,-10140.821405,229.828649
538.792084,-6365.771101,-12213.398043,1072.533697
538.792406,-5847.626942,-11177.109724,-459.657299
538.792729,-4663.297435,-6587.832884,-2298.286494
538.793051,-3404.947333,-6217.729913,-2987.772442
538.793373,-2516.700203,-7476.080014,-2757.943793
538.793696,-1702.473667,-10436.903782,-2145.067394
538.794018,-1850.514855,-10807.006753,-766.095498
538.794341,-1036.288319,-10732.986159,-1302.362347
538.794663,592.164754,-13767.830521,-3217.601092
538.794985,3182.885551,-14285.974681,-1608.800546
538.795308,3775.050304,-9770.718434,229.828649
538.795630,2590.720797,-7254.018232,-459.657299
538.795952,1850.514855,-7698.141797,-1532.190996
538.796275,1480.411884,-6217.729913,-1685.410096
538.796597,0.000000,-4515.256246,-3600.648841
538.796919,-1702.473667,-6513.812290,-5209.449386
538.797242,-1998.556043,-11177.109724,-5592.497135
538.797564,-2812.782580,-14878.139434,-4443.353888
538.797886,-4663.297435,-16506.592507,-919.314598
538.798209,-5773.606348,-17912.983796,76.609550
538.798531,-4811.338623,-18505.148550,-3370.820191
538.798853,-3034.844362,-14656.077652,-4443.353888
538.799176,-666.185348,-8808.450710,-3524.039291
538.799498,2368.659014,-5773.606348,-4443.353888
538.799820,5477.523971,-4441.235652,-3524.039291
538.800143,5255.462188,-3923.091493,153.219100
538.800465,3182.885551,-4959.379811,842.705048
538.800787,2072.576638,-9178.553681,-2451.505594
538.801110,962.267725,-12805.562797,-4060.306139
538.801432,-2072.576638,-11991.336260,-1455.581446
538.801755,-3478.967927,-10214.842000,153.219100
538.802077,-2590.720797,-8364.327145,-153.219100
538.802399,-1776.494261,-5699.585753,-1149.143247
538.802722,-1332.370696,-5477.523971,-689.485948
538.803044,-2220.617826,-6661.853478,-612.876398
538.803366,-962.267725,-10288.862594,-995.924147
538.803689,814.226536,-10362.883188,0.000000
538.804011,2368.659014,-7994.224174,229.828649
538.804333,3923.091493,-7476.080014,1225.752797
538.804656,5625.565159,-6661.853478,2451.505594
538.804978,4737.318029,-4219.173869,2451.505594
538.805300,1036.288319,-4219.173869,536.266849
538.805623,-2072.576638,-6365.771101,-1149.143247
538.805945,-4293.194464,-7550.100608,-2604.724693
538.806267,-5329.482782,-7476.080014,-3524.039291
538.806590,-4737.318029,-9548.656652,-4060.306139
538.806912,-2886.803174,-13323.706956,-4366.744339
538.807234,-2516.700203,-13989.892304,-3064.381992
538.807557,-5033.400406,-13027.624579,-689.485948
538.807879,-6587.832884,-13767.830521,-1302.362347
538.808202,-5477.523971,-15988.448347,-4366.744339
538.808524,-3627.009116,-13027.624579,-4136.915689
538.808846,-740.205942,-7031.956449,-2987.772442
538.809169,2960.823768,-5107.421000,-2834.553343
538.809491,7772.162391,-7254.018232,-1455.581446
538.809813,9030.512492,-9622.677246,1608.800546
538.810136,6217.729913,-10288.862594,2911.162892
538.810458,2886.803174,-13175.665768,0.000000
538.810780,888.247130,-14508.036463,-3753.867940
538.811103,-1332.370696,-11177.109724,-3447.429741
538.811425,-2368.659014,-7476.080014,-2374.896044
538.811747,-1554.432478,-6069.688724,-3217.601092
538.812070,-666.185348,-7624.121203,-3753.867940
538.812392,-1628.453072,-10066.800811,-1072.533697
538.812714,-3182.885551,-13175.665768,153.219100
538.813037,-3627.009116,-15988.448347,-2604.724693
538.813359,-2072.576638,-15174.221811,-3370.820191
538.813681,370.102971,-9918.759623,-1838.629195
538.814004,3034.844362,-7105.977043,-1455.581446
538.814326,5995.668130,-7328.038826,-919.314598
538.814648,5995.668130,-5403.503377,1149.143247
538.814971,1110.308913,-2812.782580,1149.143247
538.815293,-2368.659014,-4663.297435,229.828649
538.815616,-3923.091493,-6661.853478,-1225.752797
538.815938,-3330.926739,-6365.771101,-3217.601092
538.816260,-2368.659014,-6069.688724,-2681.334243
538.816583,-1776.494261,-9178.553681,-1225.752797
538.816905,-1258.350101,-11695.253884,1455.581446
538.817227,-4293.194464,-10288.862594,2145.067394
538.817550,-7179.997637,-9030.512492,1225.752797
538.817872,-6365.771101,-10066.800811,-3140.991542
538.818194,-2368.659014,-9252.574275,-6281.983084
538.818517,2072.576638,-6217.729913,-4903.011187
538.818839,4885.359217,-5107.421000,-995.924147
538.819161,7105.977043,-7698.141797,2757.943793
538.819484,6661.853478,-9474.636058,3753.867940
538.819806,3404.947333,-9326.594869,919.314598
538.820128,222.061783,-9474.636058,-3907.087040
538.820451,-1036.288319,-10732.986159,-7124.688131
538.820773,-2072.576638,-9696.697840,-5515.887586
538.821095,-2368.659014,-9326.594869,-689.485948
538.821418,-2516.700203,-8956.491898,612.876398
538.821740,-2368.659014,-9844.739029,-842.705048
538.822063,-3849.070898,-11251.130318,-2145.067394
538.822385,-6069.688724,-12287.418637,-4213.525239
538.822707,-4737.318029,-12879.583391,-5898.935335
538.823030,0.000000,-12805.562797,-5898.935335
538.823352,4959.379811,-10807.006753,-3753.867940
538.823674,7105.977043,-8808.450710,-1378.971896
538.823997,6957.935855,-9400.615463,459.657299
538.824319,4441.235652,-10288.862594,0.000000
538.824641,-740.205942,-9548.656652,-1532.190996
538.824964,-4293.194464,-9844.739029,-4213.525239
538.825286,-5033.400406,-11177.109724,-6818.249932
538.825608,-3478.967927,-10436.903782,-6281.983084
538.825931,-1776.494261,-9918.759623,-1991.848295
538.826253,-148.041188,-11029.068536,-766.095498
538.826575,-1184.329507,-12213.398043,-1532.190996
538.826898,-4293.194464,-10140.821405,0.000000
538.827220,-7105.977043,-8956.491898,766.095498
538.827542,-6809.894666,-9030.512492,-2987.772442
538.827865,-2072.576638,-11621.233289,-5592.497135
538.828187,2664.741391,-8216.285956,-2221.676944
538.828509,4885.359217,-2072.576638,2987.772442
538.828832,6809.894666,-1924.535449,4673.182538
538.829154,7550.100608,-6143.709319,3294.210641
538.829477,5995.668130,-8512.368333,689.485948
538.829799,962.267725,-7402.059420,-766.095498
538.830121,-2590.720797,-7254.018232,-2145.067394
538.830444,-3404.947333,-8956.491898,-1762.019645
538.830766,-3478.967927,-8734.430116,153.219100
538.831088,-3923.091493,-5329.482782,1225.752797
538.831411,-5403.503377,-5847.626942,-536.266849
538.831733,-5699.585753,-9622.677246,-2528.115143
538.832055,-5181.441594,-13027.624579,-2374.896044
538.832378,-4219.173869,-13545.768739,-1762.019645
538.832700,-2072.576638,-10436.903782,-383.047749
538.833022,2368.659014,-6439.791695,0.000000
538.833345,6365.771101,-4663.297435,-1149.143247
538.833667,9770.718434,-7105.977043,-3600.648841
538.833989,9252.574275,-10881.027347,-2987.772442
538.834312,4737.318029,-10658.965565,-536.266849
538.834634,148.041188,-11769.274478,-536.266849
538.834956,-1406.391290,-14730.098246,-3140.991542
538.835279,-1110.308913,-14359.995275,-5056.230287
538.835601,-888.247130,-11251.130318,-5209.449386
538.835923,-2442.679609,-8364.327145,-4749.792088
538.836246,-1554.432478,-10584.944971,-4443.353888
538.836568,-3404.947333,-13619.789333,-3677.258390
538.836891,-6291.750507,-14804.118840,-1455.581446
538.837213,-7254.018232,-15248.242405,-2451.505594
538.837535,-3997.112087,-16432.571912,-5362.668486
538.837858,1480.411884,-11473.192101,-4903.011187
538.838180,5329.482782,-3997.112087,-3294.210641
538.838502,7328.038826,-2590.720797,-2298.286494
538.838825,8364.327145,-6587.832884,-536.266849
538.839147,5921.647536,-8290.306550,1455.581446
538.839469,370.102971,-7698.141797,-306.438199
538.839792,-3849.070898,-8734.430116,-4136.915689
538.840114,-6439.791695,-10955.047942,-5439.278036
538.840436,-7179.997637,-11843.295072,-2374.896044
538.840759,-8068.244768,-8808.450710,995.924147
538.841081,-6587.832884,-7476.080014,-995.924147
538.841403,-5033.400406,-6439.791695,-2757.943793
538.841726,-4219.173869,-7772.162391,-1608.800546
538.842048,-4589.276840,-7476.080014,-536.266849
538.842370,-3997.112087,-7624.121203,-689.485948
538.842693,-814.226536,-6661.853478,1225.752797
538.843015,4145.153275,-3997.112087,2145.067394
538.843338,7846.182985,-3627.009116,-229.828649
538.843660,9326.594869,-5921.647536,-612.876398
538.843982,8438.347739,-6883.915261,2757.943793
538.844305,6069.688724,-5403.503377,3830.477490
538.844627,2812.782580,-7402.059420,1072.533697
538.844949,0.000000,-10658.965565,-1302.362347
538.845272,-2516.700203,-10584.944971,-689.485948
538.845594,-3330.926739,-9770.718434,-2068.457845
538.845916,-2516.700203,-11325.150913,-4443.353888
538.846239,-2960.823768,-13175.665768,-2757.943793
538.846561,-5033.400406,-12953.603985,229.828649
538.846883,-6513.812290,-13693.809927,2298.286494
538.847206,-4515.256246,-14656.077652,-1302.362347
538.847528,-962.267725,-12435.459826,-5132.839837
538.847850,2368.659014,-8808.450710,-5056.230287
538.848173,4885.359217,-6069.688724,-3064.381992
538.848495,6513.812290,-6069.688724,-612.876398
538.848817,6587.832884,-9474.636058,-1072.533697
538.849140,4293.194464,-11251.130318,-1685.410096
538.849462,0.000000,-12435.459826,-3753.867940
538.849784,-3849.070898,-14582.057057,-4979.620737
538.850107,-6365.771101,-15914.427753,-2604.724693
538.850429,-5921.647536,-14804.118840,-1225.752797
538.850752,-5403.503377,-10436.903782,-3294.210641
538.851074,-4293.194464,-9326.594869,-4749.792088
538.851396,-4071.132681,-9548.656652,-3064.381992
538.851719,-3775.050304,-10584.944971,0.000000
538.852041,-3701.029710,-11843.295072,459.657299
538.852363,-518.144159,-10362.883188,689.485948
538.852686,3256.906145,-5847.626942,-995.924147
538.853008,7550.100608,-4219.173869,-3370.820191
538.853330,10807.006753,-5847.626942,-383.047749
538.853653,9030.512492,-3775.050304,4519.963438
538.853975,3627.009116,-1258.350101,4596.572988
538.854297,-666.185348,-4885.359217,2145.067394
538.854620,-2960.823768,-8068.244768,-1302.362347
538.854942,-5921.647536,-8734.430116,-4979.620737
538.855264,-8216.285956,-8734.430116,-3907.087040
538.855587,-5699.585753,-9622.677246,-3064.381992
538.855909,-3627.009116,-10881.027347,-3983.696590
538.856231,-4293.194464,-10807.006753,0.000000
538.856554,-7105.977043,-8364.327145,4443.353888
538.856876,-7179.997637,-9622.677246,-995.924147
538.857198,-3552.988522,-13027.624579,-6205.373534
538.857521,740.205942,-10362.883188,-5898.935335
538.857843,2664.741391,-4589.276840,-3677.258390
538.858166,6143.709319,-2072.576638,612.876398
538.858488,10881.027347,-3330.926739,3140.991542
538.858810,11843.295072,-5255.462188,-612.876398
538.859133,7698.141797,-9844.739029,-3907.087040
538.859455,148.041188,-13323.706956,-3677.258390
538.859777,-7105.977043,-14804.118840,-2681.334243
538.860100,-9252.574275,-16580.613101,-2068.457845
538.860422,-6883.915261,-12731.542202,-5056.230287
538.860744,-4959.379811,-7994.224174,-10418.898773
538.861067,-4071.132681,-7920.203579,-7431.126331
538.861389,-3108.864956,-13027.624579,229.828649
538.861711,-2442.679609,-18209.066173,0.000000
538.862034,-2886.803174,-18801.230927,-2298.286494
538.862356,-1702.473667,-13101.645173,-2298.286494
538.862678,2886.803174,-5699.585753,-5132.839837
538.863001,9770.718434,-5329.482782,-7737.564530
538.863323,13915.871710,-6439.791695,-3907.087040
538.863645,11473.192101,-6883.915261,2451.505594
538.863968,6069.688724,-6661.853478,4826.401637
538.864290,1184.329507,-9696.697840,2757.943793
538.864613,-2738.761985,-13471.748144,-2221.676944
538.864935,-6217.729913,-11917.315666,-4213.525239
538.865257,-7179.997637,-8660.409521,-5132.839837
538.865580,-5107.421000,-9104.533087,-3983.696590
538.865902,-3849.070898,-9844.739029,2068.457845
538.866224,-5107.421000,-12065.356855,5745.716235
538.866547,-7328.038826,-10658.965565,5132.839837
538.866869,-7031.956449,-10807.006753,-536.266849
538.867191,-2738.761985,-7772.162391,-5362.668486
538.867514,2886.803174,-5329.482782,-5515.887586
538.867836,5625.565159,-2220.617826,306.438199
538.868158,6661.853478,-1702.473667,6588.421283
538.868481,5107.421000,-4663.297435,5898.935335
538.868803,2738.761985,-8882.471304,2221.676944
538.869125,0.000000,-10066.800811,-2604.724693
538.869448,-3923.091493,-8290.306550,-5745.716235
538.869770,-6883.915261,-9400.615463,-3370.820191
538.870092,-6809.894666,-11103.089130,2451.505594
538.870415,-4145.153275,-8734.430116,2374.896044
538.870737,-2590.720797,-7328.038826,-1225.752797
538.871059,-3627.009116,-10510.924376,-2145.067394
538.871382,-5403.503377,-14434.015869,-1225.752797
538.871704,-5477.523971,-13471.748144,-612.876398
538.872027,-2146.597232,-8956.491898,842.705048
538.872349,4441.235652,-5403.503377,-153.219100
538.872671,11769.274478,-5921.647536,-3064.381992
538.872994,15174.221811,-7550.100608,-2451.505594
538.873316,12583.501014,-7624.121203,2068.457845
538.873638,7105.977043,-8142.265362,1608.800546
538.873961,2146.597232,-10955.047942,-2528.115143
538.874283,-1924.535449,-14285.974681,-5439.278036
538.874605,-5477.523971,-14285.974681,-5362.668486
538.874928,-7328.038826,-12953.603985,-5286.058936
538.875250,-6587.832884,-11991.336260,-6511.811733
538.875572,-5403.503377,-13027.624579,-5132.839837
538.875895,-7105.977043,-13397.727550,-1915.238745
538.876217,-9474.636058,-11917.315666,612.876398
538.876539,-9400.615463,-12509.480420,-2068.457845
538.876862,-4071.132681,-12657.521608,-6894.859482
538.877184,1406.391290,-11473.192101,-7967.393179
538.877506,4293.194464,-7254.018232,-2757.943793
538.877829,5995.668130,-2664.741391,2757.943793
538.878151,7328.038826,-2738.761985,2374.896044
538.878474,8660.409521,-7254.018232,-1225.752797
538.878796,7105.977043,-10510.924376,-5439.278036
538.879118,814.226536,-9030.512492,-6435.202183
538.879441,-5921.647536,-9992.780217,-1072.533697
538.879763,-6513.812290,-13027.624579,3907.087040
538.880085,-5773.606348,-9178.553681,76.609550
538.880408,-5181.441594,-4515.256246,-5822.325785
538.880730,-5995.668130,-4959.379811,-4443.353888
538.881052,-5255.462188,-11769.274478,-1072.533697
538.881375,-3034.844362,-14434.015869,459.657299
538.881697,-1850.514855,-11547.212695,3907.087040
538.882019,-222.061783,-5107.421000,4443.353888
538.882342,4441.235652,-2590.720797,-766.095498
538.882664,9844.739029,-2590.720797,-2145.067394
538.882986,9918.759623,-1036.288319,0.000000
538.883309,6661.853478,-1628.453072,-842.705048
538.883631,3923.091493,-7476.080014,229.828649
538.883953,1702.473667,-11917.315666,1608.800546
538.884276,-2516.700203,-12805.562797,766.095498
538.884598,-5773.606348,-13323.706956,-2681.334243
538.884920,-4811.338623,-13619.789333,-5822.325785
538.885243,-3701.029710,-11103.089130,-6281.983084
538.885565,-4589.276840,-8734.430116,-2528.115143
538.885888,-7550.100608,-10214.842000,1302.362347
538.886210,-7994.224174,-13693.809927,1608.800546
538.886532,-5699.585753,-13841.851115,-1072.533697
538.886855,-2146.597232,-10214.842000,-4136.915689
538.887177,1480.411884,-8660.409521,-5362.668486
538.887499,5773.606348,-6809.894666,-2298.286494
538.887822,9030.512492,-3701.029710,1762.019645
538.888144,9696.697840,-4145.153275,0.000000
538.888466,8956.491898,-9992.780217,-2604.724693
538.888789,5625.565159,-13767.830521,-4749.792088
538.889111,-296.082377,-14137.933492,-4749.792088
538.889434,-4663.297435,-15840.407159,-2068.457845
538.889756,-4885.359217,-16654.633695,-1915.238745
538.890078,-3997.112087,-13175.665768,-4596.572988
538.890401,-2368.659014,-10658.965565,-4519.963438
538.890723,-2960.823768,-10066.800811,-919.314598
538.891045,-2664.741391,-13175.665768,-229.828649
538.891368,-1850.514855,-12953.603985,229.828649
538.891690,-888.247130,-8882.471304,1072.533697
538.892012,1036.288319,-5699.585753,-1685.410096
538.892335,4811.338623,-5255.462188,-2451.505594
538.892657,7105.977043,-3478.967927,459.657299
538.892980,3701.029710,-1036.288319,2681.334243
538.893302,-1480.411884,-4219.173869,2987.772442
538.893624,-4737.318029,-8808.450710,2451.505594
538.893947,-7402.059420,-8512.368333,-919.314598
538.894269,-8956.491898,-7328.038826,-4673.182538
538.894591,-7328.038826,-10214.842000,-6358.592633
538.894914,-4145.153275,-11251.130318,-4443.353888
538.895236,-3552.988522,-10510.924376,0.000000
538.895558,-5403.503377,-8364.327145,4673.182538
538.895881,-5625.565159,-9918.759623,2221.676944
538.896203,-4071.132681,-13397.727550,-2834.553343
538.896525,-740.205942,-12435.459826,-3753.867940
538.896848,2368.659014,-7846.182985,-2757.943793
538.897170,5995.668130,-4293.194464,612.876398
538.897493,10362.883188,-1776.494261,6358.592633
538.897815,12139.377449,444.123565,5515.887586
538.898137,11251.130318,-2516.700203,-383.047749
538.898460,8216.285956,-8808.450710,-3064.381992
538.898782,2738.761985,-11177.109724,-1608.800546
538.899104,-2812.782580,-12583.501014,-459.657299
