#time,accel_x,accel_y,accel_z
456.461017,0.000000,-9252.574275,-1532.190996
456.461339,0.000000,-9474.636058,-995.924147
456.461661,0.000000,-9178.553681,-1455.581446
456.461983,0.000000,-8882.471304,-1455.581446
456.462304,-148.041188,-9104.533087,-1991.848295
456.462626,0.000000,-9400.615463,-2068.457845
456.462948,-592.164754,-9178.553681,-1149.143247
456.463270,-444.123565,-9770.718434,-1378.971896
456.463592,-370.102971,-10066.800811,-1225.752797
456.463914,-296.082377,-9622.677246,-1455.581446
456.464236,0.000000,-9252.574275,-1532.190996
456.464557,222.061783,-8586.388927,-1455.581446
456.464879,0.000000,-8882.471304,-1685.410096
456.465201,0.000000,-9104.533087,-1455.581446
456.465523,-148.041188,-9474.636058,-1455.581446
456.465845,-592.164754,-9696.697840,-1532.190996
456.466167,-592.164754,-9770.718434,-1225.752797
456.466489,-740.205942,-9104.533087,-1149.143247
456.466810,-296.082377,-9400.615463,-1608.800546
456.467132,-148.041188,-9178.553681,-1455.581446
456.467454,-296.082377,-8956.491898,-1608.800546
456.467776,-518.144159,-9030.512492,-1991.848295
456.468098,-518.144159,-9400.615463,-1378.971896
456.468420,-962.267725,-9696.697840,-1685.410096
456.468742,-1036.288319,-9770.718434,-1378.971896
456.469064,-962.267725,-9548.656652,-1225.752797
456.469385,-888.247130,-9400.615463,-1455.581446
456.469707,-888.247130,-8660.409521,-1532.190996
456.470029,-444.123565,-9030.512492,-1302.362347
456.470351,-444.123565,-9252.574275,-1302.362347
456.470673,-592.164754,-9326.594869,-1532.190996
456.470995,-370.102971,-9474.636058,-1072.533697
456.471317,-370.102971,-9770.718434,-1225.752797
456.471638,-370.102971,-9474.636058,-1991.848295
456.471960,-444.123565,-9696.697840,-1225.752797
456.472282,-370.102971,-9474.636058,-1532.190996
456.472604,-296.082377,-9178.553681,-1532.190996
456.472926,-296.082377,-9474.636058,-1608.800546
456.473248,-74.020594,-9474.636058,-1455.581446
456.473570,-222.061783,-9400.615463,-1532.190996
456.473891,-222.061783,-9474.636058,-1225.752797
456.474213,-296.082377,-9474.636058,-1455.581446
456.474535,-296.082377,-9474.636058,-1455.581446
456.474857,-222.061783,-9326.594869,-1225.752797
456.475179,222.061783,-9252.574275,-1608.800546
456.475501,0.000000,-9400.615463,-1608.800546
456.475823,-148.041188,-9474.636058,-1302.362347
456.476144,0.000000,-9326.594869,-1455.581446
456.476466,0.000000,-9252.574275,-1225.752797
456.476788,-222.061783,-8808.450710,-995.924147
456.477110,0.000000,-9252.574275,-1532.190996
456.477432,0.000000,-9400.615463,-1685.410096
456.477754,-222.061783,-9474.636058,-1532.190996
456.478076,-296.082377,-9474.636058,-1608.800546
456.478397,-370.102971,-9622.677246,-1455.581446
456.478719,0.000000,-9770.718434,-1455.581446
456.479041,-148.041188,-9548.656652,-1378.971896
456.479363,-222.061783,-9326.594869,-1302.362347
456.479685,0.000000,-9178.553681,-1532.190996
456.480007,74.020594,-8660.409521,-1991.848295
456.480329,666.185348,-9178.553681,-1762.019645
456.480651,1258.350101,-9844.739029,-1685.410096
456.480972,888.247130,-10066.800811,-995.924147
456.481294,296.082377,-9770.718434,-459.657299
456.481616,0.000000,-9178.553681,-919.314598
456.481938,0.000000,-8734.430116,-1608.800546
456.482260,-740.205942,-8808.450710,-1685.410096
456.482582,-1110.308913,-8512.368333,-1762.019645
456.482904,-814.226536,-8808.450710,-2145.067394
456.483225,0.000000,-9474.636058,-2068.457845
456.483547,296.082377,-10436.903782,-995.924147
456.483869,-370.102971,-10732.986159,-689.485948
456.484191,-518.144159,-9622.677246,-1149.143247
456.484513,814.226536,-9474.636058,-1838.629195
456.484835,1480.411884,-10214.842000,-2298.286494
456.485157,1258.350101,-9770.718434,-1378.971896
456.485478,1036.288319,-8290.306550,-536.266849
456.485800,2146.597232,-8586.388927,-919.314598
456.486122,3404.947333,-9918.759623,-1302.362347
456.486444,3108.864956,-9622.677246,-536.266849
456.486766,2072.576638,-8956.491898,0.000000
456.487088,2368.659014,-8438.347739,-229.828649
456.487410,3552.988522,-8660.409521,-1225.752797
456.487731,3108.864956,-9548.656652,-1225.752797
456.488053,2664.741391,-8586.388927,-919.314598
456.488375,2886.803174,-7846.182985,-1762.019645
456.488697,4219.173869,-8882.471304,-2374.896044
456.489019,5033.400406,-10881.027347,-2145.067394
456.489341,4145.153275,-10732.986159,-1225.752797
456.489663,3404.947333,-9992.780217,-1378.971896
456.489984,3923.091493,-10510.924376,-1838.629195
456.490306,4441.235652,-11029.068536,-1608.800546
456.490628,3923.091493,-9622.677246,-2221.676944
456.490950,3552.988522,-8734.430116,-2145.067394
456.491272,3552.988522,-8734.430116,-1072.533697
456.491594,4145.153275,-8438.347739,-1149.143247
456.491916,4811.338623,-8290.306550,-1608.800546
456.492238,5329.482782,-8734.430116,-1991.848295
456.492559,5477.523971,-8956.491898,-1532.190996
456.492881,5699.585753,-9252.574275,-1225.752797
456.493203,5477.523971,-9474.636058,-1608.800546
456.493525,5033.400406,-8956.491898,-1762.019645
456.493847,3849.070898,-9178.553681,-2145.067394
456.494169,2516.700203,-9770.718434,-2604.724693
456.494491,1332.370696,-11399.171507,-2451.505594
456.494812,444.123565,-12435.459826,-1378.971896
456.495134,-370.102971,-13101.645173,-612.876398
456.495456,-740.205942,-13397.727550,76.609550
456.495778,-370.102971,-12287.418637,1685.410096
456.496100,592.164754,-10584.944971,1302.362347
456.496422,1110.308913,-9252.574275,1072.533697
456.496744,888.247130,-7550.100608,1532.190996
456.497065,74.020594,-5699.585753,1072.533697
456.497387,-444.123565,-4293.194464,0.000000
456.497709,222.061783,-4663.297435,-919.314598
456.498031,1258.350101,-5181.441594,-2911.162892
456.498353,2664.741391,-5477.523971,-3600.648841
456.498675,4219.173869,-6291.750507,-4366.744339
456.498997,5847.626942,-8512.368333,-4366.744339
456.499318,6661.853478,-10584.944971,-3447.429741
456.499640,6291.750507,-13027.624579,-3600.648841
456.499962,5699.585753,-14285.974681,-3370.820191
456.500284,5995.668130,-15100.201217,-2681.334243
456.500606,5551.544565,-14508.036463,-1225.752797
456.500928,3404.947333,-13027.624579,995.924147
456.501250,1998.556043,-10881.027347,3217.601092
456.501571,1110.308913,-8586.388927,3524.039291
456.501893,1332.370696,-5847.626942,2604.724693
456.502215,740.205942,-4515.256246,2068.457845
456.502537,0.000000,-3182.885551,2298.286494
456.502859,-296.082377,-3478.967927,1302.362347
456.503181,444.123565,-6291.750507,-459.657299
456.503503,740.205942,-7920.203579,-995.924147
456.503824,370.102971,-9030.512492,-2221.676944
456.504146,0.000000,-10362.883188,-4673.182538
456.504468,592.164754,-12583.501014,-5822.325785
456.504790,962.267725,-14508.036463,-5439.278036
456.505112,518.144159,-16802.674883,-5822.325785
456.505434,-148.041188,-16728.654289,-4826.401637
456.505756,296.082377,-14434.015869,-3677.258390
456.506078,1924.535449,-11251.130318,-3753.867940
456.506399,4367.215058,-9400.615463,-2911.162892
456.506721,5329.482782,-8586.388927,-995.924147
456.507043,5847.626942,-7772.162391,1378.971896
456.507365,6587.832884,-7254.018232,3294.210641
456.507687,7624.121203,-5847.626942,3830.477490
456.508009,8956.491898,-4071.132681,2528.115143
456.508331,8512.368333,-4219.173869,1762.019645
456.508652,5403.503377,-4737.318029,3294.210641
456.508974,2590.720797,-3627.009116,2987.772442
456.509296,2220.617826,-6365.771101,-1762.019645
456.509618,2294.638420,-10362.883188,-4979.620737
456.509940,1036.288319,-11695.253884,-2834.553343
456.510262,-1628.453072,-11843.295072,-2757.943793
456.510584,-2442.679609,-14952.160028,-3447.429741
456.510905,-2072.576638,-16506.592507,-3830.477490
456.511227,-2664.741391,-13397.727550,-5439.278036
456.511549,-2442.679609,-9992.780217,-5822.325785
456.511871,-296.082377,-9326.594869,-3600.648841
456.512193,1554.432478,-9252.574275,-3294.210641
456.512515,3552.988522,-8882.471304,-2757.943793
456.512837,6069.688724,-8882.471304,-306.438199
456.513158,8068.244768,-8882.471304,536.266849
456.513480,8068.244768,-8512.368333,1838.629195
456.513802,7402.059420,-7624.121203,1991.848295
456.514124,6069.688724,-7105.977043,612.876398
456.514446,4737.318029,-8142.265362,0.000000
456.514768,2368.659014,-9104.533087,842.705048
456.515090,-518.144159,-8512.368333,1532.190996
456.515411,-2368.659014,-8068.244768,536.266849
456.515733,-1924.535449,-9696.697840,-536.266849
456.516055,-296.082377,-11251.130318,-2221.676944
456.516377,666.185348,-10584.944971,-2451.505594
456.516699,1702.473667,-10066.800811,-1225.752797
456.517021,3034.844362,-9992.780217,-995.924147
456.517343,5255.462188,-9770.718434,-2221.676944
456.517665,6217.729913,-9474.636058,-4060.306139
456.517986,6143.709319,-9548.656652,-3524.039291
456.518308,5625.565159,-9178.553681,-2528.115143
456.518630,4737.318029,-8068.244768,-1378.971896
456.518952,3775.050304,-8364.327145,-1532.190996
456.519274,2516.700203,-7994.224174,-536.266849
456.519596,1258.350101,-7254.018232,-229.828649
456.519918,888.247130,-7994.224174,-2451.505594
456.520239,296.082377,-9992.780217,-3140.991542
456.520561,-814.226536,-10288.862594,-459.657299
456.520883,-1776.494261,-7920.203579,2068.457845
456.521205,-1332.370696,-7846.182985,459.657299
456.521527,148.041188,-10140.821405,-2068.457845
456.521849,2516.700203,-11843.295072,-3064.381992
456.522171,2960.823768,-13101.645173,-3600.648841
456.522492,3478.967927,-14952.160028,-536.266849
456.522814,4589.276840,-14656.077652,2757.943793
456.523136,5329.482782,-11917.315666,1455.581446
456.523458,6661.853478,-8586.388927,-1302.362347
456.523780,7920.203579,-7402.059420,-2221.676944
456.524102,8660.409521,-8956.491898,-3600.648841
456.524424,9104.533087,-9178.553681,-2221.676944
456.524745,9474.636058,-7402.059420,1072.533697
456.525067,8512.368333,-6291.750507,2221.676944
456.525389,7179.997637,-6957.935855,1991.848295
456.525711,3627.009116,-4811.338623,766.095498
456.526033,-814.226536,-2516.700203,-2757.943793
456.526355,-3849.070898,-4071.132681,-4213.525239
456.526677,-5625.565159,-9252.574275,-3907.087040
456.526998,-5773.606348,-12657.521608,-3907.087040
456.527320,-5181.441594,-11547.212695,-4060.306139
456.527642,-2664.741391,-13101.645173,-3753.867940
456.527964,-370.102971,-14656.077652,-2451.505594
456.528286,-962.267725,-13397.727550,-2145.067394
456.528608,-2368.659014,-10732.986159,-3140.991542
456.528930,296.082377,-10436.903782,-3524.039291
456.529251,2886.803174,-12657.521608,-3983.696590
456.529573,4811.338623,-13693.809927,-3524.039291
456.529895,5995.668130,-12731.542202,-229.828649
456.530217,8438.347739,-9844.739029,3294.210641
456.530539,11251.130318,-7179.997637,4366.744339
456.530861,12287.418637,-5181.441594,2451.505594
456.531182,11695.253884,-5847.626942,0.000000
456.531504,10214.842000,-6809.894666,-689.485948
456.531826,8808.450710,-5551.544565,153.219100
456.532148,5255.462188,-4811.338623,459.657299
456.532470,1480.411884,-6957.935855,995.924147
456.532792,-888.247130,-7846.182985,842.705048
456.533114,-3478.967927,-7402.059420,-3217.601092
456.533435,-4737.318029,-9622.677246,-6588.421283
456.533757,-6513.812290,-13545.768739,-5592.497135
456.534079,-8290.306550,-14211.954086,-3907.087040
456.534401,-9326.594869,-12213.398043,-3064.381992
456.534723,-7254.018232,-12583.501014,-4749.792088
456.535045,-4293.194464,-14137.933492,-5362.668486
456.535366,-2664.741391,-14359.995275,-4060.306139
456.535688,-1406.391290,-11843.295072,-766.095498
456.536010,1776.494261,-8142.265362,1608.800546
456.536332,6439.791695,-6291.750507,536.266849
456.536654,10288.862594,-5181.441594,0.000000
456.536976,10955.047942,-4293.194464,1225.752797
456.537297,9992.780217,-2590.720797,3294.210641
456.537619,9622.677246,-4589.276840,2987.772442
456.537941,9400.615463,-7254.018232,1149.143247
456.538263,8882.471304,-9252.574275,-689.485948
456.538585,6735.874072,-9400.615463,-1378.971896
456.538907,5477.523971,-10362.883188,-2298.286494
456.539228,4885.359217,-12213.398043,-2145.067394
456.539550,3849.070898,-13693.809927,-1838.629195
456.539872,444.123565,-13175.665768,-1685.410096
456.540194,-1036.288319,-12731.542202,-2604.724693
456.540516,-222.061783,-13767.830521,-3217.601092
456.540838,666.185348,-14359.995275,-3370.820191
456.541159,1406.391290,-11843.295072,-1455.581446
456.541481,148.041188,-9178.553681,1072.533697
456.541803,0.000000,-7328.038826,1838.629195
456.542125,518.144159,-6513.812290,536.266849
456.542447,1110.308913,-4885.359217,-1838.629195
456.542769,1554.432478,-4811.338623,-2298.286494
456.543090,296.082377,-4811.338623,0.000000
456.543412,-1036.288319,-5107.421000,612.876398
456.543734,-1850.514855,-7254.018232,-842.705048
456.544056,-1258.350101,-9474.636058,-2834.553343
456.544378,-1258.350101,-10436.903782,-4903.011187
456.544700,-962.267725,-11251.130318,-5745.716235
456.545022,0.000000,-14508.036463,-2834.553343
456.545343,1332.370696,-14804.118840,-1225.752797
456.545665,2442.679609,-13175.665768,-1608.800546
456.545987,4071.132681,-11843.295072,-1455.581446
456.546309,5995.668130,-11991.336260,-612.876398
456.546631,6143.709319,-10214.842000,-842.705048
456.546953,7105.977043,-9178.553681,0.000000
456.547274,8438.347739,-8068.244768,2681.334243
456.547596,6587.832884,-7254.018232,4290.134789
456.547918,1850.514855,-5181.441594,3524.039291
456.548240,-2146.597232,-2590.720797,1149.143247
456.548562,-4219.173869,-4737.318029,-2987.772442
456.548884,-5551.544565,-7402.059420,-4443.353888
456.549205,-7328.038826,-8586.388927,-2068.457845
456.549527,-7920.203579,-9918.759623,-306.438199
456.549849,-6735.874072,-10214.842000,-1302.362347
456.550171,-5329.482782,-10584.944971,-3294.210641
456.550493,-5625.565159,-10584.944971,-5209.449386
456.550815,-6217.729913,-10214.842000,-5056.230287
456.551136,-5699.585753,-9474.636058,-5286.058936
456.551458,-3627.009116,-9474.636058,-5362.668486
456.551780,-740.205942,-10955.047942,-4443.353888
456.552102,740.205942,-11917.315666,-2681.334243
456.552424,666.185348,-9992.780217,-2068.457845
456.552746,1258.350101,-8660.409521,-2528.115143
456.553067,2664.741391,-8364.327145,-2604.724693
456.553389,3108.864956,-9474.636058,-1608.800546
456.553711,2886.803174,-9918.759623,-459.657299
456.554033,2220.617826,-9622.677246,1532.190996
456.554355,2368.659014,-10288.862594,2068.457845
456.554677,2812.782580,-9918.759623,1225.752797
456.554998,2812.782580,-9474.636058,0.000000
456.555320,2590.720797,-8734.430116,-536.266849
456.555642,3108.864956,-9178.553681,-383.047749
456.555964,3478.967927,-10214.842000,0.000000
456.556286,2812.782580,-9474.636058,-383.047749
456.556608,1480.411884,-8438.347739,-2681.334243
456.556930,0.000000,-10214.842000,-2681.334243
456.557251,-2812.782580,-10807.006753,-2834.553343
456.557573,-5033.400406,-10362.883188,-2911.162892
456.557895,-5847.626942,-9474.636058,-4443.353888
456.558217,-4959.379811,-10436.903782,-3983.696590
456.558539,-3923.091493,-10658.965565,-1762.019645
456.558861,-4737.318029,-9326.594869,-1149.143247
456.559182,-5625.565159,-7846.182985,-536.266849
456.559504,-5329.482782,-6587.832884,-1225.752797
456.559826,-4145.153275,-6735.874072,-2068.457845
456.560148,-2368.659014,-6661.853478,-1762.019645
456.560470,-518.144159,-6217.729913,-383.047749
456.560792,1184.329507,-7105.977043,229.828649
456.561113,2516.700203,-8882.471304,1225.752797
456.561435,2590.720797,-9474.636058,1302.362347
456.561757,2812.782580,-9400.615463,-1225.752797
456.562079,4441.235652,-10140.821405,-2451.505594
456.562401,5551.544565,-11177.109724,-1532.190996
456.562723,5921.647536,-12065.356855,0.000000
456.563044,6069.688724,-11103.089130,536.266849
456.563366,6365.771101,-10510.924376,612.876398
456.563688,6587.832884,-11251.130318,0.000000
456.564010,5773.606348,-9992.780217,-1225.752797
456.564332,4441.235652,-7920.203579,-1608.800546
456.564654,2738.761985,-8364.327145,-1378.971896
456.564975,814.226536,-9474.636058,153.219100
456.565297,-2368.659014,-9474.636058,842.705048
456.565619,-6069.688724,-7179.997637,-612.876398
456.565941,-8142.265362,-7698.141797,-2681.334243
456.566263,-9178.553681,-9252.574275,-3907.087040
456.566585,-9548.656652,-10140.821405,-3753.867940
456.566906,-9474.636058,-10436.903782,-2911.162892
456.567228,-7476.080014,-10510.924376,-2834.553343
456.567550,-5329.482782,-11325.150913,-2528.115143
456.567872,-3330.926739,-11473.192101,-2298.286494
456.568194,-1850.514855,-10214.842000,-2528.115143
456.568516,-148.041188,-9252.574275,-2834.553343
456.568838,2220.617826,-9252.574275,-2528.115143
456.569159,3627.009116,-10584.944971,-1991.848295
456.569481,3701.029710,-9992.780217,-536.266849
456.569803,3923.091493,-9474.636058,229.828649
456.570125,4441.235652,-10066.800811,-153.219100
456.570447,3849.070898,-9770.718434,-689.485948
456.570769,1850.514855,-7994.224174,-76.609550
456.571090,222.061783,-7179.997637,-153.219100
456.571412,222.061783,-8142.265362,0.000000
456.571734,74.020594,-8882.471304,-306.438199
456.572056,-740.205942,-7846.182985,-153.219100
456.572378,-1850.514855,-7254.018232,689.485948
456.572700,-1702.473667,-7772.162391,-229.828649
456.573021,-296.082377,-9696.697840,-2451.505594
456.573343,74.020594,-10362.883188,-2834.553343
456.573665,-740.205942,-9178.553681,-1685.410096
456.573987,-888.247130,-8882.471304,-1838.629195
456.574309,-1776.494261,-9474.636058,-2757.943793
456.574631,-2220.617826,-9178.553681,-3753.867940
456.574952,-3182.885551,-9252.574275,-3983.696590
456.575274,-4145.153275,-8956.491898,-4060.306139
456.575596,-3552.988522,-8364.327145,-4213.525239
456.575918,-3182.885551,-8660.409521,-3064.381992
456.576240,-1924.535449,-10732.986159,-2068.457845
456.576562,-1110.308913,-11251.130318,-919.314598
456.576883,-444.123565,-9548.656652,-383.047749
456.577205,0.000000,-9474.636058,-612.876398
456.577527,1110.308913,-10510.924376,-612.876398
456.577849,2072.576638,-9474.636058,-1532.190996
456.578171,2220.617826,-9400.615463,-842.705048
456.578493,2442.679609,-9844.739029,919.314598
456.578814,2368.659014,-9918.759623,0.000000
456.579136,3108.864956,-9548.656652,-1915.238745
456.579458,3552.988522,-9992.780217,-919.314598
456.579780,3034.844362,-9844.739029,-689.485948
456.580102,2664.741391,-9548.656652,-1225.752797
456.580424,2072.576638,-10362.883188,-2145.067394
456.580746,814.226536,-10436.903782,-612.876398
456.581067,-1332.370696,-9474.636058,-842.705048
456.581389,-2516.700203,-8290.306550,-1532.190996
456.581711,-1702.473667,-7920.203579,-2374.896044
456.582033,-740.205942,-7920.203579,-2911.162892
456.582355,-814.226536,-8882.471304,-2528.115143
456.582677,-2146.597232,-8586.388927,76.609550
456.582998,-2886.803174,-8808.450710,1149.143247
456.583320,-4219.173869,-9252.574275,-1302.362347
456.583642,-4515.256246,-9844.739029,-2834.553343
456.583964,-4219.173869,-8808.450710,-2604.724693
456.584286,-3034.844362,-8660.409521,-1685.410096
456.584608,-962.267725,-8438.347739,383.047749
456.584929,74.020594,-8216.285956,1225.752797
456.585251,1036.288319,-8142.265362,689.485948
456.585573,1406.391290,-8438.347739,-153.219100
456.585895,2146.597232,-9696.697840,-1225.752797
456.586217,2516.700203,-9178.553681,-1532.190996
456.586539,2812.782580,-10214.842000,-1225.752797
456.586860,1998.556043,-10955.047942,459.657299
456.587182,1110.308913,-10436.903782,536.266849
456.587504,296.082377,-10436.903782,-1378.971896
456.587826,0.000000,-10881.027347,-2604.724693
456.588148,-1036.288319,-10510.924376,-2451.505594
456.588470,-2368.659014,-9400.615463,-1685.410096
456.588791,-2738.761985,-9400.615463,-995.924147
456.589113,-3404.947333,-10584.944971,-536.266849
456.589435,-3478.967927,-10362.883188,-1072.533697
456.589757,-3108.864956,-9474.636058,-1685.410096
456.590079,-3182.885551,-8660.409521,-1915.238745
456.590401,-2368.659014,-7994.224174,-1608.800546
456.590722,-1332.370696,-8586.388927,-1149.143247
456.591044,-222.061783,-9030.512492,-995.924147
456.591366,222.061783,-9474.636058,-306.438199
456.591688,0.000000,-8956.491898,-689.485948
456.592010,0.000000,-9252.574275,-1915.238745
456.592332,-740.205942,-9474.636058,-2068.457845
456.592654,-1110.308913,-9326.594869,-1378.971896
456.592975,-592.164754,-9696.697840,-1072.533697
456.593297,592.164754,-9178.553681,-1532.190996
456.593619,1554.432478,-8586.388927,-536.266849
456.593941,1036.288319,-8660.409521,-306.438199
456.594263,444.123565,-8364.327145,-766.095498
456.594585,222.061783,-8068.244768,-1378.971896
456.594906,962.267725,-7698.141797,-1685.410096
456.595228,2072.576638,-8438.347739,-2451.505594
456.595550,2368.659014,-9992.780217,-2374.896044
456.595872,1702.473667,-10214.842000,-842.705048
456.596194,740.205942,-10658.965565,-612.876398
456.596516,74.020594,-11251.130318,-1378.971896
456.596837,-666.185348,-10140.821405,-2528.115143
456.597159,-592.164754,-9474.636058,-3447.429741
456.597481,444.123565,-9104.533087,-3294.210641
456.597803,1258.350101,-9400.615463,-2221.676944
456.598125,740.205942,-9474.636058,-536.266849
456.598447,-962.267725,-9252.574275,-459.657299
456.598768,-1554.432478,-9622.677246,-1072.533697
456.599090,-888.247130,-9844.739029,-2451.505594
456.599412,0.000000,-10288.862594,-2911.162892
456.599734,222.061783,-9770.718434,-1532.190996
456.600056,0.000000,-8290.306550,-536.266849
456.600378,0.000000,-8512.368333,-919.314598
456.600699,-1184.329507,-9770.718434,-1072.533697
456.601021,-2146.597232,-9622.677246,-2604.724693
456.601343,-2738.761985,-8586.388927,-3830.477490
456.601665,-1480.411884,-10881.027347,-3140.991542
456.601987,148.041188,-11917.315666,-2374.896044
456.602309,444.123565,-10658.965565,-153.219100
456.602630,-148.041188,-8660.409521,1378.971896
456.602952,-666.185348,-7476.080014,229.828649
456.603274,0.000000,-6439.791695,-3217.601092
456.603596,-962.267725,-7254.018232,-5515.887586
456.603918,-1924.535449,-8660.409521,-2987.772442
456.604240,-1924.535449,-10288.862594,-459.657299
456.604562,-1258.350101,-10362.883188,-689.485948
456.604883,-962.267725,-11325.150913,-229.828649
456.605205,-1554.432478,-10066.800811,-153.219100
456.605527,-2664.741391,-8364.327145,-2528.115143
456.605849,-2590.720797,-8364.327145,-2834.553343
456.606171,-1184.329507,-9252.574275,-1149.143247
456.606493,-1036.288319,-8512.368333,-536.266849
456.606814,-814.226536,-7846.182985,0.000000
456.607136,666.185348,-9400.615463,306.438199
456.607458,1480.411884,-10510.924376,-842.705048
456.607780,1702.473667,-9474.636058,-1225.752797
456.608102,1628.453072,-9252.574275,-1149.143247
456.608424,1998.556043,-9844.739029,-229.828649
456.608745,1184.329507,-10140.821405,-383.047749
456.609067,-518.144159,-9400.615463,0.000000
456.609389,-1776.494261,-8882.471304,-766.095498
456.609711,-2368.659014,-8586.388927,-2604.724693
456.610033,-2590.720797,-8808.450710,-3600.648841
456.610355,-3108.864956,-10066.800811,-1838.629195
456.610676,-2812.782580,-10584.944971,-383.047749
456.610998,-2072.576638,-10362.883188,-995.924147
456.611320,-1702.473667,-10881.027347,-1455.581446
456.611642,-962.267725,-10955.047942,-919.314598
456.611964,-370.102971,-9030.512492,-1072.533697
456.612286,740.205942,-7105.977043,-2298.286494
456.612607,2146.597232,-7772.162391,-2681.334243
456.612929,2590.720797,-9104.533087,-919.314598
456.613251,1406.391290,-8956.491898,-995.924147
456.613573,-296.082377,-9770.718434,-1455.581446
456.613895,-370.102971,-11177.109724,-1608.800546
456.614217,296.082377,-11177.109724,-2298.286494
456.614538,518.144159,-10140.821405,-1608.800546
456.614860,1184.329507,-9178.553681,0.000000
456.615182,2220.617826,-7698.141797,0.000000
456.615504,2072.576638,-7105.977043,-766.095498
456.615826,1628.453072,-8216.285956,-459.657299
456.616148,888.247130,-7772.162391,-1455.581446
456.616469,592.164754,-7698.141797,-2681.334243
456.616791,666.185348,-9400.615463,-2451.505594
456.617113,444.123565,-11029.068536,-689.485948
456.617435,0.000000,-10214.842000,0.000000
456.617757,0.000000,-9622.677246,-2834.553343
456.618079,0.000000,-10510.924376,-2681.334243
456.618401,-1036.288319,-10140.821405,-2298.286494
456.618722,-2368.659014,-7772.162391,-2757.943793
456.619044,-1924.535449,-8734.430116,-3294.210641
456.619366,-592.164754,-10436.903782,-2757.943793
456.619688,-592.164754,-11177.109724,-2145.067394
456.620010,-1628.453072,-10214.842000,-1149.143247
456.620332,-1332.370696,-9622.677246,-76.609550
456.620653,-222.061783,-10140.821405,-1072.533697
456.620975,0.000000,-9770.718434,-1225.752797
456.621297,-740.205942,-8882.471304,-612.876398
456.621619,-666.185348,-7846.182985,-1455.581446
456.621941,-592.164754,-8660.409521,-2528.115143
456.622263,-1036.288319,-9918.759623,-1378.971896
456.622584,-1110.308913,-9548.656652,-842.705048
456.622906,-740.205942,-8882.471304,-2604.724693
456.623228,666.185348,-10584.944971,-2068.457845
456.623550,1184.329507,-11251.130318,-229.828649
456.623872,-148.041188,-9474.636058,-842.705048
456.624194,-888.247130,-7105.977043,-1608.800546
456.624515,-962.267725,-8586.388927,-1378.971896
456.624837,-1406.391290,-7920.203579,-2298.286494
456.625159,-2072.576638,-7179.997637,-3064.381992
456.625481,-1776.494261,-7402.059420,-2451.505594
456.625803,-1406.391290,-9252.574275,-1149.143247
456.626125,-1258.350101,-9844.739029,-1685.410096
456.626446,-1998.556043,-9548.656652,-3294.210641
456.626768,-2368.659014,-9326.594869,-2298.286494
456.627090,-2146.597232,-9992.780217,-2681.334243
456.627412,-1628.453072,-9548.656652,-2911.162892
456.627734,-1258.350101,-9696.697840,-1455.581446
456.628056,-518.144159,-9622.677246,-153.219100
456.628377,0.000000,-9474.636058,-919.314598
456.628699,1036.288319,-9696.697840,-1149.143247
456.629021,1406.391290,-8142.265362,-766.095498
456.629343,2368.659014,-8216.285956,-1455.581446
456.629665,3849.070898,-9474.636058,-2221.676944
456.629987,4441.235652,-10584.944971,-689.485948
456.630309,2368.659014,-10807.006753,1225.752797
456.630630,-296.082377,-10214.842000,383.047749
456.630952,-1554.432478,-9548.656652,-2604.724693
456.631274,-2664.741391,-9696.697840,-3830.477490
456.631596,-2960.823768,-10510.924376,-2681.334243
456.631918,-2590.720797,-10584.944971,-1378.971896
456.632240,-2294.638420,-9178.553681,-612.876398
456.632562,-2294.638420,-10140.821405,-306.438199
456.632884,-1850.514855,-10807.006753,-766.095498
456.633205,-2146.597232,-9992.780217,-2068.457845
456.633527,-1628.453072,-8364.327145,-3064.381992
456.633849,-222.061783,-8290.306550,-1838.629195
456.634171,1184.329507,-8068.244768,-1302.362347
456.634493,2442.679609,-7846.182985,-1838.629195
456.634815,2368.659014,-8956.491898,-229.828649
456.635137,1332.370696,-9548.656652,766.095498
456.635458,444.123565,-9326.594869,-1378.971896
456.635780,0.000000,-9326.594869,-2681.334243
456.636102,-444.123565,-9622.677246,-612.876398
456.636424,-814.226536,-9918.759623,919.314598
456.636746,-592.164754,-8216.285956,153.219100
456.637068,814.226536,-7920.203579,-536.266849
456.637390,1628.453072,-8290.306550,-1532.190996
456.637711,1332.370696,-8216.285956,-1991.848295
456.638033,1110.308913,-8216.285956,-1149.143247
456.638355,962.267725,-8216.285956,459.657299
456.638677,2146.597232,-8734.430116,-229.828649
456.638999,888.247130,-9770.718434,-1915.238745
456.639321,-666.185348,-10362.883188,-2451.505594
456.639643,-2294.638420,-10732.986159,-2604.724693
456.639964,-2886.803174,-9770.718434,-3140.991542
456.640286,-3034.844362,-9400.615463,-3140.991542
456.640608,-2368.659014,-9770.718434,-2681.334243
456.640930,-2220.617826,-10658.965565,-2451.505594
456.641252,-1924.535449,-10436.903782,-2604.724693
456.641574,-1628.453072,-10140.821405,-1838.629195
456.641896,-1332.370696,-9770.718434,-1455.581446
456.642217,-1036.288319,-9104.533087,-919.314598
456.642539,-740.205942,-8290.306550,-842.705048
456.642861,0.000000,-8290.306550,-1072.533697
456.643183,444.123565,-9252.574275,-995.924147
456.643505,740.205942,-9474.636058,-1608.800546
456.643827,-148.041188,-9474.636058,-2068.457845
456.644149,-370.102971,-10214.842000,-2451.505594
456.644470,-888.247130,-10214.842000,-2221.676944
456.644792,-814.226536,-9252.574275,-2221.676944
456.645114,-222.061783,-9326.594869,-2451.505594
456.645436,1184.329507,-10510.924376,-2987.772442
456.645758,592.164754,-10066.800811,-1838.629195
456.646080,0.000000,-9326.594869,-1302.362347
456.646402,222.061783,-8956.491898,-1532.190996
456.646723,666.185348,-8882.471304,-1915.238745
456.647045,666.185348,-8290.306550,-1608.800546
456.647367,296.082377,-8512.368333,-2221.676944
456.647689,0.000000,-8438.347739,-1838.629195
456.648011,-962.267725,-8734.430116,-1685.410096
456.648333,-2516.700203,-9770.718434,-1455.581446
456.648655,-3552.988522,-9474.636058,-842.705048
456.648976,-3552.988522,-8142.265362,-1838.629195
456.649298,-2738.761985,-8438.347739,-2068.457845
456.649620,-1332.370696,-9844.739029,-1685.410096
456.649942,0.000000,-9992.780217,-1149.143247
456.650264,518.144159,-8956.491898,-383.047749
456.650586,1628.453072,-8956.491898,306.438199
456.650908,3182.885551,-8660.409521,-842.705048
456.651229,3627.009116,-8586.388927,-2681.334243
456.651551,3108.864956,-9400.615463,-2145.067394
456.651873,2220.617826,-9622.677246,0.000000
456.652195,592.164754,-10214.842000,76.609550
456.652517,-444.123565,-10436.903782,-1378.971896
456.652839,-2072.576638,-11621.233289,-1608.800546
456.653161,-3182.885551,-10658.965565,-2145.067394
456.653482,-3034.844362,-9104.533087,-1991.848295
456.653804,-2294.638420,-8586.388927,-1072.533697
456.654126,-1850.514855,-8364.327145,-842.705048
456.654448,-1480.411884,-8364.327145,-842.705048
456.654770,-1110.308913,-9548.656652,-1455.581446
456.655092,-518.144159,-10214.842000,-1608.800546
456.655414,444.123565,-10881.027347,-1225.752797
456.655735,518.144159,-9326.594869,0.000000
456.656057,1554.432478,-8216.285956,229.828649
456.656379,2368.659014,-8882.471304,-1532.190996
456.656701,1258.350101,-9400.615463,-2068.457845
456.657023,74.020594,-8882.471304,-1762.019645
456.657345,-296.082377,-9178.553681,-2604.724693
456.657667,74.020594,-8882.471304,-3294.210641
456.657988,-666.185348,-9844.739029,-689.485948
456.658310,-2072.576638,-10658.965565,306.438199
456.658632,-2664.741391,-9696.697840,-995.924147
456.658954,-1850.514855,-8512.368333,-2145.067394
456.659276,-592.164754,-9474.636058,-2298.286494
456.659598,222.061783,-9104.533087,-1378.971896
456.659920,222.061783,-7772.162391,-306.438199
456.660241,740.205942,-7920.203579,0.000000
456.660563,1480.411884,-8882.471304,-383.047749
456.660885,1332.370696,-9030.512492,-1685.410096
456.661207,-296.082377,-9030.512492,-2911.162892
456.661529,-1480.411884,-10066.800811,-2298.286494
456.661851,-1998.556043,-9548.656652,-2221.676944
456.662173,-1850.514855,-10214.842000,-2911.162892
456.662494,-1332.370696,-11325.150913,-2298.286494
456.662816,-962.267725,-11103.089130,-1762.019645
456.663138,-1406.391290,-9918.759623,-2374.896044
456.663460,-444.123565,-9844.739029,-1685.410096
456.663782,0.000000,-9474.636058,-995.924147
456.664104,148.041188,-8438.347739,-1532.190996
456.664426,148.041188,-7920.203579,-1378.971896
456.664747,666.185348,-8364.327145,-383.047749
456.665069,592.164754,-9252.574275,-995.924147
456.665391,-444.123565,-9918.759623,-2374.896044
456.665713,-1554.432478,-10436.903782,-1991.848295
456.666035,-1258.350101,-10658.965565,-1302.362347
456.666357,-962.267725,-9252.574275,-1378.971896
456.666679,-888.247130,-8364.327145,-2068.457845
456.667000,-518.144159,-8364.327145,-1762.019645
456.667322,-444.123565,-8364.327145,-2374.896044
456.667644,0.000000,-9178.553681,-2757.943793
456.667966,74.020594,-10214.842000,-1685.410096
456.668288,-814.226536,-10214.842000,-766.095498
456.668610,-1850.514855,-9474.636058,-536.266849
456.668932,-1480.411884,-9400.615463,-1608.800546
456.669253,-222.061783,-9548.656652,-2068.457845
456.669575,74.020594,-9474.636058,-1838.629195
456.669897,-370.102971,-7994.224174,-1838.629195
456.670219,-518.144159,-7994.224174,-1302.362347
456.670541,0.000000,-8438.347739,-1608.800546
456.670863,0.000000,-8660.409521,-1302.362347
456.671185,-444.123565,-9696.697840,-919.314598
456.671506,-740.205942,-9696.697840,-1762.019645
456.671828,-370.102971,-9030.512492,-1915.238745
456.672150,222.061783,-10066.800811,-1762.019645
456.672472,148.041188,-10362.883188,-766.095498
456.672794,518.144159,-9696.697840,-919.314598
456.673116,1110.308913,-8808.450710,-689.485948
456.673438,2368.659014,-9326.594869,-1302.362347
456.673759,1998.556043,-9770.718434,-1915.238745
456.674081,222.061783,-9696.697840,-1455.581446
456.674403,-1776.494261,-10288.862594,-919.314598
456.674725,-3034.844362,-10658.965565,-1302.362347
456.675047,-3627.009116,-9770.718434,-1378.971896
456.675369,-2812.782580,-9696.697840,-1149.143247
456.675691,-1924.535449,-9548.656652,-842.705048
456.676012,-1332.370696,-8734.430116,-919.314598
456.676334,-888.247130,-8216.285956,-383.047749
456.676656,-888.247130,-8882.471304,306.438199
456.676978,-592.164754,-9474.636058,0.000000
456.677300,-814.226536,-8734.430116,-842.705048
456.677622,296.082377,-9474.636058,-1838.629195
456.677944,1110.308913,-9622.677246,-995.924147
456.678265,888.247130,-9474.636058,0.000000
456.678587,666.185348,-8512.368333,-612.876398
456.678909,148.041188,-8660.409521,-1072.533697
456.679231,0.000000,-9178.553681,-1915.238745
456.679553,-888.247130,-8956.491898,-1991.848295
456.679875,-1258.350101,-9400.615463,-1072.533697
456.680197,-1628.453072,-9252.574275,-919.314598
456.680518,-1480.411884,-9178.553681,-919.314598
456.680840,-888.247130,-10066.800811,-995.924147
456.681162,-888.247130,-9622.677246,-766.095498
456.681484,-444.123565,-9104.533087,-919.314598
456.681806,222.061783,-8734.430116,-1532.190996
456.682128,1480.411884,-9400.615463,-1302.362347
456.682450,1628.453072,-8734.430116,-1225.752797
456.682771,518.144159,-8142.265362,-1915.238745
456.683093,0.000000,-9030.512492,-2374.896044
456.683415,-370.102971,-9474.636058,-3140.991542
456.683737,-1480.411884,-10214.842000,-2987.772442
456.684059,-1924.535449,-10510.924376,-1225.752797
456.684381,-2072.576638,-10955.047942,-1072.533697
456.684703,-1406.391290,-10807.006753,-2604.724693
456.685024,-962.267725,-11177.109724,-2145.067394
456.685346,-666.185348,-10584.944971,-1838.629195
456.685668,-888.247130,-7994.224174,-689.485948
456.685990,-962.267725,-7920.203579,-1149.143247
456.686312,-666.185348,-8512.368333,-1991.848295
456.686634,-518.144159,-7920.203579,-2298.286494
456.686956,-370.102971,-9770.718434,-2374.896044
456.687277,-222.061783,-11029.068536,-1378.971896
456.687599,0.000000,-10362.883188,-1072.533697
456.687921,-444.123565,-8882.471304,-1608.800546
456.688243,-1036.288319,-9030.512492,-995.924147
456.688565,-962.267725,-9474.636058,-689.485948
456.688887,-222.061783,-7994.224174,-3524.039291
456.689209,-814.226536,-8068.244768,-3370.820191
456.689530,-888.247130,-9548.656652,-612.876398
456.689852,-1406.391290,-9696.697840,-153.219100
456.690174,-1036.288319,-9474.636058,-1378.971896
456.690496,74.020594,-9474.636058,-1225.752797
456.690818,1258.350101,-9918.759623,-1608.800546
456.691140,962.267725,-8956.491898,-2068.457845
456.691462,0.000000,-8290.306550,-995.924147
456.691784,-814.226536,-7994.224174,0.000000
456.692105,-296.082377,-8068.244768,-1685.410096
456.692427,0.000000,-8734.430116,-3600.648841
456.692749,0.000000,-9030.512492,-2145.067394
456.693071,0.000000,-9326.594869,-689.485948
456.693393,518.144159,-9326.594869,-1532.190996
456.693715,1628.453072,-10140.821405,-1915.238745
456.694037,1258.350101,-10881.027347,-1149.143247
456.694358,592.164754,-11029.068536,-919.314598
456.694680,-296.082377,-10066.800811,-1302.362347
456.695002,-222.061783,-8586.388927,-2145.067394
456.695324,814.226536,-8438.347739,-2757.943793
456.695646,1036.288319,-10066.800811,-2911.162892
456.695968,-518.144159,-10881.027347,-1149.143247
456.696290,-2442.679609,-10288.862594,76.609550
456.696611,-2812.782580,-9770.718434,-1302.362347
456.696933,-2590.720797,-10658.965565,-2451.505594
456.697255,-2516.700203,-10732.986159,-1532.190996
456.697577,-1850.514855,-9992.780217,-1072.533697
456.697899,-740.205942,-8660.409521,-1225.752797
456.698221,740.205942,-8438.347739,-536.266849
456.698543,740.205942,-8660.409521,-383.047749
456.698864,148.041188,-8734.430116,-1072.533697
456.699186,296.082377,-8660.409521,-1608.800546
456.699508,1406.391290,-9252.574275,-2068.457845
456.699830,1554.432478,-9548.656652,-1378.971896
456.700152,814.226536,-9104.533087,-306.438199
456.700474,-222.061783,-9030.512492,-689.485948
456.700796,-814.226536,-9474.636058,-2068.457845
456.701117,-1258.350101,-9770.718434,-2221.676944
456.701439,-1850.514855,-9252.574275,-842.705048
456.701761,-1776.494261,-8512.368333,-766.095498
456.702083,-1110.308913,-8142.265362,-995.924147
456.702405,-814.226536,-8660.409521,0.000000
456.702727,-962.267725,-9622.677246,1302.362347
456.703049,-1184.329507,-8512.368333,-306.438199
456.703370,-444.123565,-7105.977043,-2068.457845
456.703692,1110.308913,-7624.121203,-2757.943793
456.704014,1702.473667,-9252.574275,-1455.581446
456.704336,518.144159,-10288.862594,0.000000
456.704658,222.061783,-10066.800811,-766.095498
456.704980,0.000000,-11177.109724,-2528.115143
456.705302,-370.102971,-11843.295072,-2911.162892
456.705623,-1332.370696,-11251.130318,-1532.190996
456.705945,-1850.514855,-10214.842000,-1225.752797
456.706267,-740.205942,-9918.759623,-2221.676944
456.706589,740.205942,-10732.986159,-2298.286494
456.706911,74.020594,-10510.924376,-1378.971896
456.707233,-666.185348,-9104.533087,-689.485948
456.707555,-666.185348,-7994.224174,-995.924147
456.707876,0.000000,-8068.244768,-2145.067394
456.708198,222.061783,-8734.430116,-1915.238745
456.708520,-296.082377,-9326.594869,-1915.238745
456.708842,-1184.329507,-10362.883188,-1072.533697
456.709164,-1628.453072,-10807.006753,-766.095498
456.709486,-2220.617826,-10140.821405,-1685.410096
456.709808,-2442.679609,-9918.759623,-3064.381992
456.710129,-2220.617826,-8956.491898,-2604.724693
456.710451,-740.205942,-9252.574275,-1991.848295
456.710773,0.000000,-8956.491898,-2604.724693
456.711095,-296.082377,-8512.368333,-1455.581446
456.711417,-1036.288319,-8290.306550,229.828649
456.711739,-1406.391290,-9326.594869,-689.485948
456.712061,-814.226536,-9474.636058,-2145.067394
456.712382,-148.041188,-9178.553681,-2528.115143
456.712704,444.123565,-7772.162391,-1455.581446
456.713026,1036.288319,-8512.368333,-383.047749
456.713348,1850.514855,-8364.327145,-842.705048
456.713670,1998.556043,-8586.388927,-919.314598
456.713992,1332.370696,-8586.388927,-1225.752797
456.714314,74.020594,-9030.512492,-1302.362347
456.714635,0.000000,-8438.347739,-766.095498
456.714957,-222.061783,-9474.636058,-1685.410096
456.715279,0.000000,-10436.903782,-2298.286494
456.715601,296.082377,-9918.759623,-919.314598
456.715923,370.102971,-9178.553681,-842.705048
456.716245,666.185348,-9326.594869,-1378.971896
456.716567,1184.329507,-8808.450710,-1608.800546
456.716888,444.123565,-8586.388927,-3064.381992
456.717210,-370.102971,-9844.739029,-2681.334243
456.717532,-1628.453072,-10881.027347,-1608.800546
456.717854,-3256.906145,-10955.047942,-1991.848295
456.718176,-3552.988522,-11103.089130,-2451.505594
456.718498,-3330.926739,-11473.192101,-1762.019645
456.718820,-2368.659014,-11325.150913,-1685.410096
456.719141,-1184.329507,-9918.759623,-1608.800546
456.719463,0.000000,-8438.347739,-1378.971896
456.719785,1258.350101,-8068.244768,-76.609550
456.720107,1850.514855,-9178.553681,-459.657299
456.720429,1036.288319,-9326.594869,-1532.190996
456.720751,74.020594,-8734.430116,-1378.971896
456.721073,592.164754,-9178.553681,-689.485948
456.721394,1628.453072,-9400.615463,-1149.143247
456.721716,1702.473667,-9252.574275,-1608.800546
456.722038,1036.288319,-9474.636058,-1225.752797
456.722360,0.000000,-10732.986159,-612.876398
456.722682,-814.226536,-10362.883188,-306.438199
456.723004,-1924.535449,-9326.594869,-1072.533697
456.723326,-2368.659014,-8808.450710,-1762.019645
456.723647,-2368.659014,-7846.182985,-1915.238745
456.723969,-1924.535449,-7846.182985,-1838.629195
456.724291,-2294.638420,-8290.306550,-459.657299
456.724613,-2220.617826,-8364.327145,-306.438199
456.724935,-2294.638420,-8068.244768,-1072.533697
456.725257,-1406.391290,-8586.388927,-2145.067394
456.725579,296.082377,-10214.842000,-2298.286494
456.725900,2072.576638,-10955.047942,-2374.896044
456.726222,2368.659014,-11029.068536,-459.657299
456.726544,1332.370696,-8956.491898,229.828649
456.726866,518.144159,-8142.265362,-766.095498
456.727188,296.082377,-9844.739029,-2987.772442
456.727510,592.164754,-11029.068536,-2221.676944
456.727832,-148.041188,-9770.718434,-1685.410096
456.728153,222.061783,-8660.409521,-1072.533697
456.728475,518.144159,-9918.759623,76.609550
456.728797,74.020594,-9918.759623,689.485948
456.729119,-666.185348,-8734.430116,-1991.848295
456.729441,-518.144159,-8068.244768,-2834.553343
456.729763,518.144159,-9030.512492,-2987.772442
456.730085,518.144159,-9844.739029,-2451.505594
456.730406,-962.267725,-11029.068536,-2068.457845
456.730728,-1702.473667,-11325.150913,-689.485948
456.731050,-1258.350101,-11769.274478,-1838.629195
456.731372,-814.226536,-11547.212695,-3447.429741
456.731685,-1628.453072,-9918.759623,-2681.334243
456.732007,-1850.514855,-8586.388927,-612.876398
456.732329,-444.123565,-7328.038826,0.000000
456.732651,1110.308913,-8068.244768,-1608.800546
456.732972,1776.494261,-8512.368333,-1762.019645
456.733294,1332.370696,-9252.574275,-766.095498
456.733616,518.144159,-9104.533087,-689.485948
456.733938,1110.308913,-8438.347739,-1225.752797
456.734259,2368.659014,-8512.368333,-612.876398
456.734581,2368.659014,-9178.553681,-1532.190996
456.734903,1776.494261,-9178.553681,-1302.362347
456.735225,592.164754,-8882.471304,-1608.800546
456.735547,0.000000,-9030.512492,-2298.286494
456.735868,-1332.370696,-9696.697840,-1991.848295
456.736190,-2738.761985,-9178.553681,-1608.800546
456.736512,-2590.720797,-9548.656652,-2068.457845
456.736834,-1406.391290,-9844.739029,-1915.238745
456.737155,-666.185348,-8956.491898,-1302.362347
456.737477,-370.102971,-8216.285956,-1532.190996
456.737799,-296.082377,-8364.327145,-1608.800546
456.738121,74.020594,-9474.636058,-1149.143247
456.738443,444.123565,-8882.471304,-1838.629195
456.738764,370.102971,-8882.471304,-2604.724693
456.739086,0.000000,-9918.759623,-1685.410096
456.739408,-1258.350101,-10288.862594,-1455.581446
456.739730,-3108.864956,-10807.006753,-1991.848295
456.740051,-3849.070898,-10288.862594,-2374.896044
456.740373,-3923.091493,-10436.903782,-1991.848295
456.740695,-2516.700203,-10066.800811,-2068.457845
456.741017,-666.185348,-10214.842000,-1762.019645
456.741338,0.000000,-7994.224174,-612.876398
456.741660,592.164754,-8438.347739,536.266849
456.741982,74.020594,-9548.656652,459.657299
456.742304,-444.123565,-9178.553681,-995.924147
456.742626,370.102971,-8290.306550,-2451.505594
456.742947,1702.473667,-9030.512492,-2221.676944
456.743269,2368.659014,-10288.862594,-1225.752797
456.743591,2294.638420,-9326.594869,-766.095498
456.743913,222.061783,-9030.512492,-919.314598
456.744234,-1776.494261,-9844.739029,-919.314598
456.744556,-2738.761985,-9992.780217,-2757.943793
456.744878,-3923.091493,-7920.203579,-4519.963438
456.745200,-3701.029710,-8660.409521,-3294.210641
456.745522,-2738.761985,-9474.636058,-1685.410096
456.745843,-2146.597232,-9326.594869,-306.438199
456.746165,-1628.453072,-9400.615463,-383.047749
456.746487,-962.267725,-9770.718434,-842.705048
456.746809,666.185348,-9178.553681,-1762.019645
456.747130,2220.617826,-8364.327145,-2528.115143
456.747452,2664.741391,-8586.388927,-1149.143247
456.747774,2220.617826,-8808.450710,383.047749
456.748096,1776.494261,-8438.347739,-153.219100
456.748418,1628.453072,-10214.842000,-2221.676944
456.748739,1332.370696,-10288.862594,-1532.190996
456.749061,222.061783,-9622.677246,-1378.971896
456.749383,0.000000,-9622.677246,-1302.362347
456.749705,518.144159,-10807.006753,0.000000
456.750026,740.205942,-11473.192101,76.609550
456.750348,592.164754,-10214.842000,0.000000
456.750670,370.102971,-8882.471304,-229.828649
456.750992,518.144159,-7920.203579,-1455.581446
456.751314,148.041188,-7476.080014,-2221.676944
456.751635,0.000000,-8660.409521,-1455.581446
456.751957,0.000000,-9326.594869,-995.924147
456.752279,-592.164754,-9622.677246,-1225.752797
456.752601,-1406.391290,-10436.903782,-1991.848295
456.752922,-2368.659014,-10881.027347,-2221.676944
456.753244,-3034.844362,-10658.965565,-2145.067394
456.753566,-2146.597232,-9548.656652,-1991.848295
456.753888,0.000000,-8216.285956,-2374.896044
456.754209,814.226536,-7328.038826,-1532.190996
456.754531,518.144159,-7328.038826,-459.657299
456.754853,-148.041188,-8364.327145,0.000000
456.755175,0.000000,-8586.388927,-1302.362347
456.755497,444.123565,-9252.574275,-2604.724693
456.755818,592.164754,-9622.677246,-1685.410096
456.756140,222.061783,-9400.615463,-919.314598
456.756462,370.102971,-9030.512492,-1302.362347
456.756784,518.144159,-9178.553681,-1762.019645
456.757105,148.041188,-10066.800811,-2451.505594
456.757427,-1480.411884,-9400.615463,-2528.115143
456.757749,-2664.741391,-9252.574275,-1915.238745
456.758071,-1850.514855,-10066.800811,-2451.505594
456.758393,0.000000,-10510.924376,-2757.943793
456.758714,1036.288319,-11103.089130,-2374.896044
456.759036,1184.329507,-10362.883188,-229.828649
456.759358,1702.473667,-9548.656652,76.609550
456.759680,1998.556043,-8660.409521,-1072.533697
456.760001,1702.473667,-8438.347739,-1608.800546
456.760323,1480.411884,-8660.409521,-1072.533697
456.760645,370.102971,-8364.327145,-1838.629195
456.760967,-370.102971,-9326.594869,-2221.676944
456.761289,-1332.370696,-10066.800811,-1378.971896
456.761610,-2886.803174,-9622.677246,-1225.752797
456.761932,-4219.173869,-9622.677246,-1838.629195
456.762254,-5181.441594,-9992.780217,-2298.286494
456.762576,-4885.359217,-10510.924376,-2451.505594
456.762897,-4145.153275,-10436.903782,-3064.381992
456.763219,-3182.885551,-10732.986159,-2298.286494
456.763541,-2516.700203,-10288.862594,0.000000
456.763863,-2072.576638,-8808.450710,536.266849
456.764184,-518.144159,-7031.956449,-1149.143247
456.764506,1406.391290,-6735.874072,-2221.676944
456.764828,2960.823768,-8512.368333,-2068.457845
456.765150,2960.823768,-8808.450710,-1302.362347
456.765472,1702.473667,-8586.388927,229.828649
456.765793,370.102971,-9326.594869,689.485948
456.766115,-592.164754,-10288.862594,0.000000
456.766437,-1406.391290,-9622.677246,-1225.752797
456.766759,-1332.370696,-8512.368333,-1991.848295
456.767080,-148.041188,-8216.285956,-1685.410096
456.767402,148.041188,-9178.553681,0.000000
456.767724,518.144159,-9474.636058,995.924147
456.768046,888.247130,-8956.491898,76.609550
456.768368,1110.308913,-8438.347739,-2374.896044
456.768689,1628.453072,-9992.780217,-2298.286494
456.769011,1850.514855,-10436.903782,-1302.362347
456.769333,1184.329507,-9178.553681,-459.657299
456.769655,666.185348,-9400.615463,-229.828649
456.769976,0.000000,-10436.903782,-1378.971896
456.770298,-592.164754,-9548.656652,-2374.896044
456.770620,-1480.411884,-8882.471304,-3064.381992
456.770942,-1184.329507,-8734.430116,-2604.724693
456.771264,148.041188,-9030.512492,-1685.410096
456.771585,370.102971,-9030.512492,-1225.752797
456.771907,-666.185348,-10807.006753,0.000000
456.772229,-2368.659014,-11029.068536,536.266849
456.772551,-3404.947333,-9474.636058,-2068.457845
456.772872,-2146.597232,-9622.677246,-4213.525239
456.773194,0.000000,-10066.800811,-2451.505594
456.773516,1036.288319,-9400.615463,-459.657299
456.773838,888.247130,-8882.471304,459.657299
456.774159,1184.329507,-9326.594869,689.485948
456.774481,740.205942,-10214.842000,-919.314598
456.774803,-666.185348,-10214.842000,-2451.505594
456.775125,-2220.617826,-8956.491898,-2604.724693
456.775447,-1776.494261,-9178.553681,-1608.800546
456.775768,0.000000,-9770.718434,-612.876398
456.776090,1480.411884,-9252.574275,76.609550
456.776412,1110.308913,-8216.285956,-153.219100
456.776734,1702.473667,-7624.121203,-1225.752797
456.777055,1850.514855,-7846.182985,-2451.505594
456.777377,1110.308913,-7624.121203,-2528.115143
456.777699,0.000000,-8142.265362,-2374.896044
456.778021,-666.185348,-9474.636058,-1608.800546
456.778343,-1628.453072,-10955.047942,-1225.752797
456.778664,-2886.803174,-11029.068536,-1762.019645
456.778986,-4515.256246,-9400.615463,-1915.238745
456.779308,-4367.215058,-8512.368333,-3064.381992
456.779630,-3552.988522,-9030.512492,-2834.553343
456.779951,-2960.823768,-9474.636058,-1532.190996
456.780273,-3182.885551,-8290.306550,-766.095498
456.780595,-1924.535449,-7994.224174,-1378.971896
456.780917,222.061783,-9696.697840,-2451.505594
456.781239,1702.473667,-10362.883188,-2451.505594
456.781560,2072.576638,-10436.903782,-995.924147
456.781882,2886.803174,-8956.491898,229.828649
456.782204,3849.070898,-8660.409521,0.000000
456.782526,3775.050304,-10066.800811,-1608.800546
456.782847,1850.514855,-10807.006753,-1762.019645
456.783169,-740.205942,-9770.718434,-1455.581446
456.783491,-2886.803174,-9178.553681,-1685.410096
456.783813,-3182.885551,-10436.903782,-1915.238745
456.784135,-3034.844362,-11177.109724,-1838.629195
456.784456,-3404.947333,-9548.656652,-1378.971896
456.784778,-3182.885551,-9696.697840,-1608.800546
456.785100,-2368.659014,-9548.656652,-1302.362347
456.785422,-1628.453072,-9474.636058,-2451.505594
456.785743,-1554.432478,-8586.388927,-2451.505594
456.786065,-1036.288319,-8216.285956,-1072.533697
456.786387,592.164754,-9104.533087,-1532.190996
456.786709,1332.370696,-9474.636058,-2604.724693
456.787030,1036.288319,-10140.821405,-1685.410096
456.787352,0.000000,-9770.718434,0.000000
456.787674,-518.144159,-9474.636058,-306.438199
456.787996,-666.185348,-9178.553681,-1532.190996
456.788318,-1036.288319,-8734.430116,-1685.410096
456.788639,-888.247130,-7402.059420,-995.924147
456.788961,-296.082377,-7179.997637,-1838.629195
456.789283,296.082377,-8216.285956,-1378.971896
456.789605,740.205942,-8734.430116,383.047749
456.789926,1332.370696,-8142.265362,0.000000
456.790248,1998.556043,-8660.409521,-1532.190996
456.790570,2664.741391,-10066.800811,-1455.581446
456.790892,2738.761985,-10955.047942,-842.705048
456.791214,1998.556043,-9992.780217,-1532.190996
456.791535,1406.391290,-9178.553681,-995.924147
456.791857,1110.308913,-9178.553681,-842.705048
456.792179,518.144159,-9474.636058,-2374.896044
456.792501,-592.164754,-8364.327145,-2987.772442
456.792822,-296.082377,-8882.471304,-1838.629195
456.793144,370.102971,-10807.006753,-1302.362347
456.793466,0.000000,-11473.192101,-1991.848295
456.793788,-962.267725,-10066.800811,-153.219100
456.794110,-1406.391290,-9918.759623,0.000000
456.794431,-1184.329507,-10214.842000,-612.876398
456.794753,-1110.308913,-9030.512492,-1685.410096
456.795075,444.123565,-9178.553681,-2221.676944
456.795397,666.185348,-9474.636058,-1378.971896
456.795718,1036.288319,-9548.656652,0.000000
456.796040,444.123565,-9400.615463,306.438199
456.796362,0.000000,-9696.697840,-689.485948
456.796684,-888.247130,-9844.739029,-2681.334243
456.797005,-888.247130,-8808.450710,-2757.943793
456.797327,-1554.432478,-9400.615463,-1608.800546
456.797649,-1036.288319,-10288.862594,-1532.190996
456.797971,-1036.288319,-9326.594869,-1455.581446
456.798293,-1110.308913,-8734.430116,0.000000
456.798614,-814.226536,-8734.430116,-766.095498
456.798936,-370.102971,-8290.306550,-2681.334243
456.799258,0.000000,-7105.977043,-2757.943793
456.799580,-296.082377,-8438.347739,-1149.143247
456.799901,-1554.432478,-9252.574275,-153.219100
456.800223,-3034.844362,-9104.533087,-1608.800546
456.800545,-3849.070898,-10214.842000,-2451.505594
456.800867,-3923.091493,-11621.233289,-1455.581446
456.801189,-4071.132681,-9918.759623,-766.095498
456.801510,-3108.864956,-7698.141797,-1149.143247
456.801832,-814.226536,-7550.100608,-842.705048
456.802154,0.000000,-8216.285956,-229.828649
456.802476,148.041188,-7920.203579,-995.924147
456.802797,0.000000,-8290.306550,-1762.019645
456.803119,740.205942,-9326.594869,-2221.676944
456.803441,1036.288319,-9548.656652,-2374.896044
456.803763,1184.329507,-10362.883188,-1532.190996
456.804085,1332.370696,-10807.006753,-995.924147
456.804406,1554.432478,-10362.883188,-1608.800546
456.804728,518.144159,-9918.759623,-2451.505594
456.805050,-888.247130,-10362.883188,-2298.286494
456.805372,-2664.741391,-9918.759623,-2068.457845
456.805693,-3404.947333,-9474.636058,-2681.334243
456.806015,-3182.885551,-10955.047942,-2451.505594
456.806337,-2886.803174,-10807.006753,-1149.143247
456.806659,-2664.741391,-10140.821405,-1149.143247
456.806981,-2442.679609,-9696.697840,-1455.581446
456.807302,-1998.556043,-9030.512492,-306.438199
456.807624,-2294.638420,-6439.791695,-1225.752797
456.807946,-1998.556043,-6661.853478,-2374.896044
456.808268,-1184.329507,-9104.533087,-2374.896044
456.808589,-518.144159,-9770.718434,-2221.676944
456.808911,-666.185348,-9696.697840,-1838.629195
456.809233,-666.185348,-10510.924376,-1302.362347
456.809555,-814.226536,-11399.171507,-306.438199
456.809876,-1998.556043,-10658.965565,-2451.505594
456.810198,-2886.803174,-10288.862594,-3140.991542
456.810520,-2516.700203,-10436.903782,-1762.019645
456.810842,-1776.494261,-9548.656652,-1685.410096
456.811164,-1776.494261,-8290.306550,-1302.362347
456.811485,-1998.556043,-6735.874072,-306.438199
456.811807,-1998.556043,-7105.977043,-842.705048
456.812129,-1998.556043,-7698.141797,-1608.800546
456.812451,-1776.494261,-8586.388927,-1532.190996
456.812772,-1850.514855,-8660.409521,-1455.581446
456.813094,-1406.391290,-9252.574275,-689.485948
456.813416,-1554.432478,-9104.533087,612.876398
456.813738,-2664.741391,-8438.347739,0.000000
456.814060,-3775.050304,-7550.100608,-2221.676944
456.814381,-4737.318029,-9030.512492,-4136.915689
456.814703,-5403.503377,-9918.759623,-3907.087040
456.815025,-5921.647536,-10362.883188,-3524.039291
456.815347,-5329.482782,-10510.924376,-2068.457845
456.815668,-4367.215058,-10658.965565,-1608.800546
456.815990,-3256.906145,-11547.212695,-2298.286494
456.816312,-3923.091493,-10732.986159,-2374.896044
456.816634,-4737.318029,-9474.636058,-1991.848295
456.816956,-4737.318029,-8290.306550,-1991.848295
456.817277,-3627.009116,-8068.244768,-2451.505594
456.817599,-2590.720797,-8660.409521,-2221.676944
456.817921,-2368.659014,-8956.491898,-1302.362347
456.818243,-2812.782580,-8882.471304,0.000000
456.818564,-3034.844362,-9696.697840,-919.314598
456.818886,-3923.091493,-10584.944971,-1532.190996
456.819208,-5107.421000,-11177.109724,-1685.410096
456.819530,-6883.915261,-10140.821405,-1532.190996
456.819851,-6883.915261,-9770.718434,-1991.848295
456.820173,-5255.462188,-9770.718434,-1915.238745
456.820495,-4071.132681,-9696.697840,-2145.067394
456.820817,-3627.009116,-8216.285956,-1225.752797
456.821139,-2664.741391,-7328.038826,-383.047749
456.821460,-2220.617826,-8068.244768,-1072.533697
456.821782,-2442.679609,-8808.450710,-2298.286494
456.822104,-3997.112087,-7698.141797,-2374.896044
456.822426,-4885.359217,-7550.100608,-2298.286494
456.822747,-4071.132681,-9178.553681,-2451.505594
456.823069,-3404.947333,-9104.533087,-3064.381992
456.823391,-3552.988522,-8216.285956,-3447.429741
456.823713,-3256.906145,-8808.450710,-2221.676944
456.824035,-2368.659014,-10807.006753,-1149.143247
456.824356,-2072.576638,-11473.192101,-1915.238745
456.824678,-2516.700203,-11177.109724,-995.924147
456.825000,-3775.050304,-10881.027347,0.000000
456.825322,-3404.947333,-9622.677246,0.000000
456.825643,-2442.679609,-8660.409521,-1378.971896
456.825965,-1628.453072,-7328.038826,-153.219100
456.826287,0.000000,-6217.729913,306.438199
456.826609,2812.782580,-6883.915261,-766.095498
456.826931,3997.112087,-8956.491898,-766.095498
456.827252,3849.070898,-10658.965565,842.705048
456.827574,1850.514855,-10066.800811,383.047749
456.827896,-592.164754,-7846.182985,-536.266849
456.828218,-2368.659014,-7328.038826,-3753.867940
456.828539,-3849.070898,-8142.265362,-5745.716235
456.828861,-5921.647536,-9104.533087,-6665.030833
456.829183,-7254.018232,-10436.903782,-5209.449386
456.829505,-7846.182985,-13175.665768,-3294.210641
456.829826,-7698.141797,-14730.098246,-2604.724693
456.830148,-9030.512492,-14804.118840,-3370.820191
456.830470,-9622.677246,-14211.954086,-3217.601092
456.830792,-9770.718434,-11917.315666,-2528.115143
456.831114,-8660.409521,-9252.574275,-2604.724693
456.831435,-6143.709319,-6439.791695,-1762.019645
456.831757,-3182.885551,-4811.338623,-383.047749
456.832079,-444.123565,-4737.318029,306.438199
456.832401,1554.432478,-6217.729913,536.266849
456.832722,3478.967927,-7698.141797,842.705048
456.833044,4885.359217,-8808.450710,0.000000
456.833366,4737.318029,-9400.615463,-383.047749
456.833687,3108.864956,-10066.800811,0.000000
456.834009,0.000000,-8438.347739,-383.047749
456.834331,-2812.782580,-8290.306550,-2068.457845
456.834653,-5477.523971,-8882.471304,-4060.306139
456.834974,-7402.059420,-10214.842000,-4749.792088
456.835296,-8142.265362,-10436.903782,-4290.134789
456.835618,-8364.327145,-12139.377449,-2757.943793
456.835940,-7920.203579,-12657.521608,-766.095498
456.836261,-7698.141797,-11621.233289,0.000000
456.836583,-7328.038826,-9400.615463,-995.924147
456.836905,-6809.894666,-7846.182985,-1302.362347
456.837227,-7105.977043,-7476.080014,-1149.143247
456.837548,-7179.997637,-7105.977043,-689.485948
456.837870,-6291.750507,-6809.894666,76.609550
456.838192,-4515.256246,-7402.059420,459.657299
456.838514,-1998.556043,-7846.182985,383.047749
456.838835,-222.061783,-7698.141797,-536.266849
456.839157,148.041188,-8216.285956,-153.219100
456.839479,222.061783,-8216.285956,-306.438199
456.839800,222.061783,-7846.182985,-2298.286494
456.840122,370.102971,-8068.244768,-4596.572988
456.840444,148.041188,-9474.636058,-4443.353888
456.840766,-740.205942,-10881.027347,-4673.182538
456.841087,-1776.494261,-11843.295072,-3983.696590
456.841409,-2516.700203,-12657.521608,-3217.601092
456.841731,-3330.926739,-13693.809927,-2298.286494
456.842053,-4071.132681,-12879.583391,-1378.971896
456.842374,-4663.297435,-9844.739029,-2068.457845
456.842696,-4885.359217,-7994.224174,-3140.991542
456.843018,-4737.318029,-8142.265362,-2451.505594
456.843340,-4515.256246,-8068.244768,-459.657299
456.843661,-4811.338623,-7846.182985,0.000000
456.843983,-4145.153275,-8512.368333,842.705048
456.844305,-2294.638420,-9178.553681,153.219100
456.844627,-592.164754,-8808.450710,-536.266849
456.844948,1036.288319,-7698.141797,-459.657299
456.845270,2960.823768,-7698.141797,-1225.752797
456.845592,4293.194464,-9326.594869,-2604.724693
456.845913,3404.947333,-10288.862594,-3447.429741
456.846235,740.205942,-11621.233289,-2221.676944
456.846557,-2664.741391,-12657.521608,-2068.457845
456.846879,-5699.585753,-13619.789333,-2834.553343
456.847200,-8216.285956,-12435.459826,-3447.429741
456.847522,-9992.780217,-10955.047942,-3524.039291
456.847844,-11399.171507,-8438.347739,-3217.601092
456.848166,-11177.109724,-6735.874072,-2604.724693
456.848487,-9844.739029,-5625.565159,-3064.381992
456.848809,-8290.306550,-5625.565159,-3064.381992
456.849131,-6069.688724,-7105.977043,-1915.238745
456.849453,-4589.276840,-9030.512492,-153.219100
456.849774,-2960.823768,-9696.697840,229.828649
456.850096,-1184.329507,-9548.656652,0.000000
456.850418,1110.308913,-9326.594869,-1072.533697
456.850740,3182.885551,-9030.512492,-689.485948
456.851061,3034.844362,-8290.306550,-1838.629195
456.851383,1850.514855,-7328.038826,-1378.971896
456.851705,0.000000,-7920.203579,-1762.019645
456.852026,-1850.514855,-9992.780217,-1991.848295
456.852348,-3849.070898,-11547.212695,-2068.457845
456.852670,-5773.606348,-12953.603985,-2068.457845
456.852992,-7846.182985,-12583.501014,-1302.362347
456.853313,-9252.574275,-11547.212695,-153.219100
456.853635,-9548.656652,-9104.533087,229.828649
456.853957,-8660.409521,-6587.832884,-766.095498
456.854279,-6735.874072,-5181.441594,-3140.991542
456.854600,-4737.318029,-5107.421000,-2834.553343
456.854922,-3923.091493,-5625.565159,-2068.457845
456.855244,-3256.906145,-6587.832884,-1608.800546
456.855566,-2072.576638,-9474.636058,-2451.505594
456.855887,-1036.288319,-11991.336260,-2528.115143
456.856209,-814.226536,-13175.665768,-3064.381992
456.856531,-1332.370696,-13323.706956,-2911.162892
456.856853,-1332.370696,-12731.542202,-2145.067394
456.857174,-1480.411884,-12213.398043,-1378.971896
456.857496,-2294.638420,-11177.109724,0.000000
456.857818,-3923.091493,-9104.533087,153.219100
456.858139,-4737.318029,-7920.203579,-842.705048
456.858461,-5329.482782,-7179.997637,-1532.190996
456.858783,-5403.503377,-6587.832884,-1685.410096
456.859105,-4959.379811,-6069.688724,-1302.362347
456.859426,-2960.823768,-6291.750507,-919.314598
456.859748,-1628.453072,-7772.162391,-2068.457845
456.860070,-814.226536,-9252.574275,-2451.505594
456.860392,-1258.350101,-9474.636058,-2298.286494
456.860713,-2590.720797,-10510.924376,-1991.848295
456.861035,-3701.029710,-12139.377449,-2681.334243
456.861357,-4071.132681,-13767.830521,-2604.724693
456.861679,-3775.050304,-14730.098246,-2451.505594
456.862000,-3404.947333,-13767.830521,-612.876398
456.862322,-1924.535449,-12213.398043,1685.410096
456.862644,296.082377,-10214.842000,2834.553343
456.862965,2294.638420,-8586.388927,2834.553343
456.863287,2442.679609,-8956.491898,2528.115143
456.863609,1702.473667,-7846.182985,3830.477490
456.863931,-296.082377,-5847.626942,4366.744339
456.864252,-3552.988522,-3849.070898,4366.744339
456.864574,-5921.647536,-2664.741391,2834.553343
456.864896,-7031.956449,-2146.597232,-459.657299
456.865218,-7328.038826,-3775.050304,-5209.449386
456.865539,-7402.059420,-5477.523971,-5669.106685
456.865861,-7254.018232,-8290.306550,-4213.525239
456.866183,-6735.874072,-12879.583391,-3600.648841
456.866505,-5995.668130,-16580.613101,-3907.087040
456.866826,-6143.709319,-17172.777854,-4136.915689
456.867148,-5699.585753,-16580.613101,-5362.668486
456.867470,-3775.050304,-15174.221811,-4060.306139
456.867792,-2442.679609,-12509.480420,-1455.581446
456.868113,-1702.473667,-8734.430116,1378.971896
456.868435,-1776.494261,-5699.585753,3830.477490
456.868757,-1110.308913,-4441.235652,4826.401637
456.869078,-1110.308913,-3849.070898,2911.162892
456.869400,-814.226536,-4515.256246,1302.362347
456.869722,-1184.329507,-6883.915261,2298.286494
456.870044,-2368.659014,-8068.244768,4136.915689
456.870365,-2072.576638,-10362.883188,2757.943793
456.870687,0.000000,-11177.109724,0.000000
456.871009,2220.617826,-9400.615463,-2374.896044
456.871331,2072.576638,-8586.388927,-3140.991542
456.871652,1406.391290,-12361.439231,-3140.991542
456.871974,370.102971,-16580.613101,-2221.676944
456.872296,-148.041188,-16950.716072,-2374.896044
456.872618,0.000000,-16506.592507,-2451.505594
456.872939,1258.350101,-15840.407159,0.000000
456.873261,1776.494261,-12583.501014,1149.143247
456.873583,222.061783,-7994.224174,612.876398
456.873905,-592.164754,-4959.379811,3983.696590
456.874226,-148.041188,-3256.906145,4903.011187
456.874548,370.102971,-1184.329507,2221.676944
456.874870,1480.411884,-592.164754,229.828649
456.875191,962.267725,-3182.885551,2221.676944
456.875513,296.082377,-6439.791695,4519.963438
456.875835,148.041188,-7624.121203,3294.210641
456.876157,1628.453072,-10140.821405,-1532.190996
456.876478,2960.823768,-11695.253884,-4673.182538
456.876800,1998.556043,-11621.233289,-3753.867940
456.877122,-148.041188,-13619.789333,-2145.067394
456.877444,-1628.453072,-16876.695478,0.000000
456.877765,-2220.617826,-16802.674883,-306.438199
456.878087,-3108.864956,-14285.974681,-1762.019645
456.878409,-2738.761985,-13323.706956,76.609550
456.878731,-2516.700203,-12435.459826,3830.477490
456.879052,-2886.803174,-10510.924376,4903.011187
456.879374,-3627.009116,-7772.162391,6818.249932
456.879696,-3108.864956,-6439.791695,8656.879127
456.880018,-2738.761985,-5995.668130,5439.278036
456.880339,-3627.009116,-6661.853478,2681.334243
456.880661,-3701.029710,-7179.997637,5056.230287
456.880983,-1332.370696,-6661.853478,5822.325785
456.881304,3256.906145,-6957.935855,1991.848295
456.881626,5551.544565,-5477.523971,383.047749
456.881948,4811.338623,-3478.967927,1378.971896
456.882270,2072.576638,-5551.544565,-383.047749
456.882591,740.205942,-11473.192101,-3140.991542
456.882913,-1110.308913,-14878.139434,-5515.887586
456.883235,-5403.503377,-15914.427753,-5286.058936
456.883557,-9252.574275,-17616.901420,-1149.143247
456.883878,-10955.047942,-17764.942608,3907.087040
456.884200,-11769.274478,-14359.995275,3830.477490
456.884522,-10066.800811,-11103.089130,1608.800546
456.884844,-7846.182985,-10807.006753,2834.553343
456.885165,-6439.791695,-9918.759623,5669.106685
456.885487,-4885.359217,-7254.018232,8810.098227
456.885809,-1924.535449,-1850.514855,12027.699319
456.886131,2812.782580,2294.638420,9806.022374
456.886452,7772.162391,666.185348,3753.867940
456.886774,11473.192101,-1924.535449,383.047749
456.887096,10362.883188,-4219.173869,1378.971896
456.887417,7105.977043,-8882.471304,4290.134789
456.887739,5255.462188,-16950.716072,5669.106685
456.888061,2368.659014,-21317.931130,2068.457845
456.888383,-1776.494261,-19837.519246,-3064.381992
456.888704,-4885.359217,-17838.963202,-4290.134789
456.889026,-4589.276840,-16358.551318,-1532.190996
456.889348,-3701.029710,-10658.965565,0.000000
456.889670,-3552.988522,-3923.091493,-306.438199
456.889991,-2738.761985,-3627.009116,1378.971896
456.890313,-2294.638420,-7254.018232,4290.134789
456.890635,-4219.173869,-7476.080014,3600.648841
456.890957,-4959.379811,-7105.977043,2068.457845
456.891278,-2368.659014,-8364.327145,3140.991542
456.891600,1332.370696,-10214.842000,5515.887586
456.891922,1776.494261,-8808.450710,7660.954980
456.892244,3701.029710,-3330.926739,6894.859482
456.892565,8290.306550,-2442.679609,-229.828649
456.892887,11843.295072,-5107.421000,-6052.154434
456.893209,7550.100608,-6217.729913,-3753.867940
456.893530,666.185348,-8364.327145,229.828649
456.893852,-3330.926739,-16580.613101,229.828649
456.894174,-4663.297435,-22280.198854,-2604.724693
456.894496,-6217.729913,-20651.745782,-5898.935335
456.894817,-5255.462188,-15914.427753,-6665.030833
456.895139,-1924.535449,-12953.603985,-2757.943793
456.895461,370.102971,-9474.636058,536.266849
456.895783,1258.350101,-5847.626942,2451.505594
456.896104,2368.659014,-4589.276840,3753.867940
456.896426,3256.906145,-7476.080014,1532.190996
456.896748,1406.391290,-9918.759623,842.705048
456.897070,962.267725,-8882.471304,3753.867940
456.897391,2812.782580,-5995.668130,3064.381992
456.897713,5773.606348,-7476.080014,153.219100
456.898035,7402.059420,-11251.130318,1302.362347
456.898356,2590.720797,-10658.965565,3600.648841
456.898678,-4515.256246,-9252.574275,2911.162892
456.899000,-8586.388927,-9844.739029,919.314598
456.899322,-10066.800811,-9252.574275,-3524.039291
456.899643,-10881.027347,-8586.388927,-9652.803275
456.899965,-12213.398043,-10436.903782,-8963.317327
456.900287,-11325.150913,-15544.324782,-2374.896044
456.900609,-8882.471304,-15988.448347,995.924147
456.900930,-6069.688724,-14063.912898,459.657299
456.901252,-3775.050304,-13471.748144,1685.410096
456.901574,-962.267725,-11843.295072,2451.505594
456.901896,1406.391290,-6217.729913,842.705048
456.902217,5107.421000,-666.185348,-229.828649
456.902539,9030.512492,666.185348,2528.115143
456.902861,10362.883188,-1332.370696,6281.983084
456.903183,7476.080014,-4959.379811,8963.317327
456.903504,3108.864956,-8808.450710,8197.221829
456.903826,222.061783,-12953.603985,5745.716235
456.904148,-1776.494261,-15248.242405,2451.505594
456.904469,-2886.803174,-13915.871710,1302.362347
456.904791,-2590.720797,-10214.842000,1608.800546
456.905113,-814.226536,-6439.791695,1991.848295
456.905435,296.082377,-6291.750507,2221.676944
456.905756,-1258.350101,-8290.306550,2374.896044
456.906078,-4219.173869,-9770.718434,1072.533697
456.906400,-6365.771101,-11547.212695,-153.219100
456.906722,-5921.647536,-14359.995275,-306.438199
456.907043,-4515.256246,-13619.789333,1532.190996
456.907365,-1998.556043,-10288.862594,2528.115143
456.907687,888.247130,-8512.368333,3217.601092
456.908009,2590.720797,-7550.100608,4443.353888
456.908330,3108.864956,-7254.018232,5745.716235
456.908652,3701.029710,-6365.771101,4290.134789
456.908974,4589.276840,-6291.750507,2451.505594
456.909296,5329.482782,-6735.874072,1838.629195
456.909617,4959.379811,-7994.224174,2298.286494
456.909939,2664.741391,-9622.677246,4213.525239
456.910261,-592.164754,-10955.047942,3830.477490
456.910582,-3182.885551,-12953.603985,1915.238745
456.910904,-5255.462188,-14656.077652,-306.438199
456.911226,-5181.441594,-15174.221811,-1072.533697
456.911548,-3552.988522,-13101.645173,-612.876398
456.911869,-444.123565,-11177.109724,-229.828649
456.912191,2590.720797,-10881.027347,1991.848295
456.912513,2886.803174,-10732.986159,3140.991542
456.912835,592.164754,-11251.130318,2987.772442
456.913156,-2146.597232,-10807.006753,2834.553343
456.913478,-2664.741391,-9844.739029,2068.457845
456.913800,-1110.308913,-8364.327145,0.000000
456.914122,1332.370696,-7920.203579,306.438199
456.914443,4071.132681,-7254.018232,2911.162892
456.914765,5773.606348,-7254.018232,4136.915689
456.915087,5255.462188,-8438.347739,4213.525239
456.915409,2812.782580,-8512.368333,2834.553343
456.915730,-1628.453072,-8290.306550,383.047749
456.916052,-5921.647536,-9030.512492,-1838.629195
456.916374,-7698.141797,-10362.883188,-2834.553343
456.916695,-8216.285956,-10362.883188,-3370.820191
456.917017,-7254.018232,-11103.089130,-2451.505594
456.917339,-6217.729913,-12435.459826,0.000000
456.917661,-5329.482782,-13545.768739,1991.848295
456.917982,-4737.318029,-13175.665768,2068.457845
456.918304,-4515.256246,-10732.986159,1991.848295
456.918626,-4071.132681,-7624.121203,2451.505594
456.918948,-2590.720797,-4959.379811,1685.410096
456.919269,-962.267725,-3108.864956,1149.143247
456.919591,1258.350101,-4367.215058,2068.457845
456.919913,3552.988522,-5773.606348,4290.134789
456.920235,5773.606348,-6661.853478,4826.401637
456.920556,5625.565159,-8290.306550,3677.258390
456.920878,5551.544565,-9622.677246,2451.505594
456.921200,4219.173869,-7698.141797,1149.143247
456.921522,3034.844362,-5255.462188,-1302.362347
456.921843,2220.617826,-5033.400406,-3830.477490
456.922165,296.082377,-7994.224174,-4366.744339
456.922487,-3034.844362,-11325.150913,-3830.477490
456.922808,-5847.626942,-16136.489536,-1915.238745
456.923130,-7031.956449,-19689.478057,0.000000
456.923452,-7105.977043,-18949.272115,-612.876398
456.923774,-5107.421000,-13989.892304,-1685.410096
456.924095,-2072.576638,-9622.677246,-766.095498
456.924417,814.226536,-5995.668130,306.438199
456.924739,2812.782580,-4589.276840,1072.533697
456.925061,3404.947333,-5403.503377,2757.943793
456.925382,3108.864956,-7402.059420,4060.306139
456.925704,2886.803174,-8734.430116,3983.696590
456.926026,3404.947333,-9030.512492,1072.533697
456.926348,3849.070898,-9178.553681,-612.876398
456.926669,4515.256246,-9770.718434,-689.485948
456.926991,3775.050304,-11103.089130,-1072.533697
456.927313,1480.411884,-12287.418637,-1378.971896
456.927634,-2664.741391,-14137.933492,-919.314598
456.927956,-6365.771101,-16136.489536,-1072.533697
456.928278,-8364.327145,-16136.489536,-2757.943793
456.928600,-8142.265362,-13249.686362,-4519.963438
456.928921,-5181.441594,-10732.986159,-2911.162892
456.929243,-2516.700203,-9178.553681,536.266849
456.929565,-592.164754,-7994.224174,4136.915689
456.929887,592.164754,-6957.935855,4596.572988
456.930208,740.205942,-7254.018232,3447.429741
456.930530,592.164754,-7031.956449,3217.601092
456.930852,592.164754,-3256.906145,3064.381992
456.931174,2590.720797,-1776.494261,612.876398
456.931495,5551.544565,-3108.864956,-153.219100
456.931817,6143.709319,-5255.462188,1455.581446
456.932139,4293.194464,-7772.162391,2604.724693
456.932461,740.205942,-11695.253884,1838.629195
456.932783,-2072.576638,-14804.118840,459.657299
456.933104,-4811.338623,-14508.036463,-2068.457845
456.933426,-4885.359217,-12805.562797,-4290.134789
456.933748,-2886.803174,-11177.109724,-3447.429741
456.934070,-1184.329507,-9844.739029,-459.657299
456.934392,-666.185348,-8364.327145,1378.971896
456.934713,-444.123565,-7254.018232,3600.648841
456.935035,-592.164754,-6143.709319,1915.238745
456.935357,-592.164754,-5699.585753,-1072.533697
456.935679,370.102971,-5847.626942,-1302.362347
456.936001,1702.473667,-5403.503377,919.314598
456.936322,1924.535449,-6439.791695,1915.238745
456.936644,2294.638420,-8512.368333,459.657299
456.936966,1480.411884,-11991.336260,-842.705048
456.937288,-1480.411884,-12509.480420,-1302.362347
456.937610,-5255.462188,-10955.047942,-2298.286494
456.937931,-6069.688724,-12213.398043,-4366.744339
456.938253,-4219.173869,-14656.077652,-5592.497135
456.938575,-2664.741391,-14508.036463,-5745.716235
456.938897,-2738.761985,-13101.645173,-4060.306139
456.939219,-3034.844362,-12213.398043,-612.876398
456.939540,-3108.864956,-11769.274478,76.609550
456.939862,-3256.906145,-9400.615463,-2604.724693
456.940184,-1258.350101,-6069.688724,-4519.963438
456.940506,1406.391290,-4885.359217,-4366.744339
456.940828,2664.741391,-6439.791695,-2451.505594
456.941149,1554.432478,-9474.636058,919.314598
456.941471,0.000000,-11029.068536,4060.306139
456.941793,-592.164754,-10288.862594,2451.505594
456.942115,962.267725,-8808.450710,-2145.067394
456.942437,3627.009116,-9030.512492,-4979.620737
456.942758,4811.338623,-9622.677246,-3524.039291
456.943080,4145.153275,-9326.594869,229.828649
456.943402,3923.091493,-9030.512492,2374.896044
456.943724,3552.988522,-8956.491898,229.828649
456.944046,2664.741391,-9178.553681,-3907.087040
456.944367,1036.288319,-9104.533087,-6128.763984
456.944689,-888.247130,-9104.533087,-5056.230287
456.945011,-1480.411884,-9548.656652,-1762.019645
456.945333,-296.082377,-9474.636058,0.000000
456.945655,-1036.288319,-9474.636058,229.828649
456.945976,-3478.967927,-9326.594869,-459.657299
456.946298,-5477.523971,-9326.594869,-1455.581446
456.946620,-4367.215058,-8956.491898,-2911.162892
456.946942,-2368.659014,-8216.285956,-2221.676944
456.947264,-592.164754,-7402.059420,-306.438199
456.947585,666.185348,-6143.709319,2145.067394
456.947907,2220.617826,-6069.688724,2068.457845
456.948229,2664.741391,-6661.853478,-1608.800546
456.948551,1702.473667,-7772.162391,-4443.353888
456.948873,-296.082377,-9918.759623,-3753.867940
456.949194,-1924.535449,-11769.274478,-1608.800546
456.949516,-1998.556043,-12879.583391,-689.485948
456.949838,-888.247130,-13323.706956,-1302.362347
456.950160,-1258.350101,-13101.645173,-1915.238745
456.950482,-2072.576638,-11991.336260,-3217.601092
456.950803,-1924.535449,-10140.821405,-2987.772442
456.951125,-592.164754,-9622.677246,-1991.848295
456.951447,814.226536,-9622.677246,-1225.752797
456.951769,1110.308913,-8734.430116,229.828649
456.952091,1258.350101,-8216.285956,536.266849
456.952412,1480.411884,-8216.285956,229.828649
456.952734,1110.308913,-7772.162391,-383.047749
456.953056,444.123565,-7328.038826,-842.705048
456.953378,222.061783,-7772.162391,-1225.752797
456.953700,-592.164754,-9178.553681,-1378.971896
456.954021,-1480.411884,-9696.697840,-612.876398
456.954343,-2368.659014,-10362.883188,-306.438199
456.954665,-3034.844362,-11103.089130,-1838.629195
456.954987,-3775.050304,-11547.212695,-3140.991542
456.955309,-3552.988522,-11473.192101,-2757.943793
456.955630,-2664.741391,-10955.047942,-1838.629195
456.955952,-740.205942,-10214.842000,-2068.457845
456.956274,740.205942,-9474.636058,-689.485948
456.956596,1184.329507,-9104.533087,919.314598
456.956918,1036.288319,-7031.956449,229.828649
456.957239,1406.391290,-6217.729913,-383.047749
456.957561,2442.679609,-6809.894666,-766.095498
456.957883,2516.700203,-6957.935855,-919.314598
456.958205,1332.370696,-7179.997637,-459.657299
456.958527,74.020594,-8438.347739,1149.143247
456.958848,-370.102971,-11029.068536,1532.190996
456.959170,-1258.350101,-11769.274478,153.219100
456.959492,-2368.659014,-10807.006753,-995.924147
456.959814,-1998.556043,-9548.656652,-612.876398
456.960136,-888.247130,-8438.347739,-766.095498
456.960457,444.123565,-7328.038826,-1225.752797
456.960779,518.144159,-7254.018232,-995.924147
456.961101,148.041188,-7105.977043,-766.095498
456.961423,296.082377,-7328.038826,-1302.362347
456.961745,888.247130,-8734.430116,-1608.800546
456.962066,444.123565,-10436.903782,-2221.676944
456.962388,0.000000,-11769.274478,-2221.676944
456.962710,-518.144159,-11621.233289,-995.924147
456.963032,-592.164754,-11029.068536,-459.657299
456.963354,-444.123565,-9696.697840,-1838.629195
456.963675,-74.020594,-9474.636058,-3983.696590
456.963997,0.000000,-9844.739029,-3983.696590
456.964319,222.061783,-10807.006753,-2221.676944
456.964641,666.185348,-10881.027347,-1225.752797
456.964962,666.185348,-10584.944971,-919.314598
456.965284,1036.288319,-9918.759623,-1302.362347
456.965606,666.185348,-9104.533087,-2451.505594
456.965928,296.082377,-8438.347739,-4060.306139
456.966250,0.000000,-9030.512492,-3983.696590
456.966571,-592.164754,-9918.759623,-2834.553343
456.966893,-888.247130,-11029.068536,-2374.896044
456.967215,-1850.514855,-10732.986159,-1915.238745
456.967537,-2886.803174,-10436.903782,-1608.800546
456.967859,-3108.864956,-10288.862594,-2757.943793
456.968180,-2442.679609,-9918.759623,-4060.306139
456.968502,-1850.514855,-10510.924376,-2681.334243
456.968824,-962.267725,-10288.862594,-459.657299
456.969146,-370.102971,-8512.368333,383.047749
456.969468,1258.350101,-7105.977043,306.438199
456.969789,2368.659014,-6217.729913,-1532.190996
456.970111,2368.659014,-5551.544565,-2221.676944
456.970433,1850.514855,-5255.462188,-1608.800546
456.970755,1480.411884,-6809.894666,-995.924147
456.971077,666.185348,-10140.821405,-612.876398
456.971398,-1480.411884,-11547.212695,536.266849
456.971720,-3478.967927,-11695.253884,153.219100
456.972042,-4441.235652,-10288.862594,-1991.848295
456.972364,-3404.947333,-9548.656652,-3140.991542
456.972686,-2072.576638,-9696.697840,-3753.867940
456.973007,-1554.432478,-9252.574275,-1685.410096
456.973329,-740.205942,-8734.430116,0.000000
456.973651,370.102971,-8882.471304,766.095498
456.973973,592.164754,-8808.450710,76.609550
456.974295,0.000000,-7994.224174,-1225.752797
456.974616,148.041188,-6883.915261,-1762.019645
456.974938,1702.473667,-7254.018232,-1838.629195
456.975260,3256.906145,-8068.244768,-1915.238745
456.975582,2886.803174,-9918.759623,-919.314598
456.975904,1776.494261,-11621.233289,0.000000
456.976225,74.020594,-11843.295072,-919.314598
456.976547,-1924.535449,-11103.089130,-2221.676944
456.976869,-2220.617826,-9474.636058,-2451.505594
456.977191,-666.185348,-8586.388927,-1455.581446
456.977513,962.267725,-8142.265362,-1915.238745
456.977834,1036.288319,-8882.471304,-1608.800546
456.978156,148.041188,-10807.006753,919.314598
456.978478,-518.144159,-11251.130318,1915.238745
456.978800,-518.144159,-10066.800811,153.219100
456.979122,888.247130,-7846.182985,-1762.019645
456.979443,1998.556043,-7031.956449,-2374.896044
456.979765,3108.864956,-5995.668130,-2681.334243
456.980087,2960.823768,-7624.121203,-1838.629195
456.980409,1258.350101,-10881.027347,-153.219100
456.980731,-1258.350101,-13101.645173,-383.047749
456.981052,-4071.132681,-13989.892304,-2068.457845
456.981374,-4663.297435,-13545.768739,-3524.039291
456.981696,-3552.988522,-12953.603985,-2604.724693
456.982018,-2072.576638,-11473.192101,-2221.676944
456.982340,-1406.391290,-9030.512492,-689.485948
456.982661,-666.185348,-7402.059420,689.485948
456.982983,-296.082377,-6291.750507,-306.438199
456.983305,-518.144159,-6069.688724,-2451.505594
456.983627,-962.267725,-6439.791695,-1915.238745
456.983949,-888.247130,-7328.038826,-1149.143247
456.984270,-222.061783,-8808.450710,-1608.800546
456.984592,74.020594,-10658.965565,-1455.581446
456.984914,-1332.370696,-11621.233289,229.828649
456.985236,-1776.494261,-11695.253884,0.000000
456.985558,-2294.638420,-11325.150913,-1762.019645
456.985879,-1776.494261,-10955.047942,-2374.896044
456.986201,74.020594,-9104.533087,-2374.896044
456.986523,1998.556043,-6809.894666,-1762.019645
456.986845,3478.967927,-5551.544565,-1149.143247
456.987167,3701.029710,-5773.606348,-995.924147
456.987488,2590.720797,-7179.997637,-1455.581446
456.987810,592.164754,-8586.388927,-1072.533697
456.988132,-518.144159,-10658.965565,-1225.752797
456.988454,-518.144159,-10807.006753,-2221.676944
456.988776,-518.144159,-10510.924376,-2834.553343
456.989097,-1184.329507,-9178.553681,-1838.629195
456.989419,-1332.370696,-7698.141797,-1302.362347
456.989741,-592.164754,-7179.997637,-3064.381992
456.990063,0.000000,-9474.636058,-3753.867940
456.990385,-888.247130,-11547.212695,-2681.334243
456.990706,-2294.638420,-12139.377449,-1455.581446
456.991028,-2146.597232,-11177.109724,-153.219100
456.991350,-518.144159,-9548.656652,-459.657299
456.991672,666.185348,-7624.121203,-1149.143247
456.991994,1110.308913,-5625.565159,-3064.381992
456.992315,444.123565,-5847.626942,-2681.334243
456.992637,-222.061783,-8808.450710,-2374.896044
456.992959,-1850.514855,-11103.089130,-1608.800546
456.993281,-3256.906145,-12139.377449,-459.657299
456.993603,-4071.132681,-12361.439231,-1608.800546
456.993924,-3775.050304,-11325.150913,-3677.258390
456.994246,-2516.700203,-10510.924376,-5056.230287
456.994568,-1480.411884,-10807.006753,-3830.477490
456.994890,-666.185348,-11843.295072,-1532.190996
456.995212,-444.123565,-11547.212695,842.705048
456.995533,592.164754,-10955.047942,383.047749
456.995855,1406.391290,-9326.594869,-459.657299
456.996177,2516.700203,-6957.935855,-1991.848295
456.996499,3997.112087,-4515.256246,-3064.381992
456.996821,4811.338623,-4515.256246,-3524.039291
456.997142,4663.297435,-6957.935855,-995.924147
456.997464,2294.638420,-9918.759623,1532.190996
456.997786,-296.082377,-12879.583391,1225.752797
456.998108,-2146.597232,-14804.118840,-459.657299
456.998430,-3330.926739,-13767.830521,-2604.724693
456.998751,-2886.803174,-9992.780217,-4060.306139
456.999073,-1184.329507,-6735.874072,-2145.067394
456.999395,518.144159,-4367.215058,76.609550
456.999717,1776.494261,-3552.988522,919.314598
457.000039,1628.453072,-5329.482782,-612.876398
457.000360,-444.123565,-8364.327145,-1915.238745
457.000682,-2886.803174,-11473.192101,-536.266849
457.001004,-3330.926739,-12657.521608,306.438199
457.001326,-2294.638420,-10362.883188,-459.657299
457.001648,-148.041188,-7994.224174,-1608.800546
457.001969,1480.411884,-5847.626942,-1378.971896
457.002291,1406.391290,-5551.544565,-1762.019645
457.002613,370.102971,-7920.203579,-2068.457845
457.002935,-1184.329507,-10881.027347,-2145.067394
457.003257,-2664.741391,-13767.830521,-842.705048
457.003578,-3478.967927,-14211.954086,0.000000
457.003900,-2442.679609,-12139.377449,0.000000
457.004222,-1110.308913,-9770.718434,-1608.800546
457.004544,-444.123565,-7179.997637,-2528.115143
457.004866,-370.102971,-5551.544565,-2221.676944
457.005187,0.000000,-5921.647536,-1378.971896
457.005509,666.185348,-8068.244768,-1455.581446
457.005831,0.000000,-10436.903782,-2068.457845
457.006153,-666.185348,-11769.274478,-2068.457845
457.006474,-1184.329507,-11399.171507,-1915.238745
457.006796,-666.185348,-10881.027347,-2451.505594
457.007118,-370.102971,-10288.862594,-2451.505594
457.007440,-518.144159,-9770.718434,-2451.505594
457.007762,0.000000,-11251.130318,-2681.334243
457.008083,592.164754,-12287.418637,-1838.629195
457.008405,962.267725,-11843.295072,-919.314598
457.008727,1480.411884,-9918.759623,-306.438199
457.009049,2368.659014,-7476.080014,-1838.629195
457.009371,2146.597232,-5625.565159,-2145.067394
457.009692,2146.597232,-5181.441594,-2528.115143
457.010014,1184.329507,-6069.688724,-2757.943793
457.010336,-296.082377,-8882.471304,-1608.800546
457.010658,-2368.659014,-10955.047942,153.219100
457.010980,-3701.029710,-12509.480420,-689.485948
457.011301,-4515.256246,-12287.418637,-1991.848295
457.011623,-4071.132681,-10436.903782,-2911.162892
457.011945,-1998.556043,-9474.636058,-3140.991542
457.012267,0.000000,-9178.553681,-2221.676944
457.012589,0.000000,-7550.100608,-1455.581446
457.012910,0.000000,-7476.080014,-995.924147
457.013232,148.041188,-8364.327145,-1455.581446
457.013554,0.000000,-9696.697840,-1915.238745
457.013876,-518.144159,-9918.759623,-2221.676944
457.014198,-888.247130,-8882.471304,-1685.410096
457.014519,-444.123565,-8882.471304,-1149.143247
457.014841,0.000000,-8734.430116,536.266849
457.015163,-740.205942,-8216.285956,229.828649
457.015485,-2146.597232,-8216.285956,-2145.067394
457.015807,-2664.741391,-9770.718434,-3064.381992
457.016128,-2516.700203,-11103.089130,-2298.286494
457.016450,-1702.473667,-11251.130318,-536.266849
457.016772,0.000000,-10436.903782,0.000000
457.017094,1332.370696,-9326.594869,383.047749
457.017416,1702.473667,-8660.409521,0.000000
457.017737,1776.494261,-7772.162391,-919.314598
457.018059,1332.370696,-7328.038826,-2451.505594
457.018381,1332.370696,-8216.285956,-2834.553343
457.018703,1628.453072,-9178.553681,-1762.019645
457.019025,1110.308913,-9844.739029,-919.314598
457.019346,296.082377,-10066.800811,-919.314598
457.019668,-740.205942,-10881.027347,-2451.505594
457.019990,-2368.659014,-11843.295072,-3753.867940
457.020312,-3256.906145,-12139.377449,-4366.744339
457.020634,-3182.885551,-11917.315666,-4213.525239
457.020955,-2664.741391,-10807.006753,-2451.505594
457.021277,-1924.535449,-9474.636058,153.219100
457.021599,0.000000,-7476.080014,919.314598
457.021921,1258.350101,-6069.688724,-995.924147
457.022243,1258.350101,-5625.565159,-2757.943793
457.022564,962.267725,-6883.915261,-2298.286494
457.022886,666.185348,-8660.409521,0.000000
457.023208,888.247130,-9992.780217,919.314598
457.023530,518.144159,-10066.800811,383.047749
457.023852,0.000000,-9918.759623,-919.314598
457.024173,0.000000,-9326.594869,-1762.019645
457.024495,-222.061783,-7994.224174,-1915.238745
457.024817,-592.164754,-8364.327145,-3370.820191
457.025139,-1406.391290,-10066.800811,-2528.115143
457.025461,-1776.494261,-11917.315666,-766.095498
457.025782,-2368.659014,-11843.295072,536.266849
457.026104,-2072.576638,-10362.883188,-766.095498
457.026426,-1850.514855,-7920.203579,-3600.648841
457.026748,-814.226536,-7846.182985,-4136.915689
457.027070,-296.082377,-8438.347739,-2604.724693
457.027391,-740.205942,-8956.491898,-1378.971896
457.027713,-888.247130,-9178.553681,-842.705048
457.028035,-666.185348,-9326.594869,-766.095498
457.028357,-666.185348,-9770.718434,-1225.752797
457.028679,-962.267725,-9178.553681,-2604.724693
457.029000,-1110.308913,-8734.430116,-3524.039291
457.029322,-222.061783,-10362.883188,-2145.067394
457.029644,222.061783,-11917.315666,612.876398
457.029966,814.226536,-11843.295072,1302.362347
457.030288,814.226536,-10214.842000,766.095498
457.030609,1628.453072,-8142.265362,-1455.581446
457.030931,2664.741391,-7105.977043,-3830.477490
457.031253,3330.926739,-6365.771101,-4366.744339
457.031574,2294.638420,-7105.977043,-1762.019645
457.031896,296.082377,-9844.739029,-153.219100
457.032218,-1332.370696,-11547.212695,306.438199
457.032540,-2738.761985,-11177.109724,-995.924147
457.032861,-3627.009116,-11029.068536,-2987.772442
457.033183,-4663.297435,-9844.739029,-4366.744339
457.033505,-3923.091493,-9030.512492,-3677.258390
457.033826,-2220.617826,-8734.430116,-1991.848295
457.034148,-518.144159,-9474.636058,-842.705048
457.034470,0.000000,-9252.574275,-689.485948
457.034791,-370.102971,-9252.574275,-1608.800546
457.035113,-1110.308913,-8660.409521,-2834.553343
457.035435,-666.185348,-9030.512492,-3217.601092
457.035756,296.082377,-9400.615463,-2834.553343
457.036078,1184.329507,-9326.594869,-2451.505594
457.036400,666.185348,-9696.697840,-612.876398
457.036721,-222.061783,-9400.615463,536.266849
457.037043,-1406.391290,-9474.636058,-1225.752797
457.037365,-1776.494261,-10510.924376,-3140.991542
457.037687,-1850.514855,-11103.089130,-2911.162892
457.038008,-1332.370696,-11843.295072,-2528.115143
457.038330,0.000000,-11399.171507,-1455.581446
457.038652,1036.288319,-10436.903782,383.047749
457.038973,1776.494261,-8142.265362,1378.971896
457.039295,1924.535449,-5033.400406,459.657299
457.039617,2368.659014,-3775.050304,-2757.943793
457.039938,2368.659014,-5847.626942,-3983.696590
457.040260,592.164754,-9178.553681,-995.924147
457.040582,-1258.350101,-11547.212695,1991.848295
457.040903,-2812.782580,-11917.315666,2604.724693
457.041225,-3182.885551,-11695.253884,76.609550
457.041547,-3849.070898,-9548.656652,-2757.943793
457.041869,-3775.050304,-7254.018232,-4673.182538
457.042190,-2368.659014,-6587.832884,-4366.744339
457.042512,-962.267725,-7772.162391,-3294.210641
457.042834,0.000000,-9844.739029,-1149.143247
457.043155,-1110.308913,-11177.109724,1072.533697
457.043477,-1998.556043,-11029.068536,766.095498
457.043799,-1776.494261,-9918.759623,-1762.019645
457.044120,-518.144159,-9030.512492,-4290.134789
457.044442,518.144159,-8216.285956,-3524.039291
457.044764,1850.514855,-7772.162391,-1225.752797
457.045085,2738.761985,-8438.347739,383.047749
457.045407,2886.803174,-9030.512492,0.000000
457.045729,1480.411884,-10288.862594,-766.095498
457.046051,-740.205942,-10510.924376,-1072.533697
457.046372,-1924.535449,-9918.759623,-1991.848295
457.046694,-962.267725,-9992.780217,-2911.162892
457.047016,296.082377,-9770.718434,-2068.457845
457.047337,888.247130,-9918.759623,-612.876398
457.047659,888.247130,-10140.821405,459.657299
457.047981,0.000000,-9918.759623,-459.657299
457.048302,-740.205942,-9844.739029,-2911.162892
457.048624,-296.082377,-9770.718434,-3907.087040
457.048946,-148.041188,-8882.471304,-3064.381992
457.049267,-296.082377,-8808.450710,-2451.505594
457.049589,-740.205942,-9474.636058,-995.924147
457.049911,-1480.411884,-11103.089130,-612.876398
457.050232,-3182.885551,-11473.192101,-1838.629195
457.050554,-4145.153275,-10807.006753,-2987.772442
457.050876,-3108.864956,-10658.965565,-3140.991542
457.051198,-1480.411884,-9918.759623,-2068.457845
457.051519,0.000000,-9400.615463,-459.657299
457.051841,1110.308913,-8142.265362,1608.800546
457.052163,1998.556043,-7624.121203,459.657299
457.052484,2294.638420,-7105.977043,-2298.286494
457.052806,1554.432478,-7772.162391,-3370.820191
457.053128,888.247130,-9326.594869,-2374.896044
457.053449,74.020594,-9770.718434,-1608.800546
457.053771,-148.041188,-10140.821405,-383.047749
457.054093,518.144159,-11399.171507,0.000000
457.054414,0.000000,-10658.965565,-1225.752797
457.054736,-2368.659014,-8734.430116,-2528.115143
457.055058,-3256.906145,-7105.977043,-2298.286494
457.055380,-2368.659014,-7920.203579,-2068.457845
457.055701,-814.226536,-8364.327145,-1915.238745
457.056023,444.123565,-8586.388927,-459.657299
457.056345,296.082377,-8956.491898,689.485948
457.056666,444.123565,-8512.368333,0.000000
457.056988,518.144159,-8586.388927,-995.924147
457.057310,1110.308913,-8660.409521,-1915.238745
457.057631,1036.288319,-6513.812290,-2145.067394
457.057953,1480.411884,-6069.688724,-1915.238745
457.058275,1850.514855,-8438.347739,-1455.581446
457.058596,444.123565,-10732.986159,-1532.190996
457.058918,-2886.803174,-11843.295072,-1302.362347
457.059240,-5773.606348,-12953.603985,-842.705048
457.059561,-5773.606348,-12509.480420,-1225.752797
457.059883,-3478.967927,-9770.718434,-2451.505594
457.060205,-814.226536,-8438.347739,-4366.744339
457.060527,74.020594,-8216.285956,-2451.505594
457.060848,444.123565,-7994.224174,0.000000
457.061170,962.267725,-7772.162391,-766.095498
457.061492,1036.288319,-8290.306550,-2298.286494
457.061813,1036.288319,-9770.718434,-3524.039291
457.062135,222.061783,-10881.027347,-3447.429741
457.062457,-1332.370696,-11547.212695,-2451.505594
457.062778,-1184.329507,-11103.089130,-689.485948
457.063100,0.000000,-10436.903782,-689.485948
457.063422,-296.082377,-10066.800811,-2145.067394
457.063743,-1924.535449,-8068.244768,-1991.848295
457.064065,-2368.659014,-8142.265362,-1838.629195
457.064387,-1036.288319,-9622.677246,-2451.505594
457.064709,296.082377,-10288.862594,-2221.676944
457.065030,1110.308913,-9400.615463,-536.266849
457.065352,740.205942,-8216.285956,306.438199
457.065674,888.247130,-7698.141797,306.438199
457.065995,1258.350101,-7920.203579,-1378.971896
457.066317,1480.411884,-8660.409521,-3600.648841
457.066639,1110.308913,-8882.471304,-4596.572988
457.066960,1332.370696,-10362.883188,-2145.067394
457.067282,814.226536,-12213.398043,-459.657299
457.067604,-1332.370696,-12731.542202,-306.438199
457.067925,-3182.885551,-12509.480420,-459.657299
457.068247,-3182.885551,-10955.047942,-612.876398
457.068569,-1998.556043,-9474.636058,-3524.039291
457.068891,-592.164754,-7402.059420,-3983.696590
457.069212,-518.144159,-6735.874072,-1378.971896
457.069534,-888.247130,-7402.059420,1302.362347
457.069856,-1110.308913,-7328.038826,1532.190996
457.070177,-1036.288319,-7476.080014,-689.485948
457.070499,-888.247130,-7846.182985,-3140.991542
457.070821,-1184.329507,-8142.265362,-3370.820191
457.071142,-1258.350101,-8882.471304,-1302.362347
457.071464,-666.185348,-9474.636058,76.609550
457.071786,0.000000,-10288.862594,-229.828649
457.072107,-296.082377,-11399.171507,-1455.581446
457.072429,-1258.350101,-11621.233289,-1991.848295
457.072751,-1850.514855,-11029.068536,-1455.581446
457.073072,-296.082377,-9844.739029,-689.485948
457.073394,1776.494261,-8512.368333,-842.705048
457.073716,3256.906145,-7105.977043,0.000000
457.074038,3404.947333,-6143.709319,0.000000
457.074359,2516.700203,-6587.832884,-459.657299
457.074681,1924.535449,-7994.224174,-919.314598
457.075003,1332.370696,-9474.636058,-1225.752797
457.075324,518.144159,-10140.821405,-1532.190996
457.075646,-148.041188,-10732.986159,-842.705048
457.075968,-666.185348,-11325.150913,-612.876398
457.076289,-1258.350101,-11103.089130,-1302.362347
457.076611,-2516.700203,-10140.821405,-2911.162892
457.076933,-2960.823768,-10288.862594,-2451.505594
457.077254,-3034.844362,-10658.965565,-1608.800546
457.077576,-2664.741391,-10732.986159,-1608.800546
457.077898,-1998.556043,-9474.636058,-842.705048
457.078220,-1036.288319,-8068.244768,0.000000
457.078541,222.061783,-6957.935855,-612.876398
457.078863,592.164754,-6217.729913,-2757.943793
457.079185,74.020594,-7476.080014,-2298.286494
457.079506,-1332.370696,-9770.718434,-919.314598
457.079828,-1850.514855,-11473.192101,153.219100
457.080150,-1480.411884,-11843.295072,-766.095498
457.080471,-1184.329507,-11029.068536,-2374.896044
457.080793,-2368.659014,-10732.986159,-3370.820191
457.081115,-3701.029710,-9696.697840,-2451.505594
457.081436,-2738.761985,-9918.759623,-1608.800546
457.081758,-814.226536,-10436.903782,-2451.505594
457.082080,296.082377,-10436.903782,-2221.676944
457.082401,740.205942,-9770.718434,-536.266849
457.082723,1554.432478,-8660.409521,1072.533697
457.083045,2960.823768,-7772.162391,-612.876398
457.083367,4071.132681,-6883.915261,-2987.772442
457.083688,4293.194464,-6439.791695,-3064.381992
457.084010,3627.009116,-7328.038826,-766.095498
457.084332,2516.700203,-8882.471304,919.314598
457.084653,1332.370696,-10510.924376,0.000000
457.084975,0.000000,-10955.047942,-1685.410096
457.085297,-1480.411884,-10881.027347,-2145.067394
457.085618,-2442.679609,-10732.986159,-1455.581446
457.085940,-1850.514855,-10288.862594,-919.314598
457.086262,-1406.391290,-8512.368333,-1838.629195
457.086583,-962.267725,-6735.874072,-1762.019645
457.086905,-222.061783,-6661.853478,-1072.533697
457.087227,0.000000,-6513.812290,-1455.581446
457.087549,-666.185348,-7698.141797,-3294.210641
457.087870,-1776.494261,-8808.450710,-2987.772442
457.088192,-1628.453072,-10140.821405,-1225.752797
457.088514,-666.185348,-10214.842000,-1378.971896
457.088835,-518.144159,-10510.924376,-2911.162892
457.089157,-1184.329507,-11029.068536,-2528.115143
457.089479,-2368.659014,-11325.150913,-1915.238745
457.089800,-2664.741391,-11103.089130,-2298.286494
457.090122,-1406.391290,-10955.047942,-2681.334243
457.090444,-148.041188,-10214.842000,-2145.067394
457.090765,148.041188,-9326.594869,-1532.190996
457.091087,888.247130,-8808.450710,153.219100
457.091409,740.205942,-8290.306550,-919.314598
457.091731,518.144159,-8290.306550,-2987.772442
457.092052,0.000000,-8438.347739,-2451.505594
457.092374,-74.020594,-9252.574275,-842.705048
457.092696,0.000000,-10066.800811,-2374.896044
457.093017,-592.164754,-11177.109724,-3064.381992
457.093339,-1628.453072,-11843.295072,-1532.190996
457.093661,-2368.659014,-10881.027347,-919.314598
457.093982,-2146.597232,-9770.718434,-2987.772442
457.094304,-1258.350101,-9992.780217,-3830.477490
457.094626,-1332.370696,-10732.986159,-2451.505594
457.094947,-814.226536,-9992.780217,-766.095498
457.095269,296.082377,-9178.553681,459.657299
457.095591,1998.556043,-8956.491898,1149.143247
457.095912,2442.679609,-7476.080014,0.000000
457.096234,1628.453072,-5995.668130,-612.876398
457.096556,1702.473667,-5329.482782,-919.314598
457.096878,3182.885551,-6735.874072,-536.266849
457.097199,2812.782580,-8586.388927,-919.314598
457.097521,444.123565,-10140.821405,306.438199
457.097843,-666.185348,-10881.027347,1378.971896
457.098164,-2368.659014,-11473.192101,153.219100
457.098486,-2664.741391,-11621.233289,-2374.896044
457.098808,-3108.864956,-11029.068536,-2451.505594
457.099129,-2590.720797,-9548.656652,-919.314598
457.099451,-1332.370696,-8216.285956,383.047749
457.099773,-592.164754,-7550.100608,919.314598
457.100094,74.020594,-6587.832884,0.000000
457.100416,0.000000,-5847.626942,-2604.724693
457.100738,-222.061783,-6291.750507,-3370.820191
457.101060,-148.041188,-8808.450710,-1762.019645
457.101381,-740.205942,-10436.903782,-842.705048
457.101703,-1184.329507,-10955.047942,0.000000
457.102025,-962.267725,-11473.192101,-919.314598
457.102346,-888.247130,-11399.171507,-2374.896044
457.102668,-1332.370696,-10362.883188,-3370.820191
457.102990,-1850.514855,-9992.780217,-2451.505594
457.103311,-888.247130,-10362.883188,-842.705048
457.103633,666.185348,-10362.883188,-612.876398
457.103955,1702.473667,-10140.821405,0.000000
457.104276,1924.535449,-9548.656652,459.657299
457.104598,2368.659014,-8290.306550,0.000000
457.104920,2738.761985,-7254.018232,-1378.971896
457.105241,3256.906145,-6883.915261,-2221.676944
457.105563,3330.926739,-6735.874072,-1608.800546
457.105885,3330.926739,-7698.141797,-383.047749
457.106207,2442.679609,-8956.491898,-536.266849
457.106528,1184.329507,-10955.047942,-2221.676944
457.106850,-814.226536,-11843.295072,-3677.258390
457.107172,-2738.761985,-12879.583391,-3370.820191
457.107493,-3108.864956,-13767.830521,-2221.676944
457.107815,-3108.864956,-12879.583391,-2221.676944
457.108137,-2960.823768,-10881.027347,-3600.648841
457.108458,-2072.576638,-9252.574275,-2757.943793
457.108780,-1480.411884,-8068.244768,-2374.896044
457.109102,-1628.453072,-6809.894666,-2911.162892
457.109423,-1702.473667,-5995.668130,-3140.991542
457.109745,-1258.350101,-7328.038826,-2757.943793
457.110067,-740.205942,-8586.388927,-1532.190996
457.110389,0.000000,-10288.862594,-1455.581446
457.110710,-1110.308913,-11103.089130,-919.314598
457.111032,-2368.659014,-10955.047942,383.047749
457.111354,-1998.556043,-9770.718434,0.000000
457.111675,-222.061783,-9178.553681,-3064.381992
457.111997,814.226536,-9252.574275,-3140.991542
457.112319,666.185348,-9030.512492,-919.314598
457.112640,592.164754,-8956.491898,1685.410096
457.112962,1628.453072,-8882.471304,1685.410096
457.113284,1924.535449,-8216.285956,-612.876398
457.113605,1258.350101,-8142.265362,-2374.896044
457.113927,370.102971,-8290.306550,-1532.190996
457.114249,222.061783,-8290.306550,-1149.143247
457.114571,-296.082377,-8882.471304,-2068.457845
457.114892,-1036.288319,-10140.821405,-1532.190996
457.115214,-1628.453072,-10732.986159,0.000000
457.115536,-2368.659014,-10066.800811,-1762.019645
457.115857,-2812.782580,-10140.821405,-3217.601092
457.116179,-3034.844362,-10807.006753,-1991.848295
457.116501,-2664.741391,-9622.677246,-842.705048
457.116822,-962.267725,-7476.080014,-536.266849
457.117144,1480.411884,-7402.059420,-306.438199
457.117466,1406.391290,-7624.121203,-919.314598
457.117787,0.000000,-8290.306550,-1378.971896
457.118109,0.000000,-8586.388927,-1225.752797
457.118431,1332.370696,-8956.491898,-689.485948
457.118752,1554.432478,-8956.491898,-1302.362347
457.119074,1036.288319,-9474.636058,-766.095498
457.119396,296.082377,-9992.780217,-76.609550
457.119718,-370.102971,-10288.862594,-1149.143247
457.120039,-592.164754,-11621.233289,-2834.553343
457.120361,-740.205942,-11769.274478,-2068.457845
457.120683,-740.205942,-11177.109724,-536.266849
457.121004,-666.185348,-10362.883188,76.609550
457.121326,444.123565,-10066.800811,0.000000
457.121648,1554.432478,-8660.409521,-306.438199
457.121969,1554.432478,-6809.894666,-383.047749
457.122291,444.123565,-7105.977043,-1915.238745
457.122613,-222.061783,-8216.285956,-1532.190996
457.122934,-814.226536,-8882.471304,-1149.143247
457.123256,-1110.308913,-9992.780217,-1225.752797
457.123578,-1406.391290,-10584.944971,-536.266849
457.123900,-1924.535449,-10362.883188,-1225.752797
457.124221,-3034.844362,-10510.924376,-2451.505594
457.124543,-4293.194464,-10807.006753,-1915.238745
457.124865,-3997.112087,-10658.965565,-766.095498
457.125186,-2590.720797,-9696.697840,-1302.362347
457.125508,-962.267725,-9252.574275,-1455.581446
457.125830,370.102971,-9178.553681,0.000000
457.126151,444.123565,-8734.430116,1072.533697
457.126473,740.205942,-6661.853478,612.876398
457.126795,2146.597232,-5403.503377,-842.705048
457.127116,3404.947333,-5699.585753,-2528.115143
457.127438,3701.029710,-7402.059420,-2451.505594
457.127760,1776.494261,-9252.574275,76.609550
457.128081,0.000000,-10658.965565,1455.581446
457.128403,-296.082377,-11917.315666,-766.095498
457.128725,0.000000,-12065.356855,-2757.943793
457.129047,-962.267725,-10288.862594,-2911.162892
457.129368,-1406.391290,-9622.677246,-1762.019645
457.129690,-444.123565,-9474.636058,-1149.143247
457.130012,666.185348,-8956.491898,-919.314598
457.130333,1110.308913,-7846.182985,-1225.752797
457.130655,592.164754,-7624.121203,-1915.238745
457.130977,-296.082377,-8216.285956,-2604.724693
457.131298,-740.205942,-9622.677246,-2374.896044
457.131620,-814.226536,-9844.739029,-1685.410096
457.131942,-148.041188,-9548.656652,-1838.629195
457.132263,148.041188,-9326.594869,-1378.971896
457.132585,222.061783,-9474.636058,-1455.581446
457.132907,-1258.350101,-10510.924376,-2451.505594
457.133229,-2368.659014,-11769.274478,-3140.991542
457.133550,-1850.514855,-12065.356855,-3370.820191
457.133872,-888.247130,-11547.212695,-2911.162892
457.134194,-370.102971,-10955.047942,-1225.752797
457.134515,296.082377,-10140.821405,459.657299
457.134837,1258.350101,-8586.388927,-306.438199
457.135159,740.205942,-7476.080014,-2604.724693
457.135481,74.020594,-7994.224174,-2451.505594
457.135802,222.061783,-9178.553681,-1072.533697
457.136124,-370.102971,-8734.430116,-766.095498
457.136446,-888.247130,-9104.533087,-1149.143247
457.136767,-1480.411884,-9622.677246,-766.095498
457.137089,-2072.576638,-9400.615463,-1685.410096
457.137411,-2590.720797,-9400.615463,-2604.724693
457.137733,-2664.741391,-9770.718434,-2757.943793
457.138054,-1998.556043,-10584.944971,-2451.505594
457.138376,-1258.350101,-10510.924376,-1838.629195
457.138698,-962.267725,-9252.574275,-383.047749
457.139019,-296.082377,-8438.347739,383.047749
457.139341,740.205942,-7920.203579,-2298.286494
457.139663,666.185348,-8216.285956,-4213.525239
457.139985,222.061783,-7402.059420,-3064.381992
457.140306,444.123565,-7624.121203,-459.657299
457.140628,1184.329507,-8956.491898,-766.095498
457.140950,592.164754,-9770.718434,-689.485948
457.141272,-888.247130,-10288.862594,0.000000
457.141593,-2072.576638,-9770.718434,-383.047749
457.141915,-1332.370696,-9844.739029,-2068.457845
457.142237,-296.082377,-9474.636058,-2221.676944
457.142558,592.164754,-9252.574275,383.047749
457.142880,1110.308913,-8364.327145,1302.362347
457.143202,2072.576638,-7476.080014,1225.752797
457.143524,3034.844362,-7772.162391,-383.047749
457.143845,3034.844362,-8290.306550,-2298.286494
457.144167,962.267725,-8882.471304,-2145.067394
457.144489,-518.144159,-9400.615463,-383.047749
457.144810,-222.061783,-10214.842000,536.266849
457.145132,-444.123565,-10955.047942,-995.924147
457.145454,-1406.391290,-10658.965565,-995.924147
457.145776,-2812.782580,-10288.862594,-1225.752797
457.146097,-4145.153275,-10584.944971,-2604.724693
457.146419,-4811.338623,-10881.027347,-1532.190996
457.146741,-4737.318029,-10510.924376,-306.438199
457.147063,-3108.864956,-9622.677246,-995.924147
457.147384,-1702.473667,-8808.450710,-919.314598
457.147706,-1332.370696,-8586.388927,76.609550
457.148028,-1554.432478,-7772.162391,0.000000
457.148349,-444.123565,-7328.038826,-995.924147
457.148671,1406.391290,-7920.203579,-1762.019645
457.148993,2664.741391,-8808.450710,-1225.752797
457.149315,2516.700203,-9696.697840,-306.438199
457.149636,2146.597232,-9696.697840,766.095498
457.149958,2368.659014,-9918.759623,612.876398
457.150280,2072.576638,-10510.924376,-1378.971896
457.150601,1332.370696,-9918.759623,-2528.115143
457.150923,1184.329507,-8808.450710,-2068.457845
457.151245,1628.453072,-8808.450710,-995.924147
457.151567,1554.432478,-9918.759623,0.000000
457.151888,814.226536,-10362.883188,1302.362347
457.152210,222.061783,-9696.697840,612.876398
457.152532,-148.041188,-7994.224174,-2145.067394
457.152854,148.041188,-7402.059420,-2757.943793
457.153175,888.247130,-7624.121203,-1762.019645
457.153497,296.082377,-7179.997637,-1838.629195
457.153819,-370.102971,-8216.285956,-2451.505594
457.154140,-1036.288319,-10436.903782,-1762.019645
457.154462,-2294.638420,-11917.315666,-1072.533697
457.154784,-3997.112087,-10658.965565,-2604.724693
457.155106,-4959.379811,-9622.677246,-3677.258390
457.155427,-3701.029710,-9474.636058,-3677.258390
457.155749,-1776.494261,-9844.739029,-3217.601092
457.156071,-592.164754,-9178.553681,-3370.820191
457.156392,-518.144159,-9474.636058,-2451.505594
457.156714,-1184.329507,-10955.047942,-1149.143247
457.157036,-2368.659014,-11843.295072,-2451.505594
457.157358,-2072.576638,-11251.130318,-3447.429741
457.157679,-1036.288319,-9844.739029,-2987.772442
457.158001,444.123565,-8586.388927,-2604.724693
457.158323,666.185348,-7402.059420,-2604.724693
457.158644,0.000000,-6883.915261,-1608.800546
457.158966,-1110.308913,-8956.491898,-1455.581446
457.159288,-2220.617826,-11029.068536,-2604.724693
457.159610,-2368.659014,-11991.336260,-2681.334243
457.159931,-1332.370696,-11843.295072,-1149.143247
457.160253,0.000000,-10881.027347,-689.485948
457.160575,1554.432478,-8660.409521,-229.828649
457.160897,3256.906145,-6735.874072,0.000000
457.161218,4293.194464,-5773.606348,-2451.505594
457.161540,3701.029710,-6291.750507,-3600.648841
457.161862,2590.720797,-7624.121203,-2145.067394
457.162183,1702.473667,-9770.718434,-306.438199
457.162505,444.123565,-11103.089130,-612.876398
457.162827,-888.247130,-11103.089130,-536.266849
457.163149,-2146.597232,-10510.924376,-536.266849
457.163470,-2812.782580,-10140.821405,-2145.067394
457.163792,-3330.926739,-9178.553681,-2374.896044
457.164114,-2516.700203,-9178.553681,-383.047749
457.164435,-1628.453072,-8364.327145,1455.581446
457.164757,-296.082377,-7179.997637,1225.752797
457.165079,592.164754,-6365.771101,0.000000
457.165401,1036.288319,-6069.688724,-536.266849
457.165722,370.102971,-7476.080014,-1915.238745
457.166044,-592.164754,-9030.512492,-1455.581446
457.166366,-1702.473667,-10066.800811,0.000000
457.166688,-1554.432478,-11103.089130,612.876398
457.167009,-1184.329507,-10584.944971,153.219100
457.167331,-888.247130,-9474.636058,-2374.896044
457.167653,-1480.411884,-9622.677246,-2145.067394
457.167974,-2442.679609,-10140.821405,-1225.752797
457.168296,-2886.803174,-10214.842000,-612.876398
457.168618,-1850.514855,-9918.759623,-459.657299
457.168940,-1110.308913,-9918.759623,76.609550
457.169261,-370.102971,-9474.636058,0.000000
457.169583,-148.041188,-8364.327145,0.000000
457.169905,1184.329507,-8068.244768,-1532.190996
457.170226,2220.617826,-8808.450710,-2374.896044
457.170548,2146.597232,-9548.656652,-1072.533697
457.170870,1406.391290,-9400.615463,-229.828649
457.171192,1850.514855,-9252.574275,0.000000
457.171513,2590.720797,-9474.636058,-1455.581446
457.171835,1998.556043,-11103.089130,-2374.896044
457.172157,0.000000,-11991.336260,-1991.848295
457.172479,-888.247130,-11399.171507,-383.047749
457.172800,-592.164754,-11843.295072,-995.924147
457.173122,444.123565,-11843.295072,-1378.971896
457.173444,592.164754,-10214.842000,76.609550
457.173765,592.164754,-7476.080014,1072.533697
457.174087,518.144159,-5625.565159,-612.876398
457.174409,222.061783,-5033.400406,-2374.896044
457.174731,-444.123565,-5921.647536,-2528.115143
457.175052,-1184.329507,-8068.244768,-1838.629195
457.175374,-2664.741391,-10140.821405,-2374.896044
457.175696,-4071.132681,-11029.068536,-1532.190996
457.176017,-4663.297435,-11621.233289,-536.266849
457.176339,-4959.379811,-11251.130318,-2604.724693
457.176661,-4737.318029,-10140.821405,-5515.887586
457.176983,-3775.050304,-9696.697840,-5515.887586
457.177304,-2516.700203,-9770.718434,-3294.210641
457.177626,-1036.288319,-9030.512492,-2757.943793
457.177948,444.123565,-8734.430116,-2068.457845
457.178270,1184.329507,-9030.512492,-1532.190996
457.178591,740.205942,-8882.471304,-2451.505594
457.178913,592.164754,-8142.265362,-3830.477490
457.179235,1628.453072,-8734.430116,-3753.867940
457.179556,2294.638420,-9548.656652,-2604.724693
457.179878,2146.597232,-10288.862594,-1762.019645
457.180200,1036.288319,-10436.903782,-995.924147
457.180522,222.061783,-10436.903782,-229.828649
457.180843,-444.123565,-9474.636058,-1608.800546
457.181165,0.000000,-8216.285956,-2451.505594
457.181487,1554.432478,-8216.285956,-2451.505594
457.181808,3478.967927,-8512.368333,-1608.800546
457.182130,2886.803174,-8216.285956,-766.095498
457.182452,1554.432478,-9252.574275,229.828649
457.182774,1110.308913,-9770.718434,612.876398
457.183095,1406.391290,-9474.636058,-2604.724693
457.183417,444.123565,-8142.265362,-5286.058936
457.183739,-740.205942,-8068.244768,-3447.429741
457.184060,-962.267725,-8808.450710,-1608.800546
457.184382,-1480.411884,-9622.677246,-1532.190996
457.184704,-3552.988522,-9918.759623,-2068.457845
457.185026,-5329.482782,-10881.027347,-2298.286494
457.185347,-5773.606348,-11473.192101,-4213.525239
457.185669,-5699.585753,-11695.253884,-4443.353888
457.185991,-4811.338623,-11843.295072,-1455.581446
457.186313,-3701.029710,-10140.821405,229.828649
457.186634,-888.247130,-7994.224174,-1072.533697
457.186956,1554.432478,-6513.812290,-1225.752797
457.187278,2590.720797,-5625.565159,-1455.581446
457.187599,2812.782580,-5699.585753,-2221.676944
457.187921,2960.823768,-6291.750507,-2068.457845
457.188243,3034.844362,-8660.409521,0.000000
457.188565,3108.864956,-11325.150913,76.609550
457.188886,2886.803174,-11843.295072,-766.095498
457.189208,1702.473667,-11547.212695,-1608.800546
457.189530,74.020594,-11473.192101,-1225.752797
457.189851,-1554.432478,-10584.944971,-689.485948
457.190173,-1850.514855,-9622.677246,-1838.629195
457.190495,-962.267725,-9400.615463,-1608.800546
457.190817,-148.041188,-9548.656652,-689.485948
457.191138,-222.061783,-8142.265362,0.000000
457.191460,-518.144159,-7031.956449,76.609550
457.191782,-444.123565,-6365.771101,-1378.971896
457.192104,-370.102971,-6735.874072,-2757.943793
457.192425,-370.102971,-7624.121203,-3907.087040
457.192747,-740.205942,-9104.533087,-3217.601092
457.193069,-814.226536,-11103.089130,-2528.115143
457.193390,-962.267725,-12139.377449,-3677.258390
457.193712,-2220.617826,-11991.336260,-3600.648841
457.194034,-3849.070898,-11547.212695,-4366.744339
457.194356,-4737.318029,-10140.821405,-4519.963438
457.194677,-3923.091493,-9844.739029,-4903.011187
457.194999,-1924.535449,-9696.697840,-3753.867940
457.195321,518.144159,-9844.739029,-2834.553343
457.195642,1480.411884,-9178.553681,-842.705048
457.195964,1702.473667,-7994.224174,1149.143247
457.196286,1702.473667,-6439.791695,612.876398
457.196608,3256.906145,-4515.256246,-2757.943793
457.196929,4663.297435,-4219.173869,-6052.154434
457.197251,4219.173869,-5699.585753,-4673.182538
457.197573,2886.803174,-7328.038826,-1762.019645
457.197895,2294.638420,-9474.636058,-1915.238745
457.198216,1776.494261,-12435.459826,-4366.744339
457.198538,-740.205942,-14211.954086,-5592.497135
457.198860,-4293.194464,-13027.624579,-6052.154434
457.199181,-5699.585753,-11621.233289,-7124.688131
457.199503,-3849.070898,-11843.295072,-7201.297681
457.199825,-2442.679609,-11843.295072,-6128.763984
457.200147,-2146.597232,-8882.471304,-5056.230287
457.200468,-1480.411884,-7402.059420,-3524.039291
457.200790,370.102971,-6735.874072,-3217.601092
457.201112,518.144159,-6291.750507,-4903.011187
457.201433,-518.144159,-4885.359217,-6894.859482
457.201755,-1110.308913,-5477.523971,-5975.544884
457.202077,-296.082377,-8216.285956,-4673.182538
457.202399,-296.082377,-10140.821405,-5209.449386
457.202720,-592.164754,-9696.697840,-5745.716235
457.203042,-444.123565,-10214.842000,-5592.497135
457.203364,-296.082377,-11843.295072,-6511.811733
457.203686,-962.267725,-12361.439231,-6511.811733
457.204007,-2072.576638,-11251.130318,-6818.249932
457.204329,-1110.308913,-11251.130318,-6128.763984
457.204651,666.185348,-11917.315666,-4826.401637
457.204972,1850.514855,-11547.212695,-4290.134789
457.205294,2220.617826,-8512.368333,-3524.039291
457.205616,3478.967927,-6661.853478,-2681.334243
457.205938,5033.400406,-4885.359217,-3524.039291
457.206259,5625.565159,-3775.050304,-4596.572988
457.206581,4367.215058,-2960.823768,-4290.134789
457.206903,2368.659014,-4663.297435,-3830.477490
457.207224,370.102971,-7402.059420,-4826.401637
457.207546,-1406.391290,-9400.615463,-5822.325785
457.207868,-2516.700203,-11473.192101,-6358.592633
457.208190,-3552.988522,-13693.809927,-6358.592633
457.208511,-4293.194464,-14730.098246,-5745.716235
457.208833,-4515.256246,-12953.603985,-4443.353888
457.209155,-4367.215058,-10140.821405,-3677.258390
457.209476,-4515.256246,-8660.409521,-4673.182538
457.209798,-3997.112087,-7476.080014,-5209.449386
457.210120,-3108.864956,-7402.059420,-5745.716235
457.210442,-1406.391290,-8438.347739,-4826.401637
457.210763,1406.391290,-10362.883188,-2604.724693
457.211085,3182.885551,-10288.862594,0.000000
457.211407,4145.153275,-9030.512492,995.924147
457.211729,4219.173869,-6365.771101,-536.266849
457.212050,4293.194464,-4737.318029,-3447.429741
457.212372,3404.947333,-3923.091493,-5439.278036
457.212694,1480.411884,-4441.235652,-5822.325785
457.213015,-1258.350101,-7179.997637,-6588.421283
457.213337,-2664.741391,-11251.130318,-6205.373534
457.213659,-3256.906145,-15840.407159,-4519.963438
457.213981,-4219.173869,-18061.024985,-3753.867940
457.214302,-4737.318029,-16950.716072,-3753.867940
457.214624,-4071.132681,-15322.262999,-4979.620737
457.214946,-2960.823768,-11991.336260,-4443.353888
457.215267,-1998.556043,-7920.203579,-2911.162892
457.215589,-1332.370696,-3256.906145,-2451.505594
457.215911,0.000000,-1480.411884,-1762.019645
457.216233,1850.514855,-3627.009116,-2681.334243
457.216554,2368.659014,-6439.791695,-2528.115143
457.216876,2664.741391,-8290.306550,-1532.190996
457.217198,3997.112087,-10584.944971,0.000000
457.217520,5699.585753,-11325.150913,-459.657299
457.217841,5403.503377,-9622.677246,-1532.190996
457.218163,4367.215058,-6883.915261,-3677.258390
457.218485,2220.617826,-5403.503377,-6052.154434
457.218806,0.000000,-6513.812290,-7814.174080
457.219128,-2590.720797,-8068.244768,-7507.735880
457.219450,-5625.565159,-9992.780217,-6588.421283
457.219772,-5847.626942,-12879.583391,-6511.811733
457.220093,-5921.647536,-14952.160028,-6128.763984
457.220415,-5625.565159,-15248.242405,-4979.620737
457.220737,-5329.482782,-12805.562797,-3140.991542
457.221058,-3923.091493,-10066.800811,-1608.800546
457.221380,-2146.597232,-7772.162391,-2451.505594
457.221702,296.082377,-5403.503377,-2987.772442
457.222024,2146.597232,-3923.091493,-3524.039291
457.222345,4071.132681,-3775.050304,-2604.724693
457.222667,5551.544565,-5033.400406,-1762.019645
457.222989,6069.688724,-6661.853478,-1378.971896
457.223311,5699.585753,-8586.388927,-4060.306139
457.223632,5329.482782,-10436.903782,-6358.592633
457.223954,3256.906145,-11991.336260,-6588.421283
457.224276,370.102971,-12731.542202,-5669.106685
457.224597,-2368.659014,-12879.583391,-5592.497135
457.224919,-2738.761985,-11769.274478,-6894.859482
457.225241,-1998.556043,-10288.862594,-7660.954980
457.225563,-518.144159,-8512.368333,-7890.783629
457.225884,0.000000,-7031.956449,-6818.249932
457.226206,0.000000,-5403.503377,-4596.572988
457.226528,0.000000,-6513.812290,-4673.182538
457.226849,-1332.370696,-8734.430116,-4596.572988
457.227171,-2590.720797,-10214.842000,-4673.182538
457.227493,-3775.050304,-10881.027347,-4903.011187
457.227815,-3849.070898,-10807.006753,-4673.182538
457.228136,-2294.638420,-8068.244768,-5056.230287
457.228458,-148.041188,-7031.956449,-5056.230287
457.228780,1480.411884,-7105.977043,-5362.668486
457.229101,1702.473667,-8586.388927,-5515.887586
457.229423,1036.288319,-10732.986159,-6128.763984
457.229745,1406.391290,-12509.480420,-4979.620737
457.230067,1776.494261,-14359.995275,-5286.058936
457.230388,2960.823768,-13101.645173,-5898.935335
457.230710,4293.194464,-9474.636058,-5669.106685
457.231032,4737.318029,-7402.059420,-4596.572988
457.231354,3478.967927,-5995.668130,-3140.991542
457.231675,222.061783,-5477.523971,-3217.601092
457.231997,-4441.235652,-5699.585753,-3600.648841
457.232319,-7920.203579,-8068.244768,-4519.963438
457.232640,-9622.677246,-10955.047942,-3830.477490
457.232962,-9622.677246,-10658.965565,-4596.572988
457.233284,-7179.997637,-8364.327145,-4826.401637
457.233606,-3478.967927,-7920.203579,-5669.106685
457.233927,-296.082377,-8290.306550,-5132.839837
457.234249,518.144159,-8808.450710,-4366.744339
457.234571,0.000000,-9030.512492,-3830.477490
457.234892,-814.226536,-10140.821405,-4060.306139
457.235214,814.226536,-12287.418637,-5592.497135
457.235536,2146.597232,-14359.995275,-5209.449386
457.235857,3552.988522,-12361.439231,-2528.115143
457.236179,5255.462188,-8216.285956,229.828649
457.236501,7105.977043,-4293.194464,76.609550
457.236822,9104.533087,-2294.638420,-1685.410096
457.237144,8956.491898,-740.205942,-3447.429741
457.237466,6143.709319,-2072.576638,-4443.353888
457.237787,3034.844362,-4811.338623,-3830.477490
457.238109,592.164754,-8364.327145,-3524.039291
457.238431,-2072.576638,-12657.521608,-4596.572988
457.238752,-6069.688724,-16580.613101,-3677.258390
457.239074,-9770.718434,-17542.880825,-3217.601092
457.239396,-12139.377449,-16210.510130,-3983.696590
457.239717,-10881.027347,-13101.645173,-4519.963438
457.240039,-7550.100608,-8660.409521,-5439.278036
457.240361,-3256.906145,-5403.503377,-6511.811733
457.240682,1702.473667,-3849.070898,-7048.078582
457.241004,4811.338623,-3330.926739,-4749.792088
457.241326,6587.832884,-3108.864956,-1455.581446
457.241647,8512.368333,-3627.009116,-2451.505594
457.241969,9474.636058,-8438.347739,-7967.393179
457.242291,8734.430116,-14582.057057,-7890.783629
457.242612,4737.318029,-15396.283594,-4366.744339
457.242934,-1702.473667,-15100.201217,-612.876398
457.243256,-5477.523971,-13841.851115,1455.581446
457.243577,-6957.935855,-9622.677246,-3370.820191
457.243899,-8882.471304,-7105.977043,-9959.241474
457.244221,-9992.780217,-9474.636058,-9422.974625
457.244542,-8808.450710,-12583.501014,-4749.792088
457.244864,-6291.750507,-12213.398043,-3600.648841
457.245186,-2664.741391,-10436.903782,-2145.067394
457.245507,2442.679609,-8290.306550,919.314598
457.245829,5181.441594,-5995.668130,-1762.019645
457.246151,6883.915261,-2886.803174,-6741.640382
457.246472,9030.512492,222.061783,-8044.002729
457.246794,10510.924376,518.144159,-7967.393179
457.247116,10881.027347,-3997.112087,-6205.373534
457.247437,9326.594869,-10955.047942,-4903.011187
457.247759,7031.956449,-15618.345376,-5669.106685
457.248081,3627.009116,-19393.395680,-5515.887586
457.248402,-1554.432478,-20355.663405,-3524.039291
457.248724,-7402.059420,-17246.798449,-2068.457845
457.249046,-10066.800811,-10881.027347,-3600.648841
457.249367,-9252.574275,-5477.523971,-5592.497135
457.249689,-7846.182985,-4071.132681,-6128.763984
457.250011,-7698.141797,-5773.606348,-2681.334243
457.250332,-9400.615463,-6957.935855,1685.410096
457.250654,-10066.800811,-6883.915261,4136.915689
457.250976,-8512.368333,-8216.285956,2604.724693
457.251297,-4885.359217,-9252.574275,-1072.533697
457.251619,-2294.638420,-8364.327145,-4749.792088
