#time,accel_x,accel_y,accel_z
454.001644,-370.102971,-9548.656652,-1915.238745
454.001967,-444.123565,-9622.677246,-2221.676944
454.002289,-666.185348,-9474.636058,-1838.629195
454.002611,-222.061783,-9696.697840,-1608.800546
454.002934,-296.082377,-9400.615463,-1608.800546
454.003256,-222.061783,-9252.574275,-1608.800546
454.003578,-222.061783,-9104.533087,-1685.410096
454.003901,-370.102971,-9104.533087,-919.314598
454.004223,0.000000,-9474.636058,-2068.457845
454.004545,-666.185348,-9400.615463,-1608.800546
454.004868,-666.185348,-9474.636058,-1608.800546
454.005190,-518.144159,-9474.636058,-1762.019645
454.005512,-222.061783,-9252.574275,-1149.143247
454.005835,-222.061783,-8956.491898,-1608.800546
454.006157,-222.061783,-9104.533087,-1532.190996
454.006479,-370.102971,-9178.553681,-1455.581446
454.006802,-370.102971,-9326.594869,-1302.362347
454.007124,-370.102971,-9696.697840,-1225.752797
454.007446,0.000000,-9770.718434,-1532.190996
454.007769,-592.164754,-9474.636058,-1302.362347
454.008091,-148.041188,-9474.636058,-1302.362347
454.008413,0.000000,-9474.636058,-1455.581446
454.008735,0.000000,-9326.594869,-1378.971896
454.009058,-296.082377,-9104.533087,-1302.362347
454.009380,-148.041188,-9030.512492,-1762.019645
454.009702,-296.082377,-9548.656652,-1532.190996
454.010025,-518.144159,-9474.636058,-1225.752797
454.010347,-666.185348,-9548.656652,-1302.362347
454.010669,-296.082377,-9474.636058,-766.095498
454.010992,-148.041188,-9474.636058,-1532.190996
454.011314,-296.082377,-9104.533087,-1072.533697
454.011636,-296.082377,-9252.574275,-1378.971896
454.011959,-592.164754,-9326.594869,-1455.581446
454.012281,-592.164754,-9474.636058,-1455.581446
454.012603,-666.185348,-9474.636058,-2145.067394
454.012926,-296.082377,-9474.636058,-1455.581446
454.013248,-666.185348,-9474.636058,-1225.752797
454.013570,-666.185348,-9400.615463,-1225.752797
454.013893,-370.102971,-9474.636058,-1149.143247
454.014215,-370.102971,-9104.533087,-1608.800546
454.014537,-296.082377,-9030.512492,-1685.410096
454.014860,-518.144159,-9030.512492,-1532.190996
454.015182,0.000000,-9400.615463,-1685.410096
454.015504,-444.123565,-9474.636058,-1455.581446
454.015826,-592.164754,-9400.615463,-1378.971896
454.016149,-518.144159,-9400.615463,-1762.019645
454.016471,-296.082377,-9178.553681,-1685.410096
454.016793,-296.082377,-9326.594869,-1455.581446
454.017116,-370.102971,-9104.533087,-1378.971896
454.017438,-370.102971,-9178.553681,-1532.190996
454.017760,-74.020594,-9030.512492,-1608.800546
454.018083,-296.082377,-9326.594869,-1762.019645
454.018405,-296.082377,-9474.636058,-1838.629195
454.018727,-518.144159,-9400.615463,-1991.848295
454.019050,0.000000,-9474.636058,-1532.190996
454.019372,888.247130,-8956.491898,-1608.800546
454.019694,2516.700203,-9622.677246,-2221.676944
454.020017,2812.782580,-9400.615463,-1378.971896
454.020339,1776.494261,-8660.409521,-689.485948
454.020661,666.185348,-8512.368333,-1302.362347
454.020984,-222.061783,-9178.553681,-2451.505594
454.021306,-1702.473667,-9326.594869,-2528.115143
454.021628,-3256.906145,-9770.718434,-2298.286494
454.021951,-3627.009116,-9844.739029,-2528.115143
454.022273,-2886.803174,-9548.656652,-3064.381992
454.022595,-370.102971,-9992.780217,-2987.772442
454.022918,2442.679609,-10955.047942,-2145.067394
454.023240,3552.988522,-10362.883188,-459.657299
454.023562,3108.864956,-9400.615463,0.000000
454.023884,2072.576638,-8882.471304,-766.095498
454.024207,2516.700203,-9548.656652,-2221.676944
454.024529,2664.741391,-9844.739029,-2681.334243
454.024851,814.226536,-9104.533087,-1302.362347
454.025174,0.000000,-7698.141797,0.000000
454.025496,0.000000,-7105.977043,-383.047749
454.025818,1036.288319,-8586.388927,-2451.505594
454.026141,1184.329507,-10140.821405,-2374.896044
454.026463,-740.205942,-9474.636058,-153.219100
454.026785,-1850.514855,-9178.553681,-1225.752797
454.027108,-1184.329507,-9474.636058,-3447.429741
454.027430,0.000000,-9918.759623,-3370.820191
454.027752,666.185348,-10436.903782,-1532.190996
454.028075,740.205942,-10510.924376,-459.657299
454.028397,1850.514855,-9622.677246,-2221.676944
454.028719,3256.906145,-9326.594869,-1991.848295
454.029042,4145.153275,-11029.068536,-766.095498
454.029364,3923.091493,-11695.253884,0.000000
454.029686,2516.700203,-9474.636058,-536.266849
454.030009,2294.638420,-7402.059420,-612.876398
454.030331,2738.761985,-8142.265362,-766.095498
454.030653,2960.823768,-8364.327145,-612.876398
454.030975,1850.514855,-7328.038826,-919.314598
454.031298,1258.350101,-7105.977043,-689.485948
454.031620,2220.617826,-9326.594869,-306.438199
454.031942,2738.761985,-10658.965565,-689.485948
454.032265,2516.700203,-9918.759623,-1532.190996
454.032587,1850.514855,-9770.718434,-1685.410096
454.032909,2220.617826,-10362.883188,-689.485948
454.033232,3108.864956,-9918.759623,-1149.143247
454.033554,3034.844362,-9030.512492,-2374.896044
454.033876,2738.761985,-9326.594869,-2221.676944
454.034199,2738.761985,-10066.800811,-1378.971896
454.034521,3627.009116,-9474.636058,-919.314598
454.034843,3256.906145,-9178.553681,-1685.410096
454.035166,2664.741391,-9104.533087,-995.924147
454.035488,1776.494261,-8808.450710,-612.876398
454.035810,888.247130,-8142.265362,-612.876398
454.036133,0.000000,-8068.244768,-1915.238745
454.036455,-592.164754,-8438.347739,-2374.896044
454.036777,-444.123565,-9622.677246,-1608.800546
454.037100,-592.164754,-10066.800811,-995.924147
454.037422,-222.061783,-10881.027347,-1149.143247
454.037744,222.061783,-11991.336260,-1532.190996
454.038066,962.267725,-11473.192101,-1149.143247
454.038389,1480.411884,-10658.965565,-842.705048
454.038711,1332.370696,-9622.677246,-1149.143247
454.039033,2294.638420,-9326.594869,-1838.629195
454.039356,1702.473667,-8438.347739,-1455.581446
454.039678,1628.453072,-8216.285956,-1072.533697
454.040000,1924.535449,-8660.409521,-1762.019645
454.040323,2368.659014,-9104.533087,-1991.848295
454.040645,2072.576638,-8586.388927,-1302.362347
454.040967,1850.514855,-8438.347739,-1149.143247
454.041290,1924.535449,-7698.141797,-1608.800546
454.041612,1924.535449,-7550.100608,-2374.896044
454.041934,1998.556043,-8364.327145,-2528.115143
454.042257,1480.411884,-9474.636058,-1608.800546
454.042579,814.226536,-9770.718434,-2374.896044
454.042901,444.123565,-10436.903782,-2298.286494
454.043224,370.102971,-11547.212695,-1991.848295
454.043546,666.185348,-11843.295072,-2068.457845
454.043868,1036.288319,-10807.006753,-1378.971896
454.044191,592.164754,-9844.739029,-1149.143247
454.044513,1332.370696,-9918.759623,-1225.752797
454.044835,2146.597232,-9770.718434,-919.314598
454.045157,2590.720797,-9178.553681,-766.095498
454.045480,3034.844362,-8438.347739,-995.924147
454.045802,4589.276840,-7920.203579,-1608.800546
454.046124,5699.585753,-7772.162391,-1838.629195
454.046447,6291.750507,-8068.244768,-1838.629195
454.046769,6069.688724,-8586.388927,-766.095498
454.047091,5551.544565,-9474.636058,-995.924147
454.047414,4367.215058,-10214.842000,-1915.238745
454.047736,2960.823768,-11399.171507,-2528.115143
454.048058,1406.391290,-12065.356855,-2298.286494
454.048381,444.123565,-11769.274478,-1225.752797
454.048703,222.061783,-10732.986159,-612.876398
454.049025,444.123565,-9474.636058,-459.657299
454.049348,740.205942,-8216.285956,-76.609550
454.049670,592.164754,-7031.956449,0.000000
454.049992,592.164754,-6291.750507,-229.828649
454.050315,888.247130,-5921.647536,-689.485948
454.050637,1110.308913,-5921.647536,-1149.143247
454.050959,740.205942,-7550.100608,-766.095498
454.051282,814.226536,-8660.409521,-1302.362347
454.051604,444.123565,-9622.677246,-1915.238745
454.051926,444.123565,-10955.047942,-2145.067394
454.052248,740.205942,-11621.233289,-2757.943793
454.052571,0.000000,-10881.027347,-3064.381992
454.052893,-1036.288319,-11103.089130,-2451.505594
454.053215,-1554.432478,-11325.150913,-2451.505594
454.053538,-2220.617826,-11473.192101,-2374.896044
454.053860,-2960.823768,-11103.089130,-1991.848295
454.054182,-3478.967927,-11177.109724,-1455.581446
454.054505,-2886.803174,-11251.130318,-1225.752797
454.054827,-2146.597232,-10658.965565,-229.828649
454.055149,-888.247130,-9548.656652,459.657299
454.055472,296.082377,-7920.203579,229.828649
454.055794,2072.576638,-6661.853478,459.657299
454.056116,4441.235652,-6069.688724,-229.828649
454.056439,5773.606348,-5921.647536,-919.314598
454.056761,6143.709319,-5995.668130,-842.705048
454.057083,6809.894666,-5847.626942,-1149.143247
454.057406,6809.894666,-7328.038826,-3140.991542
454.057728,7105.977043,-11029.068536,-4060.306139
454.058050,6587.832884,-13767.830521,-2604.724693
454.058373,4145.153275,-13027.624579,-1378.971896
454.058695,1184.329507,-12287.418637,-689.485948
454.059017,-962.267725,-11621.233289,-689.485948
454.059339,-2886.803174,-10584.944971,-2604.724693
454.059662,-5699.585753,-8438.347739,-2757.943793
454.059984,-7550.100608,-7402.059420,-1762.019645
454.060306,-8142.265362,-6217.729913,-2681.334243
454.060629,-5773.606348,-7772.162391,-2834.553343
454.060951,-1850.514855,-8438.347739,-1762.019645
454.061273,2516.700203,-9252.574275,-2604.724693
454.061596,5699.585753,-11399.171507,-3447.429741
454.061918,9474.636058,-11843.295072,-1378.971896
454.062240,12139.377449,-10807.006753,-536.266849
454.062563,13989.892304,-8956.491898,-2145.067394
454.062885,14508.036463,-7624.121203,-1532.190996
454.063207,13175.665768,-7624.121203,-1532.190996
454.063530,10214.842000,-9104.533087,-842.705048
454.063852,6809.894666,-10140.821405,-383.047749
454.064174,2294.638420,-11843.295072,-689.485948
454.064497,-1110.308913,-12213.398043,-153.219100
454.064819,-3256.906145,-11843.295072,-229.828649
454.065141,-6143.709319,-11843.295072,153.219100
454.065464,-8438.347739,-9992.780217,2604.724693
454.065786,-9622.677246,-4737.318029,2911.162892
454.066108,-8290.306550,-2664.741391,-1302.362347
454.066430,-5255.462188,-3849.070898,-3600.648841
454.066753,0.000000,-7254.018232,-4519.963438
454.067075,3923.091493,-9548.656652,-4826.401637
454.067397,7105.977043,-12139.377449,-3217.601092
454.067720,9696.697840,-13323.706956,-1915.238745
454.068042,10510.924376,-13693.809927,-2451.505594
454.068364,8734.430116,-11843.295072,-3217.601092
454.068687,4589.276840,-9252.574275,-3217.601092
454.069009,1554.432478,-7920.203579,-5592.497135
454.069331,444.123565,-9178.553681,-6741.640382
454.069653,-74.020594,-10510.924376,-2681.334243
454.069976,-2368.659014,-11251.130318,2528.115143
454.070298,-5551.544565,-11843.295072,4979.620737
454.070620,-5995.668130,-10510.924376,5592.497135
454.070942,-5255.462188,-7994.224174,1302.362347
454.071265,-2960.823768,-6957.935855,-766.095498
454.071587,518.144159,-6439.791695,0.000000
454.071909,4737.318029,-4515.256246,536.266849
454.072232,9178.553681,-4885.359217,-153.219100
454.072554,11843.295072,-7550.100608,-766.095498
454.072876,11251.130318,-10584.944971,536.266849
454.073198,7772.162391,-10881.027347,0.000000
454.073521,3034.844362,-12361.439231,-4519.963438
454.073843,-1110.308913,-16210.510130,-7124.688131
454.074165,-4737.318029,-16580.613101,-6128.763984
454.074487,-9104.533087,-11843.295072,-2911.162892
454.074810,-12065.356855,-7254.018232,-1225.752797
454.075132,-10584.944971,-5773.606348,-2834.553343
454.075454,-7254.018232,-4071.132681,-3830.477490
454.075777,-4737.318029,-6143.709319,-3370.820191
454.076099,-4367.215058,-8882.471304,1225.752797
454.076421,-2220.617826,-10436.903782,3524.039291
454.076743,1702.473667,-9326.594869,1838.629195
454.077066,4515.256246,-5699.585753,306.438199
454.077388,4959.379811,-4663.297435,0.000000
454.077710,4145.153275,-6217.729913,-1455.581446
454.078032,2590.720797,-7920.203579,-2221.676944
454.078355,2220.617826,-10362.883188,-2604.724693
454.078677,2368.659014,-11621.233289,-3753.867940
454.078999,3404.947333,-13175.665768,-5669.106685
454.079322,3256.906145,-13989.892304,-4979.620737
454.079644,2738.761985,-13841.851115,-2911.162892
454.079966,888.247130,-12139.377449,-919.314598
454.080288,-1258.350101,-11325.150913,-995.924147
454.080611,-3034.844362,-10436.903782,-1762.019645
454.080933,-4515.256246,-9474.636058,-3524.039291
454.081255,-4515.256246,-9770.718434,-2834.553343
454.081577,-2886.803174,-9474.636058,306.438199
454.081900,-1110.308913,-8808.450710,2298.286494
454.082222,1480.411884,-7254.018232,2911.162892
454.082544,3923.091493,-5995.668130,1608.800546
454.082867,5699.585753,-5477.523971,-766.095498
454.083189,6365.771101,-5107.421000,-2451.505594
454.083511,5699.585753,-5773.606348,-3140.991542
454.083833,3552.988522,-6143.709319,-2374.896044
454.084156,740.205942,-7402.059420,-2451.505594
454.084478,-3256.906145,-9474.636058,-2068.457845
454.084800,-6809.894666,-11843.295072,-4519.963438
454.085122,-8216.285956,-14285.974681,-7354.516781
454.085445,-7624.121203,-16210.510130,-7354.516781
454.085767,-6809.894666,-16062.468941,-4060.306139
454.086089,-5255.462188,-11769.274478,76.609550
454.086412,-3478.967927,-8142.265362,-229.828649
454.086734,-1406.391290,-7254.018232,-1302.362347
454.087056,2220.617826,-8734.430116,-229.828649
454.087378,5181.441594,-8364.327145,0.000000
454.087701,6587.832884,-7846.182985,-1302.362347
454.088023,7402.059420,-8142.265362,459.657299
454.088345,7550.100608,-7550.100608,4519.963438
454.088667,6513.812290,-7624.121203,5132.839837
454.088990,4441.235652,-7550.100608,1915.238745
454.089312,1702.473667,-7254.018232,-1915.238745
454.089634,888.247130,-8364.327145,-3600.648841
454.089957,74.020594,-9770.718434,-2681.334243
454.090279,-2294.638420,-9548.656652,-459.657299
454.090601,-4145.153275,-9548.656652,383.047749
454.090923,-2368.659014,-8956.491898,-1608.800546
454.091246,-2072.576638,-9104.533087,-3294.210641
454.091568,-3256.906145,-9696.697840,-4213.525239
454.091890,-5329.482782,-10362.883188,-3677.258390
454.092212,-6069.688724,-11029.068536,-2528.115143
454.092535,-4515.256246,-12065.356855,-1685.410096
454.092857,-3478.967927,-10066.800811,-1915.238745
454.093179,-2590.720797,-8438.347739,-3140.991542
454.093502,-1110.308913,-7402.059420,-2451.505594
454.093824,148.041188,-7254.018232,-842.705048
454.094146,962.267725,-7550.100608,-383.047749
454.094468,592.164754,-8660.409521,-842.705048
454.094791,962.267725,-9400.615463,-689.485948
454.095113,1184.329507,-9400.615463,-1225.752797
454.095435,1184.329507,-9030.512492,-2145.067394
454.095757,74.020594,-9252.574275,-1838.629195
454.096080,-666.185348,-10732.986159,76.609550
454.096402,-740.205942,-11843.295072,1378.971896
454.096724,-370.102971,-12731.542202,306.438199
454.097047,518.144159,-12139.377449,-1915.238745
454.097369,1258.350101,-9770.718434,-2757.943793
454.097691,1702.473667,-7624.121203,-995.924147
454.098013,2146.597232,-7920.203579,-229.828649
454.098336,2146.597232,-7476.080014,-229.828649
454.098658,1406.391290,-6661.853478,-1378.971896
454.098980,148.041188,-6513.812290,-2145.067394
454.099302,-2072.576638,-7624.121203,-2451.505594
454.099625,-5255.462188,-7476.080014,-2911.162892
454.099947,-6883.915261,-8512.368333,-4673.182538
454.100269,-7624.121203,-9622.677246,-5515.887586
454.100592,-7772.162391,-11251.130318,-3983.696590
454.100914,-7550.100608,-9918.759623,-2068.457845
454.101236,-6069.688724,-9622.677246,-4826.401637
454.101558,-3552.988522,-10658.965565,-5898.935335
454.101881,74.020594,-12805.562797,-2528.115143
454.102203,3404.947333,-11769.274478,0.000000
454.102525,5255.462188,-9770.718434,-995.924147
454.102847,5847.626942,-9474.636058,-689.485948
454.103170,6587.832884,-9918.759623,842.705048
454.103492,5551.544565,-10584.944971,2911.162892
454.103814,3552.988522,-8512.368333,2145.067394
454.104137,1628.453072,-7328.038826,-306.438199
454.104459,2812.782580,-7254.018232,-1608.800546
454.104781,4441.235652,-7772.162391,-459.657299
454.105103,4811.338623,-7698.141797,1072.533697
454.105426,3923.091493,-7402.059420,842.705048
454.105748,3552.988522,-7624.121203,-383.047749
454.106070,3256.906145,-8142.265362,-1608.800546
454.106392,444.123565,-8956.491898,-3447.429741
454.106715,-4441.235652,-9770.718434,-4443.353888
454.107037,-7031.956449,-12509.480420,-6205.373534
454.107359,-7031.956449,-14285.974681,-5822.325785
454.107682,-7105.977043,-12731.542202,-3753.867940
454.108004,-7179.997637,-10732.986159,-3370.820191
454.108326,-6069.688724,-9770.718434,-3907.087040
454.108648,-4071.132681,-9548.656652,-3140.991542
454.108971,-1850.514855,-9474.636058,-2834.553343
454.109293,-444.123565,-8808.450710,-2374.896044
454.109615,666.185348,-8882.471304,-1149.143247
454.109937,2220.617826,-7994.224174,459.657299
454.110260,2886.803174,-7994.224174,1149.143247
454.110582,2960.823768,-8586.388927,1608.800546
454.110904,2590.720797,-9178.553681,1149.143247
454.111227,2294.638420,-9622.677246,229.828649
454.111549,2886.803174,-10066.800811,919.314598
454.111871,3182.885551,-9252.574275,306.438199
454.112193,2738.761985,-7772.162391,0.000000
454.112516,1406.391290,-7698.141797,229.828649
454.112838,1184.329507,-8068.244768,1225.752797
454.113160,1480.411884,-8808.450710,-1378.971896
454.113482,0.000000,-8216.285956,-3447.429741
454.113805,-2664.741391,-9400.615463,-3064.381992
454.114127,-4885.359217,-10288.862594,-1608.800546
454.114449,-5699.585753,-10881.027347,-2374.896044
454.114772,-6069.688724,-10066.800811,-4060.306139
454.115094,-6735.874072,-9474.636058,-5209.449386
454.115416,-6143.709319,-11103.089130,-3140.991542
454.115738,-5921.647536,-9992.780217,-689.485948
454.116061,-5477.523971,-8290.306550,-1915.238745
454.116383,-3923.091493,-8068.244768,-3447.429741
454.116705,-518.144159,-8882.471304,-2681.334243
454.117027,1998.556043,-8660.409521,-1915.238745
454.117350,1998.556043,-7328.038826,-459.657299
454.117672,2072.576638,-8216.285956,1072.533697
454.117994,3182.885551,-10510.924376,383.047749
454.118317,4145.153275,-12583.501014,153.219100
454.118639,3182.885551,-10362.883188,689.485948
454.118961,1702.473667,-8216.285956,153.219100
454.119283,1998.556043,-8364.327145,-306.438199
454.119606,3182.885551,-7994.224174,-383.047749
454.119928,2368.659014,-6513.812290,-1072.533697
454.120250,1110.308913,-7105.977043,-3064.381992
454.120572,740.205942,-9326.594869,-3064.381992
454.120895,296.082377,-11325.150913,-3140.991542
454.121217,-592.164754,-11103.089130,-3830.477490
454.121539,-1776.494261,-10955.047942,-4136.915689
454.121862,-2220.617826,-12139.377449,-4826.401637
454.122184,-2368.659014,-13545.768739,-4749.792088
454.122506,-4293.194464,-11399.171507,-2604.724693
454.122828,-5699.585753,-8290.306550,-2681.334243
454.123151,-4885.359217,-7328.038826,-4443.353888
454.123473,-2294.638420,-8956.491898,-4903.011187
454.123795,370.102971,-9770.718434,-3830.477490
454.124117,1258.350101,-10066.800811,-766.095498
454.124440,2368.659014,-10658.965565,1378.971896
454.124762,3627.009116,-10214.842000,2451.505594
454.125084,4589.276840,-7920.203579,1149.143247
454.125407,4293.194464,-7328.038826,-1225.752797
454.125729,2368.659014,-8216.285956,-1532.190996
454.126051,2072.576638,-9474.636058,306.438199
454.126373,1258.350101,-8586.388927,1532.190996
454.126696,74.020594,-7624.121203,919.314598
454.127018,-296.082377,-8216.285956,-536.266849
454.127340,-148.041188,-9252.574275,-1378.971896
454.127662,-888.247130,-9252.574275,-1838.629195
454.127985,-2072.576638,-9252.574275,-2451.505594
454.128307,-2664.741391,-8512.368333,-3064.381992
454.128629,-2590.720797,-7920.203579,-3524.039291
454.128952,-2442.679609,-8660.409521,-2604.724693
454.129274,-3034.844362,-9696.697840,-3830.477490
454.129596,-4145.153275,-11325.150913,-4826.401637
454.129918,-4515.256246,-12065.356855,-3447.429741
454.130241,-4219.173869,-11843.295072,-995.924147
454.130563,-3775.050304,-10584.944971,-842.705048
454.130885,-3256.906145,-9326.594869,-1685.410096
454.131207,-2146.597232,-8586.388927,-1838.629195
454.131530,-370.102971,-7476.080014,-383.047749
454.131852,1036.288319,-6809.894666,766.095498
454.132174,2294.638420,-7179.997637,383.047749
454.132497,3108.864956,-8734.430116,76.609550
454.132819,3256.906145,-11029.068536,612.876398
454.133141,1776.494261,-11695.253884,1685.410096
454.133463,0.000000,-10584.944971,842.705048
454.133786,-1480.411884,-9696.697840,-612.876398
454.134108,-1332.370696,-8512.368333,-1608.800546
454.134430,-1258.350101,-8142.265362,-2451.505594
454.134752,-2146.597232,-8142.265362,-3294.210641
454.135075,-1776.494261,-9178.553681,-2681.334243
454.135397,-740.205942,-9622.677246,-2451.505594
454.135719,74.020594,-9918.759623,-2911.162892
454.136042,-888.247130,-9696.697840,-3677.258390
454.136364,-2960.823768,-9844.739029,-3217.601092
454.136686,-3849.070898,-11325.150913,-3140.991542
454.137008,-3627.009116,-11695.253884,-3907.087040
454.137331,-3849.070898,-10510.924376,-3600.648841
454.137653,-3478.967927,-7846.182985,-1532.190996
454.137975,-2442.679609,-7105.977043,-153.219100
454.138297,74.020594,-7994.224174,-383.047749
454.138620,1924.535449,-8660.409521,-612.876398
454.138942,3108.864956,-9104.533087,306.438199
454.139264,3849.070898,-8956.491898,1455.581446
454.139587,4737.318029,-8290.306550,919.314598
454.139909,4885.359217,-7920.203579,-306.438199
454.140231,4737.318029,-9030.512492,-1762.019645
454.140553,3997.112087,-11029.068536,-306.438199
454.140876,2664.741391,-10436.903782,919.314598
454.141198,592.164754,-8956.491898,-383.047749
454.141520,-962.267725,-9474.636058,-1685.410096
454.141842,-666.185348,-10140.821405,-2451.505594
454.142165,-592.164754,-9696.697840,-3140.991542
454.142487,-1850.514855,-8512.368333,-3907.087040
454.142809,-2294.638420,-7920.203579,-2911.162892
454.143132,-1406.391290,-8882.471304,-2604.724693
454.143454,-148.041188,-9104.533087,-3447.429741
454.143776,-592.164754,-9548.656652,-4290.134789
454.144098,-1850.514855,-11325.150913,-3753.867940
454.144421,-2368.659014,-11917.315666,-2451.505594
454.144743,-3034.844362,-10362.883188,-1608.800546
454.145065,-3923.091493,-8586.388927,-1532.190996
454.145387,-3404.947333,-8068.244768,-2451.505594
454.145710,-1998.556043,-8364.327145,-3600.648841
454.146032,-370.102971,-9474.636058,-2681.334243
454.146354,666.185348,-10584.944971,306.438199
454.146677,2146.597232,-9844.739029,1455.581446
454.146999,4663.297435,-9696.697840,0.000000
454.147321,5995.668130,-9770.718434,-1532.190996
454.147643,4885.359217,-10584.944971,-1225.752797
454.147966,2368.659014,-10288.862594,689.485948
454.148288,-1184.329507,-8734.430116,1072.533697
454.148610,-3923.091493,-8216.285956,0.000000
454.148932,-4441.235652,-8512.368333,-1685.410096
454.149255,-4145.153275,-8216.285956,-3753.867940
454.149577,-3552.988522,-9104.533087,-3830.477490
454.149899,-1776.494261,-9400.615463,-1302.362347
454.150222,-592.164754,-8660.409521,-536.266849
454.150544,518.144159,-7402.059420,-1378.971896
454.150866,-592.164754,-6365.771101,-2298.286494
454.151188,-3478.967927,-7550.100608,-3447.429741
454.151511,-6143.709319,-10436.903782,-5286.058936
454.151833,-7105.977043,-12583.501014,-5439.278036
454.152155,-8290.306550,-11621.233289,-2911.162892
454.152477,-7920.203579,-9474.636058,-1302.362347
454.152800,-4737.318029,-9400.615463,-1685.410096
454.153122,-370.102971,-9844.739029,-1378.971896
454.153444,1924.535449,-9104.533087,-1762.019645
454.153767,3330.926739,-8512.368333,-689.485948
454.154089,4367.215058,-8586.388927,1072.533697
454.154411,5033.400406,-8364.327145,1991.848295
454.154733,3627.009116,-8068.244768,1225.752797
454.155056,3034.844362,-8290.306550,766.095498
454.155378,2516.700203,-9474.636058,0.000000
454.155700,2664.741391,-11399.171507,-306.438199
454.156022,2516.700203,-11029.068536,1149.143247
454.156345,2368.659014,-8068.244768,1608.800546
454.156667,2368.659014,-7179.997637,-229.828649
454.156989,2368.659014,-8068.244768,-1378.971896
454.157312,1480.411884,-8364.327145,-1532.190996
454.157634,-370.102971,-7550.100608,-3294.210641
454.157956,-2590.720797,-7328.038826,-4136.915689
454.158278,-3997.112087,-8882.471304,-3294.210641
454.158601,-4441.235652,-10584.944971,-4290.134789
454.158923,-3997.112087,-12213.398043,-4903.011187
454.159245,-4663.297435,-11843.295072,-4213.525239
454.159567,-5107.421000,-10658.965565,-2757.943793
454.159890,-4737.318029,-10066.800811,-1455.581446
454.160212,-3108.864956,-9474.636058,-2145.067394
454.160534,-1258.350101,-9178.553681,-3753.867940
454.160857,888.247130,-9326.594869,-4213.525239
454.161179,3849.070898,-9474.636058,-1608.800546
454.161501,6143.709319,-9474.636058,766.095498
454.161823,7328.038826,-9030.512492,1685.410096
454.162146,6809.894666,-9400.615463,1762.019645
454.162468,6217.729913,-10658.965565,1685.410096
454.162790,4219.173869,-10807.006753,612.876398
454.163112,1406.391290,-9326.594869,-306.438199
454.163435,-296.082377,-7476.080014,-766.095498
454.163757,-888.247130,-6587.832884,-1378.971896
454.164079,-1036.288319,-7031.956449,-689.485948
454.164402,-1184.329507,-8142.265362,-1072.533697
454.164724,-1628.453072,-9474.636058,-1991.848295
454.165046,-1924.535449,-9992.780217,-2374.896044
454.165368,-3108.864956,-9474.636058,-2834.553343
454.165691,-4515.256246,-9622.677246,-3753.867940
454.166013,-6217.729913,-9696.697840,-5056.230287
454.166335,-6587.832884,-10732.986159,-5592.497135
454.166657,-6439.791695,-10807.006753,-5822.325785
454.166980,-6143.709319,-10436.903782,-4673.182538
454.167302,-5329.482782,-10288.862594,-3217.601092
454.167624,-3552.988522,-10807.006753,-3140.991542
454.167947,-888.247130,-11177.109724,-2987.772442
454.168269,740.205942,-10584.944971,-1455.581446
454.168592,2368.659014,-8956.491898,689.485948
454.168914,4145.153275,-6957.935855,1378.971896
454.169236,5847.626942,-6069.688724,306.438199
454.169559,5699.585753,-6513.812290,459.657299
454.169881,4515.256246,-8956.491898,1838.629195
454.170204,2368.659014,-10066.800811,2681.334243
454.170526,518.144159,-9770.718434,2757.943793
454.170848,-740.205942,-9030.512492,766.095498
454.171171,-444.123565,-9104.533087,-1302.362347
454.171493,814.226536,-8808.450710,-1838.629195
454.171816,962.267725,-8068.244768,-1685.410096
454.172138,370.102971,-8142.265362,-2068.457845
454.172461,-370.102971,-9326.594869,-2145.067394
454.172783,-2220.617826,-8808.450710,-4060.306139
454.173105,-5033.400406,-9474.636058,-6281.983084
454.173428,-5995.668130,-12361.439231,-6894.859482
454.173750,-5995.668130,-13841.851115,-6281.983084
454.174073,-6513.812290,-12213.398043,-4290.134789
454.174395,-5625.565159,-10362.883188,-2068.457845
454.174718,-4071.132681,-9178.553681,-1225.752797
454.175040,-1628.453072,-8364.327145,-2604.724693
454.175362,592.164754,-8142.265362,-3217.601092
454.175685,1702.473667,-7846.182985,-1072.533697
454.176007,3627.009116,-8068.244768,1532.190996
454.176330,5699.585753,-7698.141797,2681.334243
454.176652,7624.121203,-6809.894666,3294.210641
454.176974,8068.244768,-7328.038826,1302.362347
454.177297,6661.853478,-9178.553681,536.266849
454.177619,4515.256246,-10955.047942,1838.629195
454.177942,1776.494261,-9548.656652,2681.334243
454.178264,-1554.432478,-8882.471304,229.828649
454.178587,-2220.617826,-9770.718434,-1685.410096
454.178909,-962.267725,-9696.697840,-2834.553343
454.179231,0.000000,-8734.430116,-3753.867940
454.179554,-1258.350101,-7624.121203,-3524.039291
454.179876,-2220.617826,-8290.306550,-2145.067394
454.180199,-2442.679609,-9844.739029,-3064.381992
454.180521,-3256.906145,-11695.253884,-4903.011187
454.180843,-4737.318029,-11843.295072,-5056.230287
454.181166,-5477.523971,-12213.398043,-5209.449386
454.181488,-5477.523971,-11917.315666,-3907.087040
454.181811,-4145.153275,-10510.924376,-2068.457845
454.182133,-2368.659014,-8290.306550,-689.485948
454.182456,0.000000,-6883.915261,-1608.800546
454.182778,2664.741391,-7179.997637,-1455.581446
454.183100,3775.050304,-8216.285956,-1378.971896
454.183423,4293.194464,-8586.388927,153.219100
454.183745,4589.276840,-8660.409521,1762.019645
454.184068,4811.338623,-8956.491898,2451.505594
454.184390,4145.153275,-9400.615463,229.828649
454.184712,3108.864956,-11251.130318,-766.095498
454.185035,1258.350101,-11769.274478,0.000000
454.185357,-444.123565,-10140.821405,1149.143247
454.185680,-1406.391290,-8586.388927,0.000000
454.186002,-2146.597232,-7920.203579,-1762.019645
454.186325,-1406.391290,-8290.306550,-2604.724693
454.186647,-1332.370696,-8882.471304,-3140.991542
454.186969,-1998.556043,-9252.574275,-3140.991542
454.187292,-2960.823768,-9400.615463,-2298.286494
454.187614,-3923.091493,-8438.347739,-3064.381992
454.187937,-4589.276840,-8216.285956,-4443.353888
454.188259,-4737.318029,-10732.986159,-5056.230287
454.188582,-5477.523971,-11991.336260,-4903.011187
454.188904,-6291.750507,-11325.150913,-3753.867940
454.189226,-5995.668130,-10066.800811,-1838.629195
454.189549,-4071.132681,-9326.594869,-2298.286494
454.189871,-1628.453072,-9030.512492,-2987.772442
454.190194,370.102971,-9252.574275,-2834.553343
454.190516,2072.576638,-8808.450710,-612.876398
454.190838,3923.091493,-8364.327145,1838.629195
454.191161,5995.668130,-7698.141797,2145.067394
454.191483,6735.874072,-7698.141797,1149.143247
454.191806,6143.709319,-9104.533087,383.047749
454.192128,3923.091493,-11399.171507,689.485948
454.192451,1998.556043,-11251.130318,2145.067394
454.192773,-370.102971,-9178.553681,1532.190996
454.193095,-1998.556043,-7031.956449,0.000000
454.193418,-1258.350101,-7105.977043,-1302.362347
454.193740,-962.267725,-7698.141797,-2911.162892
454.194063,-1998.556043,-7920.203579,-3677.258390
454.194385,-2738.761985,-9252.574275,-2604.724693
454.194707,-3108.864956,-8882.471304,-2068.457845
454.195030,-3330.926739,-9548.656652,-4673.182538
454.195352,-4515.256246,-10362.883188,-5439.278036
454.195675,-5181.441594,-11621.233289,-5286.058936
454.195997,-4811.338623,-12361.439231,-4903.011187
454.196320,-3330.926739,-11695.253884,-3677.258390
454.196642,-2368.659014,-10288.862594,-2757.943793
454.196964,-2146.597232,-8882.471304,-1072.533697
454.197287,-148.041188,-8660.409521,-1149.143247
454.197609,1702.473667,-8882.471304,-2221.676944
454.197932,3701.029710,-8364.327145,-2145.067394
454.198254,5625.565159,-8216.285956,306.438199
454.198577,6513.812290,-7254.018232,2145.067394
454.198899,7476.080014,-7105.977043,1991.848295
454.199221,7624.121203,-8808.450710,1225.752797
454.199544,5847.626942,-10510.924376,1072.533697
454.199866,3775.050304,-11325.150913,919.314598
454.200189,1480.411884,-11029.068536,995.924147
454.200511,-148.041188,-9474.636058,383.047749
454.200833,-518.144159,-8512.368333,-1225.752797
454.201156,-666.185348,-8364.327145,-2681.334243
454.201478,-962.267725,-8808.450710,-2604.724693
454.201801,-1258.350101,-9326.594869,-1838.629195
454.202123,-2220.617826,-8512.368333,-3217.601092
454.202446,-2664.741391,-9474.636058,-3983.696590
454.202768,-3478.967927,-9918.759623,-4596.572988
454.203090,-4293.194464,-10214.842000,-4596.572988
454.203413,-4811.338623,-10658.965565,-4596.572988
454.203735,-4737.318029,-10510.924376,-4290.134789
454.204058,-4811.338623,-10214.842000,-3677.258390
454.204380,-3997.112087,-9548.656652,-2528.115143
454.204702,-2590.720797,-9844.739029,-2451.505594
454.205025,-444.123565,-10140.821405,-2528.115143
454.205347,1406.391290,-9400.615463,-2451.505594
454.205670,3108.864956,-8808.450710,153.219100
454.205992,3923.091493,-8364.327145,2145.067394
454.206315,3775.050304,-7994.224174,2068.457845
454.206637,2664.741391,-8068.244768,919.314598
454.206959,1258.350101,-9030.512492,-153.219100
454.207282,-222.061783,-10510.924376,229.828649
454.207604,-1184.329507,-9992.780217,842.705048
454.207927,-1110.308913,-8364.327145,306.438199
454.208249,148.041188,-8364.327145,-1225.752797
454.208572,1850.514855,-9474.636058,-995.924147
454.208894,1924.535449,-9326.594869,459.657299
454.209216,0.000000,-8142.265362,-689.485948
454.209539,-1258.350101,-7772.162391,-2528.115143
454.209861,-2664.741391,-8734.430116,-4673.182538
454.210184,-4663.297435,-9474.636058,-4596.572988
454.210506,-7920.203579,-9548.656652,-3907.087040
454.210828,-9696.697840,-11251.130318,-4136.915689
454.211151,-9918.759623,-11769.274478,-3447.429741
454.211473,-9030.512492,-10658.965565,-3600.648841
454.211796,-7476.080014,-9474.636058,-3907.087040
454.212118,-4219.173869,-9622.677246,-3677.258390
454.212441,-1184.329507,-9178.553681,-2604.724693
454.212763,2516.700203,-10436.903782,-1072.533697
454.213085,5033.400406,-8882.471304,1378.971896
454.213408,7846.182985,-8142.265362,1302.362347
454.213730,9030.512492,-7772.162391,76.609550
454.214053,8216.285956,-7920.203579,1532.190996
454.214375,6217.729913,-9474.636058,2145.067394
454.214697,4293.194464,-10436.903782,1455.581446
454.215020,2738.761985,-9474.636058,1225.752797
454.215342,1702.473667,-8808.450710,536.266849
454.215665,1184.329507,-7550.100608,-1072.533697
454.215987,888.247130,-7105.977043,-2145.067394
454.216310,1258.350101,-7994.224174,-1302.362347
454.216632,518.144159,-8734.430116,-1991.848295
454.216954,-592.164754,-8956.491898,-2068.457845
454.217277,-2886.803174,-8734.430116,-2987.772442
454.217599,-5033.400406,-9474.636058,-4136.915689
454.217922,-5403.503377,-11399.171507,-6665.030833
454.218244,-4589.276840,-12879.583391,-6818.249932
454.218566,-4071.132681,-12213.398043,-4903.011187
454.218889,-3552.988522,-11177.109724,-2681.334243
454.219211,-2368.659014,-10214.842000,-1762.019645
454.219534,370.102971,-10955.047942,-2145.067394
454.219856,1776.494261,-9918.759623,-3064.381992
454.220179,3256.906145,-8290.306550,-2757.943793
454.220501,4441.235652,-7402.059420,-612.876398
454.220823,5403.503377,-7179.997637,2221.676944
454.221146,5477.523971,-6513.812290,2604.724693
454.221468,3775.050304,-6661.853478,1608.800546
454.221791,2072.576638,-8808.450710,995.924147
454.222113,222.061783,-9622.677246,612.876398
454.222436,-1924.535449,-9474.636058,536.266849
454.222758,-2368.659014,-9770.718434,76.609550
454.223080,-2072.576638,-9400.615463,-766.095498
454.223403,-296.082377,-9622.677246,-1455.581446
454.223725,0.000000,-9696.697840,-1608.800546
454.224048,0.000000,-9400.615463,-1608.800546
454.224370,-740.205942,-9770.718434,-2068.457845
454.224692,-2220.617826,-9696.697840,-3524.039291
454.225015,-4367.215058,-9770.718434,-4366.744339
454.225337,-6957.935855,-10140.821405,-5056.230287
454.225660,-8734.430116,-11843.295072,-5362.668486
454.225982,-8734.430116,-11399.171507,-4519.963438
454.226305,-7698.141797,-9770.718434,-3753.867940
454.226627,-5181.441594,-9178.553681,-3370.820191
454.226949,-3849.070898,-9030.512492,-2451.505594
454.227272,-1776.494261,-10214.842000,-689.485948
454.227594,444.123565,-9474.636058,153.219100
454.227917,3182.885551,-7846.182985,536.266849
454.228239,5625.565159,-6957.935855,0.000000
454.228561,6365.771101,-7254.018232,306.438199
454.228884,4737.318029,-8068.244768,1762.019645
454.229206,2442.679609,-9474.636058,2221.676944
454.229529,666.185348,-10584.944971,1072.533697
454.229851,518.144159,-11177.109724,-229.828649
454.230174,-296.082377,-9918.759623,-1378.971896
454.230496,-222.061783,-9030.512492,-1608.800546
454.230818,1258.350101,-8956.491898,-229.828649
454.231141,888.247130,-7920.203579,153.219100
454.231463,0.000000,-7105.977043,0.000000
454.231786,-666.185348,-7772.162391,-2987.772442
454.232108,-2664.741391,-9030.512492,-4749.792088
454.232431,-5551.544565,-9474.636058,-4366.744339
454.232753,-8216.285956,-10140.821405,-4519.963438
454.233075,-7920.203579,-12509.480420,-5439.278036
454.233398,-6365.771101,-12435.459826,-4519.963438
454.233720,-4589.276840,-10881.027347,-3064.381992
454.234043,-2368.659014,-9104.533087,-2374.896044
454.234365,0.000000,-8660.409521,-2528.115143
454.234687,3034.844362,-8068.244768,-1762.019645
454.235010,5329.482782,-8142.265362,-766.095498
454.235332,6513.812290,-7476.080014,459.657299
454.235655,7254.018232,-7031.956449,1149.143247
454.235977,7476.080014,-7550.100608,536.266849
454.236300,6661.853478,-8734.430116,689.485948
454.236622,5181.441594,-11103.089130,2145.067394
454.236944,2960.823768,-11103.089130,2068.457845
454.237267,1110.308913,-8882.471304,1608.800546
454.237589,222.061783,-7328.038826,-383.047749
454.237912,0.000000,-7846.182985,-1838.629195
454.238234,666.185348,-8586.388927,-1149.143247
454.238556,-962.267725,-7476.080014,-1225.752797
454.238879,-2146.597232,-8956.491898,-1532.190996
454.239201,-3108.864956,-10436.903782,-2451.505594
454.239524,-3330.926739,-10955.047942,-3830.477490
454.239846,-4663.297435,-10436.903782,-5056.230287
454.240169,-5033.400406,-11843.295072,-5592.497135
454.240491,-5033.400406,-12953.603985,-5822.325785
454.240813,-5181.441594,-11621.233289,-3907.087040
454.241136,-5033.400406,-10732.986159,-2757.943793
454.241458,-3849.070898,-10288.862594,-2528.115143
454.241781,-1776.494261,-9178.553681,-3677.258390
454.242103,-222.061783,-8882.471304,-3753.867940
454.242426,1776.494261,-7846.182985,-1072.533697
454.242748,3034.844362,-7550.100608,1608.800546
454.243070,4515.256246,-7254.018232,1762.019645
454.243393,4737.318029,-6661.853478,995.924147
454.243715,3627.009116,-7846.182985,919.314598
454.244038,2072.576638,-9992.780217,306.438199
454.244360,-370.102971,-9992.780217,612.876398
454.244682,-2368.659014,-9030.512492,612.876398
454.245005,-3034.844362,-8512.368333,0.000000
454.245327,-1924.535449,-8290.306550,-1302.362347
454.245650,-962.267725,-8882.471304,-2451.505594
454.245972,-444.123565,-9474.636058,-2374.896044
454.246295,-962.267725,-9474.636058,-1915.238745
454.246617,-1406.391290,-9918.759623,-2604.724693
454.246939,-2368.659014,-10584.944971,-4213.525239
454.247262,-4441.235652,-11547.212695,-4673.182538
454.247584,-7179.997637,-11177.109724,-4443.353888
454.247907,-8142.265362,-11991.336260,-4749.792088
454.248229,-7698.141797,-12139.377449,-3983.696590
454.248551,-6513.812290,-10066.800811,-2298.286494
454.248874,-3627.009116,-8216.285956,-1378.971896
454.249196,-814.226536,-7031.956449,-1915.238745
454.249519,2220.617826,-7698.141797,-1072.533697
454.249841,4293.194464,-7624.121203,153.219100
454.250164,5773.606348,-6883.915261,1302.362347
454.250486,6069.688724,-7031.956449,1455.581446
454.250808,6291.750507,-7994.224174,0.000000
454.251131,5477.523971,-9918.759623,-383.047749
454.251453,3182.885551,-11029.068536,306.438199
454.251776,888.247130,-10807.006753,1838.629195
454.252098,0.000000,-9474.636058,766.095498
454.252421,0.000000,-8216.285956,-1915.238745
454.252743,888.247130,-8290.306550,-2681.334243
454.253065,740.205942,-8734.430116,-2298.286494
454.253388,74.020594,-9770.718434,-1608.800546
454.253710,-888.247130,-8660.409521,-306.438199
454.254033,-1850.514855,-8808.450710,-2451.505594
454.254355,-2590.720797,-10140.821405,-4596.572988
454.254677,-3330.926739,-11695.253884,-4749.792088
454.255000,-4219.173869,-12065.356855,-4903.011187
454.255322,-4219.173869,-12435.459826,-4596.572988
454.255645,-3404.947333,-11325.150913,-2528.115143
454.255967,-962.267725,-9918.759623,-1455.581446
454.256290,-296.082377,-8290.306550,-2068.457845
454.256612,888.247130,-7698.141797,-2834.553343
454.256934,1850.514855,-7476.080014,-2451.505594
454.257257,3034.844362,-8068.244768,-689.485948
454.257579,3404.947333,-7254.018232,1225.752797
454.257902,3256.906145,-7179.997637,1225.752797
454.258224,3034.844362,-7476.080014,0.000000
454.258546,2146.597232,-9104.533087,-459.657299
454.258869,814.226536,-10288.862594,229.828649
454.259191,-1036.288319,-10362.883188,1072.533697
454.259514,-1924.535449,-8956.491898,1225.752797
454.259836,-1554.432478,-7402.059420,-536.266849
454.260159,-592.164754,-7624.121203,-2068.457845
454.260481,370.102971,-9400.615463,-2221.676944
454.260803,740.205942,-10436.903782,-1608.800546
454.261126,592.164754,-9474.636058,-1608.800546
454.261448,-888.247130,-9548.656652,-2451.505594
454.261771,-3108.864956,-9770.718434,-2451.505594
454.262093,-5181.441594,-10288.862594,-4366.744339
454.262415,-6883.915261,-11695.253884,-5592.497135
454.262738,-7105.977043,-12731.542202,-5439.278036
454.263060,-6957.935855,-11029.068536,-3600.648841
454.263383,-5699.585753,-9622.677246,-2374.896044
454.263705,-4071.132681,-8586.388927,-1532.190996
454.264028,-962.267725,-9622.677246,-1991.848295
454.264350,1110.308913,-8956.491898,-2068.457845
454.264672,2442.679609,-8068.244768,-1302.362347
454.264995,3478.967927,-7772.162391,-306.438199
454.265317,4145.153275,-7328.038826,229.828649
454.265640,3627.009116,-7846.182985,306.438199
454.265962,2812.782580,-8660.409521,536.266849
454.266285,1628.453072,-10436.903782,-536.266849
454.266607,74.020594,-10510.924376,0.000000
454.266929,-740.205942,-9178.553681,0.000000
454.267252,-1036.288319,-7994.224174,-1072.533697
454.267574,-370.102971,-8364.327145,-1991.848295
454.267897,518.144159,-9252.574275,-1915.238745
454.268219,1776.494261,-9918.759623,-2145.067394
454.268541,814.226536,-9474.636058,-2757.943793
454.268864,-1110.308913,-10362.883188,-2451.505594
454.269186,-3552.988522,-9770.718434,-1915.238745
454.269509,-4293.194464,-10881.027347,-3677.258390
454.269831,-4293.194464,-12953.603985,-5515.887586
454.270154,-4293.194464,-12583.501014,-4903.011187
454.270476,-3552.988522,-10140.821405,-2221.676944
454.270798,-2368.659014,-8956.491898,-1915.238745
454.271121,-444.123565,-9030.512492,-1225.752797
454.271443,740.205942,-8438.347739,-1838.629195
454.271766,1850.514855,-8216.285956,-2528.115143
454.272088,3552.988522,-8660.409521,-1302.362347
454.272411,4737.318029,-8068.244768,536.266849
454.272733,4959.379811,-7254.018232,306.438199
454.273056,4737.318029,-7698.141797,612.876398
454.273378,4145.153275,-9252.574275,919.314598
454.273701,3034.844362,-10066.800811,919.314598
454.274023,1258.350101,-9474.636058,459.657299
454.274345,-222.061783,-8586.388927,229.828649
454.274668,-370.102971,-8290.306550,306.438199
454.274990,-740.205942,-7846.182985,-229.828649
454.275313,0.000000,-8512.368333,-1455.581446
454.275635,296.082377,-9474.636058,-1915.238745
454.275958,0.000000,-9104.533087,-2221.676944
454.276280,-666.185348,-9178.553681,-2068.457845
454.276603,-962.267725,-10140.821405,-2068.457845
454.276925,-2368.659014,-11991.336260,-3294.210641
454.277248,-4219.173869,-12435.459826,-4443.353888
454.277570,-5255.462188,-11843.295072,-4290.134789
454.277893,-5033.400406,-10955.047942,-3524.039291
454.278215,-3849.070898,-9178.553681,-2528.115143
454.278537,-2220.617826,-8586.388927,-2221.676944
454.278860,-592.164754,-8068.244768,-2221.676944
454.279182,888.247130,-8438.347739,-1991.848295
454.279505,1998.556043,-9104.533087,-612.876398
454.279827,2738.761985,-8438.347739,689.485948
454.280150,2886.803174,-7402.059420,0.000000
454.280472,2664.741391,-7698.141797,-459.657299
454.280795,1924.535449,-9104.533087,-229.828649
454.281117,0.000000,-9918.759623,842.705048
454.281440,-1924.535449,-10066.800811,1378.971896
454.281762,-2442.679609,-8660.409521,306.438199
454.282085,-2442.679609,-7254.018232,-2068.457845
454.282407,-1776.494261,-7920.203579,-2834.553343
454.282729,-444.123565,-8882.471304,-2145.067394
454.283052,740.205942,-9104.533087,-2221.676944
454.283374,1702.473667,-9548.656652,-1991.848295
454.283697,2368.659014,-10140.821405,-1915.238745
454.284019,0.000000,-10362.883188,-2757.943793
454.284342,-3478.967927,-10436.903782,-3294.210641
454.284664,-5847.626942,-11621.233289,-4213.525239
454.284987,-7031.956449,-11991.336260,-4979.620737
454.285309,-7846.182985,-11029.068536,-4596.572988
454.285632,-6735.874072,-9622.677246,-2681.334243
454.285954,-3997.112087,-8586.388927,-2221.676944
454.286277,-666.185348,-8290.306550,-2757.943793
454.286599,1998.556043,-7624.121203,-1915.238745
454.286921,3256.906145,-8438.347739,0.000000
454.287244,4071.132681,-8808.450710,0.000000
454.287566,4515.256246,-8660.409521,76.609550
454.287889,3627.009116,-8290.306550,-306.438199
454.288211,3182.885551,-9622.677246,-689.485948
454.288534,1998.556043,-11103.089130,-689.485948
454.288856,1776.494261,-10955.047942,459.657299
454.289179,666.185348,-8956.491898,612.876398
454.289501,1036.288319,-7179.997637,-612.876398
454.289824,1998.556043,-7624.121203,-2298.286494
454.290146,2368.659014,-8734.430116,-1991.848295
454.290469,2442.679609,-9622.677246,-1225.752797
454.290791,1036.288319,-8142.265362,-689.485948
454.291113,-592.164754,-8512.368333,-1991.848295
454.291436,-2664.741391,-9696.697840,-3294.210641
454.291758,-4367.215058,-11103.089130,-3677.258390
454.292081,-5625.565159,-11251.130318,-4136.915689
454.292403,-6439.791695,-11251.130318,-4290.134789
454.292726,-6069.688724,-11547.212695,-3294.210641
454.293048,-3627.009116,-10955.047942,-2298.286494
454.293371,-1850.514855,-9548.656652,-2987.772442
454.293693,814.226536,-9918.759623,-3140.991542
454.294016,2294.638420,-9252.574275,-1072.533697
454.294338,3552.988522,-9474.636058,-153.219100
454.294661,4515.256246,-7402.059420,536.266849
454.294983,4737.318029,-6809.894666,306.438199
454.295305,4663.297435,-7846.182985,766.095498
454.295628,4515.256246,-8882.471304,1532.190996
454.295950,2812.782580,-9474.636058,1225.752797
454.296273,1258.350101,-9622.677246,1532.190996
454.296595,370.102971,-8586.388927,1762.019645
454.296918,-370.102971,-7624.121203,306.438199
454.297240,-1036.288319,-7476.080014,-842.705048
454.297563,-1332.370696,-8068.244768,-689.485948
454.297885,-1332.370696,-9030.512492,-1915.238745
454.298208,-1332.370696,-8438.347739,-2451.505594
454.298530,-2368.659014,-9178.553681,-2528.115143
454.298853,-3404.947333,-10881.027347,-2681.334243
454.299175,-4515.256246,-11843.295072,-3294.210641
454.299497,-5699.585753,-11843.295072,-3447.429741
454.299820,-7179.997637,-11251.130318,-4213.525239
454.300142,-7550.100608,-10658.965565,-3830.477490
454.300465,-5773.606348,-9918.759623,-3524.039291
454.300787,-3701.029710,-7920.203579,-3217.601092
454.301110,-740.205942,-8956.491898,-3524.039291
454.301432,1702.473667,-8956.491898,-1225.752797
454.301755,3552.988522,-9252.574275,536.266849
454.302077,4737.318029,-8290.306550,1225.752797
454.302400,4589.276840,-7920.203579,1149.143247
454.302722,3478.967927,-8142.265362,919.314598
454.303045,2442.679609,-9178.553681,-689.485948
454.303367,1036.288319,-9844.739029,-536.266849
454.303689,-296.082377,-10436.903782,1149.143247
454.304012,-1110.308913,-9474.636058,1302.362347
454.304334,-370.102971,-8068.244768,-229.828649
454.304657,814.226536,-8068.244768,-2374.896044
454.304979,1850.514855,-9178.553681,-2451.505594
454.305302,2960.823768,-9844.739029,-1608.800546
454.305624,1924.535449,-8216.285956,-1608.800546
454.305947,0.000000,-8660.409521,-2221.676944
454.306269,-2146.597232,-9326.594869,-3294.210641
454.306592,-4515.256246,-9474.636058,-4979.620737
454.306914,-6291.750507,-10288.862594,-6741.640382
454.307237,-6809.894666,-12361.439231,-6205.373534
454.307559,-5551.544565,-12065.356855,-3753.867940
454.307881,-3182.885551,-10584.944971,-2834.553343
454.308204,-444.123565,-10214.842000,-2451.505594
454.308526,1480.411884,-10140.821405,-2528.115143
454.308849,3552.988522,-9474.636058,-1378.971896
454.309171,4737.318029,-7476.080014,-1532.190996
454.309494,5255.462188,-6661.853478,-536.266849
454.309816,4441.235652,-7994.224174,0.000000
454.310139,3478.967927,-9178.553681,459.657299
454.310461,2442.679609,-9844.739029,842.705048
454.310784,1554.432478,-10807.006753,1302.362347
454.311106,814.226536,-10510.924376,1685.410096
454.311429,296.082377,-8512.368333,459.657299
454.311751,296.082377,-7402.059420,-536.266849
454.312073,814.226536,-7254.018232,-1072.533697
454.312396,962.267725,-8216.285956,-1455.581446
454.312718,-296.082377,-8808.450710,-1762.019645
454.313041,-1924.535449,-8512.368333,-2374.896044
454.313363,-3182.885551,-9770.718434,-3447.429741
454.313686,-4293.194464,-11325.150913,-3600.648841
454.314008,-4811.338623,-12731.542202,-3983.696590
454.314331,-5921.647536,-12805.562797,-4903.011187
454.314653,-6291.750507,-11917.315666,-3294.210641
454.314976,-4811.338623,-9770.718434,-2528.115143
454.315298,-2960.823768,-9030.512492,-2604.724693
454.315621,-1480.411884,-8364.327145,-2834.553343
454.315943,-740.205942,-7254.018232,-2374.896044
454.316265,296.082377,-7698.141797,-766.095498
454.316588,1776.494261,-8364.327145,383.047749
454.316910,2516.700203,-8216.285956,919.314598
454.317233,2738.761985,-7550.100608,153.219100
454.317555,2294.638420,-7550.100608,0.000000
454.317878,1998.556043,-9252.574275,1378.971896
454.318200,888.247130,-9918.759623,2374.896044
454.318523,-740.205942,-9104.533087,1378.971896
454.318845,-1702.473667,-8660.409521,76.609550
454.319168,-962.267725,-9104.533087,-1378.971896
454.319490,-222.061783,-9400.615463,-2528.115143
454.319812,0.000000,-9104.533087,-1685.410096
454.320135,-666.185348,-9030.512492,-612.876398
454.320457,-518.144159,-9178.553681,-1302.362347
454.320780,-592.164754,-9548.656652,-2911.162892
454.321102,-2146.597232,-10140.821405,-3907.087040
454.321425,-4071.132681,-10658.965565,-3447.429741
454.321747,-5477.523971,-10732.986159,-3370.820191
454.322070,-5773.606348,-10140.821405,-3830.477490
454.322392,-5477.523971,-9178.553681,-3140.991542
454.322715,-4145.153275,-8956.491898,-2528.115143
454.323037,-2664.741391,-8808.450710,-3140.991542
454.323360,74.020594,-9770.718434,-3140.991542
454.323682,2220.617826,-10140.821405,-1455.581446
454.324004,3478.967927,-10214.842000,-612.876398
454.324327,4885.359217,-9992.780217,0.000000
454.324649,5699.585753,-9252.574275,0.000000
454.324972,4811.338623,-8364.327145,76.609550
454.325294,3997.112087,-9622.677246,0.000000
454.325617,2368.659014,-10436.903782,1072.533697
454.325939,592.164754,-9696.697840,1532.190996
454.326262,-296.082377,-8438.347739,0.000000
454.326584,-222.061783,-7846.182985,-1685.410096
454.326907,444.123565,-7994.224174,-1378.971896
454.327229,1480.411884,-8290.306550,-766.095498
454.327552,1554.432478,-7624.121203,-995.924147
454.327874,1702.473667,-8068.244768,-1915.238745
454.328196,1036.288319,-9252.574275,-2834.553343
454.328519,-666.185348,-9696.697840,-2681.334243
454.328841,-3256.906145,-9844.739029,-3830.477490
454.329164,-5033.400406,-11103.089130,-5439.278036
454.329486,-5329.482782,-12213.398043,-5439.278036
454.329809,-4885.359217,-11473.192101,-3830.477490
454.330131,-3997.112087,-10436.903782,-2451.505594
454.330454,-1924.535449,-9770.718434,-2451.505594
454.330776,-1036.288319,-8586.388927,-2528.115143
454.331099,148.041188,-8956.491898,-1991.848295
454.331421,1332.370696,-8956.491898,-229.828649
454.331744,2590.720797,-8512.368333,76.609550
454.332066,2886.803174,-8068.244768,0.000000
454.332388,2590.720797,-7476.080014,842.705048
454.332711,2220.617826,-7920.203579,1532.190996
454.333033,1702.473667,-9178.553681,153.219100
454.333356,888.247130,-10288.862594,306.438199
454.333678,1110.308913,-9918.759623,536.266849
454.334001,74.020594,-9326.594869,-1072.533697
454.334323,-370.102971,-9844.739029,-1455.581446
454.334646,-592.164754,-9918.759623,-1149.143247
454.334968,-1850.514855,-9474.636058,-1685.410096
454.335291,-2516.700203,-8142.265362,-2298.286494
454.335613,-2886.803174,-7476.080014,-2987.772442
454.335936,-2960.823768,-8660.409521,-4596.572988
454.336258,-3478.967927,-10732.986159,-4443.353888
454.336580,-4737.318029,-11917.315666,-3447.429741
454.336903,-6291.750507,-12065.356855,-2528.115143
454.337225,-6809.894666,-10362.883188,-1455.581446
454.337548,-5477.523971,-8660.409521,-2145.067394
454.337870,-3923.091493,-8364.327145,-3983.696590
454.338193,-1998.556043,-8734.430116,-3600.648841
454.338515,296.082377,-8660.409521,-1455.581446
454.338838,2220.617826,-8142.265362,383.047749
454.339160,3701.029710,-7846.182985,1685.410096
454.339483,4367.215058,-8808.450710,766.095498
454.339805,3404.947333,-8586.388927,0.000000
454.340128,2220.617826,-9400.615463,-459.657299
454.340450,1110.308913,-10881.027347,-383.047749
454.340772,0.000000,-11029.068536,153.219100
454.341095,-148.041188,-9918.759623,689.485948
454.341417,222.061783,-8216.285956,-306.438199
454.341740,1628.453072,-8216.285956,-2451.505594
454.342062,2590.720797,-8438.347739,-1838.629195
454.342385,2368.659014,-8216.285956,-689.485948
454.342707,1406.391290,-7402.059420,-612.876398
454.343030,518.144159,-6883.915261,-1455.581446
454.343352,-222.061783,-7994.224174,-4136.915689
454.343675,-1850.514855,-10362.883188,-5362.668486
454.343997,-3923.091493,-11103.089130,-4443.353888
454.344320,-6439.791695,-11103.089130,-2834.553343
454.344642,-6587.832884,-9992.780217,-1762.019645
454.344964,-4811.338623,-10436.903782,-3217.601092
454.345287,-1924.535449,-10584.944971,-4673.182538
454.345609,-814.226536,-9992.780217,-4903.011187
454.345932,1184.329507,-9918.759623,-2987.772442
454.346254,3775.050304,-9844.739029,-459.657299
454.346577,5699.585753,-8956.491898,-153.219100
454.346899,6883.915261,-8068.244768,-1149.143247
454.347222,5921.647536,-9252.574275,-383.047749
454.347544,4219.173869,-11399.171507,1608.800546
454.347867,2368.659014,-11399.171507,1685.410096
454.348189,592.164754,-9474.636058,459.657299
454.348512,148.041188,-7994.224174,-536.266849
454.348834,1110.308913,-7920.203579,-1072.533697
454.349156,1702.473667,-7254.018232,-1532.190996
454.349479,296.082377,-6957.935855,-1149.143247
454.349801,-148.041188,-8438.347739,0.000000
454.350124,-1480.411884,-8290.306550,-459.657299
454.350446,-2886.803174,-8956.491898,-3294.210641
454.350769,-4737.318029,-10881.027347,-4979.620737
454.351091,-6809.894666,-11917.315666,-4979.620737
454.351414,-8290.306550,-12731.542202,-5132.839837
454.351736,-9104.533087,-11769.274478,-3370.820191
454.352059,-8808.450710,-10214.842000,-2298.286494
454.352381,-7402.059420,-8956.491898,-2374.896044
454.352704,-5033.400406,-8438.347739,-3677.258390
454.353026,-2368.659014,-8808.450710,-4366.744339
454.353348,-518.144159,-9400.615463,-2221.676944
454.353671,1924.535449,-8882.471304,383.047749
454.353993,3182.885551,-7772.162391,1915.238745
454.354316,3552.988522,-7402.059420,2068.457845
454.354638,3182.885551,-7031.956449,919.314598
454.354961,2442.679609,-7698.141797,-383.047749
454.355283,1480.411884,-9770.718434,-612.876398
454.355606,888.247130,-10807.006753,383.047749
454.355928,148.041188,-9992.780217,1149.143247
454.356251,444.123565,-8586.388927,229.828649
454.356573,1036.288319,-9252.574275,459.657299
454.356896,1258.350101,-9474.636058,-536.266849
454.357218,-222.061783,-7550.100608,-2068.457845
454.357540,-1554.432478,-6587.832884,-2451.505594
454.357863,-2368.659014,-8216.285956,-2987.772442
454.358185,-1776.494261,-10436.903782,-3983.696590
454.358508,-2368.659014,-11843.295072,-4826.401637
454.358830,-3627.009116,-11695.253884,-3524.039291
454.359153,-5033.400406,-10732.986159,-2221.676944
454.359475,-4959.379811,-10140.821405,-2374.896044
454.359798,-3627.009116,-9400.615463,-2451.505594
454.360120,-1258.350101,-8808.450710,-3600.648841
454.360443,148.041188,-8068.244768,-5056.230287
454.360765,1924.535449,-8956.491898,-2528.115143
454.361088,4441.235652,-10214.842000,766.095498
454.361410,6365.771101,-9622.677246,1685.410096
454.361732,6217.729913,-8142.265362,919.314598
454.362055,5699.585753,-9326.594869,0.000000
454.362377,4515.256246,-10362.883188,153.219100
454.362700,2590.720797,-9844.739029,153.219100
454.363022,740.205942,-8956.491898,995.924147
454.363345,666.185348,-8438.347739,229.828649
454.363667,2146.597232,-8068.244768,-1608.800546
454.363990,2442.679609,-8142.265362,-1685.410096
454.364312,2812.782580,-8734.430116,-689.485948
454.364635,2516.700203,-9030.512492,-536.266849
454.364957,1184.329507,-8438.347739,-1608.800546
454.365280,444.123565,-8660.409521,-3217.601092
454.365602,-1998.556043,-9326.594869,-4213.525239
454.365924,-4811.338623,-9992.780217,-4443.353888
454.366247,-7476.080014,-10881.027347,-4443.353888
454.366569,-8734.430116,-11399.171507,-4060.306139
454.366892,-7772.162391,-11473.192101,-4060.306139
454.367214,-5995.668130,-10362.883188,-4519.963438
454.367537,-3552.988522,-10807.006753,-3447.429741
454.367859,-1554.432478,-10881.027347,-3217.601092
454.368182,370.102971,-10066.800811,-1532.190996
454.368504,2220.617826,-8882.471304,-842.705048
454.368827,3775.050304,-7624.121203,459.657299
454.369149,3552.988522,-8142.265362,-383.047749
454.369472,2368.659014,-8216.285956,-229.828649
454.369794,1332.370696,-8216.285956,1455.581446
454.370116,1480.411884,-8364.327145,1149.143247
454.370439,1184.329507,-10140.821405,-383.047749
454.370761,1406.391290,-10881.027347,76.609550
454.371084,518.144159,-8808.450710,459.657299
454.371406,-592.164754,-7772.162391,-306.438199
454.371729,-814.226536,-8956.491898,-229.828649
454.372051,-1036.288319,-8956.491898,-536.266849
454.372374,-2738.761985,-6587.832884,-2987.772442
454.372697,-4589.276840,-7550.100608,-4366.744339
454.373019,-4737.318029,-10881.027347,-3217.601092
454.373342,-4071.132681,-13101.645173,-3830.477490
454.373664,-4737.318029,-13619.789333,-5132.839837
454.373987,-5699.585753,-13175.665768,-2757.943793
454.374309,-6809.894666,-10955.047942,-612.876398
454.374632,-6069.688724,-9030.512492,-1915.238745
454.374954,-3701.029710,-7402.059420,-3830.477490
454.375277,-2294.638420,-6143.709319,-4596.572988
454.375599,888.247130,-6735.874072,-3600.648841
454.375922,3404.947333,-8364.327145,0.000000
454.376244,5625.565159,-10066.800811,2757.943793
454.376567,6143.709319,-10584.944971,2145.067394
454.376889,5107.421000,-9918.759623,842.705048
454.377212,4219.173869,-9770.718434,1302.362347
454.377535,2146.597232,-9178.553681,1455.581446
454.377857,74.020594,-7994.224174,153.219100
454.378180,222.061783,-8068.244768,-536.266849
454.378502,1924.535449,-7920.203579,-612.876398
454.378825,2886.803174,-7476.080014,-1455.581446
454.379147,3775.050304,-8290.306550,-919.314598
454.379470,3478.967927,-9548.656652,229.828649
454.379792,1850.514855,-9326.594869,-1149.143247
454.380115,370.102971,-8882.471304,-3217.601092
454.380437,-1628.453072,-8586.388927,-4903.011187
454.380760,-2886.803174,-9622.677246,-6281.983084
454.381082,-4367.215058,-12287.418637,-6894.859482
454.381405,-5773.606348,-11843.295072,-2911.162892
454.381727,-7031.956449,-9474.636058,-842.705048
454.382050,-5995.668130,-9104.533087,-2681.334243
454.382372,-2960.823768,-10066.800811,-4366.744339
454.382695,74.020594,-11029.068536,-5362.668486
454.383018,518.144159,-10066.800811,-4443.353888
454.383340,2368.659014,-10066.800811,-1225.752797
454.383663,5181.441594,-9474.636058,1838.629195
454.383985,7328.038826,-8808.450710,383.047749
454.384308,6587.832884,-8586.388927,-229.828649
454.384630,4219.173869,-8734.430116,2374.896044
454.384953,3701.029710,-9992.780217,2911.162892
454.385275,3256.906145,-10066.800811,0.000000
454.385598,2220.617826,-9992.780217,-459.657299
454.385920,1406.391290,-7920.203579,0.000000
454.386243,1258.350101,-6661.853478,-1072.533697
454.386565,1258.350101,-7328.038826,-1532.190996
454.386888,0.000000,-7772.162391,-919.314598
454.387210,-2442.679609,-8068.244768,-1991.848295
454.387533,-4441.235652,-8216.285956,-4366.744339
454.387856,-5773.606348,-10436.903782,-4826.401637
454.388178,-6883.915261,-13027.624579,-5209.449386
454.388501,-8364.327145,-13989.892304,-7354.516781
454.388823,-9474.636058,-12657.521608,-4826.401637
454.389146,-9844.739029,-11029.068536,-2068.457845
454.389468,-8364.327145,-8734.430116,-1991.848295
454.389791,-5181.441594,-9400.615463,-4366.744339
454.390113,-2442.679609,-9178.553681,-4596.572988
454.390436,-592.164754,-9326.594869,-2757.943793
454.390758,1628.453072,-8586.388927,-536.266849
454.391081,3997.112087,-7402.059420,2681.334243
454.391403,5403.503377,-7476.080014,3064.381992
454.391726,4737.318029,-7105.977043,1302.362347
454.392048,3775.050304,-6883.915261,919.314598
454.392371,2886.803174,-8364.327145,766.095498
454.392693,1628.453072,-11103.089130,306.438199
454.393016,518.144159,-10214.842000,459.657299
454.393339,-148.041188,-8660.409521,0.000000
454.393661,1258.350101,-8808.450710,0.000000
454.393984,3182.885551,-9252.574275,229.828649
454.394306,1702.473667,-7476.080014,-1532.190996
454.394629,-888.247130,-6809.894666,-2145.067394
454.394951,-2072.576638,-9178.553681,-2604.724693
454.395274,-3034.844362,-11547.212695,-3983.696590
454.395596,-3775.050304,-11399.171507,-4903.011187
454.395919,-5329.482782,-10436.903782,-6741.640382
454.396241,-7105.977043,-12509.480420,-5209.449386
454.396564,-6439.791695,-13693.809927,-76.609550
454.396886,-6587.832884,-9844.739029,459.657299
454.397209,-5181.441594,-7402.059420,-3294.210641
454.397531,-1258.350101,-7476.080014,-5209.449386
454.397854,1628.453072,-7920.203579,-3830.477490
454.398177,3404.947333,-8216.285956,-1991.848295
454.398499,5033.400406,-8364.327145,459.657299
454.398822,7031.956449,-9992.780217,2834.553343
454.399144,7476.080014,-11177.109724,1302.362347
454.399467,6587.832884,-9918.759623,1532.190996
454.399789,4293.194464,-9178.553681,2681.334243
454.400112,3849.070898,-9030.512492,229.828649
454.400434,3404.947333,-9178.553681,-153.219100
454.400757,3552.988522,-7328.038826,1149.143247
454.401079,3034.844362,-5551.544565,229.828649
454.401402,3552.988522,-7328.038826,-1378.971896
454.401724,3997.112087,-9178.553681,-919.314598
454.402047,1628.453072,-9252.574275,-1225.752797
454.402369,-962.267725,-8956.491898,-3140.991542
454.402692,-2960.823768,-9474.636058,-4596.572988
454.403014,-4663.297435,-11177.109724,-5515.887586
454.403337,-6513.812290,-12065.356855,-5822.325785
454.403660,-9104.533087,-10658.965565,-3830.477490
454.403982,-9548.656652,-10066.800811,-4060.306139
454.404305,-7402.059420,-10807.006753,-4366.744339
454.404627,-3627.009116,-10807.006753,-4290.134789
454.404950,-2294.638420,-10140.821405,-4366.744339
454.405272,-1036.288319,-10658.965565,-2221.676944
454.405595,1628.453072,-9992.780217,76.609550
454.405917,5107.421000,-8882.471304,766.095498
454.406240,5847.626942,-7476.080014,0.000000
454.406562,5033.400406,-5921.647536,919.314598
454.406885,3997.112087,-6587.832884,995.924147
454.407207,2590.720797,-8586.388927,919.314598
454.407530,1628.453072,-10288.862594,1685.410096
454.407852,-370.102971,-9918.759623,153.219100
454.408175,-962.267725,-8512.368333,-2145.067394
454.408498,-1184.329507,-9326.594869,-612.876398
454.408820,-296.082377,-10658.965565,229.828649
454.409143,-592.164754,-9474.636058,-1378.971896
454.409465,-1702.473667,-7328.038826,-3753.867940
454.409788,-2516.700203,-8438.347739,-3830.477490
454.410110,-3182.885551,-10807.006753,-3447.429741
454.410433,-4219.173869,-11917.315666,-5209.449386
454.410755,-6809.894666,-12657.521608,-5209.449386
454.411078,-8808.450710,-13323.706956,-2987.772442
454.411400,-9326.594869,-12065.356855,-1378.971896
454.411723,-7402.059420,-10436.903782,-2145.067394
454.412045,-5033.400406,-7031.956449,-4903.011187
454.412368,-444.123565,-7254.018232,-5592.497135
454.412690,2368.659014,-7402.059420,-2298.286494
454.413013,3997.112087,-8068.244768,1915.238745
454.413335,5551.544565,-7698.141797,2451.505594
454.413658,6291.750507,-8734.430116,-306.438199
454.413981,5033.400406,-10214.842000,-995.924147
454.414303,2220.617826,-10807.006753,1532.190996
454.414626,-518.144159,-9918.759623,1915.238745
454.414948,-1110.308913,-9030.512492,536.266849
454.415271,0.000000,-8808.450710,-383.047749
454.415593,1776.494261,-7698.141797,-1225.752797
454.415916,2960.823768,-6735.874072,-306.438199
454.416238,2294.638420,-7698.141797,153.219100
454.416561,2072.576638,-10066.800811,383.047749
454.416883,2368.659014,-10214.842000,-1532.190996
454.417206,1110.308913,-9622.677246,-3753.867940
454.417528,-1406.391290,-9178.553681,-3447.429741
454.417851,-3552.988522,-9252.574275,-3294.210641
454.418173,-5033.400406,-9474.636058,-4443.353888
454.418496,-5329.482782,-11103.089130,-4213.525239
454.418819,-4885.359217,-11621.233289,-3447.429741
454.419141,-3404.947333,-10807.006753,-3370.820191
454.419464,-740.205942,-11177.109724,-2987.772442
454.419786,518.144159,-10955.047942,-2528.115143
454.420109,2146.597232,-10510.924376,-1302.362347
454.420431,3330.926739,-8216.285956,-383.047749
454.420754,4441.235652,-6365.771101,1532.190996
454.421076,5181.441594,-6809.894666,-153.219100
454.421399,4959.379811,-7994.224174,-689.485948
454.421721,3552.988522,-9104.533087,1532.190996
454.422044,2146.597232,-9844.739029,3753.867940
454.422366,592.164754,-9474.636058,2604.724693
454.422689,0.000000,-8808.450710,689.485948
454.423011,0.000000,-7846.182985,-1072.533697
454.423334,296.082377,-7031.956449,-1838.629195
454.423656,592.164754,-7550.100608,-1455.581446
454.423979,148.041188,-7550.100608,-1225.752797
454.424302,222.061783,-8142.265362,-2757.943793
454.424624,-518.144159,-9696.697840,-4596.572988
454.424947,-2812.782580,-11029.068536,-4673.182538
454.425269,-5995.668130,-12435.459826,-4596.572988
454.425592,-8142.265362,-13767.830521,-4903.011187
454.425914,-9104.533087,-13619.789333,-4903.011187
454.426237,-8734.430116,-12287.418637,-3983.696590
454.426559,-6809.894666,-9474.636058,-3524.039291
454.426882,-4515.256246,-7476.080014,-3677.258390
454.427204,-1628.453072,-8660.409521,-3064.381992
454.427527,1332.370696,-8438.347739,-995.924147
454.427849,3997.112087,-8808.450710,1149.143247
454.428172,5329.482782,-8216.285956,2068.457845
454.428494,5477.523971,-7624.121203,1225.752797
454.428817,4959.379811,-7846.182985,-229.828649
454.429139,3182.885551,-8660.409521,-153.219100
454.429462,444.123565,-8438.347739,1991.848295
454.429785,-1480.411884,-9474.636058,2068.457845
454.430107,-2072.576638,-8956.491898,-383.047749
454.430430,-1036.288319,-9474.636058,-2987.772442
454.430752,0.000000,-10362.883188,-2604.724693
454.431075,-814.226536,-9770.718434,-689.485948
454.431397,-888.247130,-7994.224174,-536.266849
454.431720,-370.102971,-8438.347739,-3907.087040
454.432042,-1406.391290,-9622.677246,-5515.887586
454.432365,-3997.112087,-9992.780217,-4443.353888
454.432687,-7031.956449,-9918.759623,-4290.134789
454.433010,-7920.203579,-11991.336260,-4903.011187
454.433332,-7105.977043,-12953.603985,-4749.792088
454.433655,-5699.585753,-11325.150913,-2451.505594
454.433977,-3108.864956,-8068.244768,-2145.067394
454.434300,518.144159,-7328.038826,-2757.943793
454.434623,2368.659014,-7550.100608,-1685.410096
454.434945,4589.276840,-8290.306550,0.000000
454.435268,5329.482782,-7698.141797,0.000000
454.435590,5551.544565,-7550.100608,612.876398
454.435913,5699.585753,-9474.636058,536.266849
454.436235,5255.462188,-11251.130318,0.000000
454.436558,3256.906145,-12139.377449,1685.410096
454.436880,1406.391290,-11251.130318,2834.553343
454.437203,1036.288319,-9030.512492,2068.457845
454.437525,1406.391290,-7402.059420,-306.438199
454.437848,2294.638420,-6809.894666,-1455.581446
454.438170,2812.782580,-6883.915261,-1378.971896
454.438493,1332.370696,-7105.977043,-842.705048
454.438815,1184.329507,-9104.533087,-229.828649
454.439138,1110.308913,-10584.944971,-2145.067394
454.439460,-222.061783,-10140.821405,-3600.648841
454.439783,-2146.597232,-9622.677246,-4213.525239
454.440106,-4071.132681,-10732.986159,-4443.353888
454.440428,-5625.565159,-11695.253884,-4826.401637
454.440751,-6661.853478,-11325.150913,-4290.134789
454.441073,-7031.956449,-10066.800811,-2681.334243
454.441396,-5033.400406,-9474.636058,-3370.820191
454.441718,-4071.132681,-9104.533087,-3907.087040
454.442041,-1258.350101,-11177.109724,-2451.505594
454.442363,0.000000,-10066.800811,-842.705048
454.442686,2294.638420,-9030.512492,1149.143247
454.443008,4293.194464,-7550.100608,1915.238745
454.443331,5995.668130,-7105.977043,689.485948
454.443653,4589.276840,-7179.997637,-229.828649
454.443976,2368.659014,-7624.121203,1608.800546
454.444298,0.000000,-8586.388927,3217.601092
454.444621,-1184.329507,-9474.636058,2221.676944
454.444944,-1332.370696,-9104.533087,-1225.752797
454.445266,74.020594,-9030.512492,-2528.115143
454.445589,888.247130,-8734.430116,-1685.410096
454.445911,148.041188,-8438.347739,-536.266849
454.446234,-296.082377,-8808.450710,-612.876398
454.446556,-370.102971,-9178.553681,-2987.772442
454.446879,-1332.370696,-9622.677246,-5209.449386
454.447201,-3849.070898,-11103.089130,-5286.058936
454.447524,-6883.915261,-11621.233289,-4443.353888
454.447846,-8438.347739,-11843.295072,-4596.572988
454.448169,-8586.388927,-12139.377449,-4290.134789
454.448491,-6291.750507,-11843.295072,-2757.943793
454.448814,-3849.070898,-10140.821405,-2298.286494
454.449136,-2442.679609,-7698.141797,-2987.772442
454.449459,592.164754,-8068.244768,-2604.724693
454.449781,3182.885551,-8512.368333,-1302.362347
454.450104,5107.421000,-7994.224174,459.657299
454.450427,5847.626942,-6661.853478,1225.752797
454.450749,5329.482782,-7179.997637,229.828649
454.451072,4885.359217,-9622.677246,-919.314598
454.451394,3256.906145,-11399.171507,459.657299
454.451717,444.123565,-11177.109724,2374.896044
454.452039,-1406.391290,-9474.636058,1838.629195
454.452362,-740.205942,-8734.430116,-612.876398
454.452684,1110.308913,-8142.265362,-2987.772442
454.453007,1554.432478,-7254.018232,-2987.772442
454.453329,1702.473667,-8512.368333,-1991.848295
454.453652,888.247130,-7846.182985,-612.876398
454.453974,666.185348,-9326.594869,-1532.190996
454.454297,-740.205942,-10140.821405,-3447.429741
454.454619,-2886.803174,-10140.821405,-4673.182538
454.454942,-5329.482782,-11103.089130,-5592.497135
454.455265,-6587.832884,-11769.274478,-4519.963438
454.455587,-6513.812290,-11621.233289,-3064.381992
454.455910,-4737.318029,-10288.862594,-2834.553343
454.456232,-2294.638420,-8808.450710,-3677.258390
454.456555,-592.164754,-8882.471304,-3370.820191
454.456877,962.267725,-9992.780217,-1685.410096
454.457200,2590.720797,-9770.718434,-153.219100
454.457522,3923.091493,-8882.471304,0.000000
454.457845,4663.297435,-8660.409521,689.485948
454.458167,4589.276840,-8068.244768,919.314598
454.458490,3034.844362,-7994.224174,459.657299
454.458812,1406.391290,-9104.533087,919.314598
454.459135,370.102971,-9252.574275,1838.629195
454.459457,-444.123565,-8586.388927,919.314598
454.459780,0.000000,-7698.141797,0.000000
454.460102,814.226536,-7624.121203,-995.924147
454.460425,2220.617826,-8290.306550,-1149.143247
454.460748,2072.576638,-8808.450710,-2221.676944
454.461070,1258.350101,-8808.450710,-1532.190996
454.461393,0.000000,-9474.636058,-2145.067394
454.461715,-1480.411884,-9918.759623,-3370.820191
454.462038,-3404.947333,-10658.965565,-4903.011187
454.462360,-5403.503377,-11103.089130,-5439.278036
454.462683,-7179.997637,-11917.315666,-4749.792088
454.463005,-7476.080014,-11621.233289,-3370.820191
454.463328,-6365.771101,-10881.027347,-2451.505594
454.463650,-5699.585753,-8956.491898,-3064.381992
454.463973,-3627.009116,-9474.636058,-2757.943793
454.464295,-962.267725,-9622.677246,-1991.848295
454.464618,592.164754,-9992.780217,-383.047749
454.464940,2294.638420,-8808.450710,1302.362347
454.465263,3849.070898,-7476.080014,1455.581446
454.465586,4589.276840,-7105.977043,-306.438199
454.465908,4737.318029,-8216.285956,-306.438199
454.466231,2738.761985,-9252.574275,995.924147
454.466553,740.205942,-9548.656652,1838.629195
454.466876,-296.082377,-9104.533087,306.438199
454.467198,-222.061783,-9104.533087,-1149.143247
454.467521,0.000000,-9030.512492,-1608.800546
454.467843,1110.308913,-9770.718434,-995.924147
454.468166,444.123565,-9252.574275,-995.924147
454.468488,518.144159,-8438.347739,-1991.848295
454.468811,740.205942,-8734.430116,-3217.601092
454.469133,518.144159,-9918.759623,-3140.991542
454.469456,-1776.494261,-10955.047942,-3753.867940
454.469778,-4811.338623,-11177.109724,-2834.553343
454.470101,-7179.997637,-10807.006753,-3064.381992
454.470423,-7550.100608,-11029.068536,-3983.696590
454.470746,-6365.771101,-10658.965565,-3907.087040
454.471069,-4367.215058,-8586.388927,-3600.648841
454.471391,-1924.535449,-7698.141797,-3753.867940
454.471714,814.226536,-8956.491898,-2374.896044
454.472036,3478.967927,-9770.718434,0.000000
454.472359,4959.379811,-8734.430116,0.000000
454.472681,5329.482782,-7772.162391,-229.828649
454.473004,4589.276840,-8808.450710,0.000000
454.473326,3182.885551,-10288.862594,-766.095498
454.473649,1036.288319,-10658.965565,459.657299
454.473971,-1036.288319,-9400.615463,2757.943793
454.474294,-962.267725,-8364.327145,1532.190996
454.474617,296.082377,-7105.977043,-919.314598
454.474939,2368.659014,-6735.874072,-2451.505594
454.475262,2516.700203,-6439.791695,-1991.848295
454.475584,2812.782580,-8364.327145,-153.219100
454.475907,2590.720797,-9030.512492,153.219100
454.476229,2368.659014,-9622.677246,-3524.039291
454.476552,962.267725,-10436.903782,-5056.230287
454.476874,-2738.761985,-10066.800811,-4903.011187
454.477197,-5625.565159,-10807.006753,-4826.401637
454.477519,-6291.750507,-12731.542202,-4903.011187
454.477842,-5551.544565,-12509.480420,-4596.572988
454.478164,-3997.112087,-10881.027347,-4903.011187
454.478487,-3108.864956,-9622.677246,-4366.744339
454.478810,-1850.514855,-11177.109724,-2911.162892
454.479132,-1110.308913,-11103.089130,-1838.629195
454.479455,148.041188,-10066.800811,-995.924147
454.479777,1850.514855,-7920.203579,-306.438199
454.480100,3552.988522,-7031.956449,383.047749
454.480422,4367.215058,-7402.059420,153.219100
454.480745,3775.050304,-7105.977043,1838.629195
454.481067,1776.494261,-7254.018232,3600.648841
454.481390,222.061783,-7698.141797,3447.429741
454.481712,296.082377,-8882.471304,153.219100
454.482035,1184.329507,-9474.636058,-1991.848295
454.482358,1258.350101,-9178.553681,-2528.115143
454.482680,814.226536,-8438.347739,-612.876398
454.483003,-592.164754,-8364.327145,919.314598
454.483325,-1776.494261,-8142.265362,-689.485948
454.483648,-1924.535449,-8808.450710,-4903.011187
454.483970,-3256.906145,-11251.130318,-7201.297681
454.484293,-5329.482782,-13397.727550,-5286.058936
454.484615,-7772.162391,-13175.665768,-2604.724693
454.484938,-8586.388927,-11029.068536,-1915.238745
454.485260,-6957.935855,-9770.718434,-3524.039291
454.485583,-4663.297435,-9252.574275,-3447.429741
454.485906,-3330.926739,-7476.080014,-3830.477490
454.486228,-1924.535449,-7254.018232,-2987.772442
454.486551,-370.102971,-7179.997637,-612.876398
454.486873,2664.741391,-9400.615463,1149.143247
454.487196,5181.441594,-8586.388927,2221.676944
454.487518,5699.585753,-7105.977043,689.485948
454.487841,5181.441594,-7994.224174,76.609550
454.488163,4145.153275,-9474.636058,766.095498
454.488486,2072.576638,-8956.491898,1915.238745
454.488808,-222.061783,-8808.450710,1378.971896
454.489131,-1110.308913,-9622.677246,-766.095498
454.489453,0.000000,-10955.047942,-2757.943793
454.489776,666.185348,-10510.924376,-3140.991542
454.490099,296.082377,-9992.780217,-766.095498
454.490421,-1110.308913,-8956.491898,383.047749
454.490744,-592.164754,-9030.512492,-1225.752797
454.491066,814.226536,-9326.594869,-3907.087040
454.491389,296.082377,-10436.903782,-5592.497135
454.491711,-2294.638420,-10584.944971,-4596.572988
454.492034,-4737.318029,-10140.821405,-2068.457845
454.492356,-6069.688724,-9548.656652,-2374.896044
454.492679,-6069.688724,-9992.780217,-4213.525239
454.493001,-4737.318029,-9992.780217,-5286.058936
454.493324,-2368.659014,-9548.656652,-5209.449386
454.493647,-1184.329507,-8734.430116,-4443.353888
454.493969,1258.350101,-9844.739029,-1608.800546
454.494292,3552.988522,-10066.800811,689.485948
454.494614,5773.606348,-9104.533087,612.876398
454.494937,5995.668130,-8142.265362,0.000000
454.495259,5255.462188,-9104.533087,0.000000
454.495582,3849.070898,-10288.862594,-306.438199
454.495904,1554.432478,-10362.883188,1149.143247
454.496227,370.102971,-9400.615463,3447.429741
454.496549,148.041188,-7846.182985,2221.676944
454.496872,740.205942,-7031.956449,-689.485948
454.497195,1998.556043,-7179.997637,-1685.410096
454.497517,3182.885551,-7550.100608,-842.705048
454.497840,2812.782580,-7698.141797,0.000000
454.498162,1776.494261,-8216.285956,766.095498
454.498485,1480.411884,-9474.636058,-1302.362347
454.498807,592.164754,-10362.883188,-4366.744339
454.499130,-2368.659014,-10140.821405,-4519.963438
454.499452,-6143.709319,-9844.739029,-4826.401637
454.499775,-8216.285956,-10807.006753,-6052.154434
454.500097,-8068.244768,-11695.253884,-5515.887586
454.500420,-6143.709319,-11251.130318,-3983.696590
454.500742,-5181.441594,-9770.718434,-3907.087040
454.501065,-3330.926739,-10510.924376,-3983.696590
454.501388,-2220.617826,-10584.944971,-1532.190996
454.501710,0.000000,-10362.883188,-612.876398
454.502033,1036.288319,-8216.285956,76.609550
454.502355,1850.514855,-7031.956449,842.705048
454.502678,2294.638420,-7105.977043,-153.219100
454.503000,2146.597232,-6439.791695,153.219100
454.503323,1036.288319,-7254.018232,1838.629195
454.503645,0.000000,-8660.409521,2451.505594
454.503968,666.185348,-9548.656652,1072.533697
454.504290,1702.473667,-10436.903782,-1532.190996
454.504613,3256.906145,-10436.903782,-1991.848295
454.504936,3552.988522,-10584.944971,-153.219100
454.505258,2516.700203,-9326.594869,1532.190996
454.505581,962.267725,-7402.059420,0.000000
454.505903,740.205942,-6957.935855,-3677.258390
454.506226,-962.267725,-8586.388927,-5592.497135
454.506548,-3034.844362,-10955.047942,-4826.401637
454.506871,-5403.503377,-12213.398043,-3447.429741
454.507193,-6439.791695,-11843.295072,-2604.724693
454.507516,-6883.915261,-10807.006753,-1072.533697
454.507838,-6957.935855,-8956.491898,-1225.752797
454.508161,-6735.874072,-7328.038826,-2757.943793
454.508484,-6365.771101,-6735.874072,-4979.620737
454.508806,-4145.153275,-7328.038826,-5056.230287
454.509129,-1998.556043,-8586.388927,-3524.039291
454.509451,1258.350101,-9770.718434,153.219100
454.509774,3478.967927,-10658.965565,1072.533697
454.510096,4959.379811,-10510.924376,-1225.752797
454.510419,4293.194464,-11843.295072,-1378.971896
454.510741,2220.617826,-12805.562797,766.095498
454.511064,148.041188,-11991.336260,1532.190996
454.511386,0.000000,-8364.327145,842.705048
454.511709,518.144159,-5329.482782,-459.657299
454.512031,2664.741391,-5699.585753,-2298.286494
454.512354,5107.421000,-7105.977043,-1302.362347
454.512677,6069.688724,-8216.285956,1455.581446
454.512999,5551.544565,-8734.430116,1915.238745
454.513322,5403.503377,-9548.656652,1225.752797
454.513644,4367.215058,-9696.697840,-842.705048
454.513967,2516.700203,-9548.656652,-3370.820191
454.514289,-296.082377,-10510.924376,-5209.449386
454.514612,-3108.864956,-11103.089130,-4290.134789
454.514934,-5847.626942,-10436.903782,-1991.848295
454.515257,-8068.244768,-8660.409521,-2911.162892
454.515579,-7846.182985,-8734.430116,-6128.763984
454.515902,-3849.070898,-12065.356855,-7277.907231
454.516225,-2368.659014,-13545.768739,-5745.716235
454.516547,-2368.659014,-12879.583391,-2068.457845
454.516870,-888.247130,-10732.986159,76.609550
454.517192,2886.803174,-8586.388927,0.000000
454.517515,5033.400406,-7105.977043,-1762.019645
454.517837,4293.194464,-7031.956449,-1455.581446
454.518160,1628.453072,-8364.327145,1302.362347
454.518482,370.102971,-9326.594869,3294.210641
454.518805,-518.144159,-8068.244768,4290.134789
454.519127,148.041188,-6513.812290,2298.286494
454.519450,1776.494261,-6661.853478,-2068.457845
454.519773,4219.173869,-7698.141797,-2068.457845
454.520095,4959.379811,-7772.162391,306.438199
454.520418,3627.009116,-6439.791695,1991.848295
454.520740,1924.535449,-7772.162391,1302.362347
454.521063,-148.041188,-9030.512492,-766.095498
454.521385,-4219.173869,-9474.636058,-3907.087040
454.521708,-6809.894666,-11177.109724,-6894.859482
454.522030,-6957.935855,-14730.098246,-7124.688131
454.522353,-6957.935855,-15914.427753,-5056.230287
454.522675,-7179.997637,-12287.418637,-1072.533697
454.522998,-8142.265362,-7846.182985,153.219100
454.523320,-6957.935855,-6661.853478,-2834.553343
454.523643,-5181.441594,-8290.306550,-5975.544884
454.523966,-3701.029710,-9474.636058,-4903.011187
454.524288,-3478.967927,-7698.141797,-3830.477490
454.524611,-814.226536,-7994.224174,-842.705048
454.524933,2146.597232,-9474.636058,2451.505594
454.525256,3256.906145,-10732.986159,2068.457845
454.525578,1702.473667,-10140.821405,459.657299
454.525901,0.000000,-9696.697840,536.266849
454.526223,296.082377,-8290.306550,306.438199
454.526546,2294.638420,-8142.265362,-2221.676944
454.526868,4441.235652,-9252.574275,-2987.772442
454.527191,4737.318029,-9252.574275,-536.266849
454.527514,4959.379811,-9104.533087,1302.362347
454.527836,4885.359217,-8882.471304,1378.971896
454.528159,3404.947333,-8882.471304,-612.876398
454.528481,814.226536,-8438.347739,-3370.820191
454.528804,-1776.494261,-8586.388927,-5515.887586
454.529126,-2442.679609,-12213.398043,-6435.202183
454.529449,-3108.864956,-15174.221811,-4060.306139
454.529771,-5107.421000,-11399.171507,0.000000
454.530094,-7179.997637,-6217.729913,-1685.410096
454.530416,-6809.894666,-5921.647536,-5286.058936
454.530739,-3552.988522,-9992.780217,-5975.544884
454.531062,-2664.741391,-10510.924376,-5209.449386
454.531384,-2368.659014,-10732.986159,-4060.306139
454.531707,370.102971,-10510.924376,-2221.676944
454.532029,5625.565159,-10732.986159,1225.752797
454.532352,7846.182985,-9400.615463,766.095498
454.532674,6365.771101,-7920.203579,153.219100
454.532997,3034.844362,-8734.430116,1991.848295
454.533319,370.102971,-9548.656652,3524.039291
454.533642,-444.123565,-7105.977043,3064.381992
454.533964,0.000000,-5329.482782,-1225.752797
454.534287,1776.494261,-7328.038826,-4903.011187
454.534610,5033.400406,-9844.739029,-1762.019645
454.534932,5699.585753,-9178.553681,2681.334243
454.535255,4515.256246,-7920.203579,4290.134789
454.535577,4145.153275,-9252.574275,1991.848295
454.535900,2072.576638,-9474.636058,-2681.334243
454.536222,-666.185348,-9548.656652,-7124.688131
454.536545,-4515.256246,-11917.315666,-7890.783629
454.536867,-6513.812290,-13619.789333,-4903.011187
454.537190,-7920.203579,-11251.130318,-842.705048
454.537512,-8068.244768,-8882.471304,-1149.143247
454.537835,-6439.791695,-8734.430116,-2681.334243
454.538157,-4737.318029,-10436.903782,-4903.011187
454.538480,-3404.947333,-11843.295072,-4673.182538
454.538803,-3701.029710,-11399.171507,-3140.991542
454.539125,-1776.494261,-10807.006753,-153.219100
454.539448,2368.659014,-8438.347739,995.924147
454.539770,4145.153275,-6809.894666,-459.657299
454.540093,2442.679609,-6883.915261,229.828649
454.540415,-296.082377,-7772.162391,4366.744339
454.540738,-1480.411884,-7624.121203,3447.429741
454.541060,-740.205942,-7846.182985,-1225.752797
454.541383,1332.370696,-9918.759623,-3753.867940
454.541705,2738.761985,-10955.047942,-1915.238745
454.542028,2960.823768,-8956.491898,306.438199
454.542351,2664.741391,-7920.203579,1149.143247
454.542673,3404.947333,-8438.347739,2451.505594
454.542996,2146.597232,-7254.018232,-689.485948
454.543318,-2442.679609,-5921.647536,-4903.011187
454.543641,-6217.729913,-7846.182985,-5209.449386
454.543963,-5255.462188,-13397.727550,-5669.106685
454.544286,-4367.215058,-17024.736666,-6818.249932
454.544608,-4441.235652,-13693.809927,-1915.238745
454.544931,-7105.977043,-8364.327145,2451.505594
454.545253,-7254.018232,-5995.668130,0.000000
454.545576,-3997.112087,-9030.512492,-3907.087040
454.545899,-2664.741391,-8290.306550,-6435.202183
454.546221,-2220.617826,-7105.977043,-7354.516781
454.546544,0.000000,-8216.285956,-3753.867940
454.546866,4663.297435,-9548.656652,3600.648841
454.547189,6735.874072,-11103.089130,4213.525239
454.547511,5625.565159,-10584.944971,459.657299
454.547834,2072.576638,-11029.068536,2068.457845
454.548156,0.000000,-9400.615463,2374.896044
454.548479,-592.164754,-6661.853478,-1915.238745
454.548801,666.185348,-5699.585753,-4596.572988
454.549124,2442.679609,-7105.977043,-3140.991542
454.549446,4737.318029,-8068.244768,-1149.143247
454.549769,4663.297435,-8808.450710,2374.896044
454.550092,3849.070898,-10955.047942,2451.505594
454.550414,2738.761985,-11103.089130,0.000000
454.550737,1184.329507,-9326.594869,-4060.306139
454.551059,-814.226536,-8660.409521,-6358.592633
454.551382,-2368.659014,-11399.171507,-5975.544884
454.551704,-3182.885551,-12953.603985,-4136.915689
454.552027,-4663.297435,-9844.739029,-383.047749
454.552349,-6809.894666,-6809.894666,-383.047749
454.552672,-5921.647536,-8586.388927,-3447.429741
454.552994,-2590.720797,-11473.192101,-5515.887586
454.553317,-2442.679609,-11991.336260,-5515.887586
454.553640,-2664.741391,-12287.418637,-3753.867940
454.553962,-962.267725,-11399.171507,-842.705048
454.554285,3552.988522,-9474.636058,1915.238745
454.554607,5995.668130,-7105.977043,-536.266849
454.554930,3997.112087,-7031.956449,-2145.067394
454.555252,-222.061783,-9030.512492,2145.067394
454.555575,-2590.720797,-9622.677246,4519.963438
454.555897,-1924.535449,-7254.018232,689.485948
454.556220,518.144159,-7105.977043,-4673.182538
454.556542,3478.967927,-10066.800811,-3600.648841
454.556865,5107.421000,-9992.780217,536.266849
454.557188,3849.070898,-7105.977043,3830.477490
454.557510,2812.782580,-7476.080014,3140.991542
454.557833,2442.679609,-7698.141797,1149.143247
454.558155,-1258.350101,-6957.935855,-3830.477490
454.558478,-5847.626942,-6291.750507,-6971.469032
454.558800,-7254.018232,-10436.903782,-6665.030833
454.559123,-6143.709319,-16506.592507,-6588.421283
454.559445,-5181.441594,-16062.468941,-2451.505594
454.559768,-7624.121203,-10214.842000,3600.648841
454.560090,-7846.182985,-6217.729913,766.095498
454.560413,-5477.523971,-7994.224174,-4979.620737
454.560735,-2368.659014,-9844.739029,-6511.811733
454.561058,-3182.885551,-9474.636058,-5669.106685
454.561381,-2516.700203,-9178.553681,-2374.896044
454.561703,2590.720797,-8512.368333,2681.334243
454.562026,6143.709319,-8808.450710,3677.258390
454.562348,5107.421000,-8586.388927,0.000000
454.562671,1036.288319,-9252.574275,1838.629195
454.562993,-888.247130,-9252.574275,4136.915689
454.563316,444.123565,-9030.512492,-1302.362347
454.563638,1702.473667,-8882.471304,-4596.572988
454.563961,2590.720797,-8586.388927,-1838.629195
454.564283,3404.947333,-7698.141797,306.438199
454.564606,4145.153275,-8364.327145,1838.629195
454.564929,3849.070898,-9252.574275,1532.190996
454.565251,1924.535449,-8068.244768,-1072.533697
454.565574,-1702.473667,-6661.853478,-5515.887586
454.565896,-4071.132681,-8734.430116,-5975.544884
454.566219,-4515.256246,-13397.727550,-6128.763984
454.566541,-3923.091493,-16580.613101,-6128.763984
454.566864,-4959.379811,-12361.439231,-1991.848295
454.567186,-6735.874072,-7772.162391,459.657299
454.567509,-5033.400406,-7254.018232,-2221.676944
454.567831,-1554.432478,-8882.471304,-4903.011187
454.568154,-740.205942,-8734.430116,-5056.230287
454.568477,-1332.370696,-9178.553681,-5898.935335
454.568799,1036.288319,-9844.739029,-3447.429741
454.569122,5107.421000,-10214.842000,2221.676944
454.569444,7105.977043,-8956.491898,2451.505594
454.569767,5329.482782,-8364.327145,-383.047749
454.570089,1924.535449,-10140.821405,2911.162892
454.570412,1110.308913,-9622.677246,5286.058936
454.570734,1776.494261,-8142.265362,-612.876398
454.571057,2072.576638,-7476.080014,-3830.477490
454.571379,2960.823768,-8438.347739,-1532.190996
454.571702,3997.112087,-8142.265362,1762.019645
454.572024,3701.029710,-7846.182985,1838.629195
454.572347,2220.617826,-8216.285956,2145.067394
454.572669,666.185348,-8068.244768,-1302.362347
454.572992,-740.205942,-7328.038826,-6588.421283
454.573314,-1776.494261,-8660.409521,-7507.735880
454.573637,-3182.885551,-13619.789333,-6665.030833
454.573960,-5255.462188,-16432.571912,-3600.648841
454.574282,-7402.059420,-12731.542202,0.000000
454.574605,-10066.800811,-7772.162391,-1532.190996
454.574927,-9030.512492,-8660.409521,-5362.668486
454.575250,-6365.771101,-10807.006753,-6128.763984
454.575572,-6069.688724,-9252.574275,-5745.716235
454.575895,-6217.729913,-9474.636058,-3294.210641
454.576217,-3108.864956,-9992.780217,1762.019645
454.576540,1110.308913,-8660.409521,3524.039291
454.576862,2368.659014,-6217.729913,1225.752797
454.577185,2220.617826,-5477.523971,1532.190996
454.577507,1702.473667,-8142.265362,-306.438199
454.577830,1702.473667,-11843.295072,-919.314598
454.578152,740.205942,-12139.377449,1762.019645
454.578475,-1924.535449,-7105.977043,2604.724693
454.578797,-2072.576638,-6365.771101,-1838.629195
454.579120,1036.288319,-9548.656652,-2757.943793
454.579442,1406.391290,-9474.636058,-306.438199
454.579765,-1406.391290,-6291.750507,-1838.629195
454.580087,-3182.885551,-7105.977043,-2987.772442
454.580410,-3330.926739,-10214.842000,-2528.115143
454.580732,-5773.606348,-9622.677246,-3217.601092
454.581055,-7031.956449,-9326.594869,-6052.154434
454.581377,-6883.915261,-13101.645173,-9806.022374
454.581700,-5847.626942,-16432.571912,-6052.154434
454.582022,-7920.203579,-13989.892304,2298.286494
454.582345,-9696.697840,-7772.162391,2987.772442
454.582668,-7772.162391,-5477.523971,-2681.334243
454.582990,-2442.679609,-6957.935855,-6588.421283
454.583313,-740.205942,-7846.182985,-7048.078582
454.583635,-814.226536,-7328.038826,-3983.696590
454.583958,888.247130,-7846.182985,3064.381992
454.584280,4219.173869,-10881.027347,7507.735880
454.584603,6069.688724,-8882.471304,5592.497135
454.584925,4959.379811,-6587.832884,-995.924147
454.585248,3849.070898,-9992.780217,-4979.620737
454.585570,2886.803174,-13989.892304,-3447.429741
454.585893,666.185348,-10881.027347,2757.943793
454.586215,-3108.864956,-7105.977043,1991.848295
454.586538,-4219.173869,-8586.388927,-229.828649
454.586860,-3627.009116,-9696.697840,-766.095498
454.587183,-5329.482782,-7698.141797,-4519.963438
454.587505,-8142.265362,-6439.791695,-6281.983084
454.587828,-7328.038826,-8068.244768,-4596.572988
454.588150,-4293.194464,-8882.471304,-4366.744339
454.588473,-1628.453072,-9622.677246,-4903.011187
454.588795,-1258.350101,-10881.027347,-4366.744339
454.589118,-1998.556043,-10955.047942,-1685.410096
454.589440,-2146.597232,-10510.924376,-842.705048
454.589763,-3256.906145,-9844.739029,-3600.648841
454.590085,-4515.256246,-9770.718434,-5286.058936
454.590408,-3552.988522,-10584.944971,-3600.648841
454.590731,-2072.576638,-10658.965565,-2528.115143
454.591053,-1554.432478,-10066.800811,0.000000
454.591376,-1554.432478,-9474.636058,1915.238745
454.591698,-444.123565,-8882.471304,1378.971896
454.592021,222.061783,-7550.100608,995.924147
454.592343,888.247130,-6587.832884,3447.429741
454.592666,1406.391290,-5995.668130,459.657299
454.592988,4145.153275,-7105.977043,-4673.182538
454.593311,5995.668130,-10140.821405,-2221.676944
454.593633,6587.832884,-11473.192101,2834.553343
454.593956,3775.050304,-9474.636058,2528.115143
454.594278,-222.061783,-9918.759623,0.000000
454.594601,-3034.844362,-11251.130318,-1991.848295
454.594923,-6439.791695,-11251.130318,-5362.668486
454.595246,-11325.150913,-9474.636058,-7737.564530
454.595568,-14656.077652,-8586.388927,-5209.449386
454.595891,-16580.613101,-9104.533087,-3600.648841
454.596213,-13989.892304,-11547.212695,-6052.154434
454.596536,-12139.377449,-12953.603985,-4749.792088
454.596858,-10955.047942,-11399.171507,-1302.362347
454.597181,-9252.574275,-7254.018232,-1225.752797
454.597503,-5329.482782,-5107.421000,-2681.334243
454.597826,-296.082377,-5477.523971,-4060.306139
454.598148,1998.556043,-5995.668130,-4213.525239
454.598471,2590.720797,-5921.647536,-2911.162892
454.598794,5181.441594,-6513.812290,1455.581446
454.599116,7994.224174,-9770.718434,1532.190996
454.599439,8586.388927,-13989.892304,-1762.019645
454.599761,6217.729913,-14582.057057,842.705048
454.600084,2960.823768,-11917.315666,3600.648841
454.600406,-592.164754,-10584.944971,1532.190996
454.600729,-3849.070898,-9918.759623,-306.438199
454.601051,-6291.750507,-6809.894666,-306.438199
454.601374,-8660.409521,-2812.782580,-2604.724693
454.601696,-8290.306550,-4885.359217,-3064.381992
454.602019,-5847.626942,-9844.739029,-612.876398
454.602341,-3775.050304,-12213.398043,-612.876398
454.602664,-2072.576638,-11843.295072,76.609550
454.602986,-370.102971,-10881.027347,153.219100
454.603309,1406.391290,-9696.697840,-2068.457845
454.603631,1406.391290,-8586.388927,-2987.772442
454.603954,-814.226536,-7254.018232,-3677.258390
454.604276,-2516.700203,-5107.421000,-4903.011187
454.604599,-1850.514855,-5995.668130,-5898.935335
454.604921,-666.185348,-9400.615463,-4979.620737
454.605244,-1332.370696,-11843.295072,-4213.525239
454.605566,-2812.782580,-14804.118840,-2374.896044
454.605889,-3478.967927,-16950.716072,0.000000
454.606211,-2960.823768,-16432.571912,0.000000
454.606534,-3182.885551,-11621.233289,153.219100
454.606856,-4663.297435,-6439.791695,-1225.752797
454.607179,-4441.235652,-3108.864956,-2068.457845
454.607502,-2590.720797,-1332.370696,-459.657299
454.607824,-888.247130,-2072.576638,0.000000
454.608147,370.102971,-4737.318029,-229.828649
454.608469,1554.432478,-9844.739029,-153.219100
454.608792,2072.576638,-13619.789333,689.485948
454.609114,1184.329507,-14508.036463,689.485948
454.609437,0.000000,-13471.748144,-766.095498
454.609759,-1406.391290,-11621.233289,-2451.505594
454.610082,-1850.514855,-9474.636058,-3217.601092
454.610404,-2886.803174,-7402.059420,-2834.553343
454.610727,-3775.050304,-7328.038826,-1685.410096
454.611049,-4441.235652,-8586.388927,-1915.238745
454.611372,-4589.276840,-10436.903782,-1762.019645
454.611694,-5181.441594,-11325.150913,-1149.143247
454.612017,-6365.771101,-10140.821405,-919.314598
454.612339,-7105.977043,-7328.038826,-2298.286494
454.612662,-6735.874072,-5625.565159,-3064.381992
454.612984,-5921.647536,-5033.400406,-3370.820191
454.613307,-5773.606348,-5773.606348,-3830.477490
454.613629,-5403.503377,-8142.265362,-3447.429741
454.613952,-4663.297435,-10584.944971,-3140.991542
454.614274,-3775.050304,-13249.686362,-2911.162892
454.614597,-3182.885551,-14137.933492,-2987.772442
454.614919,-2812.782580,-13693.809927,-2528.115143
454.615242,-2294.638420,-12361.439231,-1532.190996
454.615565,-2368.659014,-9844.739029,-1915.238745
454.615887,-2220.617826,-8068.244768,-2528.115143
454.616210,-1850.514855,-7402.059420,-2374.896044
454.616532,-1702.473667,-7624.121203,-1762.019645
454.616855,-1184.329507,-8290.306550,-612.876398
454.617177,-222.061783,-9030.512492,0.000000
454.617500,444.123565,-9696.697840,0.000000
454.617822,1184.329507,-9252.574275,0.000000
454.618145,962.267725,-8142.265362,-306.438199
454.618467,148.041188,-7550.100608,-1149.143247
454.618790,-814.226536,-7550.100608,-1991.848295
454.619112,-1406.391290,-8512.368333,-2604.724693
454.619435,-2146.597232,-9918.759623,-2681.334243
454.619757,-1850.514855,-12361.439231,-2145.067394
454.620080,-1776.494261,-13619.789333,-1302.362347
454.620402,-1480.411884,-12657.521608,-383.047749
454.620725,-888.247130,-11695.253884,153.219100
454.621047,-592.164754,-10362.883188,0.000000
454.621370,-740.205942,-8068.244768,-612.876398
454.621692,-1850.514855,-6291.750507,-919.314598
454.622015,-2738.761985,-5181.441594,-689.485948
454.622337,-2812.782580,-5551.544565,-536.266849
454.622660,-3478.967927,-7179.997637,-1532.190996
454.622982,-4145.153275,-7994.224174,-1762.019645
454.623305,-4293.194464,-8586.388927,-2145.067394
454.623628,-3701.029710,-9474.636058,-3370.820191
454.623950,-3627.009116,-9770.718434,-3064.381992
454.624273,-3775.050304,-9548.656652,-2451.505594
454.624595,-4367.215058,-9326.594869,-3064.381992
454.624918,-3775.050304,-10658.965565,-3830.477490
454.625240,-3330.926739,-11917.315666,-3370.820191
454.625563,-3108.864956,-11029.068536,-2374.896044
454.625885,-2442.679609,-11177.109724,-995.924147
454.626208,-1110.308913,-10955.047942,-689.485948
454.626530,-296.082377,-10066.800811,0.000000
454.626853,-518.144159,-8364.327145,1455.581446
454.627175,-1184.329507,-6957.935855,1378.971896
454.627498,-1554.432478,-6513.812290,459.657299
454.627820,-1924.535449,-6217.729913,-383.047749
454.628143,-2738.761985,-6143.709319,-766.095498
454.628465,-2590.720797,-7772.162391,-689.485948
454.628788,-2294.638420,-9622.677246,-995.924147
454.629110,-1554.432478,-10140.821405,-1455.581446
454.629433,-1332.370696,-9992.780217,-1378.971896
454.629755,-1184.329507,-11325.150913,-3140.991542
454.630078,-814.226536,-12879.583391,-3294.210641
454.630400,-1554.432478,-13101.645173,-3524.039291
454.630723,-2368.659014,-12435.459826,-3217.601092
454.631045,-2146.597232,-12287.418637,-2987.772442
454.631368,-2294.638420,-12213.398043,-2451.505594
454.631690,-2886.803174,-11695.253884,-1455.581446
454.632013,-3108.864956,-10288.862594,0.000000
454.632336,-2368.659014,-9252.574275,-459.657299
454.632658,-1776.494261,-7846.182985,0.000000
454.632981,-666.185348,-6883.915261,1378.971896
454.633303,518.144159,-7328.038826,1302.362347
454.633626,1776.494261,-7328.038826,842.705048
454.633948,2442.679609,-7624.121203,919.314598
454.634271,3256.906145,-8808.450710,1608.800546
454.634593,3701.029710,-10436.903782,1838.629195
454.634916,3552.988522,-11251.130318,1685.410096
454.635238,3182.885551,-11103.089130,1225.752797
454.635561,3108.864956,-10807.006753,1455.581446
454.635883,3034.844362,-11029.068536,1532.190996
454.636206,2220.617826,-9992.780217,2451.505594
454.636528,814.226536,-9104.533087,2987.772442
454.636851,-444.123565,-7920.203579,2911.162892
454.637173,-1036.288319,-7772.162391,2221.676944
454.637496,-1480.411884,-7624.121203,2221.676944
454.637818,-2442.679609,-7179.997637,2374.896044
454.638141,-3034.844362,-7698.141797,2068.457845
454.638463,-3478.967927,-7920.203579,3677.258390
454.638786,-3330.926739,-8586.388927,2987.772442
454.639108,-3627.009116,-8660.409521,2374.896044
454.639431,-3182.885551,-9400.615463,2298.286494
454.639753,-2368.659014,-9030.512492,2068.457845
454.640076,-1998.556043,-9400.615463,1915.238745
454.640399,-2368.659014,-10288.862594,2604.724693
454.640721,-2590.720797,-11029.068536,3370.820191
454.641044,-2886.803174,-11325.150913,3294.210641
454.641366,-2664.741391,-11547.212695,2987.772442
454.641689,-2812.782580,-10732.986159,2757.943793
454.642011,-2072.576638,-9918.759623,2681.334243
454.642334,-1110.308913,-9178.553681,2911.162892
454.642656,0.000000,-8734.430116,3600.648841
454.642979,1036.288319,-9030.512492,4060.306139
454.643301,1332.370696,-9178.553681,3600.648841
454.643624,666.185348,-9252.574275,2374.896044
454.643946,-222.061783,-9622.677246,1455.581446
454.644269,-814.226536,-10362.883188,612.876398
454.644591,-1702.473667,-10584.944971,536.266849
454.644914,-2738.761985,-10140.821405,459.657299
454.645236,-2886.803174,-10584.944971,-306.438199
454.645559,-2812.782580,-10955.047942,-1378.971896
454.645881,-2738.761985,-10955.047942,-1455.581446
454.646204,-2886.803174,-10584.944971,-1302.362347
454.646526,-2590.720797,-10436.903782,-842.705048
454.646849,-1702.473667,-10140.821405,-766.095498
454.647171,-814.226536,-9992.780217,-383.047749
454.647494,666.185348,-9104.533087,76.609550
454.647816,2442.679609,-8364.327145,0.000000
454.648139,3923.091493,-6661.853478,-612.876398
454.648462,5329.482782,-5847.626942,76.609550
454.648784,5995.668130,-5329.482782,-766.095498
454.649107,5773.606348,-6513.812290,-2068.457845
454.649429,3849.070898,-7920.203579,-2451.505594
454.649752,740.205942,-9030.512492,-2068.457845
454.650074,-2516.700203,-9474.636058,-2604.724693
454.650397,-5329.482782,-11177.109724,-3677.258390
454.650719,-6587.832884,-12139.377449,-4903.011187
454.651042,-5699.585753,-12805.562797,-5975.544884
454.651364,-3775.050304,-11843.295072,-4979.620737
454.651687,-1036.288319,-12435.459826,-2834.553343
454.652009,2368.659014,-13101.645173,-842.705048
454.652332,4959.379811,-12139.377449,-229.828649
454.652654,6587.832884,-10732.986159,0.000000
454.652977,6513.812290,-9326.594869,1532.190996
454.653299,6809.894666,-7476.080014,2757.943793
454.653622,7105.977043,-4441.235652,1455.581446
454.653944,5625.565159,-4219.173869,153.219100
454.654267,2442.679609,-4145.153275,1072.533697
454.654589,-1998.556043,-4589.276840,1302.362347
454.654912,-5699.585753,-6365.771101,-689.485948
454.655234,-7772.162391,-9770.718434,-3753.867940
454.655557,-9474.636058,-11991.336260,-5209.449386
454.655879,-9992.780217,-14508.036463,-5132.839837
454.656202,-8438.347739,-15914.427753,-5209.449386
454.656525,-5255.462188,-17468.860231,-2987.772442
454.656847,-3775.050304,-16432.571912,-1072.533697
454.657170,-3330.926739,-12879.583391,-1762.019645
454.657492,-3997.112087,-9770.718434,-2834.553343
454.657815,-3701.029710,-8734.430116,-3370.820191
454.658137,-3182.885551,-8956.491898,-2374.896044
454.658460,-3108.864956,-9252.574275,-383.047749
454.658782,-3552.988522,-9104.533087,2757.943793
454.659105,-2738.761985,-10140.821405,5822.325785
454.659427,-666.185348,-9696.697840,6741.640382
454.659750,-666.185348,-7920.203579,5745.716235
454.660072,-888.247130,-6957.935855,5592.497135
454.660395,-444.123565,-6439.791695,5056.230287
454.660717,518.144159,-5329.482782,4136.915689
454.661040,1406.391290,-5033.400406,2987.772442
454.661362,2368.659014,-5403.503377,2451.505594
454.661685,3849.070898,-6957.935855,2068.457845
454.662007,5107.421000,-8512.368333,2834.553343
454.662330,6735.874072,-10658.965565,2528.115143
454.662652,6291.750507,-12879.583391,2911.162892
454.662975,4737.318029,-12509.480420,3140.991542
454.663297,2960.823768,-11251.130318,3064.381992
454.663620,0.000000,-10362.883188,1838.629195
454.663942,-2960.823768,-9474.636058,1532.190996
454.664265,-5403.503377,-8586.388927,3907.087040
454.664587,-8290.306550,-4737.318029,4060.306139
454.664910,-8956.491898,-5921.647536,2451.505594
454.665233,-5847.626942,-9104.533087,1762.019645
454.665555,-2220.617826,-10140.821405,2145.067394
454.665878,-518.144159,-10584.944971,536.266849
454.666200,2886.803174,-10881.027347,1762.019645
454.666523,6661.853478,-11843.295072,3370.820191
454.666845,9622.677246,-11177.109724,1762.019645
454.667168,9474.636058,-10658.965565,842.705048
454.667490,8068.244768,-8660.409521,3217.601092
454.667813,8438.347739,-6587.832884,3370.820191
454.668135,7846.182985,-7476.080014,-2451.505594
454.668458,6365.771101,-12731.542202,-3983.696590
454.668780,3034.844362,-15470.304188,0.000000
454.669103,-1998.556043,-11769.274478,2528.115143
454.669425,-7550.100608,-11399.171507,2221.676944
454.669748,-10436.903782,-13471.748144,1149.143247
454.670070,-12213.398043,-13767.830521,-3753.867940
454.670393,-16062.468941,-9696.697840,-4826.401637
454.670715,-19097.313304,-7402.059420,0.000000
454.671038,-15840.407159,-5625.565159,306.438199
454.671360,-8586.388927,-7031.956449,-4290.134789
454.671683,0.000000,-9326.594869,-3983.696590
454.672005,4811.338623,-8660.409521,-2757.943793
454.672327,7994.224174,-10955.047942,-2374.896044
454.672650,10658.965565,-11843.295072,3294.210641
454.672972,10362.883188,-9474.636058,3983.696590
454.673295,7105.977043,-4737.318029,-2451.505594
454.673617,4737.318029,-5699.585753,-5669.106685
454.673940,4145.153275,-10362.883188,-2834.553343
454.674262,592.164754,-12065.356855,76.609550
454.674584,-6069.688724,-11325.150913,3447.429741
454.674907,-9770.718434,-11251.130318,6435.202183
454.675229,-9622.677246,-11843.295072,3447.429741
454.675552,-7846.182985,-10955.047942,-1915.238745
454.675874,-6365.771101,-7402.059420,-4136.915689
454.676197,-4145.153275,-3108.864956,306.438199
454.676519,-296.082377,0.000000,2221.676944
454.676841,4145.153275,0.000000,-153.219100
454.677164,5847.626942,-3034.844362,-1378.971896
454.677486,4737.318029,-7254.018232,-2604.724693
454.677809,3330.926739,-11843.295072,-4136.915689
454.678131,2960.823768,-15544.324782,-3677.258390
454.678454,1850.514855,-17468.860231,-2987.772442
454.678776,0.000000,-16358.551318,-2451.505594
454.679098,-1258.350101,-14434.015869,-1608.800546
454.679421,-4293.194464,-12583.501014,-1532.190996
454.679743,-4441.235652,-11917.315666,-766.095498
454.680066,-4145.153275,-8438.347739,-2451.505594
454.680388,-2294.638420,-4737.318029,-2757.943793
454.680711,592.164754,-4515.256246,-1991.848295
454.681033,3775.050304,-7179.997637,459.657299
454.681355,6143.709319,-9474.636058,536.266849
454.681678,6513.812290,-9474.636058,-459.657299
454.682000,5403.503377,-9992.780217,0.000000
454.682323,3552.988522,-10436.903782,153.219100
454.682645,592.164754,-10436.903782,-612.876398
454.682968,-2368.659014,-10510.924376,-1762.019645
454.683290,-1924.535449,-11177.109724,-4213.525239
454.683612,1036.288319,-12509.480420,-5439.278036
454.683935,1406.391290,-12805.562797,-3830.477490
454.684257,0.000000,-11917.315666,383.047749
454.684580,-3034.844362,-11695.253884,1685.410096
454.684902,-3701.029710,-11843.295072,1072.533697
454.685225,-3478.967927,-10881.027347,-1685.410096
454.685547,-3330.926739,-9030.512492,-3983.696590
454.685869,-3256.906145,-7254.018232,-1915.238745
454.686192,-2368.659014,-5773.606348,2681.334243
454.686514,-1258.350101,-4811.338623,5132.839837
454.686837,-1406.391290,-5107.421000,3447.429741
454.687159,-444.123565,-6291.750507,536.266849
454.687482,1480.411884,-7105.977043,-1915.238745
454.687804,3182.885551,-6809.894666,-2221.676944
454.688126,3627.009116,-6809.894666,-229.828649
454.688449,3849.070898,-8216.285956,1225.752797
454.688771,2886.803174,-8956.491898,1378.971896
454.689094,1184.329507,-9104.533087,-612.876398
454.689416,-1036.288319,-9992.780217,-2298.286494
454.689739,-3182.885551,-12065.356855,-2834.553343
454.690061,-5625.565159,-13101.645173,-2298.286494
454.690383,-7550.100608,-12879.583391,-536.266849
454.690706,-7772.162391,-12139.377449,1149.143247
454.691028,-6291.750507,-10732.986159,0.000000
454.691351,-4663.297435,-9252.574275,-1532.190996
454.691673,-3404.947333,-7328.038826,-1225.752797
454.691996,-2368.659014,-6069.688724,-919.314598
454.692318,-666.185348,-6587.832884,-1225.752797
454.692640,2220.617826,-7402.059420,-1608.800546
454.692963,4293.194464,-7772.162391,-2145.067394
454.693285,4737.318029,-8660.409521,-2068.457845
454.693608,3849.070898,-10658.965565,0.000000
454.693930,1036.288319,-13471.748144,-383.047749
454.694253,-1184.329507,-15766.386565,-1225.752797
454.694575,-1628.453072,-16062.468941,-2298.286494
454.694897,0.000000,-13619.789333,-3294.210641
454.695220,3775.050304,-11325.150913,-3370.820191
454.695542,5477.523971,-7402.059420,-1225.752797
454.695865,5995.668130,-6365.771101,459.657299
454.696187,5403.503377,-6957.935855,1072.533697
454.696510,4219.173869,-7920.203579,0.000000
454.696832,2368.659014,-8438.347739,-1532.190996
454.697154,370.102971,-8512.368333,-2298.286494
454.697477,-2220.617826,-8586.388927,-1149.143247
454.697799,-3849.070898,-8216.285956,-383.047749
454.698122,-4145.153275,-8660.409521,-383.047749
454.698444,-2442.679609,-8512.368333,-995.924147
454.698767,-2220.617826,-7846.182985,-3140.991542
454.699089,-1998.556043,-8512.368333,-2987.772442
454.699411,-1554.432478,-9474.636058,-2298.286494
454.699734,-592.164754,-10066.800811,-1608.800546
454.700056,222.061783,-10214.842000,-2757.943793
454.700379,592.164754,-9992.780217,-2451.505594
454.700701,-1332.370696,-8660.409521,-766.095498
454.701024,-3330.926739,-7846.182985,153.219100
454.701346,-4515.256246,-8586.388927,-612.876398
454.701668,-3330.926739,-9770.718434,-2298.286494
454.701991,0.000000,-8734.430116,-2911.162892
454.702313,3108.864956,-5699.585753,-3140.991542
454.702636,5773.606348,-4515.256246,-1762.019645
454.702958,6439.791695,-4663.297435,229.828649
454.703281,4959.379811,-6587.832884,0.000000
454.703603,1850.514855,-9474.636058,-1915.238745
454.703925,-1332.370696,-12213.398043,-4060.306139
454.704248,-2886.803174,-13471.748144,-5209.449386
454.704570,-3330.926739,-13397.727550,-5362.668486
454.704893,-3627.009116,-12509.480420,-3370.820191
454.705215,-3701.029710,-11103.089130,-1225.752797
454.705538,-2960.823768,-11547.212695,-2068.457845
454.705860,-2516.700203,-12435.459826,-3064.381992
454.706182,-3552.988522,-12065.356855,-3064.381992
454.706505,-4293.194464,-9622.677246,-2911.162892
454.706827,-2960.823768,-7476.080014,-2987.772442
454.707150,444.123565,-7105.977043,-4366.744339
454.707472,3775.050304,-8290.306550,-3370.820191
454.707794,3923.091493,-8068.244768,-1838.629195
454.708117,1480.411884,-8734.430116,612.876398
454.708439,-1998.556043,-11103.089130,919.314598
454.708762,-4885.359217,-12139.377449,-766.095498
454.709084,-6957.935855,-11991.336260,-4213.525239
454.709407,-6291.750507,-9918.759623,-5745.716235
454.709729,-3627.009116,-8216.285956,-5669.106685
454.710051,444.123565,-7994.224174,-3217.601092
454.710374,2442.679609,-7476.080014,-842.705048
454.710696,2146.597232,-9178.553681,0.000000
454.711019,370.102971,-11621.233289,-536.266849
454.711341,-888.247130,-12509.480420,-2451.505594
454.711664,-1480.411884,-11399.171507,-3370.820191
454.711986,-1776.494261,-8068.244768,-2604.724693
454.712308,-1480.411884,-5551.544565,-76.609550
454.712631,-666.185348,-4885.359217,2451.505594
454.712953,592.164754,-5033.400406,2221.676944
454.713276,1776.494261,-6587.832884,536.266849
454.713598,2960.823768,-8216.285956,-1149.143247
454.713921,4219.173869,-9474.636058,-689.485948
454.714243,5033.400406,-9178.553681,766.095498
454.714565,6439.791695,-9474.636058,1225.752797
454.714888,6365.771101,-9548.656652,1608.800546
454.715210,5403.503377,-8956.491898,995.924147
454.715533,2738.761985,-8290.306550,459.657299
454.715855,-148.041188,-7476.080014,229.828649
454.716178,-2368.659014,-8216.285956,-459.657299
454.716500,-2664.741391,-9992.780217,-1455.581446
454.716822,-1776.494261,-11103.089130,-1532.190996
454.717145,-740.205942,-9770.718434,-459.657299
454.717467,444.123565,-8882.471304,-153.219100
454.717790,-1184.329507,-8290.306550,306.438199
454.718112,-3627.009116,-8956.491898,-689.485948
454.718435,-5107.421000,-9400.615463,-3140.991542
454.718757,-5181.441594,-9400.615463,-5439.278036
454.719079,-4145.153275,-9622.677246,-5286.058936
454.719402,-2664.741391,-10066.800811,-3600.648841
454.719724,-2368.659014,-11325.150913,-1072.533697
454.720047,-3330.926739,-12879.583391,76.609550
454.720369,-3627.009116,-14878.139434,-995.924147
454.720692,-3404.947333,-14211.954086,-3447.429741
454.721014,-1554.432478,-11325.150913,-4443.353888
454.721336,518.144159,-7476.080014,-3600.648841
454.721659,3034.844362,-5255.462188,-1378.971896
454.721981,5181.441594,-6069.688724,229.828649
454.722304,6365.771101,-9104.533087,689.485948
454.722626,5255.462188,-11621.233289,76.609550
454.722949,2294.638420,-11917.315666,0.000000
454.723271,-666.185348,-11177.109724,536.266849
454.723593,-2368.659014,-8956.491898,-536.266849
454.723916,-2738.761985,-7031.956449,-2068.457845
454.724238,-1850.514855,-5181.441594,-2451.505594
454.724561,-740.205942,-4737.318029,-1838.629195
454.724883,-1110.308913,-6883.915261,-1762.019645
454.725206,-1850.514855,-8512.368333,-1225.752797
454.725528,-2368.659014,-9474.636058,-2451.505594
454.725850,-1924.535449,-10510.924376,-5286.058936
454.726173,-1036.288319,-10955.047942,-6435.202183
454.726495,-666.185348,-10362.883188,-4749.792088
454.726818,-2146.597232,-8660.409521,-2145.067394
454.727140,-4515.256246,-8586.388927,-459.657299
454.727463,-6661.853478,-9992.780217,-1532.190996
454.727785,-6957.935855,-11177.109724,-3524.039291
454.728107,-5033.400406,-9474.636058,-4366.744339
454.728430,-1776.494261,-7624.121203,-3907.087040
454.728752,1998.556043,-6069.688724,-1608.800546
454.729075,4367.215058,-6661.853478,383.047749
454.729397,4959.379811,-7920.203579,1532.190996
454.729720,3997.112087,-9326.594869,0.000000
454.730042,1924.535449,-10658.965565,-3447.429741
454.730364,666.185348,-11103.089130,-4366.744339
454.730687,0.000000,-10436.903782,-3753.867940
454.731009,0.000000,-10066.800811,-2757.943793
454.731332,962.267725,-10510.924376,-1915.238745
454.731654,2738.761985,-11547.212695,-1762.019645
454.731977,2960.823768,-11621.233289,-2987.772442
454.732299,2368.659014,-11103.089130,-3370.820191
454.732621,740.205942,-11177.109724,-3600.648841
454.732944,0.000000,-11177.109724,-3753.867940
454.733266,518.144159,-9992.780217,-3064.381992
454.733589,1406.391290,-8586.388927,-2221.676944
454.733911,2294.638420,-7476.080014,-1915.238745
454.734234,1702.473667,-7624.121203,-689.485948
454.734556,-888.247130,-8956.491898,0.000000
454.734878,-3923.091493,-11251.130318,536.266849
454.735201,-5403.503377,-12509.480420,-689.485948
454.735523,-3849.070898,-12287.418637,-2298.286494
454.735846,-1850.514855,-9696.697840,-1838.629195
454.736168,370.102971,-6587.832884,-766.095498
454.736491,1036.288319,-5181.441594,1072.533697
454.736813,592.164754,-5699.585753,766.095498
454.737135,0.000000,-8068.244768,-459.657299
454.737458,-814.226536,-9844.739029,-2451.505594
454.737780,-2368.659014,-10140.821405,-2451.505594
454.738103,-4145.153275,-9918.759623,-612.876398
454.738425,-4737.318029,-10066.800811,1302.362347
454.738748,-3701.029710,-9992.780217,1149.143247
454.739070,-2072.576638,-9400.615463,306.438199
454.739392,-1332.370696,-7254.018232,-995.924147
454.739715,-296.082377,-6513.812290,-689.485948
454.740037,74.020594,-5477.523971,0.000000
454.740360,1554.432478,-6217.729913,766.095498
454.740682,2664.741391,-7105.977043,-919.314598
454.741005,2886.803174,-6957.935855,-1762.019645
454.741327,2072.576638,-8142.265362,-1302.362347
454.741649,74.020594,-9326.594869,-536.266849
454.741972,-2442.679609,-11103.089130,0.000000
454.742294,-4663.297435,-12509.480420,-459.657299
454.742617,-4293.194464,-12805.562797,-1762.019645
454.742939,-2368.659014,-11029.068536,-2374.896044
454.743261,1110.308913,-9030.512492,-2757.943793
454.743584,2368.659014,-6883.915261,-612.876398
454.743906,2812.782580,-6661.853478,-306.438199
454.744229,3034.844362,-7846.182985,-842.705048
454.744551,2220.617826,-10658.965565,-2987.772442
454.744874,1036.288319,-11991.336260,-4136.915689
454.745196,-592.164754,-11177.109724,-3753.867940
454.745518,-1998.556043,-10066.800811,-3217.601092
454.745841,-3330.926739,-9474.636058,-2374.896044
454.746163,-3701.029710,-10436.903782,-3830.477490
454.746486,-3923.091493,-11547.212695,-4213.525239
454.746808,-4293.194464,-12139.377449,-5362.668486
454.747131,-3627.009116,-12139.377449,-4749.792088
454.747453,-2072.576638,-12287.418637,-4826.401637
454.747775,-888.247130,-10510.924376,-3447.429741
454.748098,1110.308913,-9400.615463,-4060.306139
454.748420,2738.761985,-8586.388927,-4673.182538
454.748743,3034.844362,-8660.409521,-3753.867940
454.749065,1184.329507,-9252.574275,-1991.848295
454.749388,-1702.473667,-10214.842000,0.000000
454.749710,-2590.720797,-11473.192101,0.000000
454.750032,-1776.494261,-11251.130318,-1378.971896
454.750355,592.164754,-8586.388927,-2145.067394
454.750677,4071.132681,-6291.750507,-919.314598
454.751000,5403.503377,-4811.338623,919.314598
454.751322,5625.565159,-4885.359217,1838.629195
454.751645,4145.153275,-5699.585753,919.314598
454.751967,2294.638420,-7328.038826,-612.876398
454.752289,814.226536,-8512.368333,-2834.553343
454.752612,-518.144159,-9252.574275,-3370.820191
454.752934,-2294.638420,-9548.656652,-1915.238745
454.753257,-3627.009116,-9844.739029,459.657299
454.753579,-3627.009116,-10510.924376,842.705048
454.753902,-2886.803174,-10288.862594,-766.095498
454.754224,-2738.761985,-8956.491898,-2298.286494
454.754546,-2146.597232,-6883.915261,-3447.429741
454.754869,-1258.350101,-6217.729913,-3064.381992
454.755191,-370.102971,-6661.853478,-2911.162892
454.755514,222.061783,-8808.450710,-3370.820191
454.755836,-222.061783,-10732.986159,-1762.019645
454.756159,-1998.556043,-11029.068536,-1608.800546
454.756481,-3849.070898,-11843.295072,-1991.848295
454.756803,-4959.379811,-12509.480420,-2451.505594
454.757126,-5107.421000,-11991.336260,-2298.286494
454.757448,-3404.947333,-10955.047942,-1532.190996
454.757771,-1776.494261,-9400.615463,-2145.067394
454.758093,148.041188,-8216.285956,-612.876398
454.758416,1628.453072,-9326.594869,0.000000
454.758738,1776.494261,-9474.636058,-153.219100
454.759060,1924.535449,-10288.862594,-1608.800546
454.759383,2590.720797,-11325.150913,-2911.162892
454.759705,4071.132681,-11473.192101,-2528.115143
454.760028,3997.112087,-10362.883188,-766.095498
454.760350,2072.576638,-8660.409521,1072.533697
454.760673,-518.144159,-8068.244768,1302.362347
454.760995,-3330.926739,-8660.409521,-536.266849
454.761317,-5255.462188,-8808.450710,-2298.286494
454.761640,-4737.318029,-9844.739029,-3524.039291
454.761962,-3108.864956,-9326.594869,-3294.210641
454.762285,-1332.370696,-8734.430116,-1072.533697
454.762607,74.020594,-8364.327145,306.438199
454.762930,888.247130,-8882.471304,76.609550
454.763252,592.164754,-8142.265362,-1149.143247
454.763574,-962.267725,-8216.285956,-2298.286494
454.763897,-2664.741391,-7550.100608,-1991.848295
454.764219,-4515.256246,-7402.059420,-995.924147
454.764542,-3997.112087,-8734.430116,-1532.190996
454.764864,-2664.741391,-10362.883188,-383.047749
454.765187,-814.226536,-10510.924376,229.828649
454.765509,666.185348,-9326.594869,1149.143247
454.765831,1850.514855,-7105.977043,919.314598
454.766154,2738.761985,-7105.977043,-919.314598
454.766476,2664.741391,-7402.059420,-2068.457845
454.766799,2516.700203,-8142.265362,-2451.505594
454.767121,2294.638420,-8660.409521,-2068.457845
454.767444,1184.329507,-8734.430116,-1608.800546
454.767766,-592.164754,-9178.553681,-919.314598
454.768088,-2072.576638,-10140.821405,-1225.752797
454.768411,-2368.659014,-11621.233289,-2987.772442
454.768733,-2220.617826,-12139.377449,-3907.087040
454.769056,-444.123565,-11843.295072,-3447.429741
454.769378,1184.329507,-10584.944971,-2757.943793
454.769701,2146.597232,-9326.594869,-1762.019645
454.770023,2072.576638,-7624.121203,-2145.067394
454.770345,1924.535449,-8438.347739,-3447.429741
454.770668,2072.576638,-9992.780217,-4596.572988
454.770990,2368.659014,-10955.047942,-4136.915689
454.771313,888.247130,-11621.233289,-3217.601092
454.771635,-666.185348,-12287.418637,-1225.752797
454.771958,-1998.556043,-13027.624579,-1225.752797
454.772280,-1850.514855,-12879.583391,-2221.676944
454.772602,-2146.597232,-10732.986159,-3830.477490
454.772925,-1110.308913,-9030.512492,-3447.429741
454.773247,-444.123565,-6735.874072,-1685.410096
454.773570,148.041188,-6735.874072,0.000000
454.773892,592.164754,-8142.265362,-1072.533697
454.774219,370.102971,-9696.697840,-1915.238745
454.774541,-592.164754,-10658.965565,-1991.848295
454.774864,-2072.576638,-9622.677246,-1762.019645
454.775186,-3701.029710,-8290.306550,-1072.533697
454.775509,-4441.235652,-7772.162391,-1532.190996
454.775831,-4959.379811,-7624.121203,-1532.190996
454.776154,-3775.050304,-7698.141797,-1838.629195
454.776476,-2886.803174,-7476.080014,-2221.676944
454.776799,-1924.535449,-8142.265362,-1915.238745
454.777121,-962.267725,-8142.265362,-689.485948
454.777443,-296.082377,-7994.224174,-1302.362347
454.777766,444.123565,-8216.285956,-1991.848295
454.778088,962.267725,-8660.409521,-2451.505594
454.778411,740.205942,-8660.409521,-1991.848295
454.778733,-518.144159,-8956.491898,612.876398
454.779056,-1480.411884,-9400.615463,1225.752797
454.779378,-1998.556043,-10510.924376,306.438199
454.779700,-962.267725,-11399.171507,-689.485948
454.780023,814.226536,-10510.924376,-689.485948
454.780345,2368.659014,-8808.450710,0.000000
454.780668,3923.091493,-7550.100608,459.657299
454.780990,4663.297435,-7476.080014,919.314598
454.781313,4367.215058,-8364.327145,-306.438199
454.781635,3108.864956,-9474.636058,-1685.410096
454.781957,1850.514855,-10140.821405,-2451.505594
454.782280,0.000000,-11103.089130,-2374.896044
454.782602,-1850.514855,-12287.418637,-1762.019645
454.782925,-3552.988522,-12583.501014,76.609550
454.783247,-5033.400406,-11843.295072,153.219100
454.783570,-4663.297435,-10955.047942,-1685.410096
454.783892,-2812.782580,-10362.883188,-3830.477490
454.784214,-1776.494261,-8512.368333,-3140.991542
454.784537,-1554.432478,-8068.244768,-2298.286494
454.784859,-1554.432478,-9178.553681,-1378.971896
454.785182,-1110.308913,-11029.068536,-1072.533697
454.785504,0.000000,-11621.233289,-1455.581446
454.785827,-370.102971,-9918.759623,-1378.971896
454.786149,-1258.350101,-8290.306550,-1225.752797
454.786472,-1998.556043,-8068.244768,-536.266849
454.786794,-2368.659014,-8734.430116,-306.438199
454.787116,-1998.556043,-9622.677246,0.000000
454.787439,-370.102971,-9474.636058,-536.266849
454.787761,1332.370696,-9548.656652,-1149.143247
454.788084,3108.864956,-8808.450710,-995.924147
454.788406,4737.318029,-8364.327145,153.219100
454.788729,5773.606348,-7846.182985,76.609550
454.789051,5699.585753,-7328.038826,-306.438199
454.789373,4811.338623,-7846.182985,0.000000
454.789696,2664.741391,-8364.327145,229.828649
454.790018,-222.061783,-8216.285956,-153.219100
454.790341,-1998.556043,-8808.450710,-689.485948
454.790663,-1628.453072,-9844.739029,-1608.800546
454.790986,-370.102971,-8438.347739,-2834.553343
454.791308,1332.370696,-8142.265362,-1838.629195
454.791630,1776.494261,-6957.935855,-766.095498
454.791953,1036.288319,-7550.100608,-689.485948
454.792275,-1184.329507,-8364.327145,-2374.896044
