#time,accel_x,accel_y,accel_z
263.098574,-222.061783,-9474.636058,-1685.410096
263.098896,-370.102971,-9400.615463,-1455.581446
263.099218,-296.082377,-9474.636058,-1532.190996
263.099540,-296.082377,-9326.594869,-1685.410096
263.099862,-222.061783,-9252.574275,-1302.362347
263.100184,-222.061783,-9474.636058,-1838.629195
263.100505,-370.102971,-9400.615463,-1532.190996
263.100827,-370.102971,-9474.636058,-1378.971896
263.101149,-370.102971,-9400.615463,-1532.190996
263.101471,-370.102971,-8882.471304,-1072.533697
263.101793,-222.061783,-9178.553681,-1608.800546
263.102115,-296.082377,-9326.594869,-1532.190996
263.102436,-370.102971,-9252.574275,-1378.971896
263.102758,-518.144159,-9474.636058,-1225.752797
263.103080,-296.082377,-9326.594869,-1378.971896
263.103402,-666.185348,-9326.594869,-1455.581446
263.103724,-296.082377,-9252.574275,-1149.143247
263.104046,-518.144159,-9252.574275,-1378.971896
263.104367,-444.123565,-9326.594869,-1378.971896
263.104689,-296.082377,-9326.594869,-1225.752797
263.105011,-296.082377,-9178.553681,-1072.533697
263.105333,-296.082377,-9474.636058,-1838.629195
263.105655,-444.123565,-9326.594869,-1149.143247
263.105977,-518.144159,-9252.574275,-1302.362347
263.106298,-444.123565,-9400.615463,-1149.143247
263.106620,-296.082377,-9252.574275,-995.924147
263.106942,-222.061783,-9104.533087,-1378.971896
263.107264,-444.123565,-9400.615463,-1532.190996
263.107586,-592.164754,-9474.636058,-1378.971896
263.107908,-444.123565,-9400.615463,-1225.752797
263.108230,-444.123565,-9400.615463,-1225.752797
263.108551,74.020594,-9474.636058,-995.924147
263.108873,-222.061783,-9474.636058,-1302.362347
263.109195,-444.123565,-9400.615463,-1072.533697
263.109517,-370.102971,-9474.636058,-1378.971896
263.109839,-518.144159,-9474.636058,-1149.143247
263.110161,-666.185348,-9326.594869,-1302.362347
263.110482,-740.205942,-9178.553681,-919.314598
263.110804,-296.082377,-9474.636058,-1149.143247
263.111126,-370.102971,-9474.636058,-1225.752797
263.111448,-444.123565,-9474.636058,-995.924147
263.111770,-296.082377,-9326.594869,-1225.752797
263.112092,0.000000,-9178.553681,-1685.410096
263.112413,-370.102971,-9548.656652,-1455.581446
263.112735,-370.102971,-9474.636058,-1302.362347
263.113057,-444.123565,-9400.615463,-1608.800546
263.113379,-444.123565,-9252.574275,-1685.410096
263.113701,-74.020594,-9474.636058,-1378.971896
263.114023,-296.082377,-9178.553681,-1455.581446
263.114345,-296.082377,-9178.553681,-1608.800546
263.114666,-222.061783,-9400.615463,-1532.190996
263.114988,-370.102971,-9326.594869,-1608.800546
263.115310,-370.102971,-9104.533087,-1378.971896
263.115632,-592.164754,-8808.450710,-1455.581446
263.115954,-296.082377,-9474.636058,-1608.800546
263.116276,-148.041188,-9474.636058,-1762.019645
263.116597,-222.061783,-9400.615463,-1685.410096
263.116919,-370.102971,-9326.594869,-1608.800546
263.117241,-296.082377,-9400.615463,-1532.190996
263.117563,0.000000,-9326.594869,-1302.362347
263.117885,0.000000,-9474.636058,-1685.410096
263.118207,-444.123565,-9400.615463,-1608.800546
263.118528,-370.102971,-9474.636058,-1532.190996
263.118850,296.082377,-9474.636058,-1532.190996
263.119172,592.164754,-9474.636058,-2145.067394
263.119494,1184.329507,-9844.739029,-1455.581446
263.119816,1036.288319,-9844.739029,-995.924147
263.120138,740.205942,-9326.594869,-536.266849
263.120460,444.123565,-9326.594869,-919.314598
263.120781,0.000000,-8512.368333,-1302.362347
263.121103,-962.267725,-8956.491898,-2221.676944
263.121425,-1480.411884,-8734.430116,-1838.629195
263.121747,-1110.308913,-9252.574275,-2374.896044
263.122069,-148.041188,-9770.718434,-1838.629195
263.122391,0.000000,-10436.903782,-1225.752797
263.122712,0.000000,-9770.718434,-689.485948
263.123034,592.164754,-9474.636058,-1378.971896
263.123356,1776.494261,-9696.697840,-2221.676944
263.123678,2072.576638,-10288.862594,-1915.238745
263.124000,1406.391290,-9326.594869,-766.095498
263.124322,1332.370696,-8438.347739,76.609550
263.124643,2738.761985,-9400.615463,-689.485948
263.124965,3256.906145,-9770.718434,-766.095498
263.125287,2738.761985,-9178.553681,153.219100
263.125609,2442.679609,-8142.265362,0.000000
263.125931,3034.844362,-7920.203579,-842.705048
263.126253,3256.906145,-8586.388927,-689.485948
263.126574,2516.700203,-9030.512492,-383.047749
263.126896,2072.576638,-8216.285956,-919.314598
263.127218,2664.741391,-8216.285956,-1915.238745
263.127540,3552.988522,-9622.677246,-2451.505594
263.127862,4219.173869,-11325.150913,-2145.067394
263.128184,3849.070898,-10658.965565,-1455.581446
263.128506,4145.153275,-10140.821405,-1378.971896
263.128827,4441.235652,-10658.965565,-1225.752797
263.129149,4737.318029,-10066.800811,-1991.848295
263.129471,4145.153275,-9252.574275,-2145.067394
263.129793,3182.885551,-8882.471304,-1532.190996
263.130115,2886.803174,-8808.450710,-1149.143247
263.130437,3701.029710,-8734.430116,-1532.190996
263.130758,4589.276840,-8734.430116,-1608.800546
263.131080,4959.379811,-8512.368333,-1455.581446
263.131402,6143.709319,-9104.533087,-1149.143247
263.131724,6143.709319,-8808.450710,-1302.362347
263.132046,5995.668130,-9326.594869,-1302.362347
263.132368,5181.441594,-9474.636058,-1455.581446
263.132689,3701.029710,-9326.594869,-2451.505594
263.133011,2146.597232,-10288.862594,-2374.896044
263.133333,1184.329507,-11843.295072,-2451.505594
263.133655,666.185348,-12805.562797,-1378.971896
263.133977,296.082377,-13027.624579,-459.657299
263.134299,592.164754,-12435.459826,459.657299
263.134621,1554.432478,-11547.212695,1149.143247
263.134942,1998.556043,-9844.739029,1149.143247
263.135264,1480.411884,-8068.244768,1532.190996
263.135586,0.000000,-6069.688724,1455.581446
263.135908,-888.247130,-4663.297435,383.047749
263.136230,-1702.473667,-3923.091493,-766.095498
263.136552,-814.226536,-4663.297435,-2911.162892
263.136873,370.102971,-5107.421000,-3370.820191
263.137195,2516.700203,-5921.647536,-4213.525239
263.137517,4811.338623,-7846.182985,-4519.963438
263.137839,6439.791695,-9918.759623,-4749.792088
263.138161,6735.874072,-12435.459826,-4749.792088
263.138483,5403.503377,-14211.954086,-3217.601092
263.138804,4589.276840,-14804.118840,-2604.724693
263.139126,3923.091493,-14285.974681,-2911.162892
263.139448,2664.741391,-13101.645173,-1532.190996
263.139770,1480.411884,-11917.315666,1072.533697
263.140092,-592.164754,-9844.739029,3524.039291
263.140414,-1184.329507,-7402.059420,3600.648841
263.140736,-740.205942,-4959.379811,2911.162892
263.141057,-592.164754,-4219.173869,1762.019645
263.141379,-1406.391290,-3775.050304,1685.410096
263.141701,-1924.535449,-4885.359217,1762.019645
263.142023,-1702.473667,-6957.935855,-229.828649
263.142345,-814.226536,-9104.533087,-2987.772442
263.142667,74.020594,-9770.718434,-4826.401637
263.142988,0.000000,-11991.336260,-5209.449386
263.143310,0.000000,-15766.386565,-3677.258390
263.143632,-740.205942,-17690.922014,-3983.696590
263.143954,-666.185348,-16950.716072,-4519.963438
263.144276,148.041188,-14508.036463,-4749.792088
263.144598,1628.453072,-12065.356855,-3983.696590
263.144919,2368.659014,-9474.636058,-2298.286494
263.145241,1998.556043,-7105.977043,-612.876398
263.145563,1850.514855,-5255.462188,1685.410096
263.145885,1998.556043,-5403.503377,2298.286494
263.146207,1776.494261,-5847.626942,3064.381992
263.146529,814.226536,-5181.441594,3294.210641
263.146850,1480.411884,-3849.070898,1991.848295
263.147172,2368.659014,-4737.318029,153.219100
263.147494,1702.473667,-6587.832884,842.705048
263.147816,-518.144159,-7179.997637,2221.676944
263.148138,-1480.411884,-8142.265362,-1225.752797
263.148460,-888.247130,-10288.862594,-5592.497135
263.148782,-888.247130,-11103.089130,-7354.516781
263.149103,-1554.432478,-12287.418637,-5669.106685
263.149425,-2368.659014,-15692.365970,-3524.039291
263.149747,-2516.700203,-16950.716072,-1915.238745
263.150069,-2590.720797,-14063.912898,-3447.429741
263.150391,-1776.494261,-11325.150913,-4903.011187
263.150713,-1110.308913,-10807.006753,-2451.505594
263.151034,-1924.535449,-7624.121203,-766.095498
263.151356,-2072.576638,-3923.091493,-1149.143247
263.151678,814.226536,-3182.885551,-689.485948
263.152000,3775.050304,-6291.750507,-536.266849
263.152322,4885.359217,-9104.533087,-306.438199
263.152644,4811.338623,-10066.800811,1378.971896
263.152965,4959.379811,-9696.697840,2987.772442
263.153287,5773.606348,-9474.636058,1762.019645
263.153609,5773.606348,-9178.553681,-842.705048
263.153931,4071.132681,-8290.306550,-1915.238745
263.154253,444.123565,-7105.977043,-1991.848295
263.154575,-3182.885551,-7402.059420,-2068.457845
263.154897,-5551.544565,-9474.636058,-2604.724693
263.155218,-7179.997637,-12139.377449,-3294.210641
263.155540,-8956.491898,-13471.748144,-3983.696590
263.155862,-9992.780217,-13915.871710,-2911.162892
263.156184,-9548.656652,-12213.398043,-2374.896044
263.156506,-8438.347739,-9474.636058,-3217.601092
263.156828,-7179.997637,-7994.224174,-3830.477490
263.157149,-5551.544565,-7179.997637,-3217.601092
263.157471,-4589.276840,-5995.668130,-3140.991542
263.157793,-1776.494261,-6883.915261,-3447.429741
263.158115,1850.514855,-8586.388927,-2451.505594
263.158437,5773.606348,-10807.006753,-1378.971896
263.158759,9104.533087,-12213.398043,-306.438199
263.159080,9622.677246,-12805.562797,1838.629195
263.159402,9030.512492,-10436.903782,3217.601092
263.159724,8142.265362,-7105.977043,1915.238745
263.160046,7254.018232,-6217.729913,-766.095498
263.160368,4885.359217,-5551.544565,-1072.533697
263.160690,296.082377,-4367.215058,-612.876398
263.161012,-2738.761985,-5995.668130,612.876398
263.161333,-3997.112087,-9104.533087,1072.533697
263.161655,-4811.338623,-12361.439231,-306.438199
263.161977,-5995.668130,-13471.748144,-2145.067394
263.162299,-6513.812290,-13545.768739,-2374.896044
263.162621,-6217.729913,-14359.995275,-2834.553343
263.162943,-5329.482782,-13249.686362,-2987.772442
263.163264,-4515.256246,-9696.697840,-2757.943793
263.163586,-3627.009116,-7550.100608,-3370.820191
263.163908,-2294.638420,-7698.141797,-4060.306139
263.164230,222.061783,-8808.450710,-3677.258390
263.164552,2738.761985,-8438.347739,-4060.306139
263.164874,5625.565159,-9696.697840,-2451.505594
263.165195,8290.306550,-11621.233289,536.266849
263.165517,9178.553681,-11103.089130,1455.581446
263.165839,9474.636058,-8068.244768,1685.410096
263.166161,8734.430116,-6735.874072,1455.581446
263.166483,5403.503377,-5921.647536,1608.800546
263.166805,1332.370696,-4589.276840,1149.143247
263.167126,-2072.576638,-4219.173869,229.828649
263.167448,-3182.885551,-7105.977043,-766.095498
263.167770,-4145.153275,-11103.089130,-306.438199
263.168092,-5181.441594,-14137.933492,0.000000
263.168413,-6439.791695,-13619.789333,306.438199
263.168735,-6365.771101,-12213.398043,-459.657299
263.169056,-5773.606348,-11843.295072,-2911.162892
263.169378,-5033.400406,-10881.027347,-4366.744339
263.169700,-4811.338623,-9030.512492,-4443.353888
263.170021,-3330.926739,-7254.018232,-3907.087040
263.170343,-444.123565,-7624.121203,-4290.134789
263.170664,2738.761985,-9178.553681,-3753.867940
263.170986,4737.318029,-9992.780217,-3064.381992
263.171308,5699.585753,-10658.965565,-1225.752797
263.171629,5181.441594,-9844.739029,383.047749
263.171951,4663.297435,-8216.285956,536.266849
263.172273,3552.988522,-6957.935855,-1149.143247
263.172594,1554.432478,-6883.915261,-1762.019645
263.172916,-1184.329507,-5403.503377,306.438199
263.173237,-3775.050304,-5107.421000,0.000000
263.173559,-4811.338623,-6069.688724,-919.314598
263.173881,-4811.338623,-8660.409521,-1991.848295
263.174202,-4885.359217,-11769.274478,-3294.210641
263.174524,-4737.318029,-14656.077652,-2374.896044
263.174845,-4885.359217,-16950.716072,-1149.143247
263.175167,-4367.215058,-16062.468941,-1608.800546
263.175489,-2812.782580,-12805.562797,-3140.991542
263.175810,-1184.329507,-10732.986159,-3753.867940
263.176132,0.000000,-8586.388927,-4136.915689
263.176453,1924.535449,-6217.729913,-4060.306139
263.176775,5033.400406,-6069.688724,-4366.744339
263.177097,8290.306550,-8216.285956,-3753.867940
263.177418,9918.759623,-11695.253884,-1762.019645
263.177740,8290.306550,-10807.006753,459.657299
263.178062,5625.565159,-7254.018232,2528.115143
263.178383,3849.070898,-5551.544565,1149.143247
263.178705,2368.659014,-6069.688724,-1991.848295
263.179026,-1110.308913,-6291.750507,-2374.896044
263.179348,-5773.606348,-6291.750507,-229.828649
263.179670,-9326.594869,-7105.977043,1532.190996
263.179991,-9104.533087,-9548.656652,842.705048
263.180313,-9252.574275,-11547.212695,-1455.581446
263.180634,-9474.636058,-12361.439231,-2528.115143
263.180956,-9474.636058,-12509.480420,-2374.896044
263.181278,-8734.430116,-13323.706956,-1072.533697
263.181599,-6439.791695,-12509.480420,-995.924147
263.181921,-3478.967927,-9474.636058,-2221.676944
263.182243,-592.164754,-8068.244768,-3753.867940
263.182564,2294.638420,-8068.244768,-3983.696590
263.182886,5255.462188,-8290.306550,-3524.039291
263.183207,8364.327145,-8290.306550,-2911.162892
263.183529,11473.192101,-9844.739029,-1378.971896
263.183851,11103.089130,-10807.006753,2068.457845
263.184172,8512.368333,-9178.553681,3140.991542
263.184494,5329.482782,-6513.812290,1455.581446
263.184815,3849.070898,-5107.421000,-842.705048
263.185137,2072.576638,-6069.688724,-2451.505594
263.185459,-666.185348,-6291.750507,-153.219100
263.185780,-3627.009116,-5921.647536,1915.238745
263.186102,-4811.338623,-8068.244768,1685.410096
263.186424,-4737.318029,-11029.068536,76.609550
263.186745,-5477.523971,-12361.439231,-1685.410096
263.187067,-7254.018232,-14211.954086,-3753.867940
263.187388,-8068.244768,-16136.489536,-3140.991542
263.187710,-7698.141797,-14434.015869,-1915.238745
263.188032,-5995.668130,-11769.274478,-2451.505594
263.188353,-2738.761985,-10140.821405,-2068.457845
263.188675,296.082377,-7624.121203,-3753.867940
263.188996,2146.597232,-5625.565159,-5515.887586
263.189318,4885.359217,-7105.977043,-5132.839837
263.189640,7476.080014,-10584.944971,-2374.896044
263.189961,8586.388927,-11843.295072,-536.266849
263.190283,7846.182985,-9548.656652,1685.410096
263.190604,6587.832884,-6735.874072,2221.676944
263.190926,5107.421000,-5107.421000,689.485948
263.191248,3404.947333,-6661.853478,-1532.190996
263.191569,0.000000,-6735.874072,-995.924147
263.191891,-4293.194464,-6217.729913,1149.143247
263.192213,-6883.915261,-7402.059420,1302.362347
263.192534,-7031.956449,-11177.109724,459.657299
263.192856,-7402.059420,-12731.542202,-1991.848295
263.193177,-7402.059420,-13545.768739,-2604.724693
263.193499,-7328.038826,-13619.789333,-1608.800546
263.193821,-7476.080014,-13249.686362,-766.095498
263.194142,-6143.709319,-11177.109724,-1838.629195
263.194464,-3775.050304,-8808.450710,-3447.429741
263.194785,-1110.308913,-8142.265362,-4519.963438
263.195107,1258.350101,-8068.244768,-4903.011187
263.195429,3849.070898,-7698.141797,-4060.306139
263.195750,6365.771101,-7624.121203,-3447.429741
263.196072,7846.182985,-8142.265362,-1532.190996
263.196394,7550.100608,-9252.574275,612.876398
263.196715,5551.544565,-7994.224174,842.705048
263.197037,4071.132681,-7031.956449,-612.876398
263.197358,2960.823768,-6217.729913,-1225.752797
263.197680,1332.370696,-6587.832884,-1149.143247
263.198002,-1554.432478,-5773.606348,842.705048
263.198323,-4367.215058,-4959.379811,1608.800546
263.198645,-5847.626942,-6735.874072,153.219100
263.198966,-6587.832884,-11103.089130,-1378.971896
263.199288,-7402.059420,-13989.892304,-3217.601092
263.199610,-7254.018232,-15840.407159,-3753.867940
263.199931,-6069.688724,-16654.633695,-2987.772442
263.200253,-3552.988522,-15692.365970,-1072.533697
263.200574,-666.185348,-11399.171507,-1149.143247
263.200896,1628.453072,-8512.368333,-4290.134789
263.201218,3256.906145,-7105.977043,-4749.792088
263.201539,5107.421000,-7031.956449,-3677.258390
263.201861,6957.935855,-6143.709319,-3677.258390
263.202183,8660.409521,-8586.388927,-2451.505594
263.202504,10288.862594,-12287.418637,-536.266849
263.202826,10510.924376,-11695.253884,919.314598
263.203147,8216.285956,-8290.306550,1072.533697
263.203469,4811.338623,-6439.791695,1532.190996
263.203791,2368.659014,-6513.812290,842.705048
263.204112,-962.267725,-5329.482782,-1838.629195
263.204434,-5551.544565,-5995.668130,-1991.848295
263.204755,-9030.512492,-8660.409521,76.609550
263.205077,-10362.883188,-12139.377449,153.219100
263.205399,-10510.924376,-13397.727550,-1149.143247
263.205720,-10066.800811,-12657.521608,-2068.457845
263.206042,-8956.491898,-12731.542202,-1608.800546
263.206364,-7550.100608,-13619.789333,-1991.848295
263.206685,-6661.853478,-12139.377449,-1915.238745
263.207007,-4663.297435,-9104.533087,-1991.848295
263.207328,-1184.329507,-6587.832884,-2681.334243
263.207650,2294.638420,-5921.647536,-4443.353888
263.207972,5699.585753,-7624.121203,-4903.011187
263.208293,7846.182985,-8808.450710,-2451.505594
263.208615,8660.409521,-9474.636058,995.924147
263.208936,8512.368333,-9104.533087,2834.553343
263.209258,7772.162391,-7846.182985,1455.581446
263.209580,5551.544565,-7254.018232,-689.485948
263.209901,3404.947333,-5921.647536,-1991.848295
263.210223,222.061783,-5699.585753,-612.876398
263.210545,-2738.761985,-5699.585753,1302.362347
263.210866,-4663.297435,-5033.400406,1455.581446
263.211188,-5921.647536,-7846.182985,-842.705048
263.211509,-6735.874072,-13915.871710,-1685.410096
263.211831,-8068.244768,-15988.448347,-612.876398
263.212153,-8216.285956,-14878.139434,-2068.457845
263.212474,-6957.935855,-14063.912898,-3370.820191
263.212796,-3627.009116,-13471.748144,-2528.115143
263.213117,-2960.823768,-9844.739029,-1915.238745
263.213439,-1924.535449,-7550.100608,-3064.381992
263.213761,740.205942,-6587.832884,-2757.943793
263.214082,3923.091493,-5773.606348,-3983.696590
263.214404,6735.874072,-7105.977043,-5592.497135
263.214725,8512.368333,-10584.944971,-2834.553343
263.215047,9178.553681,-11917.315666,689.485948
263.215369,8660.409521,-8956.491898,2374.896044
263.215690,6957.935855,-5477.523971,1302.362347
263.216012,5181.441594,-6291.750507,-766.095498
263.216334,2072.576638,-7254.018232,-2451.505594
263.216655,-3034.844362,-7105.977043,-2604.724693
263.216977,-7920.203579,-8142.265362,-383.047749
263.217298,-8956.491898,-10807.006753,766.095498
263.217620,-8290.306550,-12805.562797,-1915.238745
263.217942,-8290.306550,-14063.912898,-3294.210641
263.218263,-7846.182985,-13693.809927,-1838.629195
263.218585,-7179.997637,-13915.871710,306.438199
263.218906,-5995.668130,-12879.583391,-1532.190996
263.219228,-4441.235652,-10140.821405,-2604.724693
263.219550,-2368.659014,-7105.977043,-2987.772442
263.219871,-444.123565,-6439.791695,-3677.258390
263.220193,2442.679609,-6291.750507,-3677.258390
263.220515,5921.647536,-7031.956449,-3983.696590
263.220836,9030.512492,-9474.636058,-2757.943793
263.221158,9918.759623,-11769.274478,306.438199
263.221479,8142.265362,-10288.862594,3447.429741
263.221801,5107.421000,-6883.915261,1762.019645
263.222123,4367.215058,-5699.585753,-689.485948
263.222444,2812.782580,-5181.441594,-2911.162892
263.222766,-666.185348,-5329.482782,-2068.457845
263.223087,-5033.400406,-5329.482782,383.047749
263.223409,-6809.894666,-6143.709319,2451.505594
263.223731,-7031.956449,-8586.388927,-306.438199
263.224052,-6217.729913,-13027.624579,-2757.943793
263.224374,-6587.832884,-15470.304188,-2451.505594
263.224695,-6809.894666,-14952.160028,-1455.581446
263.225017,-5995.668130,-13471.748144,-1302.362347
263.225339,-3108.864956,-12435.459826,-1225.752797
263.225660,-1184.329507,-9992.780217,-1991.848295
263.225982,0.000000,-7994.224174,-3753.867940
263.226304,1628.453072,-6587.832884,-3447.429741
263.226625,4737.318029,-5847.626942,-3217.601092
263.226947,7846.182985,-7328.038826,-3524.039291
263.227268,9918.759623,-11473.192101,-2068.457845
263.227590,9178.553681,-12657.521608,995.924147
263.227912,6883.915261,-9252.574275,2528.115143
263.228233,4737.318029,-6365.771101,1378.971896
263.228555,3034.844362,-6883.915261,-1378.971896
263.228876,296.082377,-7994.224174,-2451.505594
263.229198,-4219.173869,-6957.935855,-1302.362347
263.229520,-8068.244768,-6809.894666,919.314598
263.229841,-8142.265362,-9400.615463,1225.752797
263.230163,-7105.977043,-11325.150913,-1149.143247
263.230485,-7328.038826,-13027.624579,-3830.477490
263.230806,-8512.368333,-13175.665768,-1915.238745
263.231128,-8808.450710,-13027.624579,-153.219100
263.231449,-7550.100608,-12065.356855,-1608.800546
263.231771,-4737.318029,-9844.739029,-3524.039291
263.232093,-1332.370696,-7772.162391,-4443.353888
263.232414,1406.391290,-7476.080014,-4749.792088
263.232736,3701.029710,-7994.224174,-3064.381992
263.233057,6513.812290,-7772.162391,-2068.457845
263.233379,9178.553681,-7179.997637,-1072.533697
263.233701,9770.718434,-8586.388927,-229.828649
263.234022,7846.182985,-9326.594869,459.657299
263.234344,4367.215058,-7846.182985,0.000000
263.234665,2812.782580,-6809.894666,-995.924147
263.234987,2146.597232,-6735.874072,-919.314598
263.235309,148.041188,-6439.791695,0.000000
263.235630,-2294.638420,-6883.915261,153.219100
263.235952,-4589.276840,-7179.997637,766.095498
263.236274,-5107.421000,-10066.800811,-689.485948
263.236595,-5107.421000,-12805.562797,-2374.896044
263.236917,-5773.606348,-14211.954086,-3064.381992
263.237238,-5699.585753,-15322.262999,-2604.724693
263.237560,-5625.565159,-15026.180623,-2451.505594
263.237882,-3627.009116,-12731.542202,-1838.629195
263.238203,-1480.411884,-10807.006753,-2757.943793
263.238525,666.185348,-8142.265362,-3524.039291
263.238846,2590.720797,-5329.482782,-3217.601092
263.239168,5107.421000,-4737.318029,-4366.744339
263.239490,7772.162391,-8142.265362,-4290.134789
263.239811,9622.677246,-11621.233289,-1685.410096
263.240133,9252.574275,-10436.903782,536.266849
263.240455,7179.997637,-7550.100608,1225.752797
263.240776,4589.276840,-6291.750507,995.924147
263.241098,2664.741391,-7624.121203,-1532.190996
263.241419,-370.102971,-7772.162391,-3064.381992
263.241741,-4663.297435,-7328.038826,-2068.457845
263.242063,-7920.203579,-8956.491898,0.000000
263.242384,-8734.430116,-10584.944971,-383.047749
263.242706,-8586.388927,-11917.315666,-1991.848295
263.243027,-8734.430116,-13101.645173,-2528.115143
263.243349,-8142.265362,-13471.748144,-2221.676944
263.243671,-7624.121203,-12731.542202,-1455.581446
263.243992,-6291.750507,-10732.986159,-1302.362347
263.244314,-3701.029710,-9252.574275,-2145.067394
263.244636,-1184.329507,-8290.306550,-2451.505594
263.244957,1258.350101,-7698.141797,-3370.820191
263.245279,3775.050304,-7846.182985,-3370.820191
263.245600,6661.853478,-7772.162391,-2911.162892
263.245922,8660.409521,-9178.553681,-1225.752797
263.246244,8512.368333,-9474.636058,1532.190996
263.246565,6513.812290,-8882.471304,1685.410096
263.246887,4589.276840,-7624.121203,76.609550
263.247208,3034.844362,-6291.750507,-1608.800546
263.247530,962.267725,-5995.668130,-1685.410096
263.247852,-2442.679609,-6439.791695,-536.266849
263.248173,-5107.421000,-5551.544565,1225.752797
263.248495,-6513.812290,-6291.750507,842.705048
263.248816,-6587.832884,-10584.944971,-1225.752797
263.249138,-6883.915261,-14211.954086,-1915.238745
263.249460,-8068.244768,-13915.871710,-1762.019645
263.249781,-8290.306550,-11843.295072,-2298.286494
263.250103,-5403.503377,-12731.542202,-2451.505594
263.250425,-2294.638420,-12583.501014,-2451.505594
263.250746,-1036.288319,-9918.759623,-2681.334243
263.251068,74.020594,-7105.977043,-2528.115143
263.251389,2664.741391,-6513.812290,-2298.286494
263.251711,6217.729913,-6661.853478,-4213.525239
263.252033,8956.491898,-8660.409521,-4903.011187
263.252354,9918.759623,-11991.336260,-1685.410096
263.252676,9548.656652,-11843.295072,2451.505594
263.252997,7328.038826,-8586.388927,2987.772442
263.253319,5181.441594,-6513.812290,1378.971896
263.253641,3701.029710,-6809.894666,-1378.971896
263.253962,740.205942,-7328.038826,-3064.381992
263.254284,-3478.967927,-7328.038826,-1991.848295
263.254606,-6513.812290,-7772.162391,1072.533697
263.254927,-6439.791695,-9696.697840,1225.752797
263.255249,-5921.647536,-12139.377449,-1455.581446
263.255570,-7328.038826,-13619.789333,-2757.943793
263.255892,-9030.512492,-13249.686362,-1915.238745
263.256214,-8956.491898,-12287.418637,-1762.019645
263.256535,-7254.018232,-11621.233289,-3753.867940
263.256857,-4367.215058,-10140.821405,-4366.744339
263.257178,-1924.535449,-8660.409521,-3907.087040
263.257500,0.000000,-7920.203579,-2757.943793
263.257822,3034.844362,-7402.059420,-2451.505594
263.258143,6143.709319,-7254.018232,-3830.477490
263.258465,9030.512492,-8808.450710,-3983.696590
263.258786,8956.491898,-10214.842000,-919.314598
263.259108,6439.791695,-9474.636058,1838.629195
263.259430,3849.070898,-7254.018232,1455.581446
263.259751,2664.741391,-6513.812290,-459.657299
263.260073,1554.432478,-6809.894666,-1608.800546
263.260395,-888.247130,-6439.791695,-1149.143247
263.260716,-3404.947333,-6439.791695,383.047749
263.261038,-4071.132681,-7772.162391,1378.971896
263.261359,-3404.947333,-9770.718434,0.000000
263.261681,-3849.070898,-12213.398043,-1072.533697
263.262003,-5477.523971,-13249.686362,-1302.362347
263.262324,-7105.977043,-13027.624579,-2145.067394
263.262646,-6661.853478,-13619.789333,-3447.429741
263.262967,-4145.153275,-13175.665768,-3447.429741
263.263289,-1258.350101,-10436.903782,-2911.162892
263.263611,1110.308913,-8438.347739,-2681.334243
263.263932,3923.091493,-6513.812290,-2757.943793
263.264254,6957.935855,-6439.791695,-2911.162892
263.264576,9326.594869,-7772.162391,-3064.381992
263.264897,9474.636058,-10140.821405,-1991.848295
263.265219,7402.059420,-10436.903782,459.657299
263.265540,4441.235652,-8364.327145,1072.533697
263.265862,2590.720797,-7254.018232,-153.219100
263.266184,1554.432478,-7476.080014,-1378.971896
263.266505,-296.082377,-7179.997637,-1685.410096
263.266827,-3256.906145,-7105.977043,-919.314598
263.267148,-5847.626942,-8364.327145,383.047749
263.267470,-7402.059420,-9918.759623,306.438199
263.267792,-7994.224174,-10955.047942,-1225.752797
263.268114,-8438.347739,-12435.459826,-3140.991542
263.268436,-8808.450710,-13397.727550,-2604.724693
263.268758,-8216.285956,-13693.809927,-1915.238745
263.269079,-6587.832884,-12139.377449,-1072.533697
263.269401,-3034.844362,-10214.842000,-1378.971896
263.269723,1184.329507,-8438.347739,-2604.724693
263.270045,4441.235652,-6661.853478,-3983.696590
263.270367,7105.977043,-7105.977043,-4596.572988
263.270689,8142.265362,-8290.306550,-2757.943793
263.271010,7550.100608,-8586.388927,306.438199
263.271332,5181.441594,-7920.203579,2068.457845
263.271654,4145.153275,-8290.306550,0.000000
263.271976,3330.926739,-9104.533087,-2451.505594
263.272298,2664.741391,-9474.636058,-3140.991542
263.272620,296.082377,-8364.327145,-306.438199
263.272942,-2368.659014,-6069.688724,3140.991542
263.273263,-3330.926739,-4737.318029,2987.772442
263.273585,-4441.235652,-6883.915261,-995.924147
263.273907,-6143.709319,-11177.109724,-4290.134789
263.274229,-9326.594869,-13323.706956,-2451.505594
263.274551,-10658.965565,-12139.377449,-1608.800546
263.274873,-8438.347739,-13471.748144,-3064.381992
263.275194,-3775.050304,-15174.221811,-3447.429741
263.275516,-1110.308913,-13397.727550,-1838.629195
263.275838,-518.144159,-10510.924376,-1378.971896
263.276160,1332.370696,-7624.121203,-689.485948
263.276482,5181.441594,-4737.318029,-2451.505594
263.276804,8512.368333,-3849.070898,-5515.887586
263.277125,9918.759623,-7846.182985,-3983.696590
263.277447,10140.821405,-11547.212695,229.828649
263.277769,8068.244768,-10214.842000,2604.724693
263.278091,5255.462188,-7328.038826,2451.505594
263.278413,3997.112087,-6513.812290,689.485948
263.278735,2072.576638,-7402.059420,-2221.676944
263.279056,-962.267725,-7994.224174,-4290.134789
263.279378,-5403.503377,-7772.162391,-766.095498
263.279700,-7550.100608,-8068.244768,1455.581446
263.280022,-7254.018232,-9992.780217,0.000000
263.280344,-7920.203579,-12435.459826,-2834.553343
263.280666,-9326.594869,-12879.583391,-2604.724693
263.280987,-10732.986159,-12731.542202,-2221.676944
263.281309,-9844.739029,-13471.748144,-1608.800546
263.281631,-7402.059420,-11843.295072,-3217.601092
263.281953,-3701.029710,-9178.553681,-3830.477490
263.282275,222.061783,-7698.141797,-3677.258390
263.282597,2812.782580,-8512.368333,-2757.943793
263.282919,5403.503377,-7254.018232,-2451.505594
263.283240,8216.285956,-7254.018232,-2528.115143
263.283562,9918.759623,-9252.574275,-1532.190996
263.283884,8290.306550,-10658.965565,459.657299
263.284206,4145.153275,-9178.553681,1378.971896
263.284528,2072.576638,-8068.244768,0.000000
263.284850,1850.514855,-7328.038826,-1455.581446
263.285171,814.226536,-7031.956449,-1762.019645
263.285493,-1702.473667,-6217.729913,0.000000
263.285815,-3701.029710,-6291.750507,1072.533697
263.286137,-4515.256246,-8216.285956,0.000000
263.286459,-5255.462188,-10436.903782,-689.485948
263.286781,-6439.791695,-12213.398043,-2145.067394
263.287102,-7105.977043,-14804.118840,-3217.601092
263.287424,-6587.832884,-16062.468941,-3677.258390
263.287746,-5551.544565,-14508.036463,-1762.019645
263.288068,-2960.823768,-11991.336260,-153.219100
263.288390,148.041188,-7846.182985,-919.314598
263.288712,3404.947333,-4071.132681,-3524.039291
263.289033,6513.812290,-3478.967927,-5286.058936
263.289355,8956.491898,-7772.162391,-4979.620737
263.289677,9178.553681,-10955.047942,-1378.971896
263.289999,7698.141797,-11399.171507,1991.848295
263.290321,5773.606348,-9400.615463,2834.553343
263.290643,3997.112087,-7031.956449,1455.581446
263.290964,2368.659014,-6587.832884,-995.924147
263.291286,444.123565,-7254.018232,-2374.896044
263.291608,-2738.761985,-6735.874072,-1072.533697
263.291930,-5107.421000,-6957.935855,766.095498
263.292252,-6143.709319,-9104.533087,459.657299
263.292574,-6439.791695,-11029.068536,-1378.971896
263.292896,-7772.162391,-11325.150913,-3600.648841
263.293217,-7550.100608,-14211.954086,-3600.648841
263.293539,-7105.977043,-16284.530724,-2451.505594
263.293861,-6661.853478,-14434.015869,-1378.971896
263.294183,-5403.503377,-10732.986159,-995.924147
263.294505,-1628.453072,-8512.368333,-919.314598
263.294827,2146.597232,-5847.626942,-2528.115143
263.295148,4589.276840,-3256.906145,-5286.058936
263.295470,7402.059420,-5921.647536,-4979.620737
263.295792,9030.512492,-9992.780217,-1762.019645
263.296114,7402.059420,-11547.212695,2145.067394
263.296436,4441.235652,-9696.697840,2911.162892
263.296758,2960.823768,-7698.141797,459.657299
263.297079,3182.885551,-7624.121203,-3370.820191
263.297401,2220.617826,-8142.265362,-5132.839837
263.297723,-1554.432478,-6957.935855,-1455.581446
263.298045,-4515.256246,-5773.606348,3294.210641
263.298367,-4737.318029,-6069.688724,2604.724693
263.298689,-3849.070898,-9178.553681,-2374.896044
263.299010,-4959.379811,-13249.686362,-4979.620737
263.299332,-7550.100608,-14137.933492,-3370.820191
263.299654,-8734.430116,-13841.851115,-1378.971896
263.299976,-7105.977043,-14730.098246,-2221.676944
263.300298,-3701.029710,-14137.933492,-2451.505594
263.300620,-1776.494261,-11769.274478,-2834.553343
263.300941,-296.082377,-8956.491898,-2757.943793
263.301263,1998.556043,-6143.709319,-1915.238745
263.301585,6291.750507,-3552.988522,-3140.991542
263.301907,9178.553681,-4663.297435,-3830.477490
263.302229,10658.965565,-9918.759623,-1838.629195
263.302551,9992.780217,-12879.583391,1608.800546
263.302873,7698.141797,-10436.903782,2681.334243
263.303194,5181.441594,-6513.812290,1532.190996
263.303516,3552.988522,-5847.626942,-459.657299
263.303838,814.226536,-7254.018232,-2374.896044
263.304160,-2886.803174,-7105.977043,-2451.505594
263.304482,-6365.771101,-7105.977043,-153.219100
263.304804,-7254.018232,-8660.409521,1072.533697
263.305125,-7031.956449,-11991.336260,-689.485948
263.305447,-7846.182985,-13397.727550,-2145.067394
263.305769,-9548.656652,-12731.542202,-2451.505594
263.306091,-11029.068536,-12805.562797,-1608.800546
263.306413,-9474.636058,-13619.789333,-1915.238745
263.306735,-7328.038826,-11029.068536,-3140.991542
263.307056,-4219.173869,-8364.327145,-4213.525239
263.307378,-444.123565,-7624.121203,-3294.210641
263.307700,2886.803174,-7254.018232,-2374.896044
263.308022,5921.647536,-7105.977043,-2221.676944
263.308344,8290.306550,-7105.977043,-1685.410096
263.308666,8438.347739,-9104.533087,-153.219100
263.308987,6735.874072,-9400.615463,536.266849
263.309309,4071.132681,-7624.121203,153.219100
263.309631,2812.782580,-6735.874072,-1302.362347
263.309953,2664.741391,-7402.059420,-1991.848295
263.310275,1036.288319,-7105.977043,-995.924147
263.310597,-2516.700203,-6587.832884,1378.971896
263.310918,-3997.112087,-7402.059420,1762.019645
263.311240,-3849.070898,-10288.862594,0.000000
263.311562,-4737.318029,-12509.480420,-2298.286494
263.311884,-7179.997637,-12879.583391,-2068.457845
263.312206,-7920.203579,-13027.624579,-1915.238745
263.312528,-6809.894666,-13915.871710,-2911.162892
263.312850,-4071.132681,-13249.686362,-3294.210641
263.313171,-1332.370696,-11547.212695,-2681.334243
263.313493,148.041188,-9104.533087,-1302.362347
263.313815,2812.782580,-6365.771101,-1532.190996
263.314137,5625.565159,-4663.297435,-3064.381992
263.314459,8216.285956,-6365.771101,-4749.792088
263.314781,9326.594869,-9992.780217,-3140.991542
263.315102,7920.203579,-11325.150913,306.438199
263.315424,4959.379811,-9178.553681,3524.039291
263.315746,3330.926739,-7254.018232,1762.019645
263.316068,2294.638420,-7328.038826,-995.924147
263.316390,518.144159,-8364.327145,-2604.724693
263.316712,-2442.679609,-7846.182985,-1991.848295
263.317033,-5181.441594,-7476.080014,-459.657299
263.317355,-6143.709319,-9622.677246,612.876398
263.317677,-7179.997637,-10732.986159,-536.266849
263.317999,-7846.182985,-12287.418637,-2681.334243
263.318321,-7624.121203,-14211.954086,-3370.820191
263.318643,-7031.956449,-15840.407159,-2604.724693
263.318964,-6143.709319,-13767.830521,-1149.143247
263.319286,-4071.132681,-10732.986159,-919.314598
263.319608,-888.247130,-8142.265362,-842.705048
263.319930,1998.556043,-5329.482782,-2451.505594
263.320252,4959.379811,-4367.215058,-4979.620737
263.320574,7254.018232,-6883.915261,-4903.011187
263.320895,8734.430116,-10288.862594,-2221.676944
263.321217,7179.997637,-10881.027347,1685.410096
263.321539,4367.215058,-8734.430116,2911.162892
263.321861,2664.741391,-7179.997637,689.485948
263.322183,2294.638420,-7179.997637,-2681.334243
263.322505,592.164754,-7179.997637,-4213.525239
263.322827,-2738.761985,-6735.874072,-1378.971896
263.323148,-5181.441594,-6513.812290,2681.334243
263.323470,-5477.523971,-7550.100608,2221.676944
263.323792,-5625.565159,-10955.047942,-995.924147
263.324114,-6735.874072,-11843.295072,-2987.772442
263.324436,-7772.162391,-12731.542202,-3140.991542
263.324758,-7328.038826,-14285.974681,-3140.991542
263.325079,-5403.503377,-14878.139434,-2221.676944
263.325401,-2960.823768,-12583.501014,-995.924147
263.325723,-370.102971,-10436.903782,-1072.533697
263.326045,2368.659014,-7179.997637,-1302.362347
263.326367,4737.318029,-4663.297435,-2987.772442
263.326689,7772.162391,-2812.782580,-4519.963438
263.327010,10436.903782,-7031.956449,-4136.915689
263.327332,10658.965565,-11917.315666,-689.485948
263.327654,8512.368333,-12435.459826,2911.162892
263.327976,5625.565159,-9178.553681,2987.772442
263.328298,4515.256246,-6735.874072,153.219100
263.328620,2812.782580,-7254.018232,-2451.505594
263.328941,-444.123565,-7550.100608,-2528.115143
263.329263,-4811.338623,-6439.791695,-459.657299
263.329585,-7031.956449,-6957.935855,919.314598
263.329907,-7550.100608,-9474.636058,306.438199
263.330229,-7698.141797,-12139.377449,-2298.286494
263.330551,-8068.244768,-13397.727550,-3907.087040
263.330872,-7920.203579,-14211.954086,-3140.991542
263.331194,-7105.977043,-15248.242405,-995.924147
263.331516,-6513.812290,-13175.665768,-383.047749
263.331838,-4811.338623,-9400.615463,-1072.533697
263.332160,-2294.638420,-6661.853478,-3140.991542
263.332482,518.144159,-5033.400406,-5286.058936
263.332804,3552.988522,-5107.421000,-5515.887586
263.333125,5995.668130,-6661.853478,-3524.039291
263.333447,8290.306550,-9770.718434,-995.924147
263.333769,8956.491898,-12139.377449,1072.533697
263.334091,8586.388927,-11547.212695,1225.752797
263.334413,7105.977043,-9030.512492,0.000000
263.334735,5107.421000,-7476.080014,-1149.143247
263.335056,1850.514855,-6735.874072,-1532.190996
263.335378,-1258.350101,-5921.647536,-689.485948
263.335700,-3701.029710,-6365.771101,-383.047749
263.336022,-4885.359217,-8512.368333,-689.485948
263.336344,-5921.647536,-11843.295072,-306.438199
263.336666,-6217.729913,-13693.809927,-383.047749
263.336987,-6957.935855,-13767.830521,-229.828649
263.337309,-6587.832884,-12509.480420,-1378.971896
263.337631,-6217.729913,-11547.212695,-2374.896044
263.337953,-5551.544565,-10214.842000,-2987.772442
263.338275,-3849.070898,-8808.450710,-2834.553343
263.338597,-2072.576638,-6587.832884,-3677.258390
263.338918,888.247130,-6217.729913,-4749.792088
263.339240,3775.050304,-7846.182985,-3677.258390
263.339562,5847.626942,-8660.409521,-2681.334243
263.339884,7476.080014,-9622.677246,-1302.362347
263.340206,9252.574275,-11547.212695,-1149.143247
263.340528,9474.636058,-10140.821405,-612.876398
263.340849,6957.935855,-7846.182985,-306.438199
263.341171,3552.988522,-6365.771101,153.219100
263.341493,740.205942,-6883.915261,612.876398
263.341815,-2516.700203,-6957.935855,-153.219100
263.342137,-5255.462188,-7846.182985,-1608.800546
263.342459,-6883.915261,-10584.944971,-1072.533697
263.342781,-7920.203579,-12657.521608,459.657299
263.343102,-7550.100608,-13249.686362,1225.752797
263.343424,-7105.977043,-12361.439231,689.485948
263.343746,-5329.482782,-11473.192101,-766.095498
263.344068,-4441.235652,-9918.759623,-1838.629195
263.344390,-3552.988522,-8290.306550,-1608.800546
263.344712,-1702.473667,-6587.832884,-1991.848295
263.345033,814.226536,-5699.585753,-3217.601092
263.345355,4515.256246,-7476.080014,-4673.182538
263.345677,6883.915261,-10214.842000,-4366.744339
263.345999,7476.080014,-11547.212695,-1915.238745
263.346321,6587.832884,-10436.903782,306.438199
263.346643,5403.503377,-9326.594869,919.314598
263.346964,4293.194464,-7994.224174,-919.314598
263.347286,1924.535449,-7179.997637,-2911.162892
263.347608,-962.267725,-7179.997637,-2451.505594
263.347930,-3108.864956,-7624.121203,-766.095498
263.348252,-4441.235652,-7254.018232,919.314598
263.348574,-5033.400406,-8068.244768,0.000000
263.348895,-6291.750507,-9474.636058,-153.219100
263.349217,-6439.791695,-12139.377449,-383.047749
263.349539,-6439.791695,-13841.851115,-1915.238745
263.349861,-6291.750507,-14285.974681,-2298.286494
263.350183,-5403.503377,-12583.501014,-766.095498
263.350505,-2812.782580,-10066.800811,-153.219100
263.350826,0.000000,-8808.450710,-2298.286494
263.351148,2368.659014,-7476.080014,-3600.648841
263.351470,5255.462188,-6143.709319,-3217.601092
263.351792,7920.203579,-6217.729913,-3907.087040
263.352114,9992.780217,-9918.759623,-3140.991542
263.352436,10362.883188,-12657.521608,-459.657299
263.352757,9400.615463,-11029.068536,229.828649
263.353079,6809.894666,-8586.388927,-612.876398
263.353401,3478.967927,-7994.224174,-229.828649
263.353723,518.144159,-7179.997637,-459.657299
263.354045,-3182.885551,-5477.523971,-1762.019645
263.354367,-6217.729913,-5921.647536,-2451.505594
263.354689,-8290.306550,-9474.636058,-536.266849
263.355010,-9252.574275,-12435.459826,919.314598
263.355332,-9622.677246,-11473.192101,0.000000
263.355654,-8808.450710,-10510.924376,-1532.190996
263.355976,-7105.977043,-11473.192101,-1915.238745
263.356298,-6365.771101,-12657.521608,-2145.067394
263.356620,-5921.647536,-11177.109724,-1608.800546
263.356941,-4145.153275,-7994.224174,-1149.143247
263.357263,-740.205942,-6365.771101,-1685.410096
263.357585,2590.720797,-6587.832884,-4290.134789
263.357907,5995.668130,-6217.729913,-5056.230287
263.358229,9474.636058,-7624.121203,-4366.744339
263.358551,12139.377449,-11177.109724,-1762.019645
263.358872,12435.459826,-12361.439231,306.438199
263.359194,9696.697840,-10732.986159,1072.533697
263.359516,5773.606348,-8068.244768,306.438199
263.359838,2886.803174,-7402.059420,-1302.362347
263.360160,0.000000,-7179.997637,-2681.334243
263.360482,-3330.926739,-6365.771101,-1991.848295
263.360803,-5995.668130,-6587.832884,-689.485948
263.361125,-6957.935855,-9622.677246,1072.533697
263.361447,-7698.141797,-11399.171507,1455.581446
263.361769,-7698.141797,-12435.459826,-229.828649
263.362091,-6735.874072,-13249.686362,-2987.772442
263.362413,-5699.585753,-14137.933492,-3524.039291
263.362734,-5255.462188,-13101.645173,-2374.896044
263.363056,-4441.235652,-10732.986159,-153.219100
263.363378,-1850.514855,-7994.224174,-919.314598
263.363700,1036.288319,-5921.647536,-4060.306139
263.364022,4663.297435,-5921.647536,-6435.202183
263.364344,6513.812290,-7402.059420,-5669.106685
263.364666,8216.285956,-11029.068536,-3447.429741
263.364987,8956.491898,-12879.583391,0.000000
263.365309,9104.533087,-11917.315666,1455.581446
263.365631,7254.018232,-9030.512492,0.000000
263.365953,3923.091493,-6809.894666,-229.828649
263.366275,296.082377,-5847.626942,-1838.629195
263.366597,-3034.844362,-6069.688724,-2374.896044
263.366918,-6735.874072,-7105.977043,-1378.971896
263.367240,-9474.636058,-9400.615463,1072.533697
263.367562,-10066.800811,-12139.377449,1762.019645
263.367884,-9326.594869,-13989.892304,229.828649
263.368206,-6809.894666,-13693.809927,-1455.581446
263.368528,-4959.379811,-11473.192101,-995.924147
263.368849,-4589.276840,-9918.759623,229.828649
263.369171,-3849.070898,-8290.306550,1455.581446
263.369493,-2812.782580,-5625.565159,-536.266849
263.369815,-592.164754,-4737.318029,-3830.477490
263.370137,2442.679609,-5477.523971,-5669.106685
263.370459,5625.565159,-8660.409521,-5515.887586
263.370780,7031.956449,-10881.027347,-3600.648841
263.371102,7772.162391,-11621.233289,383.047749
263.371424,7105.977043,-11103.089130,2298.286494
263.371746,5847.626942,-8512.368333,306.438199
263.372068,3256.906145,-6291.750507,-2528.115143
263.372389,222.061783,-6143.709319,-3447.429741
263.372711,-3330.926739,-6143.709319,-2374.896044
263.373033,-5551.544565,-6957.935855,842.705048
263.373355,-6291.750507,-8068.244768,1685.410096
263.373677,-6883.915261,-10066.800811,842.705048
263.373998,-6587.832884,-12065.356855,-536.266849
263.374320,-5699.585753,-13471.748144,-1685.410096
263.374642,-5033.400406,-14804.118840,-1915.238745
263.374964,-5033.400406,-12287.418637,-612.876398
263.375286,-3627.009116,-9400.615463,-689.485948
263.375607,-592.164754,-8364.327145,-2145.067394
263.375929,2368.659014,-8290.306550,-4673.182538
263.376251,4885.359217,-8216.285956,-5362.668486
263.376573,6957.935855,-8068.244768,-4443.353888
263.376895,8142.265362,-10807.006753,-2451.505594
263.377216,9326.594869,-13101.645173,-536.266849
263.377538,9178.553681,-11917.315666,-919.314598
263.377860,7550.100608,-9696.697840,-1378.971896
263.378182,4219.173869,-7624.121203,-1838.629195
263.378504,888.247130,-6587.832884,-919.314598
263.378825,-1776.494261,-5699.585753,-766.095498
263.379147,-4515.256246,-5773.606348,-689.485948
263.379469,-6809.894666,-8142.265362,0.000000
263.379791,-8734.430116,-11547.212695,383.047749
263.380113,-9178.553681,-12731.542202,76.609550
263.380434,-8956.491898,-11251.130318,-689.485948
263.380756,-6957.935855,-10881.027347,-1532.190996
263.381078,-5921.647536,-12139.377449,-1915.238745
263.381400,-5625.565159,-11843.295072,-842.705048
263.381722,-4515.256246,-9030.512492,-383.047749
263.382043,-1480.411884,-7846.182985,-2528.115143
263.382365,2146.597232,-8068.244768,-4213.525239
263.382687,4885.359217,-7179.997637,-4136.915689
263.383009,6439.791695,-6809.894666,-3294.210641
263.383331,9030.512492,-8660.409521,-1455.581446
263.383653,10658.965565,-10288.862594,-306.438199
263.383974,9326.594869,-9548.656652,0.000000
263.384296,6217.729913,-7476.080014,-919.314598
263.384618,2812.782580,-7772.162391,-612.876398
263.384940,296.082377,-8660.409521,-459.657299
263.385262,-1850.514855,-7402.059420,-536.266849
263.385583,-4515.256246,-6957.935855,-383.047749
263.385905,-5847.626942,-7994.224174,383.047749
263.386227,-6587.832884,-10362.883188,229.828649
263.386549,-7476.080014,-11399.171507,-689.485948
263.386871,-7550.100608,-11399.171507,-1302.362347
263.387192,-7105.977043,-12731.542202,-2221.676944
263.387514,-6809.894666,-13249.686362,-1915.238745
263.387836,-5699.585753,-11325.150913,-1991.848295
263.388158,-2664.741391,-9326.594869,-2911.162892
263.388480,1036.288319,-8734.430116,-4826.401637
263.388801,4515.256246,-8068.244768,-4673.182538
263.389123,6069.688724,-7476.080014,-3830.477490
263.389445,7476.080014,-8586.388927,-2987.772442
263.389767,9548.656652,-11029.068536,-1378.971896
263.390089,10288.862594,-11769.274478,-612.876398
263.390410,8290.306550,-10214.842000,-1455.581446
263.390732,4589.276840,-8216.285956,-766.095498
263.391054,1036.288319,-7550.100608,842.705048
263.391376,-1258.350101,-6957.935855,0.000000
263.391698,-3256.906145,-6439.791695,-1149.143247
263.392019,-5699.585753,-7254.018232,-766.095498
263.392341,-7624.121203,-10214.842000,153.219100
263.392663,-8882.471304,-12213.398043,612.876398
263.392985,-8216.285956,-12287.418637,0.000000
263.393307,-6365.771101,-11991.336260,-1455.581446
263.393628,-4885.359217,-12139.377449,-1762.019645
263.393950,-4071.132681,-11473.192101,-1455.581446
263.394272,-3404.947333,-9030.512492,-1455.581446
263.394594,-1036.288319,-7772.162391,-2604.724693
263.394916,2220.617826,-6883.915261,-4136.915689
263.395237,4811.338623,-6735.874072,-4443.353888
263.395559,6809.894666,-8290.306550,-3983.696590
263.395881,7698.141797,-10658.965565,-2221.676944
263.396203,8586.388927,-10807.006753,0.000000
263.396525,7254.018232,-9326.594869,153.219100
263.396846,4737.318029,-7772.162391,-536.266849
263.397168,1924.535449,-7772.162391,-919.314598
263.397490,-740.205942,-7031.956449,-1302.362347
263.397812,-2664.741391,-6735.874072,-1762.019645
263.398134,-3923.091493,-7476.080014,0.000000
263.398455,-5921.647536,-8660.409521,1149.143247
263.398777,-6735.874072,-10510.924376,842.705048
263.399099,-6365.771101,-11769.274478,-1149.143247
263.399421,-6143.709319,-13175.665768,-2298.286494
263.399743,-5699.585753,-14359.995275,-2298.286494
263.400064,-5329.482782,-12435.459826,-1532.190996
263.400386,-3997.112087,-9992.780217,-919.314598
263.400708,-148.041188,-9104.533087,-2451.505594
263.401030,3034.844362,-8734.430116,-3983.696590
263.401352,5181.441594,-7624.121203,-4213.525239
263.401673,6439.791695,-7179.997637,-3064.381992
263.401995,7846.182985,-9548.656652,-2068.457845
263.402317,8734.430116,-11399.171507,-612.876398
263.402639,7994.224174,-10066.800811,-995.924147
263.402961,4737.318029,-7994.224174,-919.314598
263.403282,1554.432478,-7328.038826,-536.266849
263.403604,-1036.288319,-7254.018232,-306.438199
263.403926,-3108.864956,-6365.771101,-766.095498
263.404248,-5995.668130,-6217.729913,-1225.752797
263.404570,-8438.347739,-9400.615463,766.095498
263.404892,-9844.739029,-12139.377449,612.876398
263.405213,-10584.944971,-12139.377449,-383.047749
263.405535,-9622.677246,-11177.109724,-1915.238745
263.405857,-7254.018232,-11473.192101,-1838.629195
263.406179,-6069.688724,-12065.356855,-1991.848295
263.406501,-5181.441594,-10658.965565,-1532.190996
263.406822,-3256.906145,-9178.553681,-1378.971896
263.407144,222.061783,-7994.224174,-1762.019645
263.407466,3478.967927,-6809.894666,-3600.648841
263.407788,6143.709319,-6513.812290,-5056.230287
263.408110,7920.203579,-7920.203579,-3447.429741
263.408431,9474.636058,-9844.739029,-536.266849
263.408753,9474.636058,-10807.006753,689.485948
263.409075,7772.162391,-10066.800811,229.828649
263.409397,5329.482782,-8586.388927,0.000000
263.409719,2590.720797,-7846.182985,-153.219100
263.410040,-222.061783,-7105.977043,-383.047749
263.410362,-2516.700203,-6143.709319,0.000000
263.410684,-4293.194464,-5625.565159,0.000000
263.411006,-5329.482782,-6809.894666,-536.266849
263.411328,-7179.997637,-10066.800811,-612.876398
263.411649,-8068.244768,-12583.501014,-536.266849
263.411971,-7846.182985,-13175.665768,-1762.019645
263.412293,-7179.997637,-13693.809927,-3064.381992
263.412615,-6291.750507,-12435.459826,-1608.800546
263.412937,-4959.379811,-9844.739029,-2068.457845
263.413258,-2368.659014,-8808.450710,-3600.648841
263.413580,1036.288319,-7846.182985,-5362.668486
263.413902,4589.276840,-7846.182985,-6052.154434
263.414224,6291.750507,-8956.491898,-4673.182538
263.414546,7179.997637,-9622.677246,-1838.629195
263.414867,8068.244768,-10436.903782,229.828649
263.415189,8734.430116,-10807.006753,-766.095498
263.415511,8586.388927,-10955.047942,-2451.505594
263.415833,6513.812290,-10436.903782,-1608.800546
263.416155,3404.947333,-8956.491898,306.438199
263.416476,222.061783,-7846.182985,2757.943793
263.416798,-1110.308913,-6735.874072,1915.238745
263.417120,-2442.679609,-6809.894666,-536.266849
263.417442,-4219.173869,-8882.471304,-1838.629195
263.417764,-6217.729913,-11695.253884,-229.828649
263.418085,-7179.997637,-12435.459826,1455.581446
263.418407,-6883.915261,-12213.398043,766.095498
263.418729,-6217.729913,-11103.089130,-1072.533697
263.419051,-5329.482782,-10214.842000,-2068.457845
263.419373,-3923.091493,-8438.347739,-2528.115143
263.419694,-2516.700203,-6587.832884,-3524.039291
263.420016,-222.061783,-6587.832884,-3753.867940
263.420338,2664.741391,-6809.894666,-3600.648841
263.420660,4811.338623,-8068.244768,-3677.258390
263.420982,6365.771101,-9992.780217,-2987.772442
263.421303,7550.100608,-9918.759623,-919.314598
263.421625,7920.203579,-9252.574275,-2221.676944
263.421947,6143.709319,-9326.594869,-1762.019645
263.422269,2516.700203,-8660.409521,-612.876398
263.422591,-592.164754,-7994.224174,536.266849
263.422912,-2886.803174,-7179.997637,-766.095498
263.423234,-3552.988522,-7846.182985,-1838.629195
263.423556,-4589.276840,-8364.327145,-995.924147
263.423878,-5181.441594,-10214.842000,0.000000
263.424200,-5477.523971,-11473.192101,1225.752797
263.424521,-5403.503377,-12657.521608,1532.190996
263.424843,-5477.523971,-12435.459826,76.609550
263.425165,-4589.276840,-10732.986159,-2374.896044
263.425487,-3701.029710,-9252.574275,-3370.820191
263.425809,-1702.473667,-8882.471304,-4060.306139
263.426131,1258.350101,-9326.594869,-3677.258390
263.426452,3330.926739,-9326.594869,-3294.210641
263.426774,5847.626942,-8956.491898,-3294.210641
263.427096,7550.100608,-10436.903782,-3447.429741
263.427418,8512.368333,-11473.192101,-2528.115143
263.427740,7846.182985,-10658.965565,-2451.505594
263.428061,4959.379811,-9474.636058,-2068.457845
263.428383,1480.411884,-8216.285956,-1225.752797
263.428705,-1332.370696,-7920.203579,0.000000
263.429027,-4293.194464,-6809.894666,-766.095498
263.429349,-6883.915261,-6957.935855,-1991.848295
263.429670,-9030.512492,-8956.491898,-1225.752797
263.429992,-10140.821405,-11177.109724,0.000000
263.430314,-10214.842000,-11917.315666,842.705048
263.430636,-8290.306550,-11399.171507,612.876398
263.430958,-6439.791695,-10066.800811,-919.314598
263.431279,-4959.379811,-9622.677246,-1455.581446
263.431601,-3256.906145,-8882.471304,-1149.143247
263.431923,-1258.350101,-7402.059420,-1608.800546
263.432245,1554.432478,-7476.080014,-3294.210641
263.432567,4589.276840,-8216.285956,-3600.648841
263.432888,6365.771101,-8882.471304,-3447.429741
263.433210,7920.203579,-9844.739029,-3140.991542
263.433532,9326.594869,-11251.130318,-1455.581446
263.433854,9770.718434,-10658.965565,-536.266849
263.434176,8364.327145,-8808.450710,-995.924147
263.434497,5107.421000,-7698.141797,-612.876398
263.434819,1998.556043,-7254.018232,76.609550
263.435141,-888.247130,-6365.771101,0.000000
263.435463,-3108.864956,-5773.606348,-1072.533697
263.435785,-5255.462188,-6661.853478,-766.095498
263.436106,-7105.977043,-9326.594869,0.000000
263.436428,-8068.244768,-11029.068536,306.438199
263.436750,-8068.244768,-11843.295072,-536.266849
263.437072,-6809.894666,-12583.501014,-689.485948
263.437394,-5551.544565,-11769.274478,-842.705048
263.437715,-4811.338623,-10066.800811,-1762.019645
263.438037,-3256.906145,-9030.512492,-2681.334243
263.438359,0.000000,-9104.533087,-3830.477490
263.438681,3256.906145,-9474.636058,-4903.011187
263.439003,4885.359217,-9770.718434,-4903.011187
263.439324,6513.812290,-9770.718434,-2451.505594
263.439646,8142.265362,-10436.903782,-1302.362347
263.439968,9400.615463,-11547.212695,-2145.067394
263.440290,9030.512492,-11917.315666,-2221.676944
263.440612,6661.853478,-10362.883188,-1225.752797
263.440933,2664.741391,-8512.368333,76.609550
263.441255,74.020594,-7476.080014,766.095498
263.441577,-1776.494261,-6439.791695,229.828649
263.441899,-4219.173869,-6439.791695,-995.924147
263.442221,-7179.997637,-7920.203579,-153.219100
263.442542,-8364.327145,-11695.253884,0.000000
263.442864,-8512.368333,-12657.521608,306.438199
263.443186,-7105.977043,-11917.315666,0.000000
263.443508,-6291.750507,-11547.212695,-995.924147
263.443830,-5773.606348,-11621.233289,-919.314598
263.444151,-4737.318029,-9178.553681,-919.314598
263.444473,-4145.153275,-7179.997637,-2757.943793
263.444795,-1554.432478,-6883.915261,-4213.525239
263.445117,1332.370696,-7105.977043,-3600.648841
263.445439,3478.967927,-7476.080014,-4136.915689
263.445760,5625.565159,-8660.409521,-3753.867940
263.446082,8438.347739,-10362.883188,-766.095498
263.446404,8512.368333,-9474.636058,76.609550
263.446726,6513.812290,-8290.306550,-1072.533697
263.447048,3404.947333,-7846.182985,-459.657299
263.447370,222.061783,-7402.059420,-229.828649
263.447691,-2072.576638,-6735.874072,-1149.143247
263.448013,-3108.864956,-6809.894666,-842.705048
263.448335,-3849.070898,-7179.997637,-383.047749
263.448657,-4367.215058,-9030.512492,0.000000
263.448979,-4885.359217,-11103.089130,689.485948
263.449300,-5107.421000,-11843.295072,842.705048
263.449622,-4589.276840,-12583.501014,-1378.971896
263.449944,-4219.173869,-12361.439231,-2221.676944
263.450266,-3775.050304,-10807.006753,-2681.334243
263.450588,-2072.576638,-9548.656652,-3294.210641
263.450909,1258.350101,-9474.636058,-3753.867940
263.451231,3997.112087,-8956.491898,-4903.011187
263.451553,4959.379811,-9252.574275,-4060.306139
263.451875,6143.709319,-8586.388927,-2374.896044
263.452197,7328.038826,-9770.718434,-1915.238745
263.452518,7550.100608,-11473.192101,-2681.334243
263.452840,6513.812290,-10214.842000,-2451.505594
263.453162,3775.050304,-9474.636058,-2068.457845
263.453484,444.123565,-8586.388927,-1225.752797
263.453806,-1702.473667,-8438.347739,0.000000
263.454127,-3552.988522,-7031.956449,-306.438199
263.454449,-5551.544565,-6883.915261,-1378.971896
263.454771,-7031.956449,-9770.718434,-842.705048
263.455093,-8290.306550,-11547.212695,536.266849
263.455415,-7994.224174,-11251.130318,459.657299
263.455736,-6957.935855,-10955.047942,-229.828649
263.456058,-5477.523971,-10288.862594,-766.095498
263.456380,-4663.297435,-9548.656652,-1455.581446
263.456702,-3627.009116,-8882.471304,-1915.238745
263.457024,-1702.473667,-8364.327145,-2451.505594
263.457345,1036.288319,-7846.182985,-2987.772442
263.457667,3775.050304,-7105.977043,-3830.477490
263.457989,6217.729913,-7846.182985,-3830.477490
263.458311,8290.306550,-8956.491898,-2834.553343
263.458633,9326.594869,-10066.800811,-1225.752797
263.458954,8216.285956,-9696.697840,-306.438199
263.459276,5699.585753,-8734.430116,-459.657299
263.459598,2738.761985,-8586.388927,-612.876398
263.459920,592.164754,-9252.574275,-919.314598
263.460242,-1702.473667,-8512.368333,-1072.533697
263.460563,-3478.967927,-7772.162391,-153.219100
263.460885,-4515.256246,-7772.162391,766.095498
263.461207,-5255.462188,-9178.553681,995.924147
263.461529,-6217.729913,-10066.800811,766.095498
263.461851,-6957.935855,-11103.089130,153.219100
263.462172,-6883.915261,-11917.315666,-766.095498
263.462494,-6143.709319,-11325.150913,-1378.971896
263.462816,-4589.276840,-9770.718434,-1838.629195
263.463138,-2294.638420,-9030.512492,-2221.676944
263.463460,962.267725,-9474.636058,-2987.772442
263.463781,2590.720797,-9326.594869,-2911.162892
263.464103,4367.215058,-8586.388927,-3524.039291
263.464425,6217.729913,-9474.636058,-3907.087040
263.464747,7624.121203,-11251.130318,-3217.601092
263.465069,7550.100608,-11251.130318,-1915.238745
263.465390,6291.750507,-9474.636058,-1685.410096
263.465712,4367.215058,-8586.388927,-1608.800546
263.466034,1998.556043,-8734.430116,-689.485948
263.466356,-666.185348,-8142.265362,-459.657299
263.466678,-3404.947333,-7254.018232,-689.485948
263.466999,-5625.565159,-8586.388927,-689.485948
263.467321,-6809.894666,-10732.986159,612.876398
263.467643,-7476.080014,-12213.398043,1149.143247
263.467965,-7698.141797,-11177.109724,919.314598
263.468287,-7402.059420,-9918.759623,383.047749
263.468609,-6587.832884,-9770.718434,-766.095498
263.468930,-5625.565159,-8956.491898,-919.314598
263.469252,-4071.132681,-7624.121203,-2145.067394
263.469574,-1036.288319,-7624.121203,-3447.429741
263.469896,1776.494261,-8438.347739,-3600.648841
263.470218,4293.194464,-8586.388927,-3370.820191
263.470539,5477.523971,-7328.038826,-3140.991542
263.470861,7179.997637,-8882.471304,-3140.991542
263.471183,8068.244768,-10584.944971,-2528.115143
263.471505,6735.874072,-10436.903782,-2374.896044
263.471827,3701.029710,-9104.533087,-1838.629195
263.472149,1258.350101,-8586.388927,-612.876398
263.472471,-148.041188,-8364.327145,0.000000
263.472793,-1110.308913,-6291.750507,-612.876398
263.473114,-2294.638420,-5773.606348,-1072.533697
263.473436,-3775.050304,-6883.915261,0.000000
263.473758,-4737.318029,-8956.491898,306.438199
263.474080,-6291.750507,-10732.986159,-153.219100
263.474402,-6809.894666,-11547.212695,0.000000
263.474724,-6439.791695,-12139.377449,-919.314598
263.475046,-5699.585753,-12583.501014,-2451.505594
263.475368,-3627.009116,-11621.233289,-3677.258390
263.475689,148.041188,-10214.842000,-3600.648841
263.476011,3552.988522,-9918.759623,-4213.525239
263.476333,5847.626942,-9918.759623,-4060.306139
263.476655,7402.059420,-9326.594869,-2757.943793
263.476977,7994.224174,-8586.388927,-3064.381992
263.477299,7994.224174,-8734.430116,-3370.820191
263.477621,6587.832884,-10807.006753,-2911.162892
263.477943,4367.215058,-10955.047942,-2145.067394
263.478264,1628.453072,-10140.821405,-1378.971896
263.478586,-370.102971,-9400.615463,383.047749
263.478908,-1554.432478,-7698.141797,1838.629195
263.479230,-3552.988522,-6661.853478,306.438199
263.479552,-5551.544565,-6883.915261,0.000000
263.479874,-7328.038826,-8438.347739,0.000000
263.480196,-8290.306550,-10732.986159,0.000000
263.480518,-8882.471304,-11695.253884,0.000000
263.480839,-7846.182985,-11473.192101,-383.047749
263.481161,-7402.059420,-10881.027347,0.000000
263.481483,-5255.462188,-11029.068536,-383.047749
263.481805,-2960.823768,-9548.656652,-1378.971896
263.482127,-148.041188,-8364.327145,-3064.381992
263.482449,2590.720797,-7254.018232,-3064.381992
263.482771,4885.359217,-6883.915261,-2451.505594
263.483093,6735.874072,-7179.997637,-2221.676944
263.483414,7994.224174,-8068.244768,-2298.286494
263.483736,8438.347739,-9030.512492,-1072.533697
263.484058,6661.853478,-8808.450710,-1225.752797
263.484380,3923.091493,-9548.656652,-842.705048
263.484702,1480.411884,-9992.780217,76.609550
263.485024,0.000000,-9252.574275,689.485948
263.485346,-1332.370696,-7476.080014,383.047749
263.485668,-2812.782580,-6365.771101,383.047749
263.485989,-3478.967927,-7105.977043,766.095498
263.486311,-4737.318029,-8512.368333,0.000000
263.486633,-5921.647536,-11029.068536,-842.705048
263.486955,-6883.915261,-12139.377449,0.000000
263.487277,-7105.977043,-11991.336260,0.000000
263.487599,-6587.832884,-12213.398043,-1532.190996
263.487921,-4219.173869,-11177.109724,-3753.867940
263.488243,-370.102971,-10214.842000,-4903.011187
263.488564,2368.659014,-9400.615463,-5056.230287
263.488886,4663.297435,-9326.594869,-4519.963438
263.489208,6513.812290,-9252.574275,-3064.381992
263.489530,8142.265362,-9252.574275,-2604.724693
263.489852,7846.182985,-9474.636058,-3064.381992
263.490174,6439.791695,-10362.883188,-2987.772442
263.490496,4293.194464,-9844.739029,-2604.724693
263.490817,2146.597232,-9474.636058,-1991.848295
263.491139,592.164754,-8956.491898,-689.485948
263.491461,-666.185348,-8660.409521,306.438199
263.491783,-2812.782580,-8142.265362,1072.533697
263.492105,-5329.482782,-7624.121203,383.047749
263.492427,-7179.997637,-9252.574275,-459.657299
263.492749,-7846.182985,-11029.068536,-842.705048
263.493071,-8882.471304,-12065.356855,-153.219100
263.493392,-8956.491898,-10510.924376,-612.876398
263.493714,-7254.018232,-8586.388927,-1225.752797
263.494036,-4589.276840,-9104.533087,-1991.848295
263.494358,-1776.494261,-9622.677246,-2757.943793
263.494680,74.020594,-8660.409521,-4060.306139
263.495002,2294.638420,-8290.306550,-4673.182538
263.495324,4219.173869,-9030.512492,-2757.943793
263.495646,5699.585753,-8734.430116,-2221.676944
263.495967,6365.771101,-7550.100608,-3064.381992
263.496289,6661.853478,-7920.203579,-2911.162892
263.496611,6365.771101,-8956.491898,-1608.800546
263.496933,4367.215058,-9474.636058,-766.095498
263.497255,1924.535449,-9178.553681,306.438199
263.497577,0.000000,-8290.306550,1149.143247
263.497899,-1554.432478,-7550.100608,1149.143247
263.498221,-2146.597232,-6439.791695,0.000000
263.498542,-4145.153275,-7179.997637,-536.266849
263.498864,-5181.441594,-9252.574275,0.000000
263.499186,-6439.791695,-11991.336260,689.485948
263.499508,-7179.997637,-12287.418637,1225.752797
263.499830,-6513.812290,-11103.089130,1149.143247
263.500152,-4663.297435,-10732.986159,-2374.896044
263.500474,-1776.494261,-10955.047942,-3907.087040
263.500796,1184.329507,-10066.800811,-3753.867940
263.501117,3034.844362,-8660.409521,-3677.258390
263.501439,4811.338623,-8364.327145,-3140.991542
263.501761,7031.956449,-9844.739029,-2221.676944
263.502083,7179.997637,-9844.739029,-2528.115143
263.502405,6809.894666,-10362.883188,-3447.429741
263.502727,6143.709319,-11547.212695,-2911.162892
263.503049,5181.441594,-11325.150913,-1685.410096
263.503371,1850.514855,-9548.656652,0.000000
263.503692,-222.061783,-8068.244768,995.924147
263.504014,-2368.659014,-7105.977043,1378.971896
263.504336,-4737.318029,-7031.956449,-459.657299
263.504658,-7476.080014,-7550.100608,-1378.971896
263.504980,-9252.574275,-9844.739029,0.000000
263.505302,-9474.636058,-12065.356855,766.095498
263.505624,-9030.512492,-12065.356855,919.314598
263.505946,-7994.224174,-10955.047942,306.438199
263.506267,-6439.791695,-10362.883188,0.000000
263.506589,-4145.153275,-9326.594869,-995.924147
263.506911,-1850.514855,-8068.244768,-3064.381992
263.507233,-370.102971,-7624.121203,-3370.820191
263.507555,2146.597232,-7772.162391,-2451.505594
263.507877,4737.318029,-7402.059420,-2834.553343
263.508199,7476.080014,-8290.306550,-3753.867940
263.508521,10066.800811,-9696.697840,-2604.724693
263.508842,9992.780217,-9104.533087,-1685.410096
263.509164,7994.224174,-9474.636058,-842.705048
263.509486,4959.379811,-9918.759623,306.438199
263.509808,1998.556043,-9104.533087,612.876398
263.510130,-740.205942,-7476.080014,-766.095498
263.510452,-2812.782580,-6217.729913,-1225.752797
263.510774,-4515.256246,-6143.709319,-766.095498
263.511096,-5551.544565,-7772.162391,-459.657299
263.511417,-6069.688724,-10214.842000,-306.438199
263.511739,-6587.832884,-11769.274478,612.876398
263.512061,-6661.853478,-11917.315666,0.000000
263.512383,-7179.997637,-11621.233289,-995.924147
263.512705,-5921.647536,-11029.068536,-3064.381992
263.513027,-3034.844362,-9548.656652,-4749.792088
263.513349,962.267725,-8808.450710,-5975.544884
263.513671,4589.276840,-9326.594869,-4903.011187
263.513992,6439.791695,-10362.883188,-3753.867940
263.514314,8438.347739,-9992.780217,-1378.971896
263.514636,10140.821405,-9474.636058,-1915.238745
263.514958,10214.842000,-10288.862594,-3140.991542
263.515280,8808.450710,-11473.192101,-2604.724693
263.515602,5773.606348,-10510.924376,-2298.286494
263.515924,1998.556043,-8808.450710,-1378.971896
263.516245,148.041188,-8142.265362,0.000000
263.516567,-2146.597232,-7031.956449,766.095498
263.516889,-4737.318029,-6439.791695,-383.047749
263.517211,-8216.285956,-7698.141797,-612.876398
263.517533,-9622.677246,-11177.109724,153.219100
263.517855,-9696.697840,-12805.562797,153.219100
263.518177,-9326.594869,-11695.253884,-459.657299
263.518499,-7624.121203,-9548.656652,-536.266849
263.518820,-5107.421000,-8660.409521,-1378.971896
263.519142,-3923.091493,-9696.697840,-1838.629195
263.519464,-2072.576638,-9326.594869,-2528.115143
263.519786,0.000000,-7920.203579,-4060.306139
263.520108,2442.679609,-7328.038826,-4443.353888
263.520430,5403.503377,-8290.306550,-3600.648841
263.520752,7328.038826,-8808.450710,-2681.334243
263.521074,8734.430116,-9178.553681,-2451.505594
263.521395,9252.574275,-9252.574275,-995.924147
263.521717,7476.080014,-9992.780217,0.000000
263.522039,3849.070898,-9844.739029,153.219100
263.522361,518.144159,-8586.388927,306.438199
263.522683,-1702.473667,-7402.059420,383.047749
263.523005,-2886.803174,-6587.832884,-1302.362347
263.523327,-4145.153275,-6883.915261,-383.047749
263.523649,-6143.709319,-8142.265362,536.266849
263.523970,-6883.915261,-10955.047942,919.314598
263.524292,-6661.853478,-12731.542202,995.924147
263.524614,-6661.853478,-12213.398043,229.828649
263.524936,-6735.874072,-11103.089130,-689.485948
263.525258,-5403.503377,-10066.800811,-2374.896044
263.525580,-2960.823768,-9548.656652,-3600.648841
263.525902,740.205942,-9622.677246,-4060.306139
263.526224,2516.700203,-9844.739029,-3830.477490
263.526545,4367.215058,-9770.718434,-2834.553343
263.526867,6513.812290,-9326.594869,-2604.724693
263.527189,7920.203579,-10658.965565,-3524.039291
263.527511,8660.409521,-11177.109724,-3907.087040
263.527833,7105.977043,-10436.903782,-2221.676944
263.528155,3552.988522,-9252.574275,-1225.752797
263.528477,592.164754,-8882.471304,-689.485948
263.528799,-1036.288319,-8290.306550,306.438199
263.529120,-2886.803174,-6883.915261,0.000000
263.529442,-5773.606348,-7105.977043,0.000000
263.529764,-7550.100608,-9104.533087,1072.533697
263.530086,-8216.285956,-11103.089130,766.095498
263.530408,-7550.100608,-12065.356855,459.657299
263.530730,-7105.977043,-11473.192101,383.047749
263.531052,-6809.894666,-9400.615463,459.657299
263.531374,-5921.647536,-8660.409521,-689.485948
263.531695,-3701.029710,-8068.244768,-1915.238745
263.532017,-1332.370696,-7328.038826,-3907.087040
263.532339,1184.329507,-7846.182985,-4366.744339
263.532661,3330.926739,-8290.306550,-2451.505594
263.532983,6069.688724,-8808.450710,-2834.553343
263.533305,8290.306550,-8142.265362,-3294.210641
263.533627,9844.739029,-9992.780217,-2834.553343
263.533949,9178.553681,-10288.862594,-1915.238745
263.534270,5921.647536,-9474.636058,-1302.362347
263.534592,2590.720797,-9548.656652,-689.485948
263.534914,148.041188,-9400.615463,229.828649
263.535236,-1554.432478,-7105.977043,-383.047749
263.535558,-2960.823768,-5699.585753,-1532.190996
263.535880,-3923.091493,-6735.874072,-995.924147
263.536202,-4441.235652,-8882.471304,0.000000
263.536524,-5107.421000,-10955.047942,306.438199
263.536845,-5699.585753,-11991.336260,612.876398
263.537167,-6069.688724,-11843.295072,766.095498
263.537489,-6069.688724,-11325.150913,-1915.238745
263.537811,-4885.359217,-10881.027347,-4443.353888
263.538133,-1850.514855,-10214.842000,-4290.134789
263.538455,1480.411884,-10066.800811,-4136.915689
263.538777,4071.132681,-9696.697840,-3983.696590
263.539099,6587.832884,-9548.656652,-2987.772442
263.539420,8956.491898,-9178.553681,-2374.896044
263.539742,9844.739029,-9474.636058,-3064.381992
263.540064,8364.327145,-11177.109724,-3600.648841
263.540386,5625.565159,-11399.171507,-1532.190996
263.540708,2368.659014,-9992.780217,-1072.533697
263.541030,0.000000,-9992.780217,-1149.143247
263.541352,-1480.411884,-9622.677246,153.219100
263.541673,-3775.050304,-7550.100608,842.705048
263.541995,-5551.544565,-6291.750507,76.609550
263.542317,-6883.915261,-7994.224174,306.438199
263.542639,-7476.080014,-10362.883188,1149.143247
263.542961,-7994.224174,-10881.027347,1149.143247
263.543283,-8586.388927,-9992.780217,536.266849
263.543605,-8068.244768,-10362.883188,-306.438199
263.543927,-6365.771101,-10288.862594,-689.485948
263.544248,-4293.194464,-9326.594869,-1608.800546
263.544570,-1850.514855,-8216.285956,-2451.505594
263.544892,888.247130,-7476.080014,-3294.210641
263.545214,3849.070898,-6809.894666,-3217.601092
263.545536,6365.771101,-7476.080014,-3907.087040
263.545858,7920.203579,-8290.306550,-3370.820191
263.546180,8364.327145,-9030.512492,-1991.848295
263.546502,7550.100608,-9770.718434,-1455.581446
263.546823,4737.318029,-10288.862594,-1302.362347
263.547145,2368.659014,-10362.883188,-612.876398
263.547467,0.000000,-9104.533087,153.219100
263.547789,-1702.473667,-7476.080014,0.000000
263.548111,-2664.741391,-6069.688724,76.609550
263.548433,-2738.761985,-5995.668130,-306.438199
263.548755,-3997.112087,-8216.285956,0.000000
263.549077,-5033.400406,-10658.965565,76.609550
263.549398,-6217.729913,-11769.274478,995.924147
263.549720,-6513.812290,-10807.006753,766.095498
263.550042,-6069.688724,-10214.842000,-1608.800546
263.550364,-3552.988522,-11103.089130,-4213.525239
263.550686,-518.144159,-10584.944971,-4826.401637
263.551008,2590.720797,-10584.944971,-4596.572988
263.551330,4589.276840,-10436.903782,-3677.258390
263.551652,6661.853478,-9622.677246,-2451.505594
263.551973,7994.224174,-8586.388927,-2681.334243
263.552295,8438.347739,-9326.594869,-4519.963438
263.552617,7254.018232,-11251.130318,-4443.353888
263.552939,5181.441594,-11251.130318,-2987.772442
263.553261,1998.556043,-10214.842000,-1915.238745
263.553583,148.041188,-9992.780217,-306.438199
263.553905,-1184.329507,-9030.512492,383.047749
263.554227,-3330.926739,-7254.018232,-383.047749
263.554548,-5773.606348,-7105.977043,-1149.143247
263.554870,-7476.080014,-9104.533087,-459.657299
263.555192,-8142.265362,-11103.089130,0.000000
263.555514,-8512.368333,-11029.068536,0.000000
263.555836,-8512.368333,-11029.068536,0.000000
263.556158,-7105.977043,-9474.636058,-459.657299
263.556480,-4663.297435,-8808.450710,-1915.238745
263.556802,-1924.535449,-9252.574275,-2604.724693
263.557123,222.061783,-8956.491898,-3217.601092
263.557445,2072.576638,-7920.203579,-2221.676944
263.557767,3997.112087,-7031.956449,-2451.505594
263.558089,6143.709319,-8142.265362,-3677.258390
263.558411,7254.018232,-9548.656652,-3600.648841
263.558733,7254.018232,-9104.533087,-2374.896044
263.559055,5773.606348,-9326.594869,-1302.362347
263.559377,3330.926739,-10510.924376,229.828649
263.559698,814.226536,-9548.656652,1455.581446
263.560020,-1702.473667,-7846.182985,689.485948
263.560342,-3034.844362,-6291.750507,-383.047749
263.560664,-4071.132681,-5625.565159,-229.828649
263.560986,-5403.503377,-7031.956449,0.000000
263.561308,-6661.853478,-8734.430116,689.485948
263.561630,-6587.832884,-10732.986159,1302.362347
263.561952,-5773.606348,-11473.192101,1072.533697
263.562273,-5847.626942,-11621.233289,-766.095498
263.562595,-5107.421000,-11843.295072,-1455.581446
263.562917,-3627.009116,-10362.883188,-1991.848295
263.563239,-666.185348,-9326.594869,-3294.210641
263.563561,2368.659014,-9178.553681,-4290.134789
263.563883,4959.379811,-9622.677246,-3677.258390
263.564205,6661.853478,-9252.574275,-3447.429741
263.564527,8216.285956,-9918.759623,-3447.429741
263.564848,8882.471304,-11843.295072,-2145.067394
263.565170,8216.285956,-11399.171507,-1302.362347
263.565492,5773.606348,-10362.883188,-1378.971896
263.565814,2886.803174,-9770.718434,-1072.533697
263.566136,370.102971,-9400.615463,383.047749
263.566458,-1332.370696,-7105.977043,612.876398
263.566780,-3330.926739,-5921.647536,-306.438199
263.567101,-5477.523971,-7105.977043,0.000000
263.567423,-6735.874072,-9474.636058,919.314598
263.567745,-7624.121203,-10955.047942,0.000000
263.568067,-7846.182985,-11399.171507,0.000000
263.568389,-7105.977043,-11177.109724,306.438199
263.568711,-6365.771101,-10436.903782,-1072.533697
263.569033,-5181.441594,-10066.800811,-2145.067394
263.569355,-3108.864956,-8660.409521,-2757.943793
263.569676,0.000000,-8364.327145,-3983.696590
263.569996,2368.659014,-9030.512492,-4443.353888
263.570318,4071.132681,-8734.430116,-3294.210641
263.570640,5625.565159,-7328.038826,-1838.629195
263.570962,7254.018232,-7624.121203,-2068.457845
263.571283,8068.244768,-8734.430116,-2987.772442
263.571605,7254.018232,-9918.759623,-2298.286494
263.571927,4367.215058,-9474.636058,-1762.019645
263.572249,1702.473667,-9326.594869,-306.438199
263.572571,-222.061783,-8808.450710,1455.581446
263.572893,-888.247130,-6957.935855,536.266849
263.573214,-2664.741391,-5477.523971,-919.314598
263.573536,-4441.235652,-6957.935855,-1302.362347
263.573858,-5181.441594,-9622.677246,-383.047749
263.574180,-6143.709319,-11547.212695,0.000000
263.574502,-6513.812290,-11991.336260,-229.828649
263.574824,-6439.791695,-11251.130318,-536.266849
263.575145,-5329.482782,-11029.068536,-2221.676944
263.575467,-3552.988522,-11325.150913,-4673.182538
263.575789,-592.164754,-10584.944971,-4979.620737
263.576111,2516.700203,-9918.759623,-4903.011187
263.576433,4959.379811,-10436.903782,-4903.011187
263.576755,6365.771101,-10436.903782,-2911.162892
263.577076,7105.977043,-9178.553681,-1608.800546
263.577398,7402.059420,-7920.203579,-2757.943793
263.577720,7254.018232,-9770.718434,-3064.381992
263.578042,5551.544565,-10732.986159,-2681.334243
263.578364,2516.700203,-10510.924376,-1225.752797
263.578686,296.082377,-9844.739029,0.000000
263.579007,-814.226536,-9326.594869,1302.362347
263.579329,-1998.556043,-7846.182985,1302.362347
263.579651,-3923.091493,-6661.853478,153.219100
263.579973,-5773.606348,-7624.121203,-1072.533697
263.580295,-6809.894666,-9770.718434,766.095498
263.580617,-7105.977043,-11325.150913,1149.143247
263.580938,-7031.956449,-11029.068536,-306.438199
263.581260,-5625.565159,-10658.965565,-842.705048
263.581582,-3701.029710,-9918.759623,-383.047749
263.581904,-2664.741391,-9400.615463,-1991.848295
263.582226,-1702.473667,-8290.306550,-2451.505594
263.582548,0.000000,-6883.915261,-2834.553343
263.582869,2368.659014,-6883.915261,-3830.477490
263.583191,4071.132681,-7994.224174,-4596.572988
263.583513,5181.441594,-9474.636058,-3217.601092
263.583835,5773.606348,-9400.615463,-1302.362347
263.584157,5551.544565,-9474.636058,-766.095498
263.584479,4071.132681,-9992.780217,0.000000
263.584800,2072.576638,-9474.636058,1225.752797
263.585122,-962.267725,-8068.244768,612.876398
263.585444,-3034.844362,-7179.997637,-306.438199
263.585766,-4071.132681,-6809.894666,-229.828649
263.586088,-4663.297435,-7402.059420,-153.219100
263.586409,-5403.503377,-9326.594869,-306.438199
263.586731,-5107.421000,-11325.150913,689.485948
263.587053,-4367.215058,-12583.501014,766.095498
263.587375,-4071.132681,-11991.336260,-383.047749
263.587697,-3627.009116,-10955.047942,-1225.752797
263.588019,-2220.617826,-9696.697840,-1915.238745
263.588340,-666.185348,-8512.368333,-3447.429741
263.588662,740.205942,-8438.347739,-4749.792088
263.588984,2442.679609,-9030.512492,-4136.915689
263.589306,4145.153275,-9030.512492,-3907.087040
263.589628,5477.523971,-10140.821405,-4366.744339
263.589950,6661.853478,-11917.315666,-2987.772442
263.590271,6661.853478,-12361.439231,-1991.848295
263.590593,4737.318029,-10436.903782,-1991.848295
263.590915,1998.556043,-9844.739029,-1532.190996
263.591237,-962.267725,-9474.636058,0.000000
263.591559,-3108.864956,-7254.018232,-229.828649
263.591881,-5329.482782,-6069.688724,-1838.629195
263.592202,-6439.791695,-7846.182985,-1302.362347
263.592524,-7105.977043,-9918.759623,229.828649
263.592846,-6661.853478,-10658.965565,995.924147
263.593168,-5551.544565,-10881.027347,306.438199
263.593490,-4293.194464,-10658.965565,536.266849
263.593812,-3404.947333,-9622.677246,306.438199
263.594133,-3923.091493,-8808.450710,-842.705048
263.594455,-2738.761985,-7476.080014,-1991.848295
263.594777,-814.226536,-6735.874072,-2834.553343
263.595099,1110.308913,-6143.709319,-4136.915689
263.595421,3330.926739,-6735.874072,-4366.744339
263.595743,5847.626942,-8660.409521,-3830.477490
263.596064,7920.203579,-10362.883188,-2374.896044
263.596386,8290.306550,-11843.295072,-1455.581446
263.596708,6883.915261,-11325.150913,-842.705048
263.597030,4367.215058,-9844.739029,-306.438199
263.597352,1406.391290,-8364.327145,-536.266849
263.597674,-1776.494261,-7179.997637,-1532.190996
263.597995,-3552.988522,-6587.832884,-1685.410096
263.598317,-4663.297435,-6217.729913,-1072.533697
263.598639,-5107.421000,-8290.306550,-612.876398
263.598961,-4367.215058,-10955.047942,919.314598
263.599283,-4219.173869,-12213.398043,842.705048
263.599605,-4589.276840,-12361.439231,766.095498
263.599926,-4737.318029,-10955.047942,536.266849
263.600248,-3923.091493,-9696.697840,-2068.457845
263.600570,-2072.576638,-9992.780217,-4366.744339
263.600892,1258.350101,-10066.800811,-4290.134789
263.601214,3256.906145,-10066.800811,-4060.306139
263.601536,4885.359217,-9992.780217,-2987.772442
263.601857,6809.894666,-9696.697840,-1149.143247
263.602179,7920.203579,-9548.656652,-1608.800546
263.602501,7920.203579,-10288.862594,-3830.477490
263.602823,7254.018232,-11769.274478,-3753.867940
263.603145,4737.318029,-11695.253884,-2068.457845
263.603466,888.247130,-10658.965565,-229.828649
263.603788,-1554.432478,-8734.430116,1991.848295
263.604110,-2664.741391,-5847.626942,1455.581446
263.604432,-4515.256246,-5847.626942,-1455.581446
263.604754,-6735.874072,-7550.100608,-1762.019645
263.605076,-8290.306550,-9548.656652,-536.266849
263.605397,-7846.182985,-11621.233289,1072.533697
263.605719,-6291.750507,-11843.295072,536.266849
263.606041,-5329.482782,-11251.130318,0.000000
263.606363,-5033.400406,-10436.903782,76.609550
263.606685,-4293.194464,-9104.533087,-766.095498
263.607007,-3034.844362,-8216.285956,-3064.381992
263.607328,-888.247130,-7846.182985,-3983.696590
263.607650,1406.391290,-6735.874072,-2911.162892
263.607972,3330.926739,-7031.956449,-3447.429741
263.608294,5995.668130,-7772.162391,-3217.601092
263.608616,8586.388927,-9252.574275,-2221.676944
263.608938,8734.430116,-9992.780217,-1608.800546
263.609259,6365.771101,-9770.718434,-1225.752797
263.609581,2812.782580,-9104.533087,766.095498
263.609903,-518.144159,-8808.450710,842.705048
263.610225,-2368.659014,-7476.080014,-919.314598
263.610547,-3775.050304,-5995.668130,-2221.676944
263.610869,-4737.318029,-5847.626942,-1149.143247
263.611190,-5625.565159,-7994.224174,0.000000
263.611512,-4737.318029,-11177.109724,459.657299
263.611834,-3923.091493,-12657.521608,76.609550
263.612156,-3923.091493,-12583.501014,459.657299
263.612478,-4663.297435,-11325.150913,383.047749
263.612800,-4441.235652,-9548.656652,-2451.505594
263.613121,-2442.679609,-8660.409521,-4060.306139
263.613443,592.164754,-8364.327145,-5669.106685
263.613765,3182.885551,-9474.636058,-5898.935335
263.614087,4441.235652,-10658.965565,-3830.477490
263.614409,5625.565159,-10214.842000,-1149.143247
263.614731,7476.080014,-10362.883188,-1532.190996
263.615052,8142.265362,-10881.027347,-3677.258390
263.615374,7105.977043,-11473.192101,-4213.525239
263.615696,4071.132681,-10658.965565,-2757.943793
263.616018,592.164754,-9252.574275,-842.705048
263.616340,-888.247130,-8438.347739,383.047749
263.616662,-1480.411884,-7254.018232,459.657299
263.616983,-3404.947333,-7254.018232,-766.095498
263.617305,-5995.668130,-8734.430116,-995.924147
263.617627,-7105.977043,-10214.842000,0.000000
263.617949,-6439.791695,-11843.295072,383.047749
263.618271,-5625.565159,-11473.192101,383.047749
263.618593,-4959.379811,-9918.759623,76.609550
263.618914,-4441.235652,-9030.512492,-383.047749
263.619236,-3552.988522,-8438.347739,-1378.971896
263.619558,-2812.782580,-8142.265362,-3294.210641
263.619880,-1480.411884,-7328.038826,-3830.477490
263.620202,518.144159,-8068.244768,-3600.648841
263.620523,2442.679609,-9030.512492,-3217.601092
263.620845,4515.256246,-9104.533087,-2681.334243
263.621167,6513.812290,-9030.512492,-2068.457845
263.621489,6883.915261,-9252.574275,-1838.629195
263.621811,5255.462188,-9992.780217,-1532.190996
263.622133,2146.597232,-9474.636058,0.000000
263.622454,-888.247130,-8882.471304,842.705048
263.622776,-2738.761985,-7994.224174,0.000000
263.623098,-3108.864956,-7402.059420,-612.876398
263.623420,-3849.070898,-6809.894666,-766.095498
263.623742,-4515.256246,-7846.182985,459.657299
263.624064,-4293.194464,-10732.986159,1072.533697
263.624385,-3330.926739,-12805.562797,1072.533697
263.624707,-3182.885551,-11621.233289,1072.533697
263.625029,-3552.988522,-9918.759623,0.000000
263.625351,-3182.885551,-9474.636058,-995.924147
263.625673,-1554.432478,-8808.450710,-2604.724693
263.625995,148.041188,-8290.306550,-4673.182538
263.626316,1776.494261,-8586.388927,-4596.572988
263.626638,3478.967927,-9474.636058,-2451.505594
263.626960,4071.132681,-9696.697840,-2757.943793
263.627282,5329.482782,-10732.986159,-3217.601092
263.627604,6587.832884,-11621.233289,-3140.991542
263.627926,5995.668130,-11251.130318,-3524.039291
263.628247,3478.967927,-10955.047942,-2681.334243
263.628569,666.185348,-10658.965565,-689.485948
263.628891,-1332.370696,-8882.471304,383.047749
263.629213,-2442.679609,-6661.853478,-612.876398
263.629535,-3627.009116,-6735.874072,-1685.410096
263.629857,-4663.297435,-8808.450710,-689.485948
263.630178,-5181.441594,-9918.759623,689.485948
263.630500,-5551.544565,-11251.130318,1149.143247
263.630822,-5107.421000,-12213.398043,1915.238745
263.631144,-4589.276840,-11251.130318,1072.533697
263.631466,-4219.173869,-9178.553681,-459.657299
263.631788,-3108.864956,-7846.182985,-1762.019645
263.632109,-962.267725,-7994.224174,-2528.115143
263.632431,814.226536,-7254.018232,-2451.505594
263.632753,2442.679609,-6883.915261,-2221.676944
263.633075,4589.276840,-6883.915261,-2834.553343
263.633397,7105.977043,-8142.265362,-4213.525239
263.633719,8882.471304,-10288.862594,-4596.572988
263.634040,7328.038826,-11029.068536,-3524.039291
263.634362,4219.173869,-10436.903782,-1838.629195
263.634684,1036.288319,-9622.677246,0.000000
263.635006,-1480.411884,-9252.574275,0.000000
263.635328,-2960.823768,-7550.100608,-1838.629195
263.635650,-4515.256246,-6217.729913,-3370.820191
263.635971,-4663.297435,-7550.100608,-2451.505594
263.636293,-4737.318029,-10214.842000,0.000000
263.636615,-4811.338623,-11325.150913,1532.190996
263.636937,-5181.441594,-11325.150913,2451.505594
263.637259,-4663.297435,-10584.944971,1149.143247
263.637580,-4737.318029,-9844.739029,-1608.800546
263.637902,-3256.906145,-10140.821405,-4060.306139
263.638224,0.000000,-9400.615463,-4136.915689
263.638546,2886.803174,-9474.636058,-3753.867940
263.638868,4737.318029,-10066.800811,-1838.629195
263.639190,6365.771101,-9474.636058,0.000000
263.639511,7550.100608,-8586.388927,-1991.848295
263.639833,8290.306550,-10066.800811,-5515.887586
263.640155,7550.100608,-12805.562797,-5439.278036
263.640477,4219.173869,-11991.336260,-2451.505594
263.640799,148.041188,-10732.986159,-1072.533697
263.641121,-2146.597232,-9696.697840,536.266849
263.641442,-2738.761985,-8216.285956,0.000000
263.641764,-4885.359217,-6291.750507,-2221.676944
263.642086,-7550.100608,-6365.771101,-2451.505594
263.642408,-8882.471304,-8586.388927,-689.485948
263.642730,-8290.306550,-10584.944971,689.485948
263.643052,-6513.812290,-11547.212695,612.876398
263.643373,-5551.544565,-11029.068536,459.657299
263.643695,-4737.318029,-10066.800811,689.485948
263.644017,-3923.091493,-8882.471304,-153.219100
263.644339,-2072.576638,-8882.471304,-2451.505594
263.644661,1110.308913,-8660.409521,-3753.867940
263.644983,3478.967927,-8882.471304,-3677.258390
263.645304,5107.421000,-8586.388927,-1455.581446
263.645626,6883.915261,-7476.080014,0.000000
263.645948,8734.430116,-7179.997637,-689.485948
263.646270,9918.759623,-7772.162391,-2834.553343
263.646592,8216.285956,-9992.780217,-2911.162892
263.646914,3923.091493,-10066.800811,-842.705048
263.647235,74.020594,-9252.574275,1991.848295
263.647557,-1850.514855,-8068.244768,1915.238745
263.647879,-2294.638420,-6809.894666,-919.314598
263.648201,-4441.235652,-5921.647536,-1762.019645
263.648523,-6513.812290,-7624.121203,-1455.581446
263.648845,-7476.080014,-10658.965565,-612.876398
263.649166,-6439.791695,-12657.521608,459.657299
263.649488,-5699.585753,-12509.480420,-229.828649
263.649810,-5551.544565,-11695.253884,306.438199
263.650132,-5699.585753,-10436.903782,-766.095498
263.650454,-4663.297435,-9104.533087,-3447.429741
263.650776,-1036.288319,-8364.327145,-5362.668486
263.651097,2960.823768,-9622.677246,-5822.325785
263.651419,4737.318029,-10807.006753,-5286.058936
263.651741,5625.565159,-11621.233289,-1608.800546
263.652063,6735.874072,-10362.883188,766.095498
263.652385,7476.080014,-9104.533087,-1762.019645
263.652707,7402.059420,-9474.636058,-4290.134789
263.653028,5551.544565,-10807.006753,-3983.696590
263.653350,2220.617826,-9770.718434,-2068.457845
263.653672,-222.061783,-9104.533087,0.000000
263.653994,-370.102971,-8956.491898,1532.190996
263.654316,-666.185348,-7624.121203,1302.362347
263.654637,-2738.761985,-7105.977043,-153.219100
263.654959,-5699.585753,-8438.347739,-689.485948
263.655281,-6957.935855,-11473.192101,229.828649
263.655603,-6883.915261,-12805.562797,0.000000
263.655925,-7179.997637,-11769.274478,-536.266849
263.656247,-6365.771101,-10140.821405,0.000000
263.656568,-4885.359217,-8734.430116,-536.266849
263.656890,-3330.926739,-7920.203579,-2681.334243
263.657212,-2146.597232,-7179.997637,-3370.820191
263.657534,-370.102971,-6883.915261,-3064.381992
263.657856,1480.411884,-7402.059420,-3447.429741
263.658178,3256.906145,-8438.347739,-3140.991542
263.658499,4811.338623,-9178.553681,-2604.724693
263.658821,6439.791695,-8586.388927,-2298.286494
263.659143,6883.915261,-8734.430116,-2681.334243
263.659465,5329.482782,-9696.697840,-1685.410096
263.659787,2738.761985,-9770.718434,536.266849
263.660109,-296.082377,-9030.512492,995.924147
263.660430,-1998.556043,-8290.306550,0.000000
263.660752,-2516.700203,-7624.121203,-1378.971896
263.661074,-2960.823768,-7476.080014,-1455.581446
263.661396,-3849.070898,-8956.491898,-383.047749
263.661718,-4589.276840,-11029.068536,1455.581446
263.662040,-4219.173869,-12065.356855,2145.067394
263.662361,-4515.256246,-11695.253884,612.876398
263.662683,-4219.173869,-10732.986159,-1302.362347
263.663005,-2368.659014,-9992.780217,-2451.505594
263.663327,-1110.308913,-9400.615463,-3983.696590
263.663649,1258.350101,-9178.553681,-3983.696590
263.663971,3182.885551,-8660.409521,-2681.334243
263.664292,4293.194464,-7550.100608,-2834.553343
263.664614,5551.544565,-8142.265362,-3983.696590
263.664936,6439.791695,-10288.862594,-4749.792088
263.665258,6365.771101,-11695.253884,-4519.963438
263.665580,4367.215058,-12213.398043,-3753.867940
263.665902,1184.329507,-12213.398043,-1378.971896
263.666223,-1480.411884,-11843.295072,919.314598
263.666545,-2960.823768,-8290.306550,612.876398
263.666867,-3997.112087,-5847.626942,-2298.286494
263.667189,-4737.318029,-6661.853478,-3064.381992
263.667511,-5329.482782,-9030.512492,-1378.971896
263.667833,-5773.606348,-11251.130318,1072.533697
263.668154,-5329.482782,-12065.356855,3140.991542
263.668476,-4219.173869,-11695.253884,2451.505594
263.668798,-3552.988522,-10140.821405,919.314598
263.669120,-2442.679609,-8512.368333,-995.924147
263.669442,-1406.391290,-6809.894666,-2451.505594
263.669764,370.102971,-6735.874072,-3294.210641
263.670085,2368.659014,-6143.709319,-1762.019645
263.670407,3923.091493,-6439.791695,-1608.800546
263.670729,5625.565159,-7402.059420,-2911.162892
263.671051,7402.059420,-9474.636058,-3677.258390
263.671373,7994.224174,-11547.212695,-3600.648841
263.671694,6291.750507,-11029.068536,-3064.381992
263.672016,3404.947333,-9770.718434,-995.924147
263.672338,-222.061783,-9474.636058,1149.143247
263.672660,-2812.782580,-8142.265362,0.000000
263.672982,-4515.256246,-5995.668130,-2451.505594
263.673304,-5699.585753,-6291.750507,-3370.820191
263.673625,-5699.585753,-8512.368333,-2145.067394
263.673947,-5699.585753,-11103.089130,995.924147
263.674269,-4589.276840,-12509.480420,2145.067394
263.674591,-3701.029710,-11473.192101,2451.505594
263.674913,-3478.967927,-9326.594869,1991.848295
263.675235,-2664.741391,-7624.121203,-1991.848295
263.675556,-1480.411884,-7846.182985,-4673.182538
263.675878,1554.432478,-8660.409521,-4979.620737
263.676200,3552.988522,-10807.006753,-4290.134789
263.676522,5107.421000,-11991.336260,-2145.067394
263.676844,6143.709319,-11251.130318,766.095498
263.677166,7698.141797,-9400.615463,0.000000
263.677487,8956.491898,-9474.636058,-5515.887586
263.677809,8586.388927,-11029.068536,-6894.859482
263.678131,5329.482782,-11473.192101,-4060.306139
263.678453,370.102971,-10362.883188,-459.657299
263.678775,-2738.761985,-9474.636058,1838.629195
263.679097,-3923.091493,-7846.182985,1225.752797
263.679418,-5625.565159,-7105.977043,-2757.943793
263.679740,-8586.388927,-8364.327145,-4136.915689
263.680062,-10510.924376,-10807.006753,-766.095498
263.680384,-9992.780217,-12065.356855,1838.629195
263.680706,-7402.059420,-11325.150913,1991.848295
263.681028,-5255.462188,-9918.759623,153.219100
263.681349,-4145.153275,-8660.409521,76.609550
263.681671,-3849.070898,-7476.080014,-612.876398
263.681993,-3034.844362,-6883.915261,-2757.943793
263.682315,-740.205942,-7402.059420,-4290.134789
263.682637,2368.659014,-8364.327145,-3600.648841
263.682959,4441.235652,-9400.615463,-2298.286494
263.683280,6809.894666,-10066.800811,-1991.848295
263.683602,9548.656652,-10584.944971,-2451.505594
263.683924,10066.800811,-10288.862594,-1685.410096
263.684246,7846.182985,-9030.512492,-689.485948
263.684568,2294.638420,-8660.409521,459.657299
263.684889,-1702.473667,-7994.224174,536.266849
263.685211,-3256.906145,-7254.018232,-1915.238745
263.685533,-4589.276840,-7105.977043,-3830.477490
263.685855,-5847.626942,-7476.080014,-1762.019645
263.686177,-6735.874072,-9474.636058,1532.190996
263.686499,-6217.729913,-11103.089130,1608.800546
263.686820,-4663.297435,-12287.418637,153.219100
263.687142,-4071.132681,-12287.418637,0.000000
263.687464,-5033.400406,-9770.718434,689.485948
263.687786,-5107.421000,-7698.141797,-1378.971896
263.688108,-2664.741391,-7105.977043,-3600.648841
263.688430,1480.411884,-7920.203579,-5209.449386
263.688751,3701.029710,-10436.903782,-5209.449386
263.689073,4589.276840,-11103.089130,-2604.724693
263.689395,5921.647536,-9696.697840,76.609550
263.689717,7772.162391,-9622.677246,-919.314598
263.690039,9178.553681,-10658.965565,-3830.477490
263.690361,7994.224174,-11325.150913,-5056.230287
263.690682,4293.194464,-10658.965565,-2911.162892
263.691004,222.061783,-9696.697840,0.000000
263.691326,-1850.514855,-8808.450710,1991.848295
263.691648,-2664.741391,-6365.771101,689.485948
263.691970,-4071.132681,-6365.771101,-2221.676944
263.692292,-6069.688724,-8808.450710,-1608.800546
263.692613,-7105.977043,-10584.944971,-229.828649
263.692935,-6365.771101,-12065.356855,919.314598
263.693257,-5255.462188,-11843.295072,689.485948
263.693579,-4515.256246,-10955.047942,76.609550
263.693901,-4219.173869,-10288.862594,-383.047749
263.694223,-3997.112087,-9030.512492,-536.266849
263.694544,-3108.864956,-7624.121203,-2374.896044
263.694866,-592.164754,-7105.977043,-3370.820191
263.695188,2220.617826,-7105.977043,-3370.820191
263.695510,4219.173869,-7698.141797,-2681.334243
263.695832,6069.688724,-8068.244768,-2374.896044
263.696154,8364.327145,-8882.471304,-2604.724693
263.696475,9400.615463,-9622.677246,-2604.724693
263.696797,7031.956449,-10288.862594,-2374.896044
263.697119,2812.782580,-9770.718434,-459.657299
263.697441,-1036.288319,-9104.533087,536.266849
263.697763,-2738.761985,-7994.224174,-383.047749
263.698084,-3330.926739,-7328.038826,-2374.896044
263.698406,-4811.338623,-6957.935855,-2451.505594
263.698728,-6069.688724,-8734.430116,-459.657299
263.699050,-6217.729913,-11029.068536,1685.410096
263.699372,-4811.338623,-12657.521608,1225.752797
263.699694,-3034.844362,-11843.295072,-766.095498
263.700015,-2590.720797,-10807.006753,-1762.019645
263.700337,-2664.741391,-9992.780217,-1532.190996
263.700659,-2146.597232,-8586.388927,-1149.143247
263.700981,-296.082377,-7846.182985,-2451.505594
263.701303,2442.679609,-8290.306550,-3524.039291
263.701625,4811.338623,-9030.512492,-3524.039291
263.701946,5625.565159,-9326.594869,-3064.381992
263.702268,6587.832884,-10214.842000,-2604.724693
263.702590,7994.224174,-11473.192101,-2451.505594
263.702912,7920.203579,-11621.233289,-3140.991542
263.703234,4885.359217,-10955.047942,-2757.943793
263.703556,370.102971,-11177.109724,-1225.752797
263.703877,-2664.741391,-9918.759623,383.047749
263.704199,-4441.235652,-8438.347739,-766.095498
263.704521,-5773.606348,-7772.162391,-2298.286494
263.704843,-7105.977043,-8216.285956,-1302.362347
263.705165,-7402.059420,-9474.636058,612.876398
263.705487,-6883.915261,-10658.965565,1455.581446
263.705808,-5403.503377,-11029.068536,1455.581446
263.706130,-4367.215058,-9844.739029,842.705048
263.706452,-3701.029710,-8734.430116,306.438199
263.706774,-3552.988522,-7105.977043,-766.095498
263.707096,-1776.494261,-7031.956449,-1991.848295
263.707418,666.185348,-6587.832884,-2987.772442
263.707739,2960.823768,-6439.791695,-3370.820191
263.708061,5477.523971,-7772.162391,-3217.601092
263.708383,7624.121203,-9400.615463,-2604.724693
263.708705,8438.347739,-11029.068536,-1915.238745
263.709027,7254.018232,-10807.006753,-1838.629195
263.709348,4811.338623,-9474.636058,-1991.848295
263.709670,1924.535449,-9400.615463,-1685.410096
263.709992,-814.226536,-9326.594869,-1378.971896
263.710314,-2960.823768,-7698.141797,-1608.800546
263.710636,-4367.215058,-7179.997637,-2298.286494
263.710958,-5033.400406,-8438.347739,-919.314598
263.711279,-4959.379811,-9770.718434,536.266849
263.711601,-5403.503377,-11547.212695,76.609550
263.711923,-5033.400406,-11695.253884,459.657299
263.712245,-4885.359217,-10214.842000,1378.971896
263.712567,-4515.256246,-8808.450710,-689.485948
263.712889,-2738.761985,-8882.471304,-3064.381992
263.713210,518.144159,-8660.409521,-3140.991542
263.713532,3256.906145,-9474.636058,-4749.792088
263.713854,4219.173869,-10881.027347,-3600.648841
263.714176,5551.544565,-10881.027347,-536.266849
263.714498,6957.935855,-10066.800811,-1455.581446
263.714820,7624.121203,-11029.068536,-5056.230287
263.715141,6883.915261,-11399.171507,-4979.620737
263.715463,4367.215058,-9844.739029,-2911.162892
263.715785,0.000000,-9178.553681,-1532.190996
263.716107,-2442.679609,-9178.553681,-383.047749
263.716429,-3627.009116,-8290.306550,-306.438199
263.716751,-5403.503377,-7994.224174,-2451.505594
263.717072,-7846.182985,-9178.553681,-1532.190996
263.717394,-8808.450710,-10288.862594,842.705048
263.717716,-8068.244768,-9474.636058,842.705048
263.718038,-6217.729913,-10436.903782,-995.924147
263.718360,-4885.359217,-11325.150913,-306.438199
263.718682,-4737.318029,-9548.656652,1455.581446
263.719003,-4737.318029,-8438.347739,1072.533697
263.719325,-2368.659014,-8216.285956,-1455.581446
263.719647,1184.329507,-8660.409521,-2987.772442
263.719969,3182.885551,-8364.327145,-3524.039291
263.720291,4367.215058,-7476.080014,-1915.238745
263.720613,6735.874072,-7846.182985,-229.828649
263.720934,9326.594869,-9104.533087,-1225.752797
263.721256,9992.780217,-8882.471304,-2451.505594
263.721578,7179.997637,-8956.491898,-1762.019645
263.721900,2442.679609,-9252.574275,-536.266849
263.722222,-518.144159,-9474.636058,459.657299
263.722543,-2886.803174,-7476.080014,306.438199
263.722865,-3404.947333,-5773.606348,-1685.410096
263.723187,-4663.297435,-6439.791695,-2374.896044
263.723509,-6069.688724,-9104.533087,-919.314598
263.723831,-7328.038826,-8734.430116,689.485948
263.724153,-6069.688724,-9548.656652,-306.438199
263.724474,-4367.215058,-13323.706956,-2221.676944
263.724796,-4145.153275,-14582.057057,-1149.143247
263.725118,-4959.379811,-11843.295072,0.000000
263.725440,-4071.132681,-9326.594869,-1225.752797
263.725762,1184.329507,-9400.615463,-3064.381992
263.726084,5551.544565,-9400.615463,-4826.401637
263.726405,6439.791695,-8734.430116,-5898.935335
263.726727,6217.729913,-9252.574275,-1915.238745
263.727049,7328.038826,-9474.636058,2374.896044
263.727371,8216.285956,-10140.821405,-229.828649
263.727693,8438.347739,-10362.883188,-4596.572988
263.728015,6143.709319,-11399.171507,-3830.477490
263.728336,2072.576638,-10881.027347,-1378.971896
263.728658,-1480.411884,-10140.821405,459.657299
263.728980,-3182.885551,-7846.182985,1378.971896
263.729302,-3775.050304,-5995.668130,-766.095498
263.729624,-6365.771101,-6883.915261,-3064.381992
263.729946,-8956.491898,-10288.862594,-3064.381992
263.730267,-9918.759623,-12583.501014,-842.705048
263.730589,-8660.409521,-12509.480420,-153.219100
263.730911,-6735.874072,-11547.212695,-1302.362347
263.731233,-4663.297435,-10955.047942,-766.095498
263.731555,-4219.173869,-8734.430116,0.000000
263.731877,-3849.070898,-7550.100608,-1608.800546
263.732198,-1258.350101,-6957.935855,-3677.258390
263.732520,2368.659014,-6735.874072,-4443.353888
263.732842,5033.400406,-7624.121203,-3907.087040
263.733164,6513.812290,-8956.491898,-842.705048
263.733486,7624.121203,-8586.388927,1991.848295
263.733808,9104.533087,-7402.059420,919.314598
263.734129,9474.636058,-7550.100608,-1838.629195
263.734451,7624.121203,-8956.491898,-2374.896044
263.734773,3182.885551,-9474.636058,-1072.533697
263.735095,-592.164754,-9400.615463,1072.533697
263.735417,-2146.597232,-8438.347739,1762.019645
263.735738,-2072.576638,-7031.956449,-919.314598
263.736060,-2516.700203,-8216.285956,-2987.772442
263.736382,-4737.318029,-10066.800811,-1608.800546
263.736704,-6661.853478,-12805.562797,459.657299
263.737026,-6883.915261,-12657.521608,995.924147
263.737348,-6143.709319,-10214.842000,0.000000
263.737669,-4737.318029,-9326.594869,-2528.115143
263.737991,-3404.947333,-9474.636058,-3753.867940
263.738313,-962.267725,-9252.574275,-4596.572988
263.738635,1480.411884,-9104.533087,-4060.306139
263.738957,3849.070898,-9844.739029,-3370.820191
263.739279,5477.523971,-10807.006753,-2298.286494
263.739600,6735.874072,-9770.718434,-612.876398
263.739922,6957.935855,-9326.594869,-2451.505594
263.740244,7328.038826,-10881.027347,-3983.696590
263.740566,7031.956449,-11547.212695,-3677.258390
263.740888,3701.029710,-10066.800811,-1455.581446
263.741210,-518.144159,-9474.636058,842.705048
263.741531,-3701.029710,-8882.471304,1302.362347
263.741853,-4145.153275,-8142.265362,-306.438199
263.742175,-5699.585753,-8068.244768,-3677.258390
263.742497,-7994.224174,-9400.615463,-3600.648841
263.742819,-8660.409521,-11621.233289,995.924147
263.743141,-8660.409521,-11843.295072,2757.943793
263.743462,-7328.038826,-9992.780217,459.657299
263.743784,-5403.503377,-8882.471304,-995.924147
263.744106,-4145.153275,-8586.388927,-1915.238745
263.744428,-3478.967927,-8364.327145,-2145.067394
263.744750,-2368.659014,-7179.997637,-1915.238745
263.745072,222.061783,-6291.750507,-2068.457845
263.745393,3552.988522,-7772.162391,-3140.991542
263.745715,6291.750507,-9696.697840,-4136.915689
263.746037,7254.018232,-10510.924376,-3294.210641
263.746359,7254.018232,-9992.780217,-919.314598
263.746681,6069.688724,-9622.677246,689.485948
263.747003,3627.009116,-8956.491898,689.485948
263.747324,962.267725,-7846.182985,-383.047749
263.747646,-1776.494261,-6809.894666,-1991.848295
263.747968,-3552.988522,-7254.018232,-2451.505594
263.748290,-4441.235652,-8068.244768,-2145.067394
263.748612,-5995.668130,-8438.347739,383.047749
263.748933,-6291.750507,-9548.656652,1302.362347
263.749255,-5181.441594,-11769.274478,995.924147
263.749577,-5033.400406,-13323.706956,-766.095498
263.749899,-4441.235652,-11843.295072,-1378.971896
263.750221,-3478.967927,-9622.677246,-766.095498
263.750543,-1628.453072,-7994.224174,-1915.238745
263.750864,1332.370696,-7846.182985,-2604.724693
263.751186,4219.173869,-7698.141797,-3370.820191
263.751508,5403.503377,-8882.471304,-4136.915689
263.751830,7031.956449,-10584.944971,-2145.067394
263.752152,7105.977043,-10510.924376,383.047749
263.752474,7624.121203,-11399.171507,-1149.143247
263.752795,7624.121203,-11695.253884,-3524.039291
263.753117,6217.729913,-11029.068536,-2528.115143
263.753439,2516.700203,-8956.491898,-842.705048
263.753761,-1184.329507,-8142.265362,-153.219100
263.754083,-3182.885551,-6661.853478,-153.219100
263.754405,-4145.153275,-6291.750507,-2145.067394
263.754726,-5773.606348,-8290.306550,-3447.429741
263.755048,-7624.121203,-11695.253884,-612.876398
263.755370,-7920.203579,-13101.645173,1149.143247
263.755692,-7179.997637,-11843.295072,612.876398
263.756014,-5699.585753,-11177.109724,-1149.143247
263.756336,-4515.256246,-10214.842000,-536.266849
263.756657,-4071.132681,-8290.306550,-689.485948
263.756979,-2664.741391,-7179.997637,-1225.752797
263.757301,0.000000,-6883.915261,-3140.991542
263.757623,3108.864956,-7846.182985,-3064.381992
263.757945,4959.379811,-8142.265362,-1991.848295
263.758267,6365.771101,-8364.327145,-383.047749
263.758588,8586.388927,-9104.533087,-229.828649
263.758910,10436.903782,-9326.594869,-2298.286494
263.759232,9326.594869,-8882.471304,-2757.943793
263.759554,5181.441594,-8586.388927,-1532.190996
263.759876,666.185348,-8956.491898,306.438199
263.760198,-2146.597232,-8290.306550,383.047749
263.760519,-3775.050304,-6439.791695,-1991.848295
263.760841,-4737.318029,-7328.038826,-3983.696590
263.761163,-6513.812290,-9844.739029,-2221.676944
263.761485,-7772.162391,-11325.150913,612.876398
263.761807,-7328.038826,-11769.274478,689.485948
263.762128,-5773.606348,-11843.295072,-1149.143247
263.762450,-4959.379811,-11399.171507,-1762.019645
263.762772,-4663.297435,-9844.739029,-1149.143247
263.763094,-3775.050304,-8438.347739,-2221.676944
263.763416,-740.205942,-7846.182985,-3677.258390
263.763738,3034.844362,-9178.553681,-4673.182538
263.764059,5107.421000,-10436.903782,-3370.820191
263.764381,5847.626942,-9696.697840,-1149.143247
263.764703,7105.977043,-9400.615463,-689.485948
263.765025,9030.512492,-10881.027347,-2757.943793
263.765347,9474.636058,-11547.212695,-4290.134789
263.765669,5773.606348,-10214.842000,-2068.457845
263.765990,1184.329507,-9918.759623,-689.485948
263.766312,-3034.844362,-9474.636058,1072.533697
263.766634,-4589.276840,-8068.244768,-229.828649
263.766956,-5477.523971,-6809.894666,-4136.915689
263.767278,-7254.018232,-9252.574275,-4673.182538
263.767600,-9326.594869,-11695.253884,0.000000
263.767921,-10140.821405,-11473.192101,2528.115143
263.768243,-7920.203579,-10066.800811,1608.800546
263.768565,-5181.441594,-9622.677246,-995.924147
263.768887,-4737.318029,-9770.718434,-2221.676944
263.769209,-5329.482782,-8068.244768,-153.219100
263.769531,-4219.173869,-5699.585753,0.000000
263.769852,-592.164754,-5033.400406,-2681.334243
263.770174,3775.050304,-7179.997637,-4519.963438
263.770496,6365.771101,-8438.347739,-3064.381992
263.770818,7179.997637,-8586.388927,-1608.800546
263.771140,9178.553681,-10510.924376,-1378.971896
263.771462,10510.924376,-11399.171507,-459.657299
263.771783,8808.450710,-9770.718434,-1072.533697
263.772105,4145.153275,-8216.285956,-1072.533697
263.772427,0.000000,-8068.244768,-306.438199
263.772749,-2146.597232,-7105.977043,-1225.752797
263.773071,-3256.906145,-6883.915261,-3600.648841
263.773393,-4737.318029,-7772.162391,-2987.772442
263.773715,-6365.771101,-10066.800811,76.609550
263.774036,-7031.956449,-12361.439231,1685.410096
263.774358,-6217.729913,-13323.706956,306.438199
263.774680,-5477.523971,-12287.418637,-766.095498
263.775002,-4663.297435,-9696.697840,-919.314598
263.775324,-4071.132681,-7476.080014,-1302.362347
263.775646,-2442.679609,-7105.977043,-2757.943793
263.775968,1110.308913,-7328.038826,-3907.087040
263.776290,3997.112087,-9474.636058,-4596.572988
263.776611,4885.359217,-11695.253884,-2987.772442
263.776933,5403.503377,-11029.068536,0.000000
263.777255,6735.874072,-10881.027347,-766.095498
263.777577,8364.327145,-11991.336260,-4136.915689
263.777899,8290.306550,-11473.192101,-3753.867940
263.778221,5255.462188,-9474.636058,-2451.505594
263.778543,444.123565,-8290.306550,-1072.533697
263.778865,-2220.617826,-8734.430116,766.095498
263.779187,-3849.070898,-7624.121203,76.609550
263.779508,-5625.565159,-7920.203579,-2834.553343
263.779830,-7476.080014,-10140.821405,-2528.115143
263.780152,-8660.409521,-12731.542202,766.095498
263.780474,-8734.430116,-11769.274478,2374.896044
263.780796,-7179.997637,-9474.636058,1072.533697
263.781118,-5033.400406,-9252.574275,-766.095498
263.781440,-4145.153275,-9474.636058,-1991.848295
263.781762,-3849.070898,-7476.080014,-459.657299
263.782084,-2738.761985,-6291.750507,-995.924147
263.782405,0.000000,-6587.832884,-2298.286494
263.782727,3256.906145,-7624.121203,-2451.505594
263.783049,5329.482782,-8142.265362,-2451.505594
263.783371,7031.956449,-8956.491898,-2528.115143
263.783693,8586.388927,-10584.944971,-1608.800546
263.784015,8660.409521,-10362.883188,-842.705048
263.784337,6217.729913,-9178.553681,-919.314598
263.784659,2738.761985,-8586.388927,-689.485948
263.784980,-74.020594,-8734.430116,-306.438199
263.785302,-1924.535449,-7698.141797,-1991.848295
263.785624,-3478.967927,-7105.977043,-2911.162892
263.785946,-4885.359217,-8216.285956,-919.314598
263.786268,-6069.688724,-9622.677246,1455.581446
263.786590,-5477.523971,-10881.027347,1532.190996
263.786912,-5477.523971,-11325.150913,-459.657299
263.787234,-4367.215058,-11843.295072,-1378.971896
263.787556,-3552.988522,-10362.883188,-842.705048
263.787877,-3404.947333,-8586.388927,-1225.752797
263.788199,-2072.576638,-8586.388927,-1532.190996
263.788521,2294.638420,-8882.471304,-2911.162892
263.788843,4737.318029,-9326.594869,-4903.011187
263.789165,5773.606348,-9844.739029,-4366.744339
263.789487,6809.894666,-10362.883188,-995.924147
263.789809,7772.162391,-10362.883188,-689.485948
263.790131,8586.388927,-11029.068536,-3447.429741
263.790452,8068.244768,-11621.233289,-4443.353888
263.790774,4663.297435,-10955.047942,-2834.553343
263.791096,0.000000,-10066.800811,-1608.800546
263.791418,-3330.926739,-9178.553681,-536.266849
263.791740,-4885.359217,-7402.059420,-1149.143247
263.792062,-6365.771101,-7698.141797,-3217.601092
263.792384,-8142.265362,-9918.759623,-2681.334243
263.792706,-9622.677246,-11399.171507,306.438199
263.793028,-9178.553681,-10436.903782,1532.190996
263.793349,-7105.977043,-10214.842000,-306.438199
263.793671,-5551.544565,-10214.842000,-766.095498
263.793993,-4811.338623,-9326.594869,0.000000
263.794315,-4071.132681,-7105.977043,-153.219100
263.794637,-2146.597232,-6587.832884,-2451.505594
263.794959,1332.370696,-6883.915261,-3064.381992
263.795281,4589.276840,-6587.832884,-2911.162892
263.795603,6587.832884,-7550.100608,-3217.601092
263.795925,8808.450710,-10288.862594,-2451.505594
263.796246,10288.862594,-11029.068536,-536.266849
263.796568,9548.656652,-9696.697840,-689.485948
263.796890,6439.791695,-8290.306550,-1685.410096
263.797212,2590.720797,-9104.533087,-1455.581446
263.797534,-296.082377,-9326.594869,-1608.800546
263.797856,-2664.741391,-7698.141797,-2604.724693
263.798178,-4441.235652,-7402.059420,-2834.553343
263.798500,-5403.503377,-9104.533087,-919.314598
263.798821,-6143.709319,-10140.821405,1225.752797
263.799143,-6661.853478,-10584.944971,383.047749
263.799465,-6513.812290,-11917.315666,-919.314598
263.799787,-5551.544565,-11695.253884,-536.266849
263.800109,-5181.441594,-9326.594869,-995.924147
263.800431,-4145.153275,-7624.121203,-2068.457845
263.800753,-740.205942,-7698.141797,-2757.943793
263.801075,3552.988522,-9326.594869,-3677.258390
263.801397,5329.482782,-10214.842000,-4673.182538
263.801718,6069.688724,-11621.233289,-1838.629195
263.802040,7476.080014,-10436.903782,1149.143247
263.802362,9326.594869,-10066.800811,-1762.019645
263.802684,9474.636058,-11103.089130,-4519.963438
263.803006,8512.368333,-10066.800811,-3294.210641
263.803328,4145.153275,-8438.347739,-1838.629195
263.803650,-370.102971,-8364.327145,0.000000
263.803972,-2886.803174,-7920.203579,1685.410096
263.804293,-4885.359217,-7031.956449,-689.485948
263.804615,-7105.977043,-8956.491898,-3830.477490
263.804937,-10288.862594,-12065.356855,-1608.800546
263.805259,-11991.336260,-13027.624579,1838.629195
263.805581,-10584.944971,-10807.006753,1302.362347
263.805903,-7772.162391,-9548.656652,-995.924147
263.806225,-5477.523971,-9400.615463,-1072.533697
263.806547,-4737.318029,-8364.327145,0.000000
263.806869,-4219.173869,-7105.977043,-306.438199
263.807190,-1036.288319,-7105.977043,-2681.334243
263.807512,3182.885551,-7772.162391,-4213.525239
263.807834,5329.482782,-8438.347739,-3677.258390
263.808156,6439.791695,-9400.615463,-1838.629195
263.808478,7550.100608,-10436.903782,-536.266849
263.808800,9178.553681,-10807.006753,-919.314598
263.809122,9474.636058,-9400.615463,-842.705048
263.809444,6217.729913,-8882.471304,-1225.752797
263.809766,1480.411884,-8956.491898,-536.266849
263.810087,-1702.473667,-7994.224174,842.705048
263.810409,-3182.885551,-5625.565159,-383.047749
263.810731,-4293.194464,-5329.482782,-2528.115143
263.811053,-5625.565159,-7994.224174,-2374.896044
263.811375,-7476.080014,-11325.150913,536.266849
263.811697,-8808.450710,-12139.377449,1915.238745
263.812019,-7920.203579,-11547.212695,1072.533697
263.812341,-6217.729913,-9844.739029,-995.924147
263.812662,-5477.523971,-9326.594869,-3217.601092
263.812984,-4293.194464,-7846.182985,-3524.039291
263.813306,-1924.535449,-7031.956449,-3370.820191
263.813628,2072.576638,-7846.182985,-4213.525239
263.813950,5773.606348,-10658.965565,-4596.572988
263.814272,7624.121203,-12731.542202,-2681.334243
263.814594,8216.285956,-11843.295072,-919.314598
263.814916,8364.327145,-11177.109724,-229.828649
263.815238,8438.347739,-10807.006753,-2221.676944
263.815559,6957.935855,-9548.656652,-3677.258390
263.815881,4367.215058,-8660.409521,-2681.334243
263.816203,296.082377,-8142.265362,-919.314598
263.816525,-1924.535449,-8364.327145,153.219100
263.816847,-3404.947333,-7698.141797,459.657299
263.817169,-4737.318029,-8512.368333,-766.095498
263.817491,-7179.997637,-10732.986159,-1378.971896
263.817813,-8660.409521,-13397.727550,76.609550
263.818134,-9474.636058,-11695.253884,995.924147
263.818456,-8586.388927,-9622.677246,-459.657299
263.818778,-5699.585753,-8808.450710,-2451.505594
263.819100,-2664.741391,-8882.471304,-2681.334243
263.819422,-1110.308913,-8734.430116,-2451.505594
263.819744,-222.061783,-8216.285956,-2221.676944
263.820066,2886.803174,-8512.368333,-1685.410096
263.820388,5921.647536,-8068.244768,-2068.457845
263.820710,7328.038826,-7920.203579,-3294.210641
263.821031,7254.018232,-8808.450710,-2834.553343
263.821353,7105.977043,-8660.409521,-995.924147
263.821675,5551.544565,-7476.080014,-919.314598
263.821997,4663.297435,-7846.182985,-1838.629195
263.822319,2368.659014,-9252.574275,-1149.143247
263.822641,-222.061783,-9622.677246,76.609550
263.822963,-2368.659014,-8660.409521,0.000000
263.823285,-3330.926739,-7402.059420,-995.924147
263.823607,-4071.132681,-9104.533087,-1608.800546
263.823928,-5773.606348,-10288.862594,-536.266849
263.824250,-7772.162391,-10807.006753,459.657299
263.824572,-7772.162391,-11547.212695,153.219100
263.824894,-5625.565159,-11843.295072,-1149.143247
263.825216,-2368.659014,-11769.274478,-2911.162892
263.825538,0.000000,-10510.924376,-2911.162892
263.825860,2442.679609,-9622.677246,-2298.286494
263.826182,5181.441594,-8882.471304,-1838.629195
263.826503,7105.977043,-8586.388927,-1915.238745
263.826825,8068.244768,-8068.244768,-2911.162892
263.827147,7920.203579,-8808.450710,-2604.724693
263.827469,6143.709319,-10140.821405,-2298.286494
263.827791,3775.050304,-10140.821405,-1532.190996
263.828113,2072.576638,-9030.512492,-1378.971896
263.828435,814.226536,-8660.409521,-1762.019645
263.828757,-1110.308913,-9548.656652,-1608.800546
263.829079,-3775.050304,-8808.450710,0.000000
263.829400,-6365.771101,-7105.977043,-153.219100
263.829722,-7920.203579,-7994.224174,-1225.752797
263.830044,-8660.409521,-10955.047942,-1225.752797
263.830366,-11251.130318,-11251.130318,-1149.143247
263.830688,-11769.274478,-11029.068536,-689.485948
263.831010,-9918.759623,-10658.965565,0.000000
263.831332,-7476.080014,-10584.944971,-1302.362347
263.831654,-3997.112087,-9696.697840,-1608.800546
263.831975,-740.205942,-8068.244768,-1991.848295
263.832297,2368.659014,-6957.935855,-2298.286494
263.832619,5625.565159,-6809.894666,-2298.286494
263.832941,8364.327145,-6883.915261,-1915.238745
263.833263,9548.656652,-7402.059420,-1762.019645
263.833585,9548.656652,-8734.430116,-1149.143247
263.833907,7772.162391,-10140.821405,0.000000
263.834229,5329.482782,-10288.862594,-459.657299
263.834551,3034.844362,-9400.615463,-1149.143247
263.834872,1628.453072,-9178.553681,-1302.362347
263.835194,0.000000,-7994.224174,-1072.533697
263.835516,-1850.514855,-6291.750507,0.000000
263.835838,-3404.947333,-6735.874072,-612.876398
263.836160,-5329.482782,-8882.471304,-995.924147
263.836482,-7846.182985,-11103.089130,-612.876398
263.836804,-9326.594869,-11843.295072,-689.485948
263.837126,-9474.636058,-12139.377449,-2451.505594
263.837447,-7994.224174,-11843.295072,-2911.162892
263.837769,-4885.359217,-11177.109724,-2757.943793
263.838091,-1258.350101,-10066.800811,-2374.896044
263.838413,2368.659014,-8290.306550,-2681.334243
263.838735,5625.565159,-7698.141797,-3294.210641
263.839057,9178.553681,-8734.430116,-3294.210641
263.839379,9918.759623,-9548.656652,-2528.115143
263.839701,9696.697840,-9770.718434,-1608.800546
263.840023,8734.430116,-10881.027347,-689.485948
263.840344,6957.935855,-10881.027347,-229.828649
263.840666,4663.297435,-9326.594869,-1608.800546
263.840988,2590.720797,-8364.327145,-1608.800546
263.841310,370.102971,-8586.388927,-1072.533697
263.841632,-2072.576638,-8068.244768,-153.219100
263.841954,-4663.297435,-7254.018232,-306.438199
263.842276,-7105.977043,-8438.347739,-919.314598
263.842598,-9178.553681,-11695.253884,-1455.581446
263.842920,-10881.027347,-14211.954086,-1302.362347
263.843241,-11769.274478,-13323.706956,-612.876398
263.843563,-10140.821405,-10658.965565,-1225.752797
263.843885,-7254.018232,-10066.800811,-1991.848295
263.844207,-3330.926739,-9918.759623,-1915.238745
263.844529,-370.102971,-7846.182985,-1915.238745
263.844851,1406.391290,-5773.606348,-2604.724693
263.845173,4145.153275,-5995.668130,-2145.067394
263.845495,6809.894666,-8068.244768,-1225.752797
263.845816,7328.038826,-8142.265362,-3217.601092
263.846138,6365.771101,-9548.656652,-2221.676944
263.846460,5255.462188,-10288.862594,153.219100
263.846782,3552.988522,-9770.718434,-153.219100
263.847104,2220.617826,-9622.677246,-1072.533697
263.847426,666.185348,-9178.553681,153.219100
263.847748,-1258.350101,-6513.812290,536.266849
263.848070,-2812.782580,-4811.338623,76.609550
263.848392,-3627.009116,-5995.668130,-689.485948
263.848713,-4737.318029,-8734.430116,-1608.800546
263.849035,-5699.585753,-11251.130318,-1838.629195
263.849357,-7105.977043,-13323.706956,-612.876398
263.849679,-7920.203579,-13545.768739,842.705048
263.850001,-7476.080014,-12065.356855,306.438199
263.850323,-5107.421000,-9696.697840,-2757.943793
263.850645,-1776.494261,-8438.347739,-4903.011187
263.850967,1998.556043,-8068.244768,-3830.477490
263.851288,4441.235652,-7328.038826,-2987.772442
263.851610,6809.894666,-7402.059420,-2681.334243
263.851932,8660.409521,-8956.491898,-1072.533697
263.852254,8956.491898,-10584.944971,-306.438199
263.852576,7624.121203,-10362.883188,-1685.410096
263.852898,5625.565159,-10807.006753,-2987.772442
263.853220,3849.070898,-10436.903782,-2221.676944
263.853542,1850.514855,-9252.574275,-766.095498
263.853864,-888.247130,-7846.182985,-612.876398
263.854185,-3034.844362,-7772.162391,229.828649
263.854507,-4515.256246,-7476.080014,-383.047749
263.854829,-6217.729913,-8734.430116,-1915.238745
263.855151,-7772.162391,-10955.047942,-2298.286494
263.855473,-8586.388927,-13545.768739,-229.828649
263.855795,-8808.450710,-12435.459826,612.876398
263.856117,-7179.997637,-10214.842000,0.000000
263.856439,-4589.276840,-9474.636058,-1991.848295
263.856761,-1628.453072,-9474.636058,-2834.553343
263.857082,518.144159,-8142.265362,-2757.943793
263.857404,2590.720797,-6661.853478,-2911.162892
263.857726,5329.482782,-7105.977043,-1685.410096
263.858048,7994.224174,-8364.327145,-1532.190996
263.858370,9474.636058,-9030.512492,-2145.067394
263.858692,8956.491898,-9474.636058,-2451.505594
263.859014,7698.141797,-9696.697840,-1532.190996
263.859336,5551.544565,-9474.636058,-1072.533697
263.859657,2590.720797,-9400.615463,-995.924147
263.859979,0.000000,-8882.471304,-919.314598
263.860301,-1554.432478,-7772.162391,-1149.143247
263.860623,-2590.720797,-7476.080014,-2451.505594
263.860945,-4663.297435,-8216.285956,-2374.896044
263.861267,-6217.729913,-9770.718434,-1532.190996
263.861589,-7624.121203,-11695.253884,0.000000
263.861911,-7846.182985,-12213.398043,383.047749
263.862233,-7031.956449,-11251.130318,-919.314598
263.862554,-5033.400406,-10807.006753,-2528.115143
263.862876,-2072.576638,-10214.842000,-2681.334243
263.863198,962.267725,-8956.491898,-2451.505594
263.863520,3478.967927,-8438.347739,-2298.286494
263.863842,5551.544565,-8512.368333,-1915.238745
263.864164,7105.977043,-9400.615463,-1072.533697
263.864486,7254.018232,-8142.265362,-1915.238745
263.864808,7624.121203,-8734.430116,-2298.286494
263.865129,7031.956449,-9844.739029,-2451.505594
263.865451,5033.400406,-10436.903782,-2221.676944
263.865773,2368.659014,-9252.574275,-1532.190996
263.866095,-296.082377,-8956.491898,-383.047749
263.866417,-2220.617826,-9696.697840,0.000000
263.866739,-3775.050304,-9030.512492,-1455.581446
263.867061,-7031.956449,-8290.306550,-2681.334243
263.867383,-9252.574275,-10066.800811,-1608.800546
263.867705,-10658.965565,-11991.336260,306.438199
263.868026,-11177.109724,-11177.109724,153.219100
263.868348,-9918.759623,-9770.718434,-383.047749
263.868670,-7772.162391,-9992.780217,-1608.800546
263.868992,-5625.565159,-9622.677246,-1532.190996
263.869314,-3923.091493,-8068.244768,-995.924147
263.869636,-1554.432478,-6883.915261,-1149.143247
263.869958,2072.576638,-6883.915261,-2221.676944
263.870280,4737.318029,-6735.874072,-2757.943793
263.870602,6291.750507,-7772.162391,-3064.381992
263.870923,7476.080014,-9696.697840,-2451.505594
263.871245,7772.162391,-11399.171507,-919.314598
263.871567,7031.956449,-11177.109724,153.219100
263.871889,5033.400406,-9844.739029,-536.266849
263.872211,2368.659014,-9326.594869,-842.705048
263.872533,296.082377,-9178.553681,-1302.362347
263.872855,-1332.370696,-7179.997637,-1302.362347
263.873177,-2738.761985,-6513.812290,-1685.410096
263.873498,-4071.132681,-7402.059420,-612.876398
263.873820,-5625.565159,-10214.842000,919.314598
263.874142,-6587.832884,-11621.233289,536.266849
263.874464,-7105.977043,-11695.253884,-306.438199
263.874786,-6587.832884,-11769.274478,-459.657299
263.875108,-5847.626942,-10658.965565,-1532.190996
263.875430,-3997.112087,-8586.388927,-2528.115143
263.875752,-444.123565,-7328.038826,-2604.724693
263.876074,3182.885551,-7328.038826,-3370.820191
263.876395,5921.647536,-8290.306550,-3677.258390
263.876717,7402.059420,-9474.636058,-2834.553343
263.877039,8290.306550,-10658.965565,-689.485948
263.877361,8734.430116,-11399.171507,-766.095498
263.877683,8290.306550,-11917.315666,-2604.724693
263.878005,7105.977043,-11769.274478,-3064.381992
263.878327,4737.318029,-9844.739029,-1991.848295
263.878649,1850.514855,-7994.224174,-1225.752797
263.878971,-296.082377,-7476.080014,-536.266849
263.879292,-2368.659014,-7031.956449,-459.657299
263.879614,-4737.318029,-7328.038826,-1838.629195
263.879936,-6957.935855,-9992.780217,-2451.505594
263.880258,-8734.430116,-13175.665768,-306.438199
263.880580,-8882.471304,-13323.706956,1685.410096
263.880902,-8142.265362,-10436.903782,306.438199
263.881224,-6143.709319,-9178.553681,-1532.190996
263.881546,-3404.947333,-9104.533087,-1838.629195
263.881868,-1406.391290,-8142.265362,-1838.629195
263.882189,370.102971,-6957.935855,-2834.553343
263.882511,2960.823768,-7402.059420,-2528.115143
263.882833,5033.400406,-8068.244768,-1225.752797
263.883155,6735.874072,-8142.265362,-2145.067394
263.883477,6957.935855,-9326.594869,-3294.210641
263.883799,6957.935855,-10807.006753,-1991.848295
263.884121,5847.626942,-9474.636058,-1455.581446
263.884443,3108.864956,-8956.491898,-1915.238745
263.884765,888.247130,-9622.677246,-919.314598
