#time,accel_x,accel_y,accel_z
548.824484,-666.185348,-9696.697840,-1915.238745
548.824807,-370.102971,-9844.739029,-1762.019645
548.825129,-592.164754,-9474.636058,-1685.410096
548.825451,-296.082377,-9400.615463,-1685.410096
548.825773,-370.102971,-9252.574275,-1838.629195
548.826096,-296.082377,-9474.636058,-1838.629195
548.826418,-518.144159,-9400.615463,-1838.629195
548.826740,-518.144159,-9474.636058,-1685.410096
548.827062,-814.226536,-9400.615463,-1762.019645
548.827385,-740.205942,-9474.636058,-1455.581446
548.827707,-592.164754,-9474.636058,-1532.190996
548.828029,-444.123565,-9252.574275,-1455.581446
548.828351,-370.102971,-9104.533087,-1532.190996
548.828674,-296.082377,-9030.512492,-1532.190996
548.828996,-148.041188,-9178.553681,-1915.238745
548.829318,-518.144159,-9178.553681,-1302.362347
548.829640,-518.144159,-9548.656652,-1378.971896
548.829963,-518.144159,-9474.636058,-1532.190996
548.830285,-370.102971,-9474.636058,-1455.581446
548.830607,-148.041188,-9326.594869,-1225.752797
548.830929,-296.082377,-8808.450710,-1455.581446
548.831252,-296.082377,-9030.512492,-1608.800546
548.831574,-222.061783,-9178.553681,-1608.800546
548.831896,-370.102971,-9474.636058,-1149.143247
548.832218,-518.144159,-9622.677246,-1532.190996
548.832540,-370.102971,-9696.697840,-1685.410096
548.832863,-370.102971,-9400.615463,-1455.581446
548.833185,-370.102971,-9400.615463,-1302.362347
548.833507,-518.144159,-9104.533087,-1532.190996
548.833829,-296.082377,-9030.512492,-1455.581446
548.834152,-370.102971,-8808.450710,-1838.629195
548.834474,-444.123565,-9474.636058,-919.314598
548.834796,-592.164754,-9770.718434,-1608.800546
548.835118,-888.247130,-9696.697840,-1608.800546
548.835441,-740.205942,-9622.677246,-1302.362347
548.835763,-518.144159,-9474.636058,-1532.190996
548.836085,-592.164754,-9252.574275,-1532.190996
548.836407,-370.102971,-9252.574275,-1532.190996
548.836730,-222.061783,-9326.594869,-1685.410096
548.837052,-296.082377,-9252.574275,-1685.410096
548.837374,-518.144159,-9474.636058,-1762.019645
548.837696,-666.185348,-9252.574275,-1532.190996
548.838019,-296.082377,-9696.697840,-1608.800546
548.838341,-444.123565,-9474.636058,-1455.581446
548.838663,-518.144159,-9030.512492,-1455.581446
548.838985,0.000000,-9178.553681,-1302.362347
548.839308,0.000000,-8660.409521,-1762.019645
548.839630,0.000000,-8956.491898,-1378.971896
548.839952,-518.144159,-9178.553681,-1608.800546
548.840274,-370.102971,-9474.636058,-1532.190996
548.840597,-296.082377,-9696.697840,-1532.190996
548.840919,-370.102971,-9400.615463,-1608.800546
548.841241,-370.102971,-8808.450710,-1378.971896
548.841563,0.000000,-9252.574275,-1532.190996
548.841886,-370.102971,-9104.533087,-1532.190996
548.842208,-296.082377,-9178.553681,-1455.581446
548.842530,0.000000,-9104.533087,-1915.238745
548.842852,1554.432478,-9326.594869,-1915.238745
548.843174,2220.617826,-9548.656652,-1762.019645
548.843497,2220.617826,-9400.615463,-766.095498
548.843819,1406.391290,-8808.450710,-229.828649
548.844141,666.185348,-8734.430116,-1302.362347
548.844463,-444.123565,-8586.388927,-2757.943793
548.844786,-1554.432478,-9104.533087,-2911.162892
548.845108,-3182.885551,-9696.697840,-2068.457845
548.845430,-3849.070898,-9918.759623,-2528.115143
548.845752,-2886.803174,-9474.636058,-2757.943793
548.846075,0.000000,-10658.965565,-2911.162892
548.846397,2516.700203,-11029.068536,-1455.581446
548.846719,2812.782580,-10510.924376,-536.266849
548.847041,2146.597232,-9030.512492,0.000000
548.847364,1702.473667,-8438.347739,-995.924147
548.847686,2442.679609,-9474.636058,-2528.115143
548.848008,2590.720797,-9992.780217,-2604.724693
548.848330,1184.329507,-9104.533087,-1149.143247
548.848653,0.000000,-7920.203579,0.000000
548.848975,666.185348,-8068.244768,-1225.752797
548.849297,2072.576638,-9622.677246,-2681.334243
548.849619,1628.453072,-10362.883188,-1838.629195
548.849942,-222.061783,-9474.636058,-153.219100
548.850264,-1332.370696,-9104.533087,-1608.800546
548.850586,0.000000,-9326.594869,-3600.648841
548.850908,444.123565,-9252.574275,-3370.820191
548.851231,222.061783,-10140.821405,-1378.971896
548.851553,666.185348,-10584.944971,-919.314598
548.851875,2072.576638,-9474.636058,-1608.800546
548.852197,2960.823768,-9474.636058,-1762.019645
548.852519,4145.153275,-11399.171507,-536.266849
548.852842,3849.070898,-11325.150913,-153.219100
548.853164,2590.720797,-8734.430116,-919.314598
548.853486,2220.617826,-6957.935855,-459.657299
548.853808,2590.720797,-7994.224174,-995.924147
548.854131,2590.720797,-8364.327145,-1378.971896
548.854453,1776.494261,-7476.080014,-1225.752797
548.854775,1406.391290,-8068.244768,-536.266849
548.855097,2220.617826,-9548.656652,-612.876398
548.855420,2960.823768,-10658.965565,-842.705048
548.855742,2738.761985,-9400.615463,-1608.800546
548.856064,2072.576638,-9326.594869,-1915.238745
548.856386,2812.782580,-9770.718434,-766.095498
548.856709,3330.926739,-9400.615463,-1149.143247
548.857031,3182.885551,-8734.430116,-1685.410096
548.857353,2516.700203,-9178.553681,-1991.848295
548.857675,3034.844362,-9770.718434,-1072.533697
548.857998,3701.029710,-9622.677246,-919.314598
548.858320,3108.864956,-9548.656652,-1532.190996
548.858642,2368.659014,-9178.553681,-306.438199
548.858964,1924.535449,-8734.430116,-459.657299
548.859287,1480.411884,-7624.121203,-1302.362347
548.859609,296.082377,-7994.224174,-1991.848295
548.859931,0.000000,-8808.450710,-2221.676944
548.860253,-592.164754,-9622.677246,-1302.362347
548.860576,-592.164754,-10658.965565,-1149.143247
548.860898,-296.082377,-11399.171507,-1302.362347
548.861220,518.144159,-12287.418637,-1532.190996
548.861542,962.267725,-11473.192101,-842.705048
548.861865,1554.432478,-9918.759623,0.000000
548.862187,2368.659014,-9104.533087,-1532.190996
548.862509,2368.659014,-8660.409521,-2145.067394
548.862831,2220.617826,-8142.265362,-1532.190996
548.863153,1628.453072,-8364.327145,-689.485948
548.863476,1480.411884,-8956.491898,-1455.581446
548.863798,1924.535449,-8808.450710,-2145.067394
548.864120,1332.370696,-8956.491898,-1762.019645
548.864442,1258.350101,-8438.347739,-1685.410096
548.864765,1554.432478,-7698.141797,-2068.457845
548.865087,1776.494261,-8068.244768,-2451.505594
548.865409,1554.432478,-8882.471304,-2451.505594
548.865731,888.247130,-9474.636058,-1455.581446
548.866054,296.082377,-9918.759623,-1915.238745
548.866376,296.082377,-11251.130318,-2604.724693
548.866698,444.123565,-12139.377449,-2374.896044
548.867020,814.226536,-11695.253884,-1072.533697
548.867343,1036.288319,-10140.821405,0.000000
548.867665,1184.329507,-9844.739029,-995.924147
548.867987,1628.453072,-9252.574275,-1225.752797
548.868309,1924.535449,-8882.471304,-689.485948
548.868632,2294.638420,-8290.306550,-612.876398
548.868954,3034.844362,-7846.182985,-1532.190996
548.869276,4071.132681,-7550.100608,-1455.581446
548.869598,5033.400406,-8290.306550,-1685.410096
548.869921,4959.379811,-8734.430116,-995.924147
548.870243,4441.235652,-9474.636058,-1149.143247
548.870565,3923.091493,-9844.739029,-1838.629195
548.870887,2812.782580,-10807.006753,-2834.553343
548.871210,2442.679609,-11991.336260,-2987.772442
548.871532,1184.329507,-12065.356855,-1685.410096
548.871854,518.144159,-11399.171507,-995.924147
548.872176,592.164754,-10140.821405,-459.657299
548.872498,888.247130,-8586.388927,229.828649
548.872821,666.185348,-7550.100608,-306.438199
548.873143,148.041188,-6809.894666,-536.266849
548.873465,74.020594,-6291.750507,0.000000
548.873787,740.205942,-6217.729913,-459.657299
548.874110,1258.350101,-6661.853478,-919.314598
548.874432,1184.329507,-7698.141797,-1378.971896
548.874754,592.164754,-9326.594869,-842.705048
548.875076,444.123565,-9992.780217,-1225.752797
548.875399,1036.288319,-10881.027347,-2221.676944
548.875721,888.247130,-10881.027347,-3217.601092
548.876043,962.267725,-10732.986159,-3983.696590
548.876365,74.020594,-10807.006753,-2604.724693
548.876688,-518.144159,-11473.192101,-2451.505594
548.877010,-1480.411884,-12287.418637,-2374.896044
548.877332,-2516.700203,-12583.501014,-2221.676944
548.877654,-2220.617826,-12361.439231,-1608.800546
548.877977,-1850.514855,-11103.089130,-919.314598
548.878299,-592.164754,-9696.697840,-306.438199
548.878621,592.164754,-8216.285956,0.000000
548.878943,1554.432478,-7105.977043,919.314598
548.879266,2960.823768,-5773.606348,1378.971896
548.879588,3997.112087,-4885.359217,-612.876398
548.879910,5033.400406,-5773.606348,-1685.410096
548.880232,5773.606348,-6217.729913,-766.095498
548.880555,5995.668130,-6513.812290,-995.924147
548.880877,6439.791695,-8290.306550,-2757.943793
548.881199,6883.915261,-11325.150913,-3140.991542
548.881521,5995.668130,-12805.562797,-1762.019645
548.881844,3552.988522,-11843.295072,-1455.581446
548.882166,148.041188,-11843.295072,-1378.971896
548.882488,-1702.473667,-11399.171507,-1455.581446
548.882810,-2960.823768,-11029.068536,-3830.477490
548.883132,-4663.297435,-9696.697840,-2068.457845
548.883455,-5847.626942,-7698.141797,-1072.533697
548.883777,-5921.647536,-6809.894666,-1991.848295
548.884099,-3330.926739,-8364.327145,-1685.410096
548.884421,518.144159,-9178.553681,-1225.752797
548.884744,3627.009116,-9030.512492,-3370.820191
548.885066,6587.832884,-10658.965565,-3217.601092
548.885388,9844.739029,-11177.109724,-536.266849
548.885710,12139.377449,-10658.965565,153.219100
548.886033,13027.624579,-8660.409521,-919.314598
548.886355,12583.501014,-8068.244768,-1072.533697
548.886677,11251.130318,-8734.430116,-1378.971896
548.886999,8364.327145,-9918.759623,-2145.067394
548.887322,3923.091493,-10584.944971,-1532.190996
548.887644,-518.144159,-11621.233289,-1149.143247
548.887966,-3404.947333,-11473.192101,-612.876398
548.888288,-5625.565159,-10584.944971,229.828649
548.888611,-7402.059420,-11769.274478,-536.266849
548.888933,-9548.656652,-9030.512492,919.314598
548.889255,-10066.800811,-5403.503377,1455.581446
548.889577,-8808.450710,-2886.803174,-1149.143247
548.889900,-5033.400406,-5107.421000,-2604.724693
548.890222,888.247130,-8734.430116,-4826.401637
548.890544,5255.462188,-9844.739029,-4366.744339
548.890866,8882.471304,-11621.233289,-2834.553343
548.891189,11547.212695,-12953.603985,-1608.800546
548.891511,12139.377449,-13027.624579,-1685.410096
548.891833,10584.944971,-11177.109724,-2757.943793
548.892155,6069.688724,-8586.388927,-3140.991542
548.892484,2442.679609,-8364.327145,-4979.620737
548.892807,888.247130,-10140.821405,-5898.935335
548.893129,-888.247130,-11547.212695,-2757.943793
548.893452,-4515.256246,-11843.295072,2145.067394
548.893774,-7105.977043,-11399.171507,5209.449386
548.894097,-6883.915261,-9030.512492,3677.258390
548.894419,-5255.462188,-6735.874072,-612.876398
548.894741,-2812.782580,-7254.018232,-1762.019645
548.895064,962.267725,-7105.977043,153.219100
548.895386,4885.359217,-5847.626942,0.000000
548.895709,9104.533087,-6513.812290,-766.095498
548.896031,11991.336260,-8808.450710,-1532.190996
548.896354,12065.356855,-11991.336260,-1378.971896
548.896676,9178.553681,-11621.233289,-1225.752797
548.896999,3478.967927,-11103.089130,-2681.334243
548.897321,-1628.453072,-12509.480420,-5439.278036
548.897644,-4737.318029,-14508.036463,-5745.716235
548.897966,-7105.977043,-12361.439231,-2911.162892
548.898289,-9622.677246,-6513.812290,-1608.800546
548.898611,-6957.935855,-6069.688724,-1991.848295
548.898934,-2812.782580,-5699.585753,-1915.238745
548.899256,74.020594,-7550.100608,0.000000
548.899578,0.000000,-7550.100608,2987.772442
548.899901,666.185348,-7624.121203,4366.744339
548.900223,2590.720797,-7105.977043,1149.143247
548.900546,4219.173869,-5625.565159,-2451.505594
548.900868,4219.173869,-7624.121203,-1991.848295
548.901191,3478.967927,-8438.347739,-842.705048
548.901513,3627.009116,-10658.965565,-1838.629195
548.901836,5329.482782,-11325.150913,-2757.943793
548.902158,6735.874072,-11473.192101,-4443.353888
548.902481,6513.812290,-12361.439231,-4903.011187
548.902803,4811.338623,-12953.603985,-3294.210641
548.903126,1776.494261,-11991.336260,-536.266849
548.903448,-518.144159,-11843.295072,-842.705048
548.903771,-962.267725,-11473.192101,-3524.039291
548.904093,-1554.432478,-10807.006753,-3217.601092
548.904415,-2368.659014,-9918.759623,0.000000
548.904738,-1258.350101,-9474.636058,2374.896044
548.905060,2368.659014,-8586.388927,2298.286494
548.905383,6661.853478,-7328.038826,1072.533697
548.905705,8290.306550,-5921.647536,995.924147
548.906028,8512.368333,-4885.359217,2451.505594
548.906350,8290.306550,-4441.235652,1149.143247
548.906673,7402.059420,-4589.276840,-1991.848295
548.906995,5847.626942,-6439.791695,-3217.601092
548.907318,3182.885551,-8364.327145,-2451.505594
548.907640,-592.164754,-10214.842000,-4519.963438
548.907963,-4293.194464,-13841.851115,-5745.716235
548.908285,-5699.585753,-15544.324782,-3447.429741
548.908608,-4589.276840,-13989.892304,-2528.115143
548.908930,-3849.070898,-12361.439231,-5209.449386
548.909252,-2812.782580,-12509.480420,-5515.887586
548.909575,-1554.432478,-11325.150913,-2298.286494
548.909897,1332.370696,-10807.006753,76.609550
548.910220,4367.215058,-10955.047942,383.047749
548.910542,5995.668130,-10436.903782,-689.485948
548.910865,6069.688724,-9474.636058,383.047749
548.911187,5551.544565,-7920.203579,3753.867940
548.911510,5551.544565,-6809.894666,4979.620737
548.911832,7402.059420,-4219.173869,2221.676944
548.912155,8882.471304,-3034.844362,-2451.505594
548.912477,9104.533087,-4367.215058,-2451.505594
548.912800,7476.080014,-7328.038826,1225.752797
548.913122,4589.276840,-8882.471304,2451.505594
548.913445,518.144159,-10436.903782,-766.095498
548.913767,-3627.009116,-12361.439231,-4213.525239
548.914089,-7624.121203,-11399.171507,-4213.525239
548.914412,-10066.800811,-9696.697840,-6052.154434
548.914734,-9474.636058,-10881.027347,-7354.516781
548.915057,-5921.647536,-13841.851115,-7431.126331
548.915379,-3923.091493,-11843.295072,-2757.943793
548.915702,-3775.050304,-8956.491898,1762.019645
548.916024,-3182.885551,-10066.800811,1838.629195
548.916347,-2368.659014,-12065.356855,-2374.896044
548.916669,-1406.391290,-10881.027347,-5209.449386
548.916992,-444.123565,-7846.182985,-3294.210641
548.917314,1924.535449,-6883.915261,1149.143247
548.917637,5847.626942,-5329.482782,1991.848295
548.917959,9326.594869,-4737.318029,612.876398
548.918282,11177.109724,-5255.462188,1149.143247
548.918604,11251.130318,-7402.059420,1455.581446
548.918926,9622.677246,-10140.821405,536.266849
548.919249,6365.771101,-10066.800811,-1608.800546
548.919571,1036.288319,-9844.739029,-2374.896044
548.919894,-1480.411884,-10288.862594,-2068.457845
548.920216,-1554.432478,-10658.965565,-2451.505594
548.920539,-1184.329507,-11103.089130,-4596.572988
548.920861,-962.267725,-11473.192101,-5439.278036
548.921184,-1258.350101,-10510.924376,-2604.724693
548.921506,-1924.535449,-12879.583391,-383.047749
548.921829,-2442.679609,-14804.118840,76.609550
548.922151,-4441.235652,-12213.398043,-1225.752797
548.922474,-5995.668130,-7254.018232,-3064.381992
548.922796,-3108.864956,-5625.565159,-3524.039291
548.923119,2368.659014,-5107.421000,-4060.306139
548.923441,5181.441594,-5329.482782,-4596.572988
548.923764,6365.771101,-7550.100608,459.657299
548.924086,8216.285956,-8142.265362,5209.449386
548.924408,9696.697840,-9252.574275,766.095498
548.924731,8142.265362,-9918.759623,-3907.087040
548.925053,3997.112087,-9474.636058,-2068.457845
548.925376,1628.453072,-8882.471304,-612.876398
548.925698,1702.473667,-9104.533087,-2757.943793
548.926021,1628.453072,-8216.285956,-3064.381992
548.926343,666.185348,-9178.553681,-2911.162892
548.926666,370.102971,-11843.295072,-1378.971896
548.926988,1110.308913,-15248.242405,842.705048
548.927311,-148.041188,-14878.139434,1225.752797
548.927633,0.000000,-13841.851115,0.000000
548.927956,2368.659014,-10732.986159,0.000000
548.928278,5699.585753,-6661.853478,-689.485948
548.928601,7105.977043,-4145.153275,-2298.286494
548.928923,7105.977043,-4071.132681,-383.047749
548.929245,5995.668130,-5403.503377,2451.505594
548.929568,4737.318029,-6957.935855,153.219100
548.929890,1406.391290,-9844.739029,-2528.115143
548.930213,-1258.350101,-12583.501014,-2528.115143
548.930535,-3404.947333,-12065.356855,-2068.457845
548.930858,-5255.462188,-9770.718434,-3677.258390
548.931180,-5477.523971,-7698.141797,-4290.134789
548.931503,-5699.585753,-7105.977043,-4979.620737
548.931825,-6217.729913,-10140.821405,-2757.943793
548.932148,-8734.430116,-11991.336260,459.657299
548.932470,-7772.162391,-14804.118840,76.609550
548.932793,-3997.112087,-14285.974681,-3447.429741
548.933115,888.247130,-11621.233289,-3983.696590
548.933438,3775.050304,-9326.594869,536.266849
548.933760,4885.359217,-5921.647536,3370.820191
548.934082,5921.647536,-3108.864956,2451.505594
548.934405,5625.565159,-2146.597232,-536.266849
548.934727,3478.967927,-4737.318029,-2681.334243
548.935050,74.020594,-7772.162391,-2911.162892
548.935372,-2220.617826,-10807.006753,-3447.429741
548.935695,-3849.070898,-11843.295072,-3677.258390
548.936017,-3775.050304,-12065.356855,-4366.744339
548.936340,-3256.906145,-12287.418637,-3524.039291
548.936662,-3701.029710,-12139.377449,-3140.991542
548.936985,-5107.421000,-11991.336260,-2068.457845
548.937307,-5921.647536,-12139.377449,-2604.724693
548.937630,-3775.050304,-12139.377449,-2681.334243
548.937952,-1480.411884,-12065.356855,-1455.581446
548.938275,740.205942,-10214.842000,919.314598
548.938597,3478.967927,-8068.244768,2681.334243
548.938919,6365.771101,-6957.935855,919.314598
548.939242,8068.244768,-5403.503377,919.314598
548.939564,6661.853478,-4441.235652,2068.457845
548.939887,3182.885551,-4441.235652,1455.581446
548.940209,0.000000,-5033.400406,-1378.971896
548.940532,-3034.844362,-6069.688724,-3983.696590
548.940854,-6439.791695,-7179.997637,-5056.230287
548.941177,-7920.203579,-9400.615463,-5515.887586
548.941499,-7179.997637,-12509.480420,-5515.887586
548.941822,-5625.565159,-13545.768739,-4519.963438
548.942144,-2516.700203,-14285.974681,-3753.867940
548.942467,0.000000,-14508.036463,-2757.943793
548.942789,1554.432478,-13915.871710,-612.876398
548.943112,1628.453072,-10955.047942,995.924147
548.943434,2590.720797,-8068.244768,-1302.362347
548.943756,4219.173869,-6661.853478,-2145.067394
548.944079,5181.441594,-6291.750507,-306.438199
548.944401,4737.318029,-5477.523971,1455.581446
548.944724,4293.194464,-5477.523971,2068.457845
548.945046,3256.906145,-5403.503377,612.876398
548.945369,888.247130,-6513.812290,-536.266849
548.945691,-2442.679609,-7105.977043,-995.924147
548.946014,-4885.359217,-9474.636058,-2681.334243
548.946336,-4885.359217,-11843.295072,-5745.716235
548.946659,-4145.153275,-12583.501014,-6128.763984
548.946981,-2442.679609,-12657.521608,-3064.381992
548.947304,-1184.329507,-12953.603985,-1225.752797
548.947626,1184.329507,-11917.315666,-766.095498
548.947949,3627.009116,-11843.295072,-2528.115143
548.948271,4811.338623,-13249.686362,-2987.772442
548.948593,3849.070898,-12879.583391,-536.266849
548.948916,2368.659014,-10658.965565,1532.190996
548.949238,1406.391290,-7698.141797,-383.047749
548.949561,370.102971,-7031.956449,-1608.800546
548.949883,-2368.659014,-4737.318029,-153.219100
548.950206,-5107.421000,-2886.803174,-306.438199
548.950528,-6661.853478,-3108.864956,-1838.629195
548.950851,-6291.750507,-7105.977043,-3907.087040
548.951173,-4737.318029,-11473.192101,-2987.772442
548.951496,-4219.173869,-12583.501014,-2451.505594
548.951818,-3330.926739,-13101.645173,-1532.190996
548.952141,-962.267725,-11991.336260,-842.705048
548.952463,2738.761985,-9992.780217,-2298.286494
548.952786,4663.297435,-10436.903782,-3447.429741
548.953108,4071.132681,-11917.315666,-2298.286494
548.953431,2886.803174,-11843.295072,919.314598
548.953753,2738.761985,-11103.089130,1302.362347
548.954075,2664.741391,-10288.862594,-229.828649
548.954398,370.102971,-8734.430116,153.219100
548.954720,-3182.885551,-5403.503377,995.924147
548.955043,-5921.647536,-2590.720797,842.705048
548.955365,-6957.935855,-3849.070898,-995.924147
548.955688,-5625.565159,-6217.729913,-2757.943793
548.956010,-3997.112087,-7698.141797,-3140.991542
548.956333,-2590.720797,-9548.656652,-2298.286494
548.956655,-962.267725,-11103.089130,-306.438199
548.956978,1480.411884,-11695.253884,-153.219100
548.957300,2664.741391,-12139.377449,-1838.629195
548.957623,2960.823768,-11917.315666,-2987.772442
548.957945,1480.411884,-10955.047942,-2145.067394
548.958268,1184.329507,-10066.800811,-2834.553343
548.958590,1110.308913,-9770.718434,-3064.381992
548.958912,222.061783,-9400.615463,-1838.629195
548.959235,-1406.391290,-7772.162391,-153.219100
548.959557,-3775.050304,-6143.709319,-689.485948
548.959880,-4811.338623,-7550.100608,-1072.533697
548.960202,-4811.338623,-8734.430116,-1838.629195
548.960525,-4293.194464,-7772.162391,-2374.896044
548.960847,-2442.679609,-7402.059420,-2757.943793
548.961170,-222.061783,-7698.141797,-2374.896044
548.961492,3701.029710,-9400.615463,-612.876398
548.961815,6513.812290,-10288.862594,-842.705048
548.962137,6883.915261,-11177.109724,-2068.457845
548.962460,5181.441594,-13175.665768,-2374.896044
548.962782,3404.947333,-13249.686362,-1225.752797
548.963105,1850.514855,-12213.398043,-3064.381992
548.963427,370.102971,-10436.903782,-5209.449386
548.963749,-1702.473667,-8438.347739,-4979.620737
548.964072,-3256.906145,-7254.018232,-3217.601092
548.964394,-3849.070898,-8882.471304,-1302.362347
548.964717,-4441.235652,-8956.491898,-1762.019645
548.965039,-4441.235652,-9400.615463,-1991.848295
548.965362,-3108.864956,-9474.636058,-2834.553343
548.965684,0.000000,-9918.759623,-2451.505594
548.966007,2590.720797,-9548.656652,-1532.190996
548.966329,4441.235652,-7994.224174,76.609550
548.966652,5551.544565,-7254.018232,995.924147
548.966974,5477.523971,-8290.306550,383.047749
548.967297,2960.823768,-9104.533087,-383.047749
548.967619,-592.164754,-10066.800811,-1302.362347
548.967942,-2072.576638,-10807.006753,-3064.381992
548.968264,-2516.700203,-9622.677246,-4519.963438
548.968586,-3034.844362,-7624.121203,-3294.210641
548.968909,-4811.338623,-6587.832884,-1378.971896
548.969231,-5329.482782,-8438.347739,-612.876398
548.969554,-6069.688724,-9918.759623,-1149.143247
548.969876,-6587.832884,-10362.883188,-3217.601092
548.970199,-5995.668130,-11399.171507,-4290.134789
548.970521,-3849.070898,-12287.418637,-3217.601092
548.970844,-148.041188,-11029.068536,-459.657299
548.971166,3330.926739,-9474.636058,919.314598
548.971489,5773.606348,-8956.491898,766.095498
548.971811,7031.956449,-8438.347739,1455.581446
548.972134,6143.709319,-6735.874072,1072.533697
548.972456,4071.132681,-7105.977043,-1225.752797
548.972779,1776.494261,-8956.491898,-2987.772442
548.973101,-814.226536,-8882.471304,-1991.848295
548.973423,-2664.741391,-8364.327145,0.000000
548.973746,-3701.029710,-9622.677246,-842.705048
548.974068,-4663.297435,-10510.924376,-919.314598
548.974391,-5255.462188,-10066.800811,-1685.410096
548.974713,-4663.297435,-10362.883188,-2834.553343
548.975036,-2738.761985,-11325.150913,-3064.381992
548.975358,-2072.576638,-10140.821405,-1378.971896
548.975681,-148.041188,-8808.450710,-306.438199
548.976003,1776.494261,-9474.636058,-1455.581446
548.976326,2516.700203,-10584.944971,-2068.457845
548.976648,1406.391290,-9770.718434,-995.924147
548.976971,-1110.308913,-9326.594869,919.314598
548.977293,-2072.576638,-9326.594869,-1762.019645
548.977616,-2960.823768,-7105.977043,-4366.744339
548.977938,-3701.029710,-6143.709319,-3753.867940
548.978260,-4219.173869,-7254.018232,-2145.067394
548.978583,-4293.194464,-9622.677246,-1455.581446
548.978905,-4441.235652,-9770.718434,-1455.581446
548.979228,-2664.741391,-10140.821405,-1991.848295
548.979550,-962.267725,-10807.006753,-2681.334243
548.979873,1924.535449,-11621.233289,-2068.457845
548.980195,4071.132681,-9548.656652,-689.485948
548.980518,6217.729913,-8512.368333,-612.876398
548.980840,7772.162391,-9474.636058,0.000000
548.981163,7328.038826,-9474.636058,1532.190996
548.981485,4959.379811,-8142.265362,919.314598
548.981808,2738.761985,-8512.368333,-1378.971896
548.982130,2146.597232,-9696.697840,-2604.724693
548.982453,0.000000,-7179.997637,-1302.362347
548.982775,-2886.803174,-5625.565159,-995.924147
548.983098,-4959.379811,-7179.997637,-1838.629195
548.983420,-7031.956449,-8512.368333,-1991.848295
548.983742,-6809.894666,-8882.471304,-2757.943793
548.984065,-5625.565159,-10140.821405,-5975.544884
548.984387,-3923.091493,-12435.459826,-6205.373534
548.984710,-1036.288319,-12139.377449,-2987.772442
548.985032,2294.638420,-10732.986159,-612.876398
548.985355,4589.276840,-11177.109724,-383.047749
548.985677,4367.215058,-11251.130318,-919.314598
548.986000,3108.864956,-9770.718434,-1455.581446
548.986322,2072.576638,-8290.306550,-2987.772442
548.986645,962.267725,-8512.368333,-2604.724693
548.986967,-518.144159,-8068.244768,-1455.581446
548.987290,-3256.906145,-6587.832884,-153.219100
548.987612,-4589.276840,-7105.977043,-306.438199
548.987935,-5699.585753,-8660.409521,-153.219100
548.988257,-5403.503377,-9918.759623,-1838.629195
548.988579,-4441.235652,-8586.388927,-3217.601092
548.988902,-2146.597232,-8956.491898,-4366.744339
548.989224,1850.514855,-10214.842000,-2604.724693
548.989547,5625.565159,-10732.986159,-459.657299
548.989869,7254.018232,-11473.192101,-229.828649
548.990192,6957.935855,-11621.233289,-612.876398
548.990515,4737.318029,-10881.027347,-1455.581446
548.990837,1776.494261,-10436.903782,-1532.190996
548.991160,0.000000,-12361.439231,-2604.724693
548.991482,-2960.823768,-11769.274478,-3217.601092
548.991805,-5625.565159,-7698.141797,-2834.553343
548.992127,-6143.709319,-4515.256246,-1532.190996
548.992450,-7031.956449,-4737.318029,-995.924147
548.992772,-7254.018232,-7772.162391,-2145.067394
548.993095,-7624.121203,-8586.388927,-2604.724693
548.993417,-5625.565159,-10288.862594,-3907.087040
548.993740,-1110.308913,-12953.603985,-2757.943793
548.994062,3256.906145,-11843.295072,-229.828649
548.994385,6661.853478,-10140.821405,-383.047749
548.994707,7624.121203,-8290.306550,383.047749
548.995030,7550.100608,-8956.491898,1838.629195
548.995352,6513.812290,-9474.636058,1838.629195
548.995675,4441.235652,-8586.388927,-1072.533697
548.995997,1184.329507,-8660.409521,-3830.477490
548.996320,-1258.350101,-7994.224174,-919.314598
548.996642,-3108.864956,-7402.059420,995.924147
548.996965,-4737.318029,-8512.368333,76.609550
548.997288,-7698.141797,-9178.553681,-459.657299
548.997610,-8068.244768,-8586.388927,0.000000
548.997933,-7179.997637,-8734.430116,-3140.991542
548.998255,-4515.256246,-9696.697840,-4749.792088
548.998578,-1406.391290,-10214.842000,-2221.676944
548.998900,2590.720797,-10362.883188,-766.095498
548.999223,5921.647536,-11325.150913,-1072.533697
548.999545,6587.832884,-11917.315666,-383.047749
548.999868,5033.400406,-11029.068536,306.438199
549.000190,3849.070898,-9178.553681,-1455.581446
549.000513,2590.720797,-9622.677246,-2757.943793
549.000835,296.082377,-8956.491898,-3064.381992
549.001158,-2220.617826,-6957.935855,-2528.115143
549.001480,-3034.844362,-6809.894666,-1532.190996
549.001803,-4663.297435,-7772.162391,459.657299
549.002125,-5921.647536,-8586.388927,0.000000
549.002448,-5699.585753,-8734.430116,-1532.190996
549.002770,-3256.906145,-9252.574275,-3600.648841
549.003093,-592.164754,-9844.739029,-3753.867940
549.003415,2294.638420,-9622.677246,-1378.971896
549.003738,5403.503377,-9548.656652,383.047749
549.004060,7105.977043,-9474.636058,0.000000
549.004383,6365.771101,-10510.924376,-383.047749
549.004706,2960.823768,-10362.883188,76.609550
549.005028,0.000000,-11473.192101,-2374.896044
549.005351,-2294.638420,-10658.965565,-4903.011187
549.005673,-4071.132681,-8808.450710,-5286.058936
549.005996,-4885.359217,-8882.471304,-4213.525239
549.006318,-4959.379811,-8882.471304,-919.314598
549.006641,-6587.832884,-7254.018232,0.000000
549.006963,-8216.285956,-8216.285956,-1685.410096
549.007286,-7179.997637,-8882.471304,-4903.011187
549.007608,-3478.967927,-10140.821405,-5515.887586
549.007931,592.164754,-10807.006753,-4060.306139
549.008253,4441.235652,-10584.944971,-459.657299
549.008576,7254.018232,-10288.862594,995.924147
549.008898,8882.471304,-9400.615463,1072.533697
549.009221,7994.224174,-8068.244768,1685.410096
549.009543,5329.482782,-8438.347739,153.219100
549.009866,2590.720797,-10066.800811,-3370.820191
549.010188,74.020594,-9178.553681,-3830.477490
549.010511,-3552.988522,-8512.368333,-766.095498
549.010833,-5995.668130,-9178.553681,842.705048
549.011156,-7624.121203,-9548.656652,0.000000
549.011478,-7846.182985,-7328.038826,-2528.115143
549.011801,-6809.894666,-6735.874072,-4213.525239
549.012124,-4145.153275,-8956.491898,-5669.106685
549.012446,0.000000,-10658.965565,-4519.963438
549.012769,3182.885551,-11177.109724,-612.876398
549.013091,4885.359217,-11621.233289,1302.362347
549.013414,5847.626942,-11843.295072,1149.143247
549.013736,4737.318029,-10955.047942,0.000000
549.014059,3627.009116,-9178.553681,-2451.505594
549.014381,2664.741391,-8882.471304,-3983.696590
549.014704,1332.370696,-9178.553681,-2911.162892
549.015026,-814.226536,-6957.935855,0.000000
549.015349,-3701.029710,-6587.832884,919.314598
549.015671,-5699.585753,-7994.224174,-459.657299
549.015994,-6143.709319,-10362.883188,-1532.190996
549.016316,-6661.853478,-9474.636058,-1838.629195
549.016639,-5181.441594,-8216.285956,-3983.696590
549.016961,-2442.679609,-8956.491898,-3064.381992
549.017284,666.185348,-9030.512492,0.000000
549.017606,3775.050304,-9400.615463,842.705048
549.017929,5107.421000,-9918.759623,-842.705048
549.018251,4885.359217,-10362.883188,-1991.848295
549.018574,4737.318029,-11177.109724,-2451.505594
549.018897,4589.276840,-12139.377449,-1991.848295
549.019219,3552.988522,-11991.336260,-1302.362347
549.019542,740.205942,-9548.656652,-306.438199
549.019864,-2590.720797,-6809.894666,0.000000
549.020187,-4737.318029,-6069.688724,-1991.848295
549.020509,-7698.141797,-6513.812290,-1608.800546
549.020832,-9104.533087,-7105.977043,-2757.943793
549.021154,-8882.471304,-7550.100608,-2757.943793
549.021477,-5329.482782,-9770.718434,-3677.258390
549.021799,-370.102971,-10881.027347,-2221.676944
549.022122,2886.803174,-10584.944971,-536.266849
549.022444,5181.441594,-10955.047942,689.485948
549.022767,7105.977043,-10658.965565,0.000000
549.023089,7550.100608,-9104.533087,-995.924147
549.023412,5329.482782,-8438.347739,-1915.238745
549.023734,2738.761985,-9696.697840,-2374.896044
549.024057,296.082377,-11103.089130,-2451.505594
549.024379,-2072.576638,-9474.636058,-1685.410096
549.024702,-3627.009116,-7846.182985,-1149.143247
549.025024,-4219.173869,-7994.224174,-1378.971896
549.025347,-6217.729913,-7846.182985,-1455.581446
549.025669,-6513.812290,-7476.080014,-689.485948
549.025992,-6291.750507,-7624.121203,-2451.505594
549.026315,-2738.761985,-9622.677246,-3294.210641
549.026637,740.205942,-9548.656652,-2451.505594
549.026960,3330.926739,-9104.533087,-536.266849
549.027282,4811.338623,-10436.903782,76.609550
549.027605,5033.400406,-11843.295072,536.266849
549.027927,5033.400406,-11473.192101,0.000000
549.028250,3775.050304,-10214.842000,-2834.553343
549.028572,2442.679609,-10658.965565,-5286.058936
549.028895,370.102971,-10584.944971,-4596.572988
549.029217,-2442.679609,-8660.409521,-1072.533697
549.029540,-5033.400406,-8512.368333,-1072.533697
549.029862,-6587.832884,-9400.615463,-2374.896044
549.030185,-7105.977043,-8734.430116,-2451.505594
549.030507,-5255.462188,-8882.471304,-3294.210641
549.030830,-1406.391290,-9770.718434,-4290.134789
549.031152,2368.659014,-10362.883188,-1915.238745
549.031475,5033.400406,-9400.615463,1762.019645
549.031797,6809.894666,-9178.553681,2757.943793
549.032120,7698.141797,-9918.759623,2145.067394
549.032442,7402.059420,-9030.512492,0.000000
549.032765,5773.606348,-7624.121203,-2451.505594
549.033088,2738.761985,-8142.265362,-2145.067394
549.033410,222.061783,-9548.656652,-612.876398
549.033733,-3256.906145,-9252.574275,-459.657299
549.034055,-5921.647536,-8512.368333,-1532.190996
549.034378,-8734.430116,-8882.471304,-2987.772442
549.034700,-9104.533087,-10881.027347,-3677.258390
549.035023,-8882.471304,-8586.388927,-3217.601092
549.035345,-5995.668130,-9326.594869,-4826.401637
549.035668,-3256.906145,-10066.800811,-3140.991542
549.035990,-148.041188,-10362.883188,842.705048
549.036313,1702.473667,-8660.409521,919.314598
549.036635,1924.535449,-8512.368333,-2604.724693
549.036958,2442.679609,-10362.883188,-2145.067394
549.037280,3182.885551,-9918.759623,-383.047749
549.037603,3478.967927,-9104.533087,-919.314598
549.037925,3108.864956,-8734.430116,-2145.067394
549.038248,1480.411884,-7624.121203,-612.876398
549.038570,-296.082377,-7402.059420,766.095498
549.038893,-2368.659014,-8882.471304,-153.219100
549.039215,-6513.812290,-8586.388927,-1838.629195
549.039538,-8364.327145,-8512.368333,-2145.067394
549.039860,-6365.771101,-7994.224174,-3600.648841
549.040183,-1628.453072,-10288.862594,-4596.572988
549.040506,2072.576638,-10955.047942,-1302.362347
549.040828,4071.132681,-9696.697840,1302.362347
549.041151,6143.709319,-10140.821405,1072.533697
549.041473,7402.059420,-11843.295072,-153.219100
549.041796,6735.874072,-11473.192101,-919.314598
549.042118,4737.318029,-9992.780217,-2681.334243
549.042441,3108.864956,-9326.594869,-3447.429741
549.042763,592.164754,-9918.759623,-2068.457845
549.043086,-2738.761985,-8660.409521,-842.705048
549.043408,-5995.668130,-7920.203579,-1762.019645
549.043731,-7105.977043,-8586.388927,-3294.210641
549.044053,-7402.059420,-8734.430116,-3983.696590
549.044376,-5329.482782,-8290.306550,-3140.991542
549.044698,-3108.864956,-10066.800811,-3830.477490
549.045021,-740.205942,-10955.047942,-995.924147
549.045343,1850.514855,-9474.636058,1149.143247
549.045666,4145.153275,-9474.636058,0.000000
549.045988,4959.379811,-10288.862594,-1532.190996
549.046311,3478.967927,-8956.491898,-766.095498
549.046633,1258.350101,-7105.977043,459.657299
549.046956,962.267725,-8216.285956,-995.924147
549.047279,1850.514855,-9622.677246,-3064.381992
549.047601,888.247130,-8512.368333,-2757.943793
549.047924,-2146.597232,-6439.791695,-1838.629195
549.048246,-4737.318029,-6883.915261,-1838.629195
549.048569,-4959.379811,-9844.739029,-1685.410096
549.048891,-4367.215058,-9770.718434,-2374.896044
549.049214,-3775.050304,-10510.924376,-4366.744339
549.049536,-2368.659014,-11843.295072,-3294.210641
549.049859,0.000000,-11621.233289,-842.705048
549.050181,592.164754,-9696.697840,-612.876398
549.050504,2738.761985,-9992.780217,-1072.533697
549.050826,3923.091493,-10436.903782,-919.314598
549.051149,3404.947333,-9178.553681,-995.924147
549.051471,2812.782580,-8734.430116,-1378.971896
549.051794,2294.638420,-8660.409521,-1915.238745
549.052116,962.267725,-8364.327145,-1991.848295
549.052439,-814.226536,-8364.327145,-1532.190996
549.052761,-2960.823768,-9104.533087,-995.924147
549.053084,-4811.338623,-9844.739029,-1225.752797
549.053406,-5773.606348,-9104.533087,-2757.943793
549.053729,-4293.194464,-10214.842000,-2681.334243
549.054051,-2146.597232,-11695.253884,-2374.896044
549.054374,0.000000,-11177.109724,-1149.143247
549.054697,1184.329507,-8586.388927,536.266849
549.055019,1850.514855,-8882.471304,0.000000
549.055342,1702.473667,-10955.047942,0.000000
549.055664,518.144159,-10066.800811,612.876398
549.055987,-814.226536,-7254.018232,-1455.581446
549.056309,-740.205942,-7476.080014,-3294.210641
549.056632,0.000000,-9030.512492,-1685.410096
549.056954,-1924.535449,-7772.162391,0.000000
549.057277,-3923.091493,-6957.935855,-536.266849
549.057599,-4811.338623,-8808.450710,-1302.362347
549.057922,-5329.482782,-10288.862594,-1378.971896
549.058244,-4885.359217,-10510.924376,-2298.286494
549.058567,-3627.009116,-10362.883188,-3524.039291
549.058889,-1554.432478,-11103.089130,-2221.676944
549.059212,1110.308913,-9844.739029,-995.924147
549.059534,3182.885551,-8882.471304,229.828649
549.059857,3478.967927,-8512.368333,306.438199
549.060179,2294.638420,-8660.409521,0.000000
549.060502,1998.556043,-8586.388927,-766.095498
549.060824,3034.844362,-8956.491898,-2068.457845
549.061147,3701.029710,-10436.903782,-2145.067394
549.061469,2516.700203,-8290.306550,76.609550
549.061792,0.000000,-5625.565159,1378.971896
549.062115,-2368.659014,-6661.853478,0.000000
549.062437,-4145.153275,-8808.450710,-1915.238745
549.062760,-6291.750507,-9326.594869,-3140.991542
549.063082,-6587.832884,-9844.739029,-4673.182538
549.063405,-4219.173869,-11029.068536,-4213.525239
549.063727,148.041188,-10955.047942,-1915.238745
549.064050,3404.947333,-10140.821405,-995.924147
549.064372,5033.400406,-10658.965565,153.219100
549.064695,4811.338623,-11547.212695,842.705048
549.065017,3404.947333,-9474.636058,-306.438199
549.065340,2368.659014,-7550.100608,-2757.943793
549.065662,1628.453072,-9400.615463,-4903.011187
549.065985,370.102971,-8956.491898,-2757.943793
549.066307,-1628.453072,-7402.059420,-1378.971896
549.066630,-3775.050304,-7402.059420,-1991.848295
549.066952,-4441.235652,-8808.450710,-2604.724693
549.067275,-4737.318029,-10288.862594,-2681.334243
549.067597,-3997.112087,-10955.047942,-3677.258390
549.067920,-2220.617826,-12213.398043,-3447.429741
549.068242,296.082377,-11695.253884,-2681.334243
549.068565,2960.823768,-10362.883188,-919.314598
549.068888,4219.173869,-10362.883188,612.876398
549.069210,4367.215058,-11029.068536,689.485948
549.069533,2886.803174,-8290.306550,-229.828649
549.069855,1480.411884,-6365.771101,-1685.410096
549.070178,1036.288319,-7402.059420,-2681.334243
549.070500,1480.411884,-9252.574275,-2451.505594
549.070823,-962.267725,-7254.018232,-1685.410096
549.071145,-2738.761985,-7179.997637,-1532.190996
549.071468,-3034.844362,-8808.450710,-766.095498
549.071790,-4737.318029,-9400.615463,-1532.190996
549.072113,-6069.688724,-9474.636058,-2451.505594
549.072435,-5921.647536,-10510.924376,-4290.134789
549.072758,-3923.091493,-12361.439231,-4519.963438
549.073080,-666.185348,-11695.253884,-2987.772442
549.073403,1628.453072,-10140.821405,-1149.143247
549.073725,2664.741391,-10214.842000,-306.438199
549.074048,3404.947333,-10584.944971,153.219100
549.074370,2664.741391,-8586.388927,-766.095498
549.074693,2220.617826,-7328.038826,-1225.752797
549.075015,1480.411884,-7772.162391,-2068.457845
549.075338,518.144159,-8290.306550,-2145.067394
549.075660,-666.185348,-7179.997637,306.438199
549.075983,-1998.556043,-8512.368333,0.000000
549.076306,-3256.906145,-10066.800811,76.609550
549.076628,-4367.215058,-10288.862594,0.000000
549.076951,-4071.132681,-9474.636058,-1072.533697
549.077273,-2368.659014,-8586.388927,-3447.429741
549.077596,-296.082377,-9030.512492,-3907.087040
549.077918,1258.350101,-9622.677246,-1685.410096
549.078241,2072.576638,-9548.656652,-766.095498
549.078563,1850.514855,-10362.883188,-995.924147
549.078886,888.247130,-10732.986159,-1685.410096
549.079208,592.164754,-10881.027347,-2145.067394
549.079531,-74.020594,-10955.047942,-3064.381992
549.079853,-370.102971,-10658.965565,-2757.943793
549.080176,-1406.391290,-8734.430116,-1532.190996
549.080498,-3108.864956,-7254.018232,-1149.143247
549.080821,-3627.009116,-7846.182985,0.000000
549.081143,-4589.276840,-8068.244768,-459.657299
549.081466,-4589.276840,-7031.956449,-2068.457845
549.081788,-3627.009116,-8734.430116,-3447.429741
549.082111,-1184.329507,-9918.759623,-2834.553343
549.082433,1184.329507,-9622.677246,-2298.286494
549.082756,2812.782580,-9844.739029,-1378.971896
549.083079,4441.235652,-10658.965565,919.314598
549.083401,4663.297435,-9622.677246,766.095498
549.083724,3849.070898,-7402.059420,-1149.143247
549.084046,2812.782580,-7846.182985,-2374.896044
549.084369,2368.659014,-9918.759623,-1991.848295
549.084691,148.041188,-8956.491898,-1762.019645
549.085014,-2368.659014,-7402.059420,-1378.971896
549.085336,-4737.318029,-7772.162391,-1455.581446
549.085659,-4737.318029,-9548.656652,-1915.238745
549.085981,-4737.318029,-9992.780217,-2451.505594
549.086304,-4219.173869,-10584.944971,-2681.334243
549.086626,-2220.617826,-10140.821405,-2911.162892
549.086949,962.267725,-9770.718434,-1915.238745
549.087271,3552.988522,-9474.636058,76.609550
549.087594,4737.318029,-9400.615463,766.095498
549.087916,4219.173869,-8586.388927,-842.705048
549.088239,2960.823768,-8142.265362,-2221.676944
549.088561,2812.782580,-9252.574275,-1532.190996
549.088884,2146.597232,-10436.903782,-1685.410096
549.089206,74.020594,-10881.027347,-2451.505594
549.089529,-2072.576638,-9696.697840,-2451.505594
549.089851,-3330.926739,-11325.150913,-2604.724693
549.090174,-5255.462188,-9918.759623,-1608.800546
549.090497,-5033.400406,-9548.656652,-1302.362347
549.090819,-5033.400406,-8216.285956,-2987.772442
549.091142,-2738.761985,-9030.512492,-3983.696590
549.091464,814.226536,-9474.636058,-2298.286494
549.091787,2590.720797,-10362.883188,-536.266849
549.092109,2886.803174,-11103.089130,0.000000
549.092431,2960.823768,-11325.150913,459.657299
549.092754,2072.576638,-9622.677246,612.876398
549.093076,1258.350101,-7105.977043,-919.314598
549.093398,1110.308913,-6809.894666,-3524.039291
549.093720,444.123565,-8512.368333,-3907.087040
549.094043,-666.185348,-7328.038826,-1302.362347
549.094365,-2442.679609,-6513.812290,-689.485948
549.094687,-5181.441594,-8290.306550,-766.095498
549.095009,-6587.832884,-11029.068536,-306.438199
549.095332,-6883.915261,-11177.109724,-2221.676944
549.095654,-5625.565159,-10658.965565,-4213.525239
549.095976,-4071.132681,-10658.965565,-2987.772442
549.096298,-1850.514855,-9992.780217,-1072.533697
549.096621,74.020594,-8364.327145,536.266849
549.096943,2220.617826,-7624.121203,-229.828649
549.097265,2590.720797,-8068.244768,-1915.238745
549.097587,2960.823768,-8068.244768,-2374.896044
549.097910,2738.761985,-7624.121203,-2145.067394
549.098232,2146.597232,-8808.450710,-1915.238745
549.098554,1850.514855,-10436.903782,-1302.362347
549.098876,-222.061783,-10214.842000,-1302.362347
549.099199,-2590.720797,-10436.903782,-1608.800546
549.099521,-4885.359217,-10214.842000,-1378.971896
549.099843,-6143.709319,-9326.594869,-1915.238745
549.100165,-4441.235652,-9622.677246,-3983.696590
549.100488,-1850.514855,-9622.677246,-3600.648841
549.100810,1554.432478,-10807.006753,-2298.286494
549.101132,4737.318029,-9770.718434,-306.438199
549.101455,7031.956449,-9696.697840,536.266849
549.101777,7105.977043,-9844.739029,0.000000
549.102099,4959.379811,-8216.285956,536.266849
549.102421,2368.659014,-7402.059420,-1608.800546
549.102744,592.164754,-8660.409521,-4290.134789
549.103066,-444.123565,-10658.965565,-4443.353888
549.103388,-2590.720797,-9770.718434,-3064.381992
549.103710,-4441.235652,-8660.409521,-1991.848295
549.104033,-5921.647536,-9622.677246,-2834.553343
549.104355,-5773.606348,-12583.501014,-1685.410096
549.104677,-5847.626942,-10807.006753,-766.095498
549.104999,-4737.318029,-8956.491898,-3677.258390
549.105322,-2442.679609,-8290.306550,-4903.011187
549.105644,1776.494261,-9252.574275,-2681.334243
549.105966,3849.070898,-8882.471304,-1072.533697
549.106288,4663.297435,-8512.368333,-383.047749
549.106611,4663.297435,-9030.512492,383.047749
549.106933,4441.235652,-7772.162391,76.609550
549.107255,4589.276840,-7402.059420,-1608.800546
549.107577,3256.906145,-9548.656652,-2451.505594
549.107900,222.061783,-9326.594869,-842.705048
549.108222,-3108.864956,-7994.224174,0.000000
549.108544,-4441.235652,-8882.471304,-1072.533697
549.108866,-6143.709319,-10066.800811,-1455.581446
549.109189,-6883.915261,-9400.615463,-1532.190996
549.109511,-6291.750507,-8734.430116,-2145.067394
549.109833,-3923.091493,-8142.265362,-3753.867940
549.110155,0.000000,-9400.615463,-2757.943793
549.110478,4589.276840,-11251.130318,-153.219100
549.110800,6365.771101,-10510.924376,0.000000
549.111122,5773.606348,-9400.615463,0.000000
549.111444,4219.173869,-10288.862594,0.000000
549.111767,2886.803174,-11251.130318,-1378.971896
549.112089,2072.576638,-11103.089130,-3217.601092
549.112411,74.020594,-10214.842000,-2681.334243
549.112733,-3034.844362,-7031.956449,-1915.238745
549.113056,-4663.297435,-7402.059420,-2221.676944
549.113378,-6217.729913,-9696.697840,-1225.752797
549.113700,-7179.997637,-9992.780217,-1685.410096
549.114022,-7328.038826,-9844.739029,-2451.505594
549.114345,-4885.359217,-10510.924376,-4366.744339
549.114667,-1628.453072,-11251.130318,-3370.820191
549.114989,888.247130,-10732.986159,-1455.581446
549.115311,3256.906145,-10066.800811,766.095498
549.115634,4959.379811,-9696.697840,1455.581446
549.115956,5033.400406,-8882.471304,383.047749
549.116278,3923.091493,-5995.668130,-1378.971896
549.116600,2812.782580,-6661.853478,-2604.724693
549.116923,2368.659014,-9770.718434,-2451.505594
549.117245,740.205942,-10510.924376,-612.876398
549.117567,-1776.494261,-8438.347739,919.314598
549.117889,-4071.132681,-8586.388927,-536.266849
549.118212,-4959.379811,-10140.821405,-766.095498
549.118534,-5773.606348,-9474.636058,-1225.752797
549.118856,-6291.750507,-7994.224174,-2374.896044
549.119178,-4737.318029,-8290.306550,-3677.258390
549.119501,-962.267725,-9696.697840,-3064.381992
549.119823,2220.617826,-10436.903782,-612.876398
549.120145,3775.050304,-9252.574275,-229.828649
549.120467,4293.194464,-9178.553681,-1378.971896
549.120790,4885.359217,-10732.986159,-1608.800546
549.121112,4959.379811,-11103.089130,-1455.581446
549.121434,3182.885551,-9474.636058,-842.705048
549.121757,1036.288319,-7772.162391,-766.095498
549.122079,-1036.288319,-7402.059420,-1149.143247
549.122401,-2812.782580,-7994.224174,-1532.190996
549.122723,-4441.235652,-8660.409521,-1608.800546
549.123046,-5921.647536,-8956.491898,-536.266849
549.123368,-6661.853478,-8438.347739,-1225.752797
549.123690,-3997.112087,-8660.409521,-2068.457845
549.124012,-444.123565,-10140.821405,-2451.505594
549.124335,2442.679609,-10288.862594,-1378.971896
549.124657,3330.926739,-9326.594869,0.000000
549.124979,4589.276840,-8660.409521,0.000000
549.125301,5403.503377,-8660.409521,-1991.848295
549.125624,4663.297435,-8956.491898,-2757.943793
549.125946,2664.741391,-9326.594869,-2145.067394
549.126268,814.226536,-10732.986159,-2451.505594
549.126590,-1480.411884,-11103.089130,-2911.162892
549.126913,-4441.235652,-10288.862594,-2911.162892
549.127235,-6809.894666,-11103.089130,-3217.601092
549.127557,-7550.100608,-10881.027347,-1991.848295
549.127879,-6957.935855,-9178.553681,-1608.800546
549.128202,-5699.585753,-7402.059420,-2374.896044
549.128524,-1850.514855,-8512.368333,-3753.867940
549.128846,1406.391290,-9474.636058,-2068.457845
549.129168,3182.885551,-9992.780217,383.047749
549.129491,4663.297435,-9844.739029,1378.971896
549.129813,4293.194464,-9030.512492,-383.047749
549.130135,4441.235652,-7994.224174,-2221.676944
549.130457,3701.029710,-7105.977043,-3064.381992
549.130780,3034.844362,-8512.368333,-3140.991542
549.131102,1628.453072,-9992.780217,-2298.286494
549.131424,-592.164754,-9548.656652,-1072.533697
549.131746,-3256.906145,-10510.924376,-1072.533697
549.132069,-6365.771101,-11325.150913,-1378.971896
549.132391,-7624.121203,-11769.274478,-1225.752797
549.132713,-8068.244768,-9474.636058,-2834.553343
549.133035,-5403.503377,-8808.450710,-5669.106685
549.133358,-1406.391290,-8660.409521,-4060.306139
549.133680,1628.453072,-8956.491898,-536.266849
549.134002,4071.132681,-8290.306550,842.705048
549.134324,5181.441594,-8660.409521,-459.657299
549.134647,5403.503377,-10140.821405,-919.314598
549.134969,4737.318029,-9622.677246,-76.609550
549.135291,3552.988522,-9400.615463,-536.266849
549.135613,1776.494261,-8956.491898,-1302.362347
549.135936,-444.123565,-8586.388927,-1225.752797
549.136258,-2516.700203,-8142.265362,-1225.752797
549.136580,-4811.338623,-8956.491898,-1378.971896
549.136902,-6735.874072,-10436.903782,-1302.362347
549.137225,-6735.874072,-10881.027347,-1378.971896
549.137547,-5107.421000,-10584.944971,-2298.286494
549.137869,-1924.535449,-10584.944971,-2451.505594
549.138191,1480.411884,-11103.089130,-1149.143247
549.138514,3478.967927,-9474.636058,766.095498
549.138836,5921.647536,-7920.203579,76.609550
549.139158,6661.853478,-7179.997637,-536.266849
549.139480,5403.503377,-7031.956449,-536.266849
549.139803,3552.988522,-7328.038826,-689.485948
549.140125,1332.370696,-9178.553681,-1455.581446
549.140447,0.000000,-10288.862594,-2374.896044
549.140769,-1258.350101,-10362.883188,-2911.162892
549.141092,-4071.132681,-10214.842000,-2451.505594
549.141414,-6513.812290,-10288.862594,-536.266849
549.141736,-7402.059420,-9474.636058,-153.219100
549.142059,-6587.832884,-8216.285956,-2834.553343
549.142381,-4071.132681,-8660.409521,-5209.449386
549.142703,-1258.350101,-9178.553681,-3753.867940
549.143025,1036.288319,-9474.636058,-2451.505594
549.143348,3404.947333,-10214.842000,-995.924147
549.143670,5699.585753,-11029.068536,153.219100
549.143992,6143.709319,-11325.150913,-612.876398
549.144314,5403.503377,-9696.697840,-689.485948
549.144637,4737.318029,-7920.203579,-1378.971896
549.144959,2812.782580,-7031.956449,-1762.019645
549.145281,74.020594,-7031.956449,-1991.848295
549.145603,-2442.679609,-8068.244768,-995.924147
549.145926,-4811.338623,-8956.491898,-1378.971896
549.146248,-6809.894666,-9474.636058,-1225.752797
549.146570,-7328.038826,-9770.718434,-1455.581446
549.146892,-6143.709319,-10362.883188,-3064.381992
549.147215,-2960.823768,-10807.006753,-3983.696590
549.147537,444.123565,-11325.150913,-1378.971896
549.147859,3182.885551,-9770.718434,-306.438199
549.148181,4885.359217,-8586.388927,-383.047749
549.148504,5551.544565,-8216.285956,-919.314598
549.148826,4441.235652,-8882.471304,-1608.800546
549.149148,2368.659014,-9622.677246,-1915.238745
549.149470,296.082377,-10584.944971,-2145.067394
549.149793,-2220.617826,-10140.821405,-2374.896044
549.150115,-4885.359217,-9104.533087,-2221.676944
549.150437,-5921.647536,-8586.388927,-2451.505594
549.150759,-5477.523971,-9770.718434,-2911.162892
549.151082,-5551.544565,-8956.491898,-2298.286494
549.151404,-4885.359217,-8586.388927,-1072.533697
549.151726,-3256.906145,-9178.553681,-1991.848295
549.152048,-296.082377,-9696.697840,-1915.238745
549.152371,962.267725,-9252.574275,229.828649
549.152693,2072.576638,-9326.594869,-842.705048
549.153015,3108.864956,-9770.718434,-1685.410096
549.153337,3849.070898,-9400.615463,-1149.143247
549.153660,4071.132681,-8142.265362,-689.485948
549.153982,3627.009116,-7624.121203,-1149.143247
549.154304,3034.844362,-9770.718434,-2145.067394
549.154626,1036.288319,-10510.924376,-1915.238745
549.154949,-1776.494261,-9400.615463,-1608.800546
549.155271,-3701.029710,-9252.574275,-2604.724693
549.155593,-4811.338623,-10288.862594,-1838.629195
549.155915,-5551.544565,-9400.615463,-1455.581446
549.156238,-4885.359217,-9178.553681,-2068.457845
549.156560,-2220.617826,-9622.677246,-2987.772442
549.156882,1036.288319,-9844.739029,-1991.848295
549.157204,3034.844362,-9104.533087,-612.876398
549.157527,4737.318029,-8956.491898,-459.657299
549.157849,4589.276840,-8808.450710,229.828649
549.158171,4441.235652,-8586.388927,-766.095498
549.158493,3701.029710,-8956.491898,-2221.676944
549.158816,1924.535449,-9844.739029,-1762.019645
549.159138,-1184.329507,-9252.574275,-1532.190996
549.159460,-3478.967927,-7920.203579,-2221.676944
549.159782,-4663.297435,-8068.244768,-2757.943793
549.160105,-4885.359217,-9918.759623,-3064.381992
549.160427,-3849.070898,-12213.398043,-2451.505594
549.160749,-3108.864956,-11251.130318,-1225.752797
549.161071,-1554.432478,-11251.130318,-1302.362347
549.161394,518.144159,-10510.924376,-689.485948
549.161716,2516.700203,-9326.594869,153.219100
549.162038,2960.823768,-7624.121203,229.828649
549.162361,2516.700203,-7254.018232,-459.657299
549.162683,2146.597232,-6809.894666,-306.438199
549.163005,1480.411884,-7402.059420,0.000000
549.163327,1924.535449,-9252.574275,-2068.457845
549.163650,1332.370696,-10436.903782,-2145.067394
549.163972,0.000000,-9474.636058,-689.485948
549.164294,-1924.535449,-9104.533087,0.000000
549.164616,-3923.091493,-9030.512492,-689.485948
549.164939,-5329.482782,-9400.615463,-1455.581446
549.165261,-6439.791695,-8438.347739,-3064.381992
549.165583,-5477.523971,-9474.636058,-3524.039291
549.165905,-2738.761985,-10214.842000,-2757.943793
549.166228,296.082377,-9474.636058,-2068.457845
549.166550,2368.659014,-9918.759623,-1455.581446
549.166872,2960.823768,-10066.800811,995.924147
549.167194,2516.700203,-9622.677246,1302.362347
549.167517,1480.411884,-7846.182985,-766.095498
549.167839,444.123565,-8068.244768,-3600.648841
549.168161,-296.082377,-9104.533087,-4060.306139
549.168483,-1258.350101,-8808.450710,-3064.381992
549.168806,-1998.556043,-7772.162391,-1762.019645
549.169128,-2368.659014,-9178.553681,-1302.362347
549.169450,-2738.761985,-10436.903782,-919.314598
549.169772,-3478.967927,-10658.965565,-1225.752797
549.170095,-4219.173869,-9918.759623,-3064.381992
549.170417,-1924.535449,-12361.439231,-3830.477490
549.170739,1184.329507,-12361.439231,-2451.505594
549.171061,3182.885551,-9400.615463,-1072.533697
549.171384,4663.297435,-7254.018232,-689.485948
549.171706,5033.400406,-8290.306550,306.438199
549.172028,4737.318029,-8882.471304,306.438199
549.172350,2664.741391,-9030.512492,-1762.019645
549.172673,0.000000,-8956.491898,-3370.820191
549.172995,-1702.473667,-10288.862594,-3524.039291
549.173317,-2812.782580,-9474.636058,-3140.991542
549.173639,-4071.132681,-9548.656652,-2528.115143
549.173962,-6143.709319,-9030.512492,-2451.505594
549.174284,-6143.709319,-9178.553681,-2298.286494
549.174606,-4811.338623,-9104.533087,-3140.991542
549.174928,-2294.638420,-11473.192101,-4290.134789
549.175251,-962.267725,-12435.459826,-2528.115143
549.175573,296.082377,-10732.986159,-306.438199
549.175895,2738.761985,-9252.574275,-306.438199
549.176217,5477.523971,-8512.368333,-1149.143247
549.176540,5847.626942,-7846.182985,-919.314598
549.176862,3256.906145,-6217.729913,229.828649
549.177184,370.102971,-5403.503377,383.047749
549.177506,-1036.288319,-7772.162391,-1685.410096
549.177829,-2738.761985,-9474.636058,-3064.381992
549.178151,-4589.276840,-9178.553681,-3370.820191
549.178473,-5107.421000,-9400.615463,-2068.457845
549.178795,-5329.482782,-9548.656652,-995.924147
549.179118,-4219.173869,-9326.594869,0.000000
549.179440,-2368.659014,-9770.718434,-2451.505594
549.179762,-222.061783,-11399.171507,-3983.696590
549.180084,1850.514855,-11473.192101,-1991.848295
549.180407,3478.967927,-10732.986159,-1455.581446
549.180729,4737.318029,-10362.883188,-2298.286494
549.181051,5477.523971,-9844.739029,-1225.752797
549.181373,4885.359217,-9252.574275,919.314598
549.181696,4367.215058,-7994.224174,766.095498
549.182018,2442.679609,-7846.182985,-1225.752797
549.182340,-370.102971,-7624.121203,-1149.143247
549.182663,-3108.864956,-5995.668130,-689.485948
549.182985,-5033.400406,-6513.812290,-2757.943793
549.183307,-5033.400406,-9918.759623,-2528.115143
549.183629,-5107.421000,-11695.253884,-459.657299
549.183952,-4367.215058,-11695.253884,-766.095498
549.184274,-2886.803174,-10955.047942,-2451.505594
549.184596,-592.164754,-11177.109724,-2145.067394
549.184918,740.205942,-10881.027347,-1838.629195
549.185241,2368.659014,-9844.739029,-1838.629195
549.185563,3034.844362,-9770.718434,-1762.019645
549.185885,1924.535449,-8142.265362,612.876398
549.186207,444.123565,-6143.709319,229.828649
549.186530,0.000000,-7105.977043,-1455.581446
549.186852,-666.185348,-9400.615463,-2451.505594
549.187174,-2220.617826,-9918.759623,-2528.115143
549.187496,-3552.988522,-8586.388927,-1608.800546
549.187819,-3478.967927,-9548.656652,-1225.752797
549.188141,-2738.761985,-11177.109724,-383.047749
549.188463,-3330.926739,-9918.759623,0.000000
549.188785,-3923.091493,-8956.491898,-1608.800546
549.189108,-2960.823768,-9992.780217,-2451.505594
549.189430,-296.082377,-9918.759623,-2374.896044
549.189752,2368.659014,-8882.471304,-2451.505594
549.190074,3552.988522,-9252.574275,-1149.143247
549.190397,3849.070898,-8068.244768,1532.190996
549.190719,4811.338623,-9252.574275,766.095498
549.191041,4663.297435,-10288.862594,-2221.676944
549.191363,2664.741391,-10584.944971,-1455.581446
549.191686,-1036.288319,-9030.512492,-153.219100
549.192008,-5107.421000,-7698.141797,-1762.019645
549.192330,-7031.956449,-7105.977043,-2068.457845
549.192653,-7624.121203,-9030.512492,-3370.820191
549.192975,-8808.450710,-9400.615463,-4366.744339
549.193297,-7328.038826,-10510.924376,-2911.162892
549.193620,-3923.091493,-10288.862594,-2681.334243
549.193942,-666.185348,-10955.047942,-2604.724693
549.194265,1850.514855,-11621.233289,-459.657299
549.194587,2664.741391,-10807.006753,536.266849
549.194909,2516.700203,-8216.285956,-612.876398
549.195232,1850.514855,-6291.750507,-2604.724693
549.195554,-296.082377,-7105.977043,-2451.505594
549.195877,-740.205942,-9400.615463,-1838.629195
549.196199,-3034.844362,-10214.842000,-1991.848295
549.196521,-5033.400406,-8438.347739,-2451.505594
549.196844,-5625.565159,-9474.636058,-2451.505594
549.197166,-4737.318029,-10436.903782,-2757.943793
549.197489,-5181.441594,-9548.656652,-3370.820191
549.197811,-5921.647536,-9844.739029,-2451.505594
549.198133,-5847.626942,-10658.965565,-2221.676944
549.198456,-2812.782580,-9844.739029,-1991.848295
549.198778,-444.123565,-9548.656652,-2681.334243
549.199101,1036.288319,-7846.182985,-2528.115143
549.199423,3330.926739,-8512.368333,-1532.190996
549.199745,3552.988522,-8956.491898,-612.876398
549.200068,2368.659014,-9104.533087,0.000000
549.200390,0.000000,-9104.533087,383.047749
549.200713,-962.267725,-8808.450710,-1685.410096
549.201035,-1998.556043,-8808.450710,-3600.648841
549.201357,-4071.132681,-7254.018232,-3140.991542
549.201680,-6217.729913,-8068.244768,-2451.505594
549.202002,-7031.956449,-10140.821405,-1762.019645
549.202325,-8660.409521,-10436.903782,-689.485948
549.202647,-9844.739029,-11325.150913,-1149.143247
549.202969,-9992.780217,-11177.109724,-2681.334243
549.203292,-6587.832884,-10140.821405,-4060.306139
549.203614,-2146.597232,-9474.636058,-4366.744339
549.203937,2072.576638,-9030.512492,-1915.238745
549.204259,5033.400406,-8068.244768,229.828649
549.204581,7772.162391,-8142.265362,1225.752797
549.204904,6809.894666,-9178.553681,0.000000
549.205226,2368.659014,-9474.636058,306.438199
549.205549,-2738.761985,-8808.450710,0.000000
549.205871,-5403.503377,-6661.853478,-3064.381992
549.206193,-5847.626942,-6587.832884,-6205.373534
549.206516,-7179.997637,-6809.894666,-4903.011187
549.206838,-8216.285956,-7994.224174,-1991.848295
549.207161,-7994.224174,-12287.418637,-1762.019645
549.207483,-8512.368333,-13545.768739,-1072.533697
549.207805,-9326.594869,-14063.912898,-229.828649
549.208128,-8068.244768,-11917.315666,-2068.457845
549.208450,-3997.112087,-10066.800811,-4903.011187
549.208772,2146.597232,-9474.636058,-4826.401637
549.209095,5995.668130,-8438.347739,-2528.115143
549.209417,7550.100608,-6883.915261,3140.991542
549.209740,8512.368333,-4515.256246,6281.983084
549.210062,9030.512492,-5329.482782,842.705048
549.210384,7105.977043,-9252.574275,-3677.258390
549.210707,1480.411884,-11547.212695,-1455.581446
549.211029,-4441.235652,-10288.862594,612.876398
549.211352,-5995.668130,-8808.450710,-919.314598
549.211674,-5477.523971,-8586.388927,-3447.429741
549.211996,-6883.915261,-8438.347739,-3677.258390
549.212319,-10288.862594,-7105.977043,-2681.334243
549.212641,-11843.295072,-9770.718434,-1991.848295
549.212964,-9770.718434,-15396.283594,-3294.210641
549.213286,-7105.977043,-17320.819043,-2987.772442
549.213608,-6735.874072,-13693.809927,-842.705048
549.213931,-4737.318029,-8808.450710,-459.657299
549.214253,74.020594,-6439.791695,-842.705048
549.214576,5033.400406,-5847.626942,-383.047749
549.214898,7031.956449,-4885.359217,-1991.848295
549.215220,6809.894666,-4219.173869,-766.095498
549.215543,6735.874072,-5403.503377,1225.752797
549.215865,5403.503377,-8660.409521,1225.752797
549.216188,1480.411884,-11473.192101,-842.705048
549.216510,-4589.276840,-11769.274478,-1608.800546
549.216832,-9474.636058,-10214.842000,-2451.505594
549.217155,-11325.150913,-8438.347739,-4443.353888
549.217477,-11547.212695,-8734.430116,-7048.078582
549.217800,-10881.027347,-10732.986159,-5975.544884
549.218122,-8660.409521,-10955.047942,-1762.019645
549.218444,-5921.647536,-12583.501014,-766.095498
549.218767,-2146.597232,-12953.603985,-383.047749
549.219089,1184.329507,-12435.459826,-766.095498
549.219412,1184.329507,-10584.944971,-1302.362347
549.219734,0.000000,-7772.162391,919.314598
549.220056,148.041188,-6143.709319,2911.162892
549.220379,1184.329507,-4145.153275,689.485948
549.220701,3404.947333,-3775.050304,-2834.553343
549.221024,4663.297435,-5107.421000,-2604.724693
549.221346,4515.256246,-6735.874072,0.000000
549.221668,3182.885551,-9400.615463,1915.238745
549.221991,370.102971,-10732.986159,995.924147
549.222313,-1628.453072,-11621.233289,-3064.381992
549.222636,-4737.318029,-11769.274478,-7124.688131
549.222958,-8364.327145,-12361.439231,-8044.002729
549.223280,-11769.274478,-13027.624579,-5286.058936
549.223603,-12657.521608,-11917.315666,-2911.162892
549.223925,-9918.759623,-11399.171507,-3830.477490
549.224248,-5329.482782,-10288.862594,-4519.963438
549.224570,-2664.741391,-9770.718434,-2681.334243
549.224892,-1258.350101,-9326.594869,153.219100
549.225215,-296.082377,-6735.874072,919.314598
549.225537,1036.288319,-5329.482782,0.000000
549.225860,1036.288319,-4811.338623,-1378.971896
549.226182,-1110.308913,-5921.647536,-2221.676944
549.226504,-4663.297435,-7402.059420,-995.924147
549.226827,-7031.956449,-9252.574275,842.705048
549.227149,-7476.080014,-10362.883188,0.000000
549.227471,-4293.194464,-11473.192101,-4136.915689
549.227794,-148.041188,-12139.377449,-5822.325785
549.228116,2516.700203,-12139.377449,-2987.772442
549.228439,3552.988522,-9474.636058,0.000000
549.228761,3997.112087,-8512.368333,76.609550
549.229083,3627.009116,-9326.594869,-689.485948
549.229406,2368.659014,-9770.718434,-2834.553343
549.229728,-1036.288319,-9474.636058,-3830.477490
549.230051,-3775.050304,-10288.862594,-2987.772442
549.230373,-4811.338623,-10510.924376,-1149.143247
549.230695,-3923.091493,-9622.677246,-306.438199
549.231018,-2738.761985,-7550.100608,-1072.533697
549.231340,-2368.659014,-6957.935855,-1608.800546
549.231663,-4515.256246,-5995.668130,-153.219100
549.231985,-6513.812290,-5329.482782,-383.047749
549.232307,-6587.832884,-7105.977043,-3753.867940
549.232630,-5329.482782,-10436.903782,-5822.325785
549.232952,-3256.906145,-12731.542202,-5362.668486
549.233275,-2146.597232,-12879.583391,-4903.011187
549.233597,-2294.638420,-13175.665768,-2068.457845
549.233919,-1776.494261,-12731.542202,2604.724693
549.234242,0.000000,-10510.924376,1072.533697
549.234564,370.102971,-8808.450710,-4749.792088
549.234887,-814.226536,-10066.800811,-3447.429741
549.235209,-2368.659014,-10214.842000,689.485948
549.235531,-3404.947333,-7328.038826,1608.800546
549.235854,-2960.823768,-4737.318029,1532.190996
549.236176,-1184.329507,-4885.359217,1149.143247
549.236499,0.000000,-4737.318029,-536.266849
549.236821,-666.185348,-4145.153275,-2604.724693
549.237143,-1850.514855,-6143.709319,-1838.629195
549.237466,-2516.700203,-9918.759623,-1225.752797
549.237788,-2738.761985,-11621.233289,-2221.676944
549.238111,-3923.091493,-10955.047942,-3677.258390
549.238433,-4737.318029,-11325.150913,-5209.449386
549.238755,-4219.173869,-13915.871710,-5669.106685
549.239078,-3330.926739,-15544.324782,-3753.867940
549.239400,-3923.091493,-13841.851115,-689.485948
549.239723,-5107.421000,-11843.295072,0.000000
549.240045,-4811.338623,-9400.615463,0.000000
549.240367,-3404.947333,-7994.224174,-1378.971896
549.240690,-2294.638420,-6513.812290,-2298.286494
549.241012,-1850.514855,-5477.523971,-612.876398
549.241335,-740.205942,-5255.462188,2068.457845
549.241657,296.082377,-5403.503377,3983.696590
549.241979,2072.576638,-5773.606348,3294.210641
549.242302,3478.967927,-7476.080014,-612.876398
549.242624,4367.215058,-10288.862594,-4136.915689
549.242947,2960.823768,-12731.542202,-3140.991542
549.243269,296.082377,-11843.295072,-1225.752797
549.243591,-2960.823768,-10881.027347,-995.924147
549.243914,-6143.709319,-11991.336260,-2374.896044
549.244236,-8364.327145,-12805.562797,-3830.477490
549.244558,-11103.089130,-11843.295072,-5056.230287
549.244881,-12139.377449,-10732.986159,-5515.887586
549.245203,-11029.068536,-9474.636058,-2757.943793
549.245526,-7772.162391,-8290.306550,-842.705048
549.245848,-4367.215058,-6957.935855,-153.219100
549.246170,-962.267725,-4515.256246,-306.438199
549.246493,1184.329507,-3627.009116,-1072.533697
549.246815,1850.514855,-3701.029710,-1915.238745
549.247138,1776.494261,-5921.647536,-2451.505594
549.247460,1406.391290,-8512.368333,-2911.162892
549.247782,1998.556043,-12213.398043,-2604.724693
549.248105,1628.453072,-14359.995275,-1532.190996
549.248427,666.185348,-14211.954086,-1149.143247
549.248750,-1110.308913,-12509.480420,-1685.410096
549.249072,-2442.679609,-10510.924376,-2221.676944
549.249394,-4885.359217,-8438.347739,-2374.896044
549.249717,-6217.729913,-8216.285956,-1915.238745
549.250039,-7920.203579,-8068.244768,-3217.601092
549.250362,-7254.018232,-9770.718434,-3140.991542
549.250684,-4885.359217,-10955.047942,-1302.362347
549.251006,-2516.700203,-10584.944971,1302.362347
549.251329,-1998.556043,-9030.512492,2298.286494
549.251651,-296.082377,-7920.203579,1302.362347
549.251974,962.267725,-6439.791695,0.000000
549.252296,1924.535449,-5255.462188,-2298.286494
549.252618,3108.864956,-5477.523971,-3370.820191
549.252941,3034.844362,-6291.750507,-3600.648841
549.253263,2516.700203,-9474.636058,-4290.134789
549.253586,1406.391290,-12953.603985,-3064.381992
549.253908,-962.267725,-15174.221811,-1532.190996
549.254230,-4145.153275,-15396.283594,-1991.848295
549.254553,-6513.812290,-14730.098246,-3677.258390
549.254875,-7402.059420,-12509.480420,-3600.648841
549.255198,-8290.306550,-9474.636058,-4060.306139
549.255520,-8068.244768,-7476.080014,-2604.724693
549.255842,-7402.059420,-5403.503377,-612.876398
549.256165,-5181.441594,-5033.400406,-919.314598
549.256487,-2812.782580,-4885.359217,-1915.238745
549.256810,-1850.514855,-6291.750507,-1302.362347
549.257132,-2220.617826,-8586.388927,0.000000
549.257454,-2960.823768,-10140.821405,153.219100
549.257777,-3256.906145,-11029.068536,-995.924147
549.258099,-2442.679609,-9918.759623,-2528.115143
549.258422,-2220.617826,-9474.636058,-3370.820191
549.258744,-1332.370696,-9178.553681,-1838.629195
549.259066,-222.061783,-8956.491898,-1302.362347
549.259389,962.267725,-10584.944971,-1302.362347
549.259711,1184.329507,-11991.336260,536.266849
549.260034,518.144159,-11029.068536,2068.457845
549.260356,-1702.473667,-9474.636058,383.047749
549.260678,-3034.844362,-8216.285956,-536.266849
549.261001,-3552.988522,-6291.750507,-995.924147
549.261323,-3775.050304,-4145.153275,-1915.238745
549.261646,-4293.194464,-3997.112087,-1455.581446
549.261968,-4589.276840,-5921.647536,-1455.581446
549.262290,-4589.276840,-8438.347739,-1838.629195
549.262613,-4515.256246,-10362.883188,-3140.991542
549.262935,-4515.256246,-12805.562797,-4060.306139
549.263257,-4515.256246,-14434.015869,-3907.087040
549.263580,-4515.256246,-14508.036463,-3830.477490
549.263902,-4515.256246,-13101.645173,-3524.039291
549.264225,-4071.132681,-11399.171507,-2834.553343
549.264547,-2812.782580,-9622.677246,-2528.115143
549.264869,-1332.370696,-9178.553681,-2451.505594
549.265192,0.000000,-9252.574275,-995.924147
549.265514,370.102971,-8956.491898,0.000000
549.265837,1036.288319,-8290.306550,1072.533697
549.266159,2368.659014,-7476.080014,1378.971896
549.266481,3330.926739,-6883.915261,766.095498
549.266804,2886.803174,-5181.441594,229.828649
549.267126,1628.453072,-5107.421000,0.000000
549.267449,222.061783,-6735.874072,-383.047749
549.267771,-296.082377,-8808.450710,-1302.362347
549.268093,-444.123565,-11177.109724,-2298.286494
549.268416,-740.205942,-13101.645173,-2298.286494
549.268738,-1258.350101,-14211.954086,-2068.457845
549.269061,-1998.556043,-13397.727550,-612.876398
549.269383,-2886.803174,-11177.109724,-766.095498
549.269705,-3256.906145,-9696.697840,-1608.800546
549.270028,-4219.173869,-8438.347739,-2298.286494
549.270350,-5033.400406,-7772.162391,-1608.800546
549.270673,-5551.544565,-7402.059420,-1608.800546
549.270995,-5033.400406,-7994.224174,-766.095498
549.271317,-4071.132681,-8068.244768,-1072.533697
549.271640,-4219.173869,-7476.080014,-842.705048
549.271962,-4219.173869,-6883.915261,-689.485948
549.272285,-4219.173869,-7179.997637,-2604.724693
549.272607,-4441.235652,-7772.162391,-3217.601092
549.272929,-5033.400406,-8216.285956,-3217.601092
549.273252,-5329.482782,-8882.471304,-3600.648841
549.273574,-4515.256246,-11251.130318,-4290.134789
549.273897,-2072.576638,-13693.809927,-3217.601092
549.274219,-1406.391290,-13693.809927,-1455.581446
549.274541,-740.205942,-12213.398043,-153.219100
549.274864,-518.144159,-10807.006753,-383.047749
549.275186,-592.164754,-9474.636058,-689.485948
549.275509,-1332.370696,-8512.368333,0.000000
549.275831,-2590.720797,-7698.141797,76.609550
549.276153,-4515.256246,-6957.935855,-153.219100
549.276476,-4811.338623,-6661.853478,-919.314598
549.276798,-4441.235652,-6661.853478,-1532.190996
549.277121,-3627.009116,-8068.244768,-919.314598
549.277443,-3034.844362,-9622.677246,-536.266849
549.277765,-2368.659014,-9474.636058,-1455.581446
549.278088,-1406.391290,-9622.677246,-2757.943793
549.278410,-592.164754,-10807.006753,-3753.867940
549.278733,0.000000,-12139.377449,-3600.648841
549.279055,0.000000,-12583.501014,-3370.820191
549.279377,-1036.288319,-11843.295072,-2681.334243
549.279700,-814.226536,-12213.398043,-2528.115143
549.280022,-518.144159,-12805.562797,-2298.286494
549.280345,-666.185348,-12213.398043,-1072.533697
549.280667,-1110.308913,-10584.944971,383.047749
549.280989,-740.205942,-8660.409521,1149.143247
549.281312,0.000000,-7179.997637,1225.752797
549.281634,1036.288319,-5773.606348,1225.752797
549.281956,1628.453072,-5699.585753,995.924147
549.282279,2516.700203,-6883.915261,1532.190996
549.282601,2590.720797,-7846.182985,1915.238745
549.282924,3330.926739,-8660.409521,1072.533697
549.283246,3404.947333,-10955.047942,306.438199
549.283568,3330.926739,-12657.521608,689.485948
549.283891,3034.844362,-12805.562797,995.924147
549.284213,2886.803174,-11621.233289,842.705048
549.284536,2590.720797,-11177.109724,306.438199
549.284858,1776.494261,-10584.944971,1225.752797
549.285180,592.164754,-9400.615463,2145.067394
549.285503,-444.123565,-8512.368333,2298.286494
549.285825,-962.267725,-8438.347739,2374.896044
549.286148,-1036.288319,-8142.265362,1762.019645
549.286470,-1480.411884,-7698.141797,2681.334243
549.286792,-2516.700203,-7550.100608,3907.087040
549.287115,-3108.864956,-7328.038826,4213.525239
549.287437,-3108.864956,-7920.203579,2987.772442
549.287760,-3552.988522,-7476.080014,2681.334243
549.288082,-3997.112087,-8808.450710,2451.505594
549.288404,-3775.050304,-9548.656652,2298.286494
549.288727,-3182.885551,-10214.842000,2451.505594
549.289049,-2812.782580,-11399.171507,2681.334243
549.289372,-2886.803174,-11621.233289,2604.724693
549.289694,-3330.926739,-11399.171507,3064.381992
549.290016,-3404.947333,-11029.068536,2298.286494
549.290339,-3182.885551,-10436.903782,2298.286494
549.290661,-2220.617826,-10140.821405,2681.334243
549.290984,-1628.453072,-9474.636058,3064.381992
549.291306,-888.247130,-8882.471304,3677.258390
549.291628,0.000000,-8586.388927,3983.696590
549.291951,222.061783,-8438.347739,3600.648841
549.292273,148.041188,-8512.368333,3064.381992
549.292595,0.000000,-8956.491898,2221.676944
549.292918,-888.247130,-9252.574275,1915.238745
549.293240,-1850.514855,-9548.656652,1225.752797
549.293562,-2664.741391,-9844.739029,919.314598
549.293885,-3182.885551,-9474.636058,0.000000
549.294207,-2072.576638,-10140.821405,-1762.019645
549.294529,-1332.370696,-10510.924376,-1532.190996
549.294852,-1628.453072,-9844.739029,-153.219100
549.295174,-2220.617826,-9548.656652,-536.266849
549.295496,-1702.473667,-10214.842000,-1608.800546
549.295819,-222.061783,-10955.047942,-689.485948
549.296141,1110.308913,-10658.965565,-1455.581446
549.296463,2738.761985,-9030.512492,-612.876398
549.296786,4293.194464,-7328.038826,-536.266849
549.297108,5847.626942,-6513.812290,-459.657299
549.297430,6513.812290,-5995.668130,-995.924147
549.297752,5625.565159,-7105.977043,-1991.848295
549.298075,3256.906145,-8142.265362,-2604.724693
549.298397,592.164754,-9030.512492,-2221.676944
549.298719,-2516.700203,-9400.615463,-3064.381992
549.299042,-4959.379811,-11695.253884,-4136.915689
549.299364,-5329.482782,-12657.521608,-4213.525239
549.299686,-5699.585753,-11177.109724,-5286.058936
549.300009,-3330.926739,-11029.068536,-5975.544884
549.300331,592.164754,-13027.624579,-3677.258390
549.300653,3552.988522,-13619.789333,-1532.190996
549.300976,4589.276840,-11843.295072,536.266849
549.301298,4959.379811,-10436.903782,919.314598
549.301620,6365.771101,-9104.533087,459.657299
549.301943,6809.894666,-8364.327145,0.000000
549.302265,6217.729913,-6883.915261,-1149.143247
549.302587,2960.823768,-4811.338623,612.876398
549.302910,-296.082377,-3923.091493,2911.162892
549.303232,-3404.947333,-4367.215058,1149.143247
549.303554,-6661.853478,-7031.956449,-2604.724693
549.303876,-9178.553681,-9622.677246,-4749.792088
549.304199,-10288.862594,-12435.459826,-4979.620737
549.304521,-9770.718434,-12879.583391,-3907.087040
549.304843,-6587.832884,-14656.077652,-4060.306139
549.305166,-3701.029710,-16358.551318,-2451.505594
549.305488,-1702.473667,-14359.995275,-995.924147
549.305810,-592.164754,-11251.130318,-1762.019645
549.306133,74.020594,-9326.594869,-3447.429741
549.306455,740.205942,-9548.656652,-2757.943793
549.306777,74.020594,-9104.533087,0.000000
549.307100,-1480.411884,-7920.203579,2068.457845
549.307422,-2516.700203,-8068.244768,3600.648841
549.307744,-2220.617826,-8586.388927,3294.210641
549.308067,-1480.411884,-9104.533087,2604.724693
549.308389,-1480.411884,-8660.409521,3294.210641
549.308711,-2664.741391,-8068.244768,5056.230287
549.309034,-3034.844362,-7179.997637,6205.373534
549.309356,-2220.617826,-6069.688724,4519.963438
549.309678,-2220.617826,-4071.132681,1455.581446
549.310000,-1332.370696,-4737.318029,-766.095498
549.310323,-370.102971,-6883.915261,-306.438199
549.310645,1628.453072,-9696.697840,1149.143247
549.310967,3034.844362,-11843.295072,2987.772442
549.311290,4071.132681,-13101.645173,4060.306139
549.311612,4293.194464,-12731.542202,3600.648841
549.311934,3552.988522,-12361.439231,1991.848295
549.312257,1776.494261,-10288.862594,2528.115143
549.312579,-148.041188,-8216.285956,3370.820191
549.312901,-2368.659014,-5773.606348,3447.429741
549.313224,-3034.844362,-6661.853478,3753.867940
549.313546,-2812.782580,-9178.553681,4213.525239
549.313868,-2220.617826,-10584.944971,3907.087040
549.314191,-518.144159,-12213.398043,3600.648841
549.314513,1776.494261,-13175.665768,4673.182538
549.314835,4145.153275,-12287.418637,5132.839837
549.315158,6365.771101,-9992.780217,3677.258390
549.315480,7476.080014,-8142.265362,2528.115143
549.315802,7105.977043,-7624.121203,2068.457845
549.316124,6217.729913,-7254.018232,3217.601092
549.316447,5329.482782,-5847.626942,2528.115143
549.316769,4589.276840,-8216.285956,-1455.581446
549.317091,3404.947333,-14211.954086,-2757.943793
549.317414,1702.473667,-16210.510130,76.609550
549.317736,-3627.009116,-11843.295072,2068.457845
549.318058,-9104.533087,-10881.027347,1149.143247
549.318381,-10066.800811,-13545.768739,229.828649
549.318703,-11695.253884,-12657.521608,-4443.353888
549.319025,-15840.407159,-11325.150913,-4826.401637
549.319348,-18801.230927,-10584.944971,2834.553343
549.319670,-15988.448347,-5921.647536,2834.553343
549.319992,-7624.121203,-5255.462188,-3600.648841
549.320315,1628.453072,-6513.812290,-4290.134789
549.320637,7624.121203,-5477.523971,-1838.629195
549.320959,9400.615463,-6513.812290,-1378.971896
549.321282,11917.315666,-8290.306550,4060.306139
549.321604,12139.377449,-7698.141797,6665.030833
549.321926,9696.697840,-5773.606348,-3600.648841
549.322248,7105.977043,-9030.512492,-7737.564530
549.322571,4885.359217,-12287.418637,-2757.943793
549.322893,0.000000,-10510.924376,0.000000
549.323215,-6291.750507,-11991.336260,919.314598
549.323538,-10881.027347,-13323.706956,4443.353888
549.323860,-13027.624579,-10955.047942,536.266849
549.324182,-13027.624579,-10658.965565,-7660.954980
549.324505,-9770.718434,-10066.800811,-6971.469032
549.324827,-6217.729913,-7994.224174,-1149.143247
549.325149,-1924.535449,-2738.761985,0.000000
549.325472,3256.906145,-3108.864956,0.000000
549.325794,7920.203579,-6143.709319,919.314598
549.326116,7698.141797,-9474.636058,-2834.553343
549.326439,5403.503377,-12435.459826,-3140.991542
549.326761,2220.617826,-13989.892304,-1149.143247
549.327083,962.267725,-14211.954086,-1532.190996
549.327406,1036.288319,-13915.871710,-4366.744339
549.327728,1258.350101,-12287.418637,-3830.477490
549.328050,814.226536,-11843.295072,-1991.848295
549.328373,-444.123565,-13397.727550,-2528.115143
549.328695,-666.185348,-14508.036463,-229.828649
549.329017,-2442.679609,-12139.377449,2068.457845
549.329339,-3108.864956,-8734.430116,2374.896044
549.329662,-2442.679609,-6957.935855,612.876398
549.329984,296.082377,-7254.018232,-229.828649
549.330306,3108.864956,-5921.647536,612.876398
549.330629,4071.132681,-2886.803174,1302.362347
549.330951,2590.720797,-5625.565159,3064.381992
549.331273,814.226536,-9696.697840,4979.620737
549.331596,-888.247130,-12805.562797,3217.601092
549.331918,-1258.350101,-13619.789333,0.000000
549.332240,-370.102971,-13101.645173,-459.657299
549.332563,1702.473667,-11177.109724,612.876398
549.332885,1628.453072,-7105.977043,3677.258390
549.333207,740.205942,-5477.523971,6281.983084
549.333530,-370.102971,-6809.894666,3830.477490
549.333852,-1480.411884,-9030.512492,229.828649
549.334174,-2960.823768,-11399.171507,612.876398
549.334497,-5773.606348,-11177.109724,3983.696590
549.334819,-7105.977043,-10955.047942,5822.325785
549.335141,-5551.544565,-9548.656652,6435.202183
549.335463,-2072.576638,-6957.935855,4749.792088
549.335786,740.205942,-3256.906145,3064.381992
549.336108,2442.679609,-1554.432478,1685.410096
549.336430,2294.638420,-1184.329507,689.485948
549.336753,2442.679609,-5403.503377,383.047749
549.337075,1628.453072,-10658.965565,1378.971896
549.337397,222.061783,-14359.995275,1991.848295
549.337720,-2516.700203,-15248.242405,919.314598
549.338042,-4737.318029,-14285.974681,-689.485948
549.338364,-5403.503377,-14952.160028,-1991.848295
549.338687,-3997.112087,-14952.160028,-536.266849
549.339009,-4219.173869,-12361.439231,766.095498
549.339331,-2516.700203,-10510.924376,2221.676944
549.339654,-1406.391290,-7402.059420,1762.019645
549.339976,666.185348,-7476.080014,76.609550
549.340298,1776.494261,-8364.327145,-612.876398
549.340621,962.267725,-9992.780217,1302.362347
549.340943,-592.164754,-10436.903782,2987.772442
549.341265,-592.164754,-9252.574275,1302.362347
549.341587,1332.370696,-9030.512492,-1149.143247
549.341910,4071.132681,-10732.986159,-2451.505594
549.342232,4589.276840,-9844.739029,306.438199
549.342554,4589.276840,-8142.265362,1072.533697
549.342877,4737.318029,-7254.018232,-1762.019645
549.343199,4515.256246,-9992.780217,-3907.087040
549.343521,888.247130,-13249.686362,-2528.115143
549.343844,-4811.338623,-15026.180623,0.000000
549.344166,-8734.430116,-15470.304188,-306.438199
549.344488,-8586.388927,-13249.686362,-2068.457845
549.344811,-5551.544565,-10436.903782,-2221.676944
549.345133,-3108.864956,-7476.080014,383.047749
549.345455,-814.226536,-5847.626942,3217.601092
549.345778,1702.473667,-4293.194464,3294.210641
549.346100,3256.906145,-4219.173869,1532.190996
549.346422,2368.659014,-6217.729913,1762.019645
549.346745,0.000000,-7476.080014,3830.477490
549.347067,-1480.411884,-7179.997637,2068.457845
549.347389,0.000000,-6883.915261,-766.095498
549.347711,3552.988522,-6365.771101,-919.314598
549.348034,5403.503377,-5921.647536,-689.485948
549.348356,4811.338623,-5921.647536,-229.828649
549.348678,3182.885551,-8438.347739,-766.095498
549.349001,666.185348,-10807.006753,-1455.581446
549.349323,-3404.947333,-12139.377449,-2528.115143
549.349645,-7550.100608,-13767.830521,-3983.696590
549.349968,-9474.636058,-15322.262999,-4826.401637
549.350290,-8216.285956,-13767.830521,-3140.991542
549.350612,-5107.421000,-9770.718434,-383.047749
549.350935,-2368.659014,-7254.018232,766.095498
549.351257,592.164754,-6809.894666,153.219100
549.351579,2516.700203,-7179.997637,0.000000
549.351902,1924.535449,-7254.018232,1685.410096
549.352224,1480.411884,-8364.327145,2145.067394
549.352546,3256.906145,-10732.986159,-689.485948
549.352869,5107.421000,-11843.295072,-2451.505594
549.353191,6143.709319,-11325.150913,1072.533697
549.353513,6217.729913,-9844.739029,3064.381992
549.353835,5699.585753,-10807.006753,-689.485948
549.354158,3108.864956,-13619.789333,-3294.210641
549.354480,-2368.659014,-14063.912898,-919.314598
549.354802,-6957.935855,-13175.665768,-766.095498
549.355125,-8512.368333,-12805.562797,-5362.668486
549.355447,-7994.224174,-12805.562797,-7814.174080
549.355769,-7846.182985,-12435.459826,-3907.087040
549.356092,-7624.121203,-10584.944971,1225.752797
549.356414,-6809.894666,-10658.965565,2221.676944
549.356736,-6069.688724,-12509.480420,1838.629195
549.357059,-6957.935855,-10658.965565,3524.039291
549.357381,-7402.059420,-7105.977043,4213.525239
549.357703,-3701.029710,-5477.523971,1225.752797
549.358026,1628.453072,-2960.823768,76.609550
549.358348,5181.441594,-518.144159,2757.943793
549.358670,7105.977043,-1406.391290,4979.620737
549.358993,8068.244768,-4515.256246,5132.839837
549.359315,6957.935855,-7624.121203,4136.915689
549.359637,3478.967927,-10584.944971,2987.772442
549.359959,888.247130,-11769.274478,1225.752797
549.360282,888.247130,-10807.006753,-1838.629195
549.360604,2146.597232,-9178.553681,-1302.362347
549.360926,2664.741391,-7624.121203,1762.019645
549.361249,2368.659014,-7920.203579,4596.572988
549.361571,888.247130,-8660.409521,4060.306139
549.361893,-1628.453072,-9622.677246,3064.381992
549.362216,-2442.679609,-12361.439231,1991.848295
549.362538,-2220.617826,-13767.830521,459.657299
549.362860,370.102971,-10214.842000,919.314598
549.363183,2516.700203,-2590.720797,2911.162892
549.363505,4293.194464,666.185348,2068.457845
549.363827,3849.070898,-3182.885551,76.609550
549.364150,0.000000,-6587.832884,0.000000
549.364472,-5403.503377,-9104.533087,-1072.533697
549.364794,-8142.265362,-12361.439231,-5515.887586
549.365117,-7328.038826,-17394.839637,-9116.536426
549.365439,-6291.750507,-19467.416275,-6971.469032
549.365761,-7698.141797,-16876.695478,-3600.648841
549.366083,-7179.997637,-15692.365970,-2451.505594
549.366406,-5477.523971,-14434.015869,-3370.820191
549.366728,-3034.844362,-11917.315666,-3907.087040
549.367050,-1480.411884,-9474.636058,-5362.668486
549.367373,592.164754,-10066.800811,-4749.792088
549.367695,3330.926739,-9918.759623,153.219100
549.368017,7179.997637,-6291.750507,3140.991542
549.368340,11251.130318,-4367.215058,842.705048
549.368662,12509.480420,-6513.812290,-459.657299
549.368984,9918.759623,-7031.956449,1072.533697
549.369307,5625.565159,-4959.379811,459.657299
549.369629,2812.782580,-5847.626942,-3830.477490
549.369951,2368.659014,-9474.636058,-5822.325785
549.370274,814.226536,-10584.944971,-4903.011187
549.370596,-2664.741391,-9918.759623,-3447.429741
549.370918,-7179.997637,-11251.130318,-1991.848295
549.371241,-9326.594869,-12583.501014,-2145.067394
549.371563,-9326.594869,-13323.706956,-4673.182538
549.371885,-7846.182985,-12287.418637,-5898.935335
549.372207,-5181.441594,-10510.924376,-5209.449386
549.372530,-1924.535449,-5995.668130,-2987.772442
549.372852,1628.453072,-2664.741391,-1302.362347
549.373174,3552.988522,-3849.070898,-612.876398
549.373497,2590.720797,-5255.462188,229.828649
549.373819,-1110.308913,-4071.132681,-1149.143247
549.374141,-3552.988522,-5255.462188,-4443.353888
549.374464,-3552.988522,-9400.615463,-6818.249932
549.374786,-3478.967927,-10658.965565,-6281.983084
549.375108,-4367.215058,-9918.759623,-3217.601092
549.375431,-5107.421000,-11251.130318,-2068.457845
549.375753,-4811.338623,-12731.542202,-2681.334243
549.376075,-4663.297435,-13915.871710,-4060.306139
549.376398,-3923.091493,-13693.809927,-5209.449386
549.376720,-2072.576638,-14656.077652,-6052.154434
549.377042,1036.288319,-12805.562797,-2757.943793
549.377365,5403.503377,-9030.512492,-383.047749
549.377687,9474.636058,-7920.203579,-1225.752797
549.378009,11695.253884,-9474.636058,0.000000
549.378332,9770.718434,-7328.038826,3217.601092
549.378654,5551.544565,-6439.791695,1915.238745
549.378976,2294.638420,-8216.285956,-1378.971896
549.379298,592.164754,-9622.677246,-1762.019645
549.379621,-962.267725,-7254.018232,-1455.581446
549.379943,-1924.535449,-6883.915261,-2834.553343
549.380265,-2072.576638,-10510.924376,-3677.258390
549.380588,-3849.070898,-14063.912898,-1762.019645
549.380910,-7179.997637,-13619.789333,1685.410096
549.381232,-9252.574275,-14508.036463,842.705048
549.381555,-8290.306550,-15544.324782,-1915.238745
549.381877,-4071.132681,-11621.233289,-4136.915689
549.382199,296.082377,-5921.647536,-3907.087040
549.382522,2738.761985,-4293.194464,-2298.286494
549.382844,4071.132681,-5403.503377,3753.867940
549.383166,3701.029710,-5329.482782,7431.126331
549.383489,1998.556043,-5329.482782,3983.696590
549.383811,74.020594,-8142.265362,153.219100
549.384133,-1480.411884,-8660.409521,153.219100
549.384456,-1332.370696,-7698.141797,1302.362347
549.384778,-444.123565,-7772.162391,1838.629195
549.385100,-74.020594,-7550.100608,4136.915689
549.385422,-518.144159,-7105.977043,5592.497135
549.385745,-1184.329507,-7550.100608,2834.553343
549.386067,-1850.514855,-10066.800811,-306.438199
549.386389,-666.185348,-11621.233289,0.000000
549.386712,1036.288319,-9326.594869,0.000000
549.387034,3256.906145,-7772.162391,-2374.896044
549.387356,3701.029710,-8882.471304,-383.047749
549.387679,3404.947333,-9918.759623,2681.334243
549.388001,2220.617826,-10807.006753,229.828649
549.388323,1110.308913,-12953.603985,-2834.553343
549.388646,-592.164754,-12509.480420,-2757.943793
549.388968,-3034.844362,-9622.677246,-2451.505594
549.389290,-4219.173869,-7624.121203,-2834.553343
549.389613,-4589.276840,-7698.141797,-2757.943793
549.389935,-5181.441594,-7846.182985,-2911.162892
549.390257,-6661.853478,-9030.512492,-4596.572988
549.390580,-6143.709319,-13397.727550,-4903.011187
549.390902,-5847.626942,-14952.160028,-2528.115143
549.391224,-4071.132681,-10807.006753,-1915.238745
549.391546,0.000000,-7698.141797,-4749.792088
549.391869,4663.297435,-8956.491898,-7431.126331
549.392191,6809.894666,-9474.636058,-4060.306139
549.392513,4959.379811,-7328.038826,-1532.190996
549.392836,1850.514855,-8734.430116,-2681.334243
549.393158,148.041188,-13767.830521,-4213.525239
549.393480,-1184.329507,-14730.098246,-4826.401637
549.393803,-3182.885551,-11251.130318,-6052.154434
549.394125,-3330.926739,-9992.780217,-5669.106685
549.394447,-1924.535449,-8660.409521,-2145.067394
549.394770,-370.102971,-5847.626942,-459.657299
549.395092,370.102971,-6883.915261,-1915.238745
549.395414,222.061783,-8808.450710,-2834.553343
549.395737,148.041188,-7920.203579,-1225.752797
549.396059,1850.514855,-6143.709319,-1838.629195
549.396381,4737.318029,-7179.997637,-4136.915689
549.396704,5921.647536,-8438.347739,-1991.848295
549.397026,4959.379811,-6809.894666,1685.410096
549.397348,3775.050304,-6143.709319,612.876398
549.397670,2072.576638,-8364.327145,-3830.477490
549.397993,-296.082377,-9326.594869,-6205.373534
549.398315,-4145.153275,-7772.162391,-6435.202183
549.398637,-6365.771101,-9400.615463,-5286.058936
549.398960,-7254.018232,-11917.315666,-4366.744339
549.399282,-6661.853478,-11695.253884,-2451.505594
549.399604,-5773.606348,-11251.130318,-3753.867940
549.399927,-4737.318029,-12435.459826,-4136.915689
549.400249,-3256.906145,-11695.253884,-2068.457845
549.400571,-1184.329507,-8068.244768,-2298.286494
549.400894,1406.391290,-6735.874072,-4903.011187
549.401216,3478.967927,-8586.388927,-4366.744339
549.401538,3478.967927,-7179.997637,-383.047749
549.401861,2960.823768,-5551.544565,383.047749
549.402183,3775.050304,-8438.347739,-2451.505594
549.402505,4959.379811,-12213.398043,-3753.867940
549.402828,3552.988522,-11843.295072,-1302.362347
549.403150,666.185348,-11843.295072,842.705048
549.403472,-962.267725,-14063.912898,1302.362347
549.403795,-1110.308913,-13397.727550,1072.533697
549.404117,-1184.329507,-10066.800811,-229.828649
549.404439,-740.205942,-9548.656652,-1608.800546
549.404761,370.102971,-9844.739029,76.609550
549.405084,2146.597232,-7328.038826,2145.067394
549.405406,3552.988522,-4811.338623,1838.629195
549.405728,4441.235652,-7254.018232,1149.143247
549.406051,2072.576638,-8364.327145,2068.457845
549.406373,-2368.659014,-7105.977043,1838.629195
549.406695,-5551.544565,-7402.059420,-766.095498
549.407018,-7031.956449,-9844.739029,-2757.943793
549.407340,-7698.141797,-9252.574275,-2374.896044
549.407662,-8142.265362,-7920.203579,-919.314598
549.407985,-8586.388927,-8956.491898,-1225.752797
549.408307,-7624.121203,-11695.253884,-536.266849
549.408629,-5921.647536,-12657.521608,-536.266849
549.408952,-4293.194464,-10881.027347,-1762.019645
549.409274,-3182.885551,-11399.171507,-2068.457845
549.409596,-1184.329507,-9844.739029,1991.848295
549.409919,2886.803174,-5551.544565,3830.477490
549.410241,6513.812290,-2812.782580,842.705048
549.410563,9104.533087,-4885.359217,76.609550
549.410886,9918.759623,-7105.977043,2221.676944
549.411208,8956.491898,-8512.368333,2451.505594
549.411530,7105.977043,-11473.192101,0.000000
549.411852,3701.029710,-12583.501014,-229.828649
549.412175,370.102971,-10584.944971,229.828649
549.412497,-1480.411884,-9474.636058,-2221.676944
549.412819,-3034.844362,-9400.615463,-4673.182538
549.413142,-5921.647536,-9400.615463,-4673.182538
549.413464,-6957.935855,-11103.089130,-3140.991542
549.413786,-6217.729913,-14878.139434,-3294.210641
549.414109,-4515.256246,-16358.551318,-2451.505594
549.414431,-2812.782580,-12435.459826,-1302.362347
549.414753,0.000000,-6809.894666,-2834.553343
549.415076,1924.535449,-6291.750507,-4366.744339
549.415398,3108.864956,-5847.626942,-2911.162892
549.415720,1702.473667,-3256.906145,-2528.115143
549.416043,0.000000,-4737.318029,-4903.011187
549.416365,-296.082377,-9918.759623,-4136.915689
549.416687,-740.205942,-11991.336260,-3217.601092
549.417010,-1628.453072,-11399.171507,-3600.648841
549.417332,-2294.638420,-12583.501014,-3753.867940
549.417654,-1850.514855,-13323.706956,-2451.505594
549.417977,-888.247130,-10066.800811,-689.485948
549.418299,-740.205942,-7994.224174,-3140.991542
549.418621,-1110.308913,-9918.759623,-3524.039291
549.418943,74.020594,-9474.636058,-995.924147
549.419266,2664.741391,-5847.626942,-919.314598
549.419588,6291.750507,-5107.421000,-2757.943793
549.419910,9770.718434,-7105.977043,-1991.848295
549.420233,10955.047942,-5477.523971,-459.657299
549.420555,9474.636058,-5477.523971,-306.438199
549.420877,5625.565159,-8216.285956,-689.485948
549.421200,-814.226536,-10436.903782,-1608.800546
549.421522,-7550.100608,-10140.821405,-2681.334243
549.421844,-11843.295072,-9992.780217,-4903.011187
549.422167,-13101.645173,-10658.965565,-7354.516781
549.422489,-11991.336260,-10955.047942,-7048.078582
549.422811,-9326.594869,-9474.636058,-4443.353888
549.423134,-6291.750507,-11621.233289,-4366.744339
549.423456,-3256.906145,-14063.912898,-2604.724693
549.423778,-2368.659014,-11325.150913,-919.314598
549.424101,-2368.659014,-7179.997637,-2374.896044
549.424423,0.000000,-7402.059420,-4979.620737
549.424745,4367.215058,-7994.224174,-5515.887586
549.425067,7179.997637,-7698.141797,-3217.601092
549.425390,7105.977043,-9548.656652,229.828649
549.425712,5847.626942,-11843.295072,4136.915689
549.426034,4145.153275,-11399.171507,4826.401637
549.426357,2220.617826,-10066.800811,1149.143247
549.426679,-592.164754,-9770.718434,-3064.381992
549.427001,-1702.473667,-9696.697840,-2681.334243
549.427324,-2368.659014,-6661.853478,-1378.971896
549.427646,-888.247130,-8216.285956,-1991.848295
549.427968,444.123565,-11695.253884,-1149.143247
549.428291,296.082377,-11399.171507,2528.115143
549.428613,-1332.370696,-8808.450710,1838.629195
549.428935,-1110.308913,-9252.574275,-2911.162892
549.429258,-148.041188,-9770.718434,-3524.039291
549.429580,0.000000,-6809.894666,-2145.067394
549.429902,-592.164754,-5699.585753,-2757.943793
549.430225,-1110.308913,-9400.615463,-3447.429741
549.430547,-2590.720797,-11325.150913,-1455.581446
549.430869,-3552.988522,-9326.594869,-995.924147
549.431192,-4737.318029,-8956.491898,-3753.867940
549.431514,-5699.585753,-11695.253884,-3524.039291
549.431836,-5477.523971,-12287.418637,306.438199
549.432158,-4145.153275,-10140.821405,2298.286494
549.432481,-1998.556043,-9770.718434,76.609550
549.432803,148.041188,-8586.388927,612.876398
549.433125,1628.453072,-4811.338623,2451.505594
549.433448,3552.988522,-2812.782580,1608.800546
549.433770,6217.729913,-5033.400406,306.438199
549.434092,7994.224174,-7550.100608,306.438199
549.434415,8290.306550,-7772.162391,-229.828649
549.434737,7624.121203,-11103.089130,-306.438199
549.435059,5329.482782,-12509.480420,306.438199
549.435382,1184.329507,-10214.842000,229.828649
549.435704,-2590.720797,-9992.780217,-2451.505594
549.436026,-4959.379811,-11325.150913,-3600.648841
549.436349,-6809.894666,-11399.171507,-3447.429741
549.436671,-7328.038826,-11399.171507,-3064.381992
549.436993,-6661.853478,-12435.459826,-2451.505594
549.437316,-6439.791695,-13989.892304,-1532.190996
549.437638,-5847.626942,-11325.150913,612.876398
549.437960,-3552.988522,-7550.100608,612.876398
549.438283,-1110.308913,-7402.059420,-2834.553343
549.438605,0.000000,-7179.997637,-2757.943793
549.438927,-222.061783,-4071.132681,153.219100
549.439249,370.102971,-2960.823768,-306.438199
549.439572,2664.741391,-6661.853478,-2987.772442
549.439894,4441.235652,-9770.718434,-3217.601092
549.440216,2738.761985,-10955.047942,-2604.724693
549.440539,0.000000,-12583.501014,-1762.019645
549.440861,-1184.329507,-16136.489536,-919.314598
549.441183,-2072.576638,-14582.057057,-1149.143247
549.441506,-2294.638420,-11843.295072,-2987.772442
549.441828,-1554.432478,-10140.821405,-3677.258390
549.442150,592.164754,-8438.347739,-2221.676944
549.442473,2516.700203,-6291.750507,-919.314598
549.442795,4219.173869,-6883.915261,76.609550
549.443117,4737.318029,-7846.182985,1225.752797
549.443440,3997.112087,-5995.668130,1532.190996
549.443762,2368.659014,-5625.565159,-612.876398
549.444084,666.185348,-7846.182985,-2987.772442
549.444407,-1776.494261,-8734.430116,-3217.601092
549.444729,-4293.194464,-6661.853478,-1991.848295
549.445051,-4811.338623,-5995.668130,-3447.429741
549.445373,-4737.318029,-9030.512492,-5515.887586
549.445696,-4959.379811,-12361.439231,-4673.182538
549.446018,-5477.523971,-14285.974681,-3907.087040
549.446340,-5625.565159,-16950.716072,-4366.744339
549.446663,-5033.400406,-17987.004391,-2681.334243
549.446985,-3034.844362,-12953.603985,0.000000
549.447307,0.000000,-6291.750507,-1685.410096
549.447630,2886.803174,-2960.823768,-3294.210641
549.447952,5625.565159,-2146.597232,-1608.800546
549.448274,6439.791695,-1554.432478,0.000000
549.448597,5773.606348,-5995.668130,-1072.533697
549.448919,5551.544565,-11843.295072,-1302.362347
549.449241,4071.132681,-13027.624579,0.000000
549.449564,2294.638420,-11103.089130,-153.219100
549.449886,-444.123565,-11473.192101,-2298.286494
549.450208,-2812.782580,-11325.150913,-2604.724693
549.450531,-4515.256246,-7772.162391,-1762.019645
549.450853,-4293.194464,-6809.894666,-3677.258390
549.451175,-3701.029710,-9474.636058,-5362.668486
549.451498,-3108.864956,-12139.377449,-3447.429741
549.451820,-2072.576638,-11917.315666,-689.485948
549.452142,-222.061783,-11991.336260,-1455.581446
549.452464,1998.556043,-12065.356855,-1378.971896
549.452787,2516.700203,-8660.409521,-459.657299
549.453109,2812.782580,-5699.585753,-2145.067394
549.453431,1406.391290,-5847.626942,-3140.991542
549.453754,-444.123565,-6217.729913,-1838.629195
549.454076,-1998.556043,-6883.915261,-2068.457845
549.454398,-2886.803174,-9030.512492,-3677.258390
549.454721,-3849.070898,-12287.418637,-1991.848295
549.455043,-5551.544565,-13471.748144,459.657299
549.455365,-4885.359217,-13545.768739,459.657299
549.455688,-2960.823768,-13989.892304,-1685.410096
549.456010,-1702.473667,-13027.624579,-1225.752797
549.456332,-222.061783,-7772.162391,1378.971896
549.456655,296.082377,-4293.194464,229.828649
549.456977,1628.453072,-5403.503377,-1532.190996
549.457299,2516.700203,-6587.832884,766.095498
549.457622,2294.638420,-5033.400406,1838.629195
549.457944,2368.659014,-7476.080014,-1915.238745
549.458266,2812.782580,-13693.809927,-2451.505594
549.458589,962.267725,-13841.851115,1225.752797
549.458911,-1924.535449,-9770.718434,2145.067394
549.459233,-4219.173869,-8808.450710,-459.657299
549.459555,-4663.297435,-9400.615463,-1915.238745
549.459878,-3849.070898,-8290.306550,-1302.362347
549.460200,-2738.761985,-9178.553681,-995.924147
549.460522,-1998.556043,-11473.192101,0.000000
549.460845,-296.082377,-10881.027347,2145.067394
549.461167,2294.638420,-8586.388927,2145.067394
549.461489,4071.132681,-7624.121203,0.000000
549.461812,4293.194464,-8216.285956,766.095498
549.462134,2886.803174,-6587.832884,2221.676944
549.462456,2220.617826,-6217.729913,-229.828649
549.462779,2220.617826,-8586.388927,-1838.629195
549.463101,2072.576638,-8216.285956,-229.828649
549.463423,1036.288319,-5403.503377,-612.876398
549.463746,-592.164754,-7105.977043,-2221.676944
549.464068,-1924.535449,-11177.109724,-1915.238745
549.464390,-4219.173869,-11547.212695,-612.876398
549.464713,-6069.688724,-12213.398043,-2604.724693
549.465035,-5921.647536,-14508.036463,-4596.572988
549.465357,-5773.606348,-14656.077652,-2757.943793
549.465679,-4737.318029,-10140.821405,-306.438199
549.466002,-1702.473667,-7105.977043,-1455.581446
549.466324,1702.473667,-6957.935855,-2604.724693
549.466646,3256.906145,-6217.729913,-536.266849
549.466969,2738.761985,-5033.400406,-689.485948
549.467291,2516.700203,-8882.471304,-4136.915689
549.467613,2072.576638,-12657.521608,-4136.915689
549.467936,962.267725,-11769.274478,-1608.800546
549.468258,148.041188,-10807.006753,-1685.410096
549.468580,-370.102971,-10658.965565,-3524.039291
549.468903,-1776.494261,-10807.006753,-2757.943793
549.469225,-2442.679609,-10140.821405,-2145.067394
549.469547,-2220.617826,-10066.800811,-3217.601092
549.469870,-1406.391290,-10658.965565,-3447.429741
549.470192,592.164754,-9104.533087,-3140.991542
549.470514,2442.679609,-7105.977043,-3064.381992
549.470837,2960.823768,-9030.512492,-2374.896044
549.471159,1702.473667,-11917.315666,306.438199
549.471481,-518.144159,-9918.759623,1302.362347
549.471804,-1776.494261,-7254.018232,-1685.410096
549.472126,-296.082377,-7402.059420,-4903.011187
549.472448,1110.308913,-6513.812290,-4826.401637
549.472770,0.000000,-4737.318029,-4596.572988
549.473093,-2516.700203,-7624.121203,-2298.286494
549.473415,-5033.400406,-11547.212695,229.828649
549.473737,-5033.400406,-12953.603985,-689.485948
549.474060,-4885.359217,-13471.748144,-5286.058936
549.474382,-3627.009116,-14211.954086,-6128.763984
549.474704,-1554.432478,-10732.986159,-2681.334243
549.475027,1998.556043,-5847.626942,-1225.752797
549.475349,4959.379811,-6957.935855,-2221.676944
549.475671,5921.647536,-9770.718434,-383.047749
549.475994,3256.906145,-7698.141797,1608.800546
549.476316,296.082377,-6587.832884,-995.924147
549.476638,296.082377,-9622.677246,-4136.915689
549.476961,2368.659014,-10658.965565,-3677.258390
549.477283,3404.947333,-7105.977043,-536.266849
549.477605,2368.659014,-6291.750507,766.095498
549.477928,814.226536,-8956.491898,2451.505594
549.478250,-1850.514855,-10288.862594,2834.553343
549.478572,-4737.318029,-9992.780217,153.219100
549.478895,-5625.565159,-11251.130318,-3830.477490
549.479217,-3478.967927,-11547.212695,-4596.572988
549.479539,148.041188,-8512.368333,-2451.505594
549.479861,2072.576638,-7105.977043,-536.266849
549.480184,1702.473667,-10066.800811,2145.067394
549.480506,0.000000,-11399.171507,4290.134789
549.480828,-2516.700203,-10066.800811,612.876398
549.481151,-4663.297435,-10584.944971,-4979.620737
549.481473,-4663.297435,-10807.006753,-6281.983084
549.481795,-3627.009116,-8586.388927,-2834.553343
549.482118,-1850.514855,-5625.565159,612.876398
549.482440,0.000000,-7698.141797,1532.190996
549.482762,-740.205942,-10288.862594,1838.629195
549.483085,-2516.700203,-11473.192101,459.657299
549.483407,-3775.050304,-12287.418637,-1762.019645
549.483729,-2664.741391,-13249.686362,-3064.381992
549.484052,0.000000,-11251.130318,-1225.752797
549.484374,4071.132681,-7105.977043,1378.971896
549.484696,7105.977043,-5329.482782,1838.629195
549.485019,7476.080014,-6069.688724,2374.896044
549.485341,4737.318029,-6661.853478,2145.067394
549.485663,1332.370696,-7994.224174,-612.876398
549.485986,-518.144159,-10881.027347,-4903.011187
549.486308,-1258.350101,-12435.459826,-3830.477490
549.486630,-1332.370696,-10140.821405,-995.924147
549.486952,-1110.308913,-8364.327145,-229.828649
549.487275,-1480.411884,-7698.141797,-383.047749
549.487597,-2664.741391,-7698.141797,-689.485948
549.487919,-3849.070898,-8734.430116,-2911.162892
549.488242,-4737.318029,-12139.377449,-4903.011187
549.488564,-4811.338623,-13693.809927,-2451.505594
549.488886,-3775.050304,-8956.491898,153.219100
549.489209,-740.205942,-4959.379811,-1302.362347
549.489531,2516.700203,-6735.874072,-1838.629195
549.489853,3330.926739,-6661.853478,153.219100
549.490176,592.164754,-4663.297435,0.000000
549.490498,-1628.453072,-7624.121203,-2604.724693
549.490820,-1036.288319,-12065.356855,-3370.820191
549.491143,0.000000,-10807.006753,-3447.429741
549.491465,-222.061783,-9474.636058,-3447.429741
549.491787,-518.144159,-10436.903782,-2221.676944
549.492110,-370.102971,-10807.006753,-459.657299
549.492432,-962.267725,-9252.574275,-766.095498
549.492754,-1406.391290,-10510.924376,-3447.429741
549.493076,-518.144159,-13323.706956,-4596.572988
549.493399,1258.350101,-11029.068536,-3524.039291
549.493721,3182.885551,-7698.141797,-2451.505594
549.494043,4959.379811,-8216.285956,-1302.362347
549.494366,5921.647536,-9770.718434,383.047749
549.494688,3256.906145,-8364.327145,459.657299
549.495010,-296.082377,-7772.162391,-1685.410096
549.495333,-1850.514855,-9770.718434,-4519.963438
549.495655,-2072.576638,-9918.759623,-6205.373534
549.495977,-2664.741391,-8882.471304,-4596.572988
549.496300,-3849.070898,-10732.986159,-2145.067394
549.496622,-3627.009116,-13619.789333,-1072.533697
549.496944,-3478.967927,-13249.686362,0.000000
549.497266,-3256.906145,-12213.398043,-2451.505594
549.497589,-2886.803174,-12361.439231,-4903.011187
549.497911,-1554.432478,-9918.759623,-2911.162892
549.498233,740.205942,-5329.482782,-1072.533697
549.498556,3775.050304,-4885.359217,-2451.505594
549.498878,4737.318029,-8364.327145,-1915.238745
549.499200,2368.659014,-8290.306550,1915.238745
549.499523,-888.247130,-6883.915261,1532.190996
549.499845,-3108.864956,-8660.409521,-2451.505594
549.500167,-3330.926739,-11399.171507,-4060.306139
549.500489,-2960.823768,-9548.656652,-2068.457845
549.500812,-3182.885551,-5995.668130,-995.924147
549.501134,-2886.803174,-6217.729913,-995.924147
549.501456,-1702.473667,-6957.935855,306.438199
549.501779,-370.102971,-7920.203579,-995.924147
549.502101,-814.226536,-9770.718434,-3294.210641
549.502423,-740.205942,-12287.418637,-2987.772442
549.502745,1184.329507,-10584.944971,-536.266849
549.503068,4441.235652,-7550.100608,-1991.848295
549.503390,6735.874072,-9770.718434,-2298.286494
549.503712,5403.503377,-10955.047942,1072.533697
549.504035,2294.638420,-8068.244768,2681.334243
549.504357,-370.102971,-8142.265362,-842.705048
549.504679,-518.144159,-10732.986159,-3830.477490
549.505002,-1406.391290,-9326.594869,-3140.991542
549.505324,-2738.761985,-6291.750507,-2298.286494
549.505646,-2738.761985,-7105.977043,-1072.533697
549.505968,-2146.597232,-10955.047942,-383.047749
549.506291,-2294.638420,-12509.480420,0.000000
549.506613,-3404.947333,-12435.459826,-766.095498
549.506935,-4367.215058,-13915.871710,-2604.724693
549.507258,-2516.700203,-13693.809927,-1455.581446
549.507580,592.164754,-8364.327145,-1302.362347
549.507902,2886.803174,-4663.297435,-3140.991542
549.508225,3627.009116,-6069.688724,-2298.286494
549.508547,2516.700203,-6661.853478,1072.533697
549.508869,666.185348,-7179.997637,306.438199
549.509191,-814.226536,-11621.233289,-3677.258390
549.509514,-2368.659014,-14804.118840,-3677.258390
549.509836,-3849.070898,-12435.459826,-1225.752797
549.510158,-3849.070898,-10658.965565,-842.705048
549.510481,-2960.823768,-10807.006753,-842.705048
549.510803,-1480.411884,-8956.491898,153.219100
549.511125,-1036.288319,-4885.359217,76.609550
549.511447,-444.123565,-4811.338623,-1302.362347
549.511770,444.123565,-6661.853478,-1225.752797
549.512092,1628.453072,-7328.038826,-1608.800546
549.512414,2886.803174,-8290.306550,-2451.505594
549.512737,4145.153275,-12657.521608,-995.924147
549.513059,3404.947333,-14063.912898,2451.505594
549.513381,740.205942,-9844.739029,3140.991542
549.513704,-814.226536,-7846.182985,-383.047749
549.514026,-444.123565,-7031.956449,-3753.867940
549.514348,-222.061783,-4737.318029,-4979.620737
549.514670,-888.247130,-4737.318029,-4136.915689
549.514993,-2072.576638,-7772.162391,-2145.067394
549.515315,-3330.926739,-12139.377449,-1838.629195
549.515637,-4737.318029,-15026.180623,-306.438199
549.515960,-4811.338623,-16580.613101,-536.266849
549.516282,-3330.926739,-14582.057057,-2451.505594
549.516604,-592.164754,-9622.677246,-2757.943793
549.516926,2590.720797,-3849.070898,-1838.629195
549.517249,5995.668130,-2886.803174,-2834.553343
549.517571,6735.874072,-6439.791695,-1838.629195
549.517893,3997.112087,-8808.450710,1225.752797
549.518216,74.020594,-8290.306550,-459.657299
549.518538,-2664.741391,-9992.780217,-4979.620737
549.518860,-3849.070898,-12657.521608,-5515.887586
549.519183,-4663.297435,-11843.295072,-3217.601092
549.519505,-4663.297435,-10214.842000,-2757.943793
549.519827,-5403.503377,-10066.800811,-3600.648841
549.520149,-4663.297435,-11473.192101,-2987.772442
549.520472,-3182.885551,-11177.109724,-3524.039291
549.520794,-2294.638420,-10584.944971,-4060.306139
549.521116,-1110.308913,-9770.718434,-3677.258390
549.521439,1628.453072,-8068.244768,-3217.601092
549.521761,4737.318029,-6957.935855,-2528.115143
549.522083,7624.121203,-7994.224174,-1685.410096
549.522406,7550.100608,-7698.141797,-919.314598
549.522728,5551.544565,-7772.162391,-1532.190996
549.523050,3701.029710,-9918.759623,-3140.991542
549.523372,1776.494261,-11029.068536,-2987.772442
549.523695,0.000000,-10807.006753,-995.924147
549.524017,-1628.453072,-9844.739029,-842.705048
549.524339,-2220.617826,-9104.533087,-1378.971896
549.524662,-3404.947333,-8142.265362,-1302.362347
549.524984,-4293.194464,-7920.203579,-1762.019645
549.525306,-3923.091493,-10436.903782,-3064.381992
549.525628,-2738.761985,-12509.480420,-2374.896044
549.525951,-1406.391290,-9770.718434,459.657299
549.526273,962.267725,-6587.832884,612.876398
549.526595,2886.803174,-7624.121203,-1608.800546
549.526918,3256.906145,-8882.471304,-1838.629195
549.527240,1850.514855,-7402.059420,-612.876398
549.527562,-370.102971,-6883.915261,-1608.800546
549.527885,-2960.823768,-8290.306550,-4213.525239
549.528207,-5033.400406,-9474.636058,-2451.505594
549.528529,-5995.668130,-9474.636058,-383.047749
549.528851,-7105.977043,-9844.739029,-1915.238745
549.529174,-6883.915261,-12213.398043,-3217.601092
549.529496,-5921.647536,-13471.748144,-1915.238745
549.529818,-4441.235652,-12879.583391,-459.657299
549.530141,-2664.741391,-10436.903782,-842.705048
549.530463,148.041188,-7920.203579,0.000000
549.530785,2886.803174,-3701.029710,1685.410096
549.531107,7920.203579,-1998.556043,0.000000
549.531430,10732.986159,-7105.977043,-1149.143247
549.531752,9252.574275,-9844.739029,306.438199
549.532074,5995.668130,-10436.903782,2987.772442
549.532397,4219.173869,-10807.006753,1762.019645
549.532719,3256.906145,-11843.295072,-689.485948
549.533041,962.267725,-11473.192101,-1532.190996
549.533364,-2146.597232,-9252.574275,-536.266849
549.533686,-4367.215058,-8882.471304,-1302.362347
549.534008,-5477.523971,-10436.903782,-2221.676944
549.534330,-5255.462188,-11843.295072,-2528.115143
549.534653,-5033.400406,-13545.768739,-3830.477490
549.534975,-4515.256246,-13471.748144,-1762.019645
549.535297,-3404.947333,-9548.656652,1072.533697
549.535620,-2146.597232,-7105.977043,229.828649
549.535942,-666.185348,-7920.203579,-1149.143247
549.536264,-740.205942,-8142.265362,-1149.143247
549.536587,-1850.514855,-3997.112087,-1838.629195
549.536909,-1406.391290,-4071.132681,-5439.278036
549.537231,1554.432478,-8956.491898,-6052.154434
549.537553,3108.864956,-10881.027347,-1991.848295
549.537876,1110.308913,-10214.842000,1378.971896
549.538198,-3923.091493,-12213.398043,1685.410096
549.538520,-5847.626942,-16062.468941,153.219100
549.538843,-5773.606348,-13101.645173,-1991.848295
549.539165,-3849.070898,-8512.368333,-5745.716235
549.539487,-1036.288319,-7624.121203,-4673.182538
549.539809,3034.844362,-5551.544565,-306.438199
549.540132,6291.750507,-2738.761985,3064.381992
549.540454,9770.718434,-5255.462188,1991.848295
549.540776,10436.903782,-9918.759623,-459.657299
549.541099,7031.956449,-10288.862594,-842.705048
549.541421,1998.556043,-8660.409521,-1532.190996
549.541743,-888.247130,-9474.636058,-3524.039291
549.542066,-1332.370696,-9400.615463,-3447.429741
549.542388,-1924.535449,-6217.729913,-2757.943793
549.542710,-3701.029710,-4589.276840,-3370.820191
549.543032,-4441.235652,-8438.347739,-4213.525239
549.543355,-5847.626942,-12361.439231,-4136.915689
549.543677,-7402.059420,-15248.242405,-4673.182538
549.543999,-7994.224174,-15914.427753,-4749.792088
549.544322,-6365.771101,-14063.912898,-4060.306139
549.544644,-4219.173869,-9104.533087,-2221.676944
549.544966,-592.164754,-5995.668130,-2681.334243
549.545288,1628.453072,-6069.688724,-3140.991542
549.545611,2146.597232,-5403.503377,-1149.143247
549.545933,2220.617826,-4663.297435,-1225.752797
549.546255,3997.112087,-9030.512492,-5362.668486
549.546578,5329.482782,-14063.912898,-5822.325785
549.546900,3997.112087,-13471.748144,-995.924147
549.547222,888.247130,-9474.636058,2298.286494
549.547545,-1628.453072,-10288.862594,689.485948
549.547867,-2738.761985,-11917.315666,-1608.800546
549.548189,-5255.462188,-10436.903782,-3140.991542
549.548511,-6883.915261,-9252.574275,-5362.668486
549.548834,-4737.318029,-12435.459826,-4596.572988
549.549156,1480.411884,-13027.624579,-1685.410096
549.549478,5921.647536,-9474.636058,1378.971896
549.549801,7402.059420,-6957.935855,2298.286494
549.550123,7105.977043,-7105.977043,1762.019645
549.550445,4885.359217,-7550.100608,536.266849
549.550768,2664.741391,-7254.018232,-2911.162892
549.551090,-148.041188,-8882.471304,-5362.668486
549.551412,-2886.803174,-10140.821405,-2757.943793
549.551734,-4219.173869,-8808.450710,1455.581446
549.552057,-3404.947333,-7920.203579,2068.457845
549.552379,-2960.823768,-8734.430116,-306.438199
549.552701,-3108.864956,-9918.759623,-1225.752797
549.553024,-4737.318029,-10584.944971,-2604.724693
549.553346,-5921.647536,-11695.253884,-1838.629195
549.553668,-5625.565159,-11843.295072,1608.800546
549.553990,-4219.173869,-7920.203579,2528.115143
549.554313,-592.164754,-6291.750507,-919.314598
549.554635,2368.659014,-7846.182985,-2221.676944
549.554957,2590.720797,-7105.977043,1455.581446
549.555280,3034.844362,-6217.729913,3064.381992
549.555602,3478.967927,-8808.450710,-306.438199
549.555924,3775.050304,-11251.130318,-2757.943793
549.556247,1776.494261,-8734.430116,-919.314598
549.556569,0.000000,-7179.997637,-306.438199
549.556891,-1110.308913,-10658.965565,-2145.067394
549.557213,-2812.782580,-12879.583391,-1378.971896
549.557536,-4293.194464,-10955.047942,0.000000
549.557858,-4367.215058,-10510.924376,-1072.533697
549.558180,-2442.679609,-12287.418637,-2221.676944
549.558503,0.000000,-11473.192101,-766.095498
549.558825,1850.514855,-7476.080014,689.485948
549.559147,3923.091493,-7179.997637,229.828649
549.559470,5477.523971,-7476.080014,0.000000
549.559792,5403.503377,-5181.441594,-766.095498
549.560114,3552.988522,-4737.318029,-3064.381992
549.560436,1184.329507,-8216.285956,-4596.572988
549.560759,-1110.308913,-12287.418637,-3064.381992
549.561081,-3997.112087,-12657.521608,-1072.533697
549.561403,-6439.791695,-13027.624579,-2145.067394
549.561726,-7179.997637,-13841.851115,-2604.724693
549.562048,-6587.832884,-11621.233289,-2604.724693
549.562370,-5107.421000,-9030.512492,-5209.449386
549.562692,-3775.050304,-10362.883188,-6358.592633
549.563015,-2516.700203,-11251.130318,-1378.971896
549.563337,-2146.597232,-7846.182985,1762.019645
549.563659,-1258.350101,-6883.915261,-919.314598
549.563982,370.102971,-9104.533087,-2298.286494
549.564304,1702.473667,-8808.450710,-536.266849
549.564626,3182.885551,-4367.215058,-2451.505594
549.564949,4737.318029,-5625.565159,-4903.011187
549.565271,5625.565159,-10066.800811,-2681.334243
549.565593,4589.276840,-9770.718434,1838.629195
549.565915,1776.494261,-7105.977043,995.924147
549.566238,-1702.473667,-9696.697840,-2451.505594
549.566560,-3627.009116,-13101.645173,-3064.381992
549.566882,-3849.070898,-11325.150913,-2757.943793
549.567205,-3330.926739,-8882.471304,-4903.011187
549.567527,-1776.494261,-9400.615463,-2987.772442
549.567849,962.267725,-8364.327145,536.266849
549.568171,3923.091493,-5699.585753,0.000000
549.568494,4811.338623,-6069.688724,-2451.505594
549.568816,3627.009116,-8438.347739,-2298.286494
549.569138,1332.370696,-9178.553681,-2374.896044
549.569461,592.164754,-10288.862594,-3140.991542
549.569783,666.185348,-11473.192101,-3447.429741
549.570105,-814.226536,-9622.677246,-2987.772442
549.570428,-1776.494261,-8068.244768,-2681.334243
549.570750,-2294.638420,-9252.574275,-2451.505594
549.571072,-3923.091493,-10732.986159,-2834.553343
549.571394,-5255.462188,-11177.109724,-2757.943793
549.571717,-4959.379811,-12287.418637,-4290.134789
549.572039,-3034.844362,-13841.851115,-4519.963438
549.572361,-1258.350101,-12139.377449,-1608.800546
549.572684,74.020594,-9400.615463,229.828649
549.573006,1110.308913,-9178.553681,0.000000
549.573328,2590.720797,-10066.800811,-766.095498
549.573651,2368.659014,-7994.224174,-612.876398
549.573973,1850.514855,-7105.977043,-1838.629195
549.574295,2442.679609,-7550.100608,-2757.943793
549.574617,2368.659014,-9030.512492,-1532.190996
549.574940,666.185348,-8364.327145,612.876398
549.575262,-1776.494261,-8956.491898,-383.047749
549.575584,-4737.318029,-12213.398043,-1532.190996
549.575907,-7402.059420,-13175.665768,153.219100
549.576229,-7328.038826,-12065.356855,-689.485948
549.576551,-4885.359217,-11251.130318,-3677.258390
549.576873,-666.185348,-9770.718434,-2298.286494
549.577196,2960.823768,-5699.585753,1762.019645
549.577518,4515.256246,-3108.864956,2834.553343
549.577840,3478.967927,-6809.894666,2757.943793
549.578163,2368.659014,-8438.347739,3140.991542
549.578485,962.267725,-7920.203579,0.000000
549.578807,592.164754,-8956.491898,-4596.572988
549.579130,1924.535449,-11991.336260,-2911.162892
549.579452,2590.720797,-8808.450710,2145.067394
549.579774,1850.514855,-5255.462188,2987.772442
549.580096,0.000000,-7179.997637,1838.629195
549.580419,-2146.597232,-9844.739029,1302.362347
549.580741,-4959.379811,-10584.944971,-842.705048
549.581063,-5847.626942,-11473.192101,-3217.601092
549.581386,-4589.276840,-13545.768739,-3370.820191
549.581708,-1628.453072,-11177.109724,306.438199
549.582030,1406.391290,-6143.709319,2834.553343
549.582352,3330.926739,-5107.421000,1532.190996
549.582675,2738.761985,-8142.265362,229.828649
549.582997,1036.288319,-7920.203579,-229.828649
549.583319,-740.205942,-8660.409521,-3294.210641
549.583642,-814.226536,-12139.377449,-6588.421283
549.583964,592.164754,-13249.686362,-3447.429741
549.584286,888.247130,-9178.553681,383.047749
549.584609,148.041188,-6439.791695,153.219100
549.584931,-1554.432478,-9622.677246,-1072.533697
549.585253,-3034.844362,-11843.295072,-1455.581446
549.585575,-5033.400406,-12287.418637,-4136.915689
549.585898,-5921.647536,-13915.871710,-5209.449386
549.586220,-3923.091493,-13693.809927,-2834.553343
549.586542,666.185348,-9030.512492,-1225.752797
549.586865,4589.276840,-5033.400406,-1455.581446
549.587187,6365.771101,-4737.318029,-383.047749
549.587509,4885.359217,-4811.338623,229.828649
549.587832,2664.741391,-5995.668130,-1915.238745
549.588154,592.164754,-10140.821405,-5209.449386
549.588476,-1332.370696,-13693.809927,-5439.278036
549.588798,-2812.782580,-13175.665768,-3217.601092
549.589121,-2590.720797,-10214.842000,-2451.505594
549.589443,-1628.453072,-9622.677246,-2911.162892
549.589765,-370.102971,-10214.842000,-3064.381992
549.590088,-1480.411884,-8068.244768,-2374.896044
549.590410,-3552.988522,-8956.491898,-4673.182538
549.590732,-3330.926739,-12509.480420,-4826.401637
549.591054,-2072.576638,-12435.459826,-2604.724693
549.591377,-888.247130,-9326.594869,-1608.800546
549.591699,666.185348,-7624.121203,-842.705048
549.592021,2294.638420,-7476.080014,-383.047749
549.592344,3256.906145,-4737.318029,-459.657299
549.592666,2960.823768,-4515.256246,-2374.896044
549.592988,2368.659014,-7476.080014,-3524.039291
549.593311,888.247130,-8142.265362,-2374.896044
549.593633,-814.226536,-8438.347739,-2068.457845
549.593955,-2516.700203,-10510.924376,-2068.457845
549.594277,-3552.988522,-13397.727550,-2298.286494
549.594600,-4811.338623,-12065.356855,-1225.752797
549.594922,-4071.132681,-9918.759623,-1762.019645
549.595244,-1998.556043,-9844.739029,-3677.258390
549.595567,740.205942,-9326.594869,-3294.210641
549.595889,2368.659014,-7698.141797,-383.047749
549.596211,2960.823768,-8216.285956,536.266849
549.596534,2590.720797,-10140.821405,536.266849
549.596856,1776.494261,-9474.636058,995.924147
549.597178,1184.329507,-7994.224174,-1302.362347
549.597501,888.247130,-8068.244768,-3524.039291
549.597823,740.205942,-8290.306550,-2145.067394
549.598145,-148.041188,-7105.977043,229.828649
549.598468,-1036.288319,-7476.080014,1455.581446
549.598790,-2368.659014,-11029.068536,-536.266849
549.599113,-4367.215058,-13323.706956,0.000000
549.599435,-5551.544565,-12213.398043,-995.924147
549.599757,-4663.297435,-12287.418637,-2604.724693
549.600080,-1554.432478,-12065.356855,-2604.724693
549.600402,1554.432478,-9178.553681,76.609550
549.600724,3108.864956,-5921.647536,1455.581446
549.601047,3627.009116,-7698.141797,1302.362347
549.601369,3256.906145,-10066.800811,766.095498
549.601691,1480.411884,-9030.512492,-689.485948
549.602014,-296.082377,-7846.182985,-2298.286494
549.602336,-518.144159,-8882.471304,-1838.629195
549.602658,148.041188,-7772.162391,-459.657299
549.602981,-592.164754,-5625.565159,306.438199
549.603303,-1776.494261,-8512.368333,-689.485948
549.603625,-3923.091493,-11695.253884,612.876398
549.603948,-5255.462188,-13249.686362,0.000000
549.604270,-5181.441594,-12287.418637,-2987.772442
549.604592,-3404.947333,-12287.418637,-4673.182538
549.604915,74.020594,-9770.718434,-1378.971896
549.605237,3997.112087,-5033.400406,383.047749
549.605560,6365.771101,-5403.503377,-689.485948
549.605882,4959.379811,-8956.491898,-153.219100
549.606204,1628.453072,-9918.759623,1302.362347
549.606527,-1850.514855,-9474.636058,-689.485948
549.606849,-1480.411884,-10955.047942,-4443.353888
549.607171,222.061783,-11251.130318,-4903.011187
549.607494,1554.432478,-8068.244768,-1838.629195
549.607816,-370.102971,-5329.482782,1149.143247
549.608138,-1628.453072,-7031.956449,1378.971896
549.608461,-3627.009116,-9474.636058,-1378.971896
549.608783,-4293.194464,-11399.171507,-4213.525239
549.609105,-4515.256246,-13175.665768,-6741.640382
549.609428,-4145.153275,-12953.603985,-4136.915689
549.609750,-1702.473667,-9178.553681,-153.219100
549.610072,1184.329507,-6069.688724,459.657299
549.610395,3627.009116,-7031.956449,-536.266849
549.610717,3330.926739,-7031.956449,-1072.533697
549.611039,444.123565,-5181.441594,-2834.553343
549.611362,-1998.556043,-8068.244768,-5362.668486
549.611684,-1850.514855,-13027.624579,-4979.620737
549.612006,-1702.473667,-12731.542202,-2681.334243
549.612329,-1924.535449,-9992.780217,-919.314598
549.612651,-1924.535449,-8956.491898,-1378.971896
