#time,accel_x,accel_y,accel_z
409.603133,0.000000,-9104.533087,-1378.971896
409.603455,-296.082377,-9548.656652,-1072.533697
409.603777,148.041188,-9770.718434,-919.314598
409.604099,-370.102971,-9548.656652,-1302.362347
409.604421,-296.082377,-9696.697840,-1072.533697
409.604742,-296.082377,-9770.718434,-1225.752797
409.605064,-222.061783,-9178.553681,-1302.362347
409.605386,74.020594,-9104.533087,-1072.533697
409.605708,0.000000,-9104.533087,-1378.971896
409.606030,0.000000,-9178.553681,-1302.362347
409.606352,0.000000,-9104.533087,-1302.362347
409.606674,0.000000,-9400.615463,-1225.752797
409.606995,0.000000,-9548.656652,-842.705048
409.607317,-666.185348,-9474.636058,-1455.581446
409.607639,-518.144159,-9474.636058,-1455.581446
409.607961,-148.041188,-9474.636058,-1532.190996
409.608283,0.000000,-9326.594869,-1532.190996
409.608605,0.000000,-8882.471304,-1915.238745
409.608927,0.000000,-9104.533087,-1455.581446
409.609248,-370.102971,-9326.594869,-1532.190996
409.609570,-444.123565,-9474.636058,-1532.190996
409.609892,-518.144159,-9622.677246,-1455.581446
409.610214,-370.102971,-9474.636058,-1608.800546
409.610536,-666.185348,-9252.574275,-1455.581446
409.610858,-518.144159,-9252.574275,-1378.971896
409.611180,-444.123565,-9326.594869,-1378.971896
409.611501,-518.144159,-9252.574275,-1455.581446
409.611823,-370.102971,-9400.615463,-1532.190996
409.612145,-148.041188,-9474.636058,-1608.800546
409.612467,-592.164754,-9548.656652,-1532.190996
409.612789,-814.226536,-9252.574275,-1455.581446
409.613111,-592.164754,-9474.636058,-1685.410096
409.613433,-518.144159,-9548.656652,-1838.629195
409.613754,-740.205942,-9400.615463,-1532.190996
409.614076,-444.123565,-9474.636058,-1608.800546
409.614398,-518.144159,-9326.594869,-1302.362347
409.614720,-592.164754,-9474.636058,-1608.800546
409.615042,-518.144159,-9400.615463,-1532.190996
409.615364,-592.164754,-9400.615463,-1838.629195
409.615686,-518.144159,-9326.594869,-1762.019645
409.616007,-444.123565,-9548.656652,-1378.971896
409.616329,-518.144159,-9622.677246,-1455.581446
409.616651,-518.144159,-9622.677246,-1532.190996
409.616973,-666.185348,-9326.594869,-1378.971896
409.617295,-296.082377,-9326.594869,-1455.581446
409.617617,0.000000,-8956.491898,-1685.410096
409.617939,-296.082377,-9030.512492,-1608.800546
409.618260,-296.082377,-9400.615463,-1608.800546
409.618582,-370.102971,-9622.677246,-1685.410096
409.618904,-444.123565,-9548.656652,-1378.971896
409.619226,-222.061783,-9696.697840,-1608.800546
409.619548,-444.123565,-9474.636058,-1378.971896
409.619870,-370.102971,-9326.594869,-1149.143247
409.620192,0.000000,-9104.533087,-1455.581446
409.620513,0.000000,-9178.553681,-1455.581446
409.620835,222.061783,-9252.574275,-1302.362347
409.621157,444.123565,-9326.594869,-1685.410096
409.621479,-148.041188,-9548.656652,-1378.971896
409.621801,-296.082377,-9548.656652,-1149.143247
409.622123,-444.123565,-9474.636058,-1149.143247
409.622445,-222.061783,-9326.594869,-1072.533697
409.622766,0.000000,-9030.512492,-995.924147
409.623088,-74.020594,-8808.450710,-1608.800546
409.623410,-74.020594,-9252.574275,-1685.410096
409.623732,-296.082377,-9326.594869,-1225.752797
409.624054,-222.061783,-9696.697840,-1302.362347
409.624376,0.000000,-9474.636058,-1225.752797
409.624698,-296.082377,-9178.553681,-1302.362347
409.625019,-222.061783,-9474.636058,-1378.971896
409.625341,-370.102971,-9178.553681,-1378.971896
409.625663,-296.082377,-9030.512492,-1532.190996
409.625985,-370.102971,-9104.533087,-1378.971896
409.626307,-814.226536,-9178.553681,-1302.362347
409.626629,-592.164754,-9252.574275,-1225.752797
409.626951,-518.144159,-9400.615463,-1225.752797
409.627272,-518.144159,-9326.594869,-1455.581446
409.627594,-518.144159,-9252.574275,-1532.190996
409.627916,-444.123565,-9252.574275,-1532.190996
409.628238,-740.205942,-9104.533087,-1225.752797
409.628560,-518.144159,-9400.615463,-1455.581446
409.628882,-888.247130,-9474.636058,-1455.581446
409.629204,-814.226536,-9474.636058,-1608.800546
409.629525,-592.164754,-9400.615463,-995.924147
409.629847,-518.144159,-9326.594869,-1225.752797
409.630169,444.123565,-9400.615463,-1762.019645
409.630491,888.247130,-9770.718434,-1762.019645
409.630813,1110.308913,-9918.759623,-1225.752797
409.631135,592.164754,-9770.718434,-612.876398
409.631457,0.000000,-9252.574275,-1149.143247
409.631778,-444.123565,-9326.594869,-1302.362347
409.632100,-814.226536,-9548.656652,-1838.629195
409.632422,-1480.411884,-9104.533087,-1685.410096
409.632744,-1184.329507,-8734.430116,-1915.238745
409.633066,-148.041188,-8808.450710,-2451.505594
409.633388,0.000000,-9770.718434,-1302.362347
409.633710,-148.041188,-10288.862594,-995.924147
409.634031,-370.102971,-9474.636058,-1225.752797
409.634353,740.205942,-9548.656652,-1838.629195
409.634675,1628.453072,-10658.965565,-2374.896044
409.634997,2442.679609,-10732.986159,-1608.800546
409.635319,1406.391290,-9252.574275,-459.657299
409.635641,2294.638420,-8512.368333,-536.266849
409.635963,3552.988522,-9252.574275,-1455.581446
409.636284,3923.091493,-9474.636058,-995.924147
409.636606,2960.823768,-8660.409521,0.000000
409.636928,3034.844362,-8068.244768,-153.219100
409.637250,3330.926739,-8364.327145,-689.485948
409.637572,3330.926739,-9252.574275,-995.924147
409.637894,2886.803174,-8586.388927,-919.314598
409.638216,3108.864956,-8068.244768,-1149.143247
409.638537,3775.050304,-8068.244768,-2221.676944
409.638859,4515.256246,-10288.862594,-1838.629195
409.639181,4145.153275,-10658.965565,-919.314598
409.639503,3849.070898,-10214.842000,-1455.581446
409.639825,3997.112087,-10436.903782,-2221.676944
409.640147,4737.318029,-10658.965565,-1762.019645
409.640468,4441.235652,-9326.594869,-2145.067394
409.640790,3775.050304,-8956.491898,-2374.896044
409.641112,4219.173869,-9622.677246,-1302.362347
409.641434,4589.276840,-9178.553681,-995.924147
409.641756,5033.400406,-8438.347739,-995.924147
409.642078,5699.585753,-8956.491898,-1991.848295
409.642400,6069.688724,-9474.636058,-919.314598
409.642721,5625.565159,-8734.430116,-919.314598
409.643043,5329.482782,-7920.203579,-1532.190996
409.643365,4959.379811,-8142.265362,-1685.410096
409.643687,3849.070898,-9326.594869,-1991.848295
409.644009,2368.659014,-10881.027347,-2681.334243
409.644331,740.205942,-11843.295072,-2145.067394
409.644653,0.000000,-12657.521608,-1149.143247
409.644974,-296.082377,-13027.624579,-689.485948
409.645296,-444.123565,-12805.562797,-459.657299
409.645618,-592.164754,-11769.274478,0.000000
409.645940,-518.144159,-10658.965565,842.705048
409.646262,-222.061783,-9770.718434,919.314598
409.646584,-444.123565,-8882.471304,1455.581446
409.646906,-1258.350101,-6809.894666,1991.848295
409.647227,-1480.411884,-5329.482782,459.657299
409.647549,-518.144159,-5107.421000,-1532.190996
409.647871,1036.288319,-4811.338623,-2834.553343
409.648193,2590.720797,-5107.421000,-3524.039291
409.648515,4367.215058,-5403.503377,-3830.477490
409.648837,6143.709319,-7550.100608,-4596.572988
409.649159,7254.018232,-9992.780217,-4596.572988
409.649480,6735.874072,-12805.562797,-4136.915689
409.649802,5847.626942,-14285.974681,-3217.601092
409.650124,5699.585753,-15026.180623,-2757.943793
409.650446,5921.647536,-15100.201217,-1532.190996
409.650768,4367.215058,-13027.624579,689.485948
409.651090,2368.659014,-11177.109724,2451.505594
409.651412,888.247130,-8808.450710,3217.601092
409.651733,740.205942,-6439.791695,2681.334243
409.652055,444.123565,-4811.338623,2298.286494
409.652377,-148.041188,-3404.947333,2374.896044
409.652699,-370.102971,-3552.988522,1915.238745
409.653021,0.000000,-5625.565159,612.876398
409.653343,518.144159,-7031.956449,-153.219100
409.653665,592.164754,-7550.100608,-1762.019645
409.653986,74.020594,-8586.388927,-4673.182538
409.654308,296.082377,-11991.336260,-6128.763984
409.654630,1332.370696,-14508.036463,-5975.544884
409.654952,1628.453072,-17098.757260,-6052.154434
409.655274,1332.370696,-17690.922014,-5286.058936
409.655596,1480.411884,-15840.407159,-2145.067394
409.655918,2368.659014,-12139.377449,-1685.410096
409.656239,3701.029710,-9474.636058,-3447.429741
409.656561,5329.482782,-8586.388927,-1608.800546
409.656883,5995.668130,-7920.203579,1225.752797
409.657205,6365.771101,-6291.750507,2911.162892
409.657527,7624.121203,-6069.688724,3753.867940
409.657849,8956.491898,-4737.318029,3677.258390
409.658171,8956.491898,-4737.318029,2451.505594
409.658492,6661.853478,-5329.482782,2681.334243
409.658814,3923.091493,-4441.235652,2834.553343
409.659136,3108.864956,-5995.668130,-919.314598
409.659458,2886.803174,-9918.759623,-5209.449386
409.659780,666.185348,-10955.047942,-4443.353888
409.660102,-1628.453072,-11399.171507,-3830.477490
409.660424,-2516.700203,-15026.180623,-4060.306139
409.660745,-3034.844362,-17098.757260,-3983.696590
409.661067,-4071.132681,-14656.077652,-4673.182538
409.661389,-3701.029710,-10436.903782,-5439.278036
409.661711,-888.247130,-9770.718434,-4903.011187
409.662033,1628.453072,-9474.636058,-4060.306139
409.662355,3330.926739,-7920.203579,-2604.724693
409.662677,5329.482782,-7031.956449,-229.828649
409.662998,7402.059420,-8290.306550,1762.019645
409.663320,7994.224174,-9178.553681,1762.019645
409.663642,7179.997637,-8438.347739,1685.410096
409.663964,6291.750507,-6883.915261,842.705048
409.664286,5921.647536,-7402.059420,612.876398
409.664608,4663.297435,-8882.471304,459.657299
409.664930,1406.391290,-8808.450710,1302.362347
409.665251,-1406.391290,-8438.347739,842.705048
409.665573,-2072.576638,-9992.780217,-459.657299
409.665895,-1110.308913,-11917.315666,-2374.896044
409.666217,-666.185348,-10658.965565,-3140.991542
409.666539,-444.123565,-9844.739029,-2298.286494
409.666861,1332.370696,-9696.697840,-919.314598
409.667183,3404.947333,-9252.574275,-1838.629195
409.667504,4737.318029,-8882.471304,-3753.867940
409.667826,5033.400406,-8586.388927,-3370.820191
409.668148,4811.338623,-8216.285956,-2681.334243
409.668470,4145.153275,-8142.265362,-1838.629195
409.668792,2960.823768,-8142.265362,-1685.410096
409.669114,1776.494261,-7846.182985,-766.095498
409.669436,962.267725,-7624.121203,-1302.362347
409.669757,1184.329507,-8290.306550,-2604.724693
409.670079,1110.308913,-10288.862594,-3140.991542
409.670401,444.123565,-11325.150913,-842.705048
409.670723,-222.061783,-9400.615463,2528.115143
409.671045,0.000000,-8068.244768,1915.238745
409.671367,1480.411884,-9474.636058,-1455.581446
409.671689,3478.967927,-11029.068536,-3447.429741
409.672010,4145.153275,-12731.542202,-3140.991542
409.672332,3849.070898,-13619.789333,-919.314598
409.672654,5181.441594,-14285.974681,2451.505594
409.672976,6513.812290,-12805.562797,2757.943793
409.673298,6883.915261,-9474.636058,306.438199
409.673620,7328.038826,-7328.038826,-842.705048
409.673942,7254.018232,-7402.059420,-2604.724693
409.674263,8142.265362,-8808.450710,-3830.477490
409.674585,9326.594869,-8734.430116,-1455.581446
409.674907,8438.347739,-6661.853478,2221.676944
409.675229,6439.791695,-6809.894666,3140.991542
409.675551,4145.153275,-5921.647536,1455.581446
409.675873,592.164754,-4959.379811,-1991.848295
409.676195,-2738.761985,-4959.379811,-4366.744339
409.676516,-4737.318029,-7179.997637,-4136.915689
409.676838,-4663.297435,-10732.986159,-3753.867940
409.677160,-4145.153275,-11843.295072,-4060.306139
409.677482,-3627.009116,-11843.295072,-2451.505594
409.677804,-2960.823768,-12287.418637,-1149.143247
409.678126,-2294.638420,-12953.603985,-2834.553343
409.678448,-1110.308913,-13027.624579,-4290.134789
409.678769,222.061783,-12139.377449,-4290.134789
409.679085,2072.576638,-12657.521608,-2987.772442
409.679407,4441.235652,-13323.706956,-2145.067394
409.679729,7031.956449,-12287.418637,-306.438199
409.680051,8660.409521,-9326.594869,2221.676944
409.680373,9474.636058,-6291.750507,3677.258390
409.680695,10066.800811,-5477.523971,3600.648841
409.681017,9770.718434,-6735.874072,0.000000
409.681339,9030.512492,-7920.203579,-1302.362347
409.681661,6513.812290,-6439.791695,919.314598
409.681983,2590.720797,-5995.668130,2451.505594
409.682305,-666.185348,-6439.791695,536.266849
409.682627,-2590.720797,-7179.997637,-1838.629195
409.682949,-4811.338623,-7179.997637,-4519.963438
409.683271,-7550.100608,-8956.491898,-5362.668486
409.683593,-9770.718434,-11695.253884,-4443.353888
409.683915,-10807.006753,-12435.459826,-4060.306139
409.684237,-10881.027347,-13471.748144,-4596.572988
409.684559,-10362.883188,-13767.830521,-4443.353888
409.684880,-10288.862594,-13249.686362,-4213.525239
409.685202,-9178.553681,-12065.356855,-3677.258390
409.685524,-5033.400406,-10881.027347,-1991.848295
409.685846,-1184.329507,-8586.388927,-2145.067394
409.686168,2960.823768,-7328.038826,-1149.143247
409.686490,6587.832884,-6513.812290,1455.581446
409.686812,8882.471304,-5107.421000,2987.772442
409.687134,9326.594869,-3552.988522,2834.553343
409.687456,8956.491898,-4885.359217,2451.505594
409.687778,7254.018232,-6809.894666,842.705048
409.688100,5921.647536,-7179.997637,-1455.581446
409.688422,5551.544565,-8068.244768,-2221.676944
409.688744,5033.400406,-10288.862594,-1149.143247
409.689066,3034.844362,-10955.047942,0.000000
409.689388,592.164754,-11621.233289,-1149.143247
409.689710,-2590.720797,-13323.706956,-1455.581446
409.690032,-5107.421000,-14211.954086,-1838.629195
409.690354,-7402.059420,-13175.665768,-3830.477490
409.690675,-7994.224174,-11769.274478,-4673.182538
409.690997,-7105.977043,-11695.253884,-3294.210641
409.691319,-5329.482782,-10807.006753,-1455.581446
409.691641,-3627.009116,-8882.471304,76.609550
409.691963,-1184.329507,-8142.265362,76.609550
409.692285,1406.391290,-7402.059420,-306.438199
409.692607,2294.638420,-6883.915261,-919.314598
409.692929,888.247130,-6217.729913,153.219100
409.693251,518.144159,-5107.421000,229.828649
409.693573,1702.473667,-5773.606348,-1762.019645
409.693895,3034.844362,-6957.935855,-3600.648841
409.694217,2886.803174,-7254.018232,-3600.648841
409.694539,2146.597232,-8364.327145,-3294.210641
409.694861,2516.700203,-12065.356855,-2604.724693
409.695183,2516.700203,-15544.324782,-1455.581446
409.695505,888.247130,-15100.201217,-1149.143247
409.695827,-666.185348,-13397.727550,-1302.362347
409.696149,-666.185348,-13175.665768,-1302.362347
409.696470,814.226536,-13545.768739,-1838.629195
409.696792,1332.370696,-11621.233289,-459.657299
409.697114,2516.700203,-9474.636058,1991.848295
409.697436,4071.132681,-7254.018232,2604.724693
409.697758,4515.256246,-6661.853478,2911.162892
409.698080,3627.009116,-6069.688724,1532.190996
409.698402,1998.556043,-3775.050304,0.000000
409.698724,666.185348,-2812.782580,-1915.238745
409.699046,-888.247130,-5181.441594,-2068.457845
409.699368,-3330.926739,-6957.935855,-1072.533697
409.699690,-5625.565159,-8438.347739,-2987.772442
409.700012,-7402.059420,-9030.512492,-5592.497135
409.700334,-8438.347739,-10732.986159,-5822.325785
409.700656,-9548.656652,-12361.439231,-5745.716235
409.700978,-11103.089130,-13619.789333,-5056.230287
409.701300,-9918.759623,-14137.933492,-4366.744339
409.701622,-6957.935855,-13915.871710,-3907.087040
409.701944,-3182.885551,-12805.562797,-3677.258390
409.702265,0.000000,-11547.212695,-1149.143247
409.702587,2220.617826,-8734.430116,612.876398
409.702909,4737.318029,-6217.729913,995.924147
409.703231,7328.038826,-5403.503377,1149.143247
409.703553,8216.285956,-5699.585753,1608.800546
409.703875,7624.121203,-5477.523971,1838.629195
409.704197,6809.894666,-5921.647536,1149.143247
409.704519,6143.709319,-7328.038826,1455.581446
409.704841,5403.503377,-8586.388927,0.000000
409.705163,3775.050304,-8956.491898,-2221.676944
409.705485,1628.453072,-8512.368333,-3830.477490
409.705807,-518.144159,-9770.718434,-2834.553343
409.706129,-3701.029710,-12065.356855,-2681.334243
409.706451,-6661.853478,-14582.057057,-3447.429741
409.706773,-9178.553681,-14656.077652,-5132.839837
409.707095,-8586.388927,-14878.139434,-5515.887586
409.707417,-5625.565159,-13323.706956,-4979.620737
409.707738,-2442.679609,-11029.068536,-3217.601092
409.708060,-444.123565,-9622.677246,-1225.752797
409.708382,1110.308913,-9252.574275,842.705048
409.708704,1036.288319,-9178.553681,1455.581446
409.709026,0.000000,-7624.121203,766.095498
409.709348,-666.185348,-5699.585753,-536.266849
409.709670,0.000000,-4737.318029,-1608.800546
409.709992,962.267725,-5033.400406,-306.438199
409.710314,1258.350101,-5699.585753,2068.457845
409.710636,1406.391290,-6883.915261,1762.019645
409.710958,1036.288319,-7772.162391,-842.705048
409.711280,74.020594,-8808.450710,-2528.115143
409.711602,-1850.514855,-10362.883188,-3064.381992
409.711924,-4145.153275,-13471.748144,-2757.943793
409.712246,-4219.173869,-14285.974681,-2528.115143
409.712568,-1702.473667,-14508.036463,-1915.238745
409.712890,1554.432478,-14063.912898,-1455.581446
409.713212,4293.194464,-12139.377449,229.828649
409.713533,5329.482782,-9548.656652,306.438199
409.713855,6069.688724,-7698.141797,536.266849
409.714177,5847.626942,-5921.647536,842.705048
409.714499,4885.359217,-4737.318029,689.485948
409.714821,2590.720797,-4885.359217,0.000000
409.715143,370.102971,-6291.750507,153.219100
409.715465,-1480.411884,-6513.812290,842.705048
409.715787,-1998.556043,-6587.832884,76.609550
409.716109,-1850.514855,-7328.038826,-1762.019645
409.716431,-2960.823768,-7476.080014,-2604.724693
409.716753,-5255.462188,-7550.100608,-2374.896044
409.717075,-7846.182985,-9844.739029,-2911.162892
409.717397,-9178.553681,-12879.583391,-4290.134789
409.717719,-8512.368333,-14434.015869,-5362.668486
409.718041,-6217.729913,-15322.262999,-5592.497135
409.718363,-2368.659014,-14211.954086,-4366.744339
409.718685,1850.514855,-12879.583391,-2528.115143
409.719007,5477.523971,-11621.233289,-842.705048
409.719328,7994.224174,-9474.636058,153.219100
409.719650,8216.285956,-7624.121203,459.657299
409.719972,6217.729913,-6883.915261,153.219100
409.720294,4145.153275,-7476.080014,306.438199
409.720616,3775.050304,-6883.915261,-306.438199
409.720938,3552.988522,-7105.977043,-1302.362347
409.721260,2664.741391,-7994.224174,76.609550
409.721582,296.082377,-8882.471304,1762.019645
409.721904,-2072.576638,-8216.285956,76.609550
409.722226,-4515.256246,-7698.141797,-2451.505594
409.722548,-6069.688724,-9400.615463,-4673.182538
409.722870,-8216.285956,-12139.377449,-4903.011187
409.723192,-9474.636058,-13693.809927,-3677.258390
409.723514,-8290.306550,-13841.851115,-2604.724693
409.723836,-3701.029710,-14063.912898,-2528.115143
409.724158,296.082377,-12509.480420,-1838.629195
409.724480,2960.823768,-10288.862594,-1455.581446
409.724802,3034.844362,-7698.141797,-919.314598
409.725123,2220.617826,-6291.750507,0.000000
409.725445,1258.350101,-5403.503377,536.266849
409.725767,222.061783,-4367.215058,-1149.143247
409.726089,888.247130,-4737.318029,-2757.943793
409.726411,518.144159,-7105.977043,-1685.410096
409.726733,-444.123565,-7994.224174,2068.457845
409.727055,-1776.494261,-6143.709319,2374.896044
409.727377,-1776.494261,-6439.791695,459.657299
409.727699,-3256.906145,-7846.182985,-2451.505594
409.728021,-6439.791695,-8956.491898,-3524.039291
409.728343,-8808.450710,-11695.253884,-3064.381992
409.728665,-7179.997637,-14434.015869,-3064.381992
409.728987,-3034.844362,-14804.118840,-2911.162892
409.729309,1406.391290,-14285.974681,-2451.505594
409.729631,5107.421000,-12879.583391,-229.828649
409.729953,7772.162391,-10362.883188,0.000000
409.730275,8956.491898,-8734.430116,-995.924147
409.730596,8882.471304,-7179.997637,-1302.362347
409.730918,6291.750507,-5995.668130,-459.657299
409.731240,3330.926739,-5329.482782,-1225.752797
409.731562,2072.576638,-7698.141797,-2681.334243
409.731884,1110.308913,-9252.574275,-3064.381992
409.732206,-740.205942,-8734.430116,-536.266849
409.732528,-3478.967927,-7846.182985,1072.533697
409.732850,-3997.112087,-8290.306550,-995.924147
409.733172,-5107.421000,-9030.512492,-3370.820191
409.733494,-7105.977043,-11029.068536,-4596.572988
409.733816,-8660.409521,-12435.459826,-3983.696590
409.734138,-7698.141797,-11991.336260,-3140.991542
409.734460,-4737.318029,-12509.480420,-2681.334243
409.734782,-962.267725,-13545.768739,-1991.848295
409.735104,2664.741391,-13101.645173,-1608.800546
409.735426,5329.482782,-11991.336260,-1149.143247
409.735748,7179.997637,-11325.150913,0.000000
409.736070,7105.977043,-8734.430116,153.219100
409.736391,5551.544565,-5995.668130,459.657299
409.736713,4663.297435,-5033.400406,612.876398
409.737035,3256.906145,-5477.523971,-383.047749
409.737357,1554.432478,-6217.729913,-919.314598
409.737679,-370.102971,-6883.915261,76.609550
409.738001,-2294.638420,-7920.203579,1378.971896
409.738323,-3775.050304,-8734.430116,383.047749
409.738645,-5255.462188,-9030.512492,-1378.971896
409.738967,-6883.915261,-10140.821405,-2298.286494
409.739289,-7179.997637,-11621.233289,-2221.676944
409.739611,-6661.853478,-12583.501014,-2374.896044
409.739933,-4737.318029,-11473.192101,-1838.629195
409.740255,-1406.391290,-10510.924376,-1225.752797
409.740577,1850.514855,-10362.883188,-1302.362347
409.740899,4219.173869,-10362.883188,-612.876398
409.741221,4367.215058,-8660.409521,-766.095498
409.741543,4367.215058,-7105.977043,-383.047749
409.741865,2738.761985,-5995.668130,306.438199
409.742186,1776.494261,-5551.544565,0.000000
409.742508,592.164754,-5847.626942,-1608.800546
409.742830,-296.082377,-6513.812290,-1149.143247
409.743152,-1628.453072,-7328.038826,-612.876398
409.743474,-2072.576638,-8364.327145,0.000000
409.743796,-2886.803174,-9252.574275,-689.485948
409.744118,-4885.359217,-9622.677246,-1149.143247
409.744440,-6883.915261,-10807.006753,-1685.410096
409.744762,-7402.059420,-11843.295072,-2604.724693
409.745084,-5477.523971,-13545.768739,-4749.792088
409.745406,-3478.967927,-13471.748144,-4749.792088
409.745728,-1480.411884,-12953.603985,-2834.553343
409.746050,1998.556043,-12287.418637,-689.485948
409.746372,5181.441594,-10955.047942,-766.095498
409.746694,6957.935855,-9474.636058,-2298.286494
409.747016,6069.688724,-8734.430116,-2451.505594
409.747338,4441.235652,-8438.347739,-1608.800546
409.747660,2664.741391,-8438.347739,-1608.800546
409.747981,1702.473667,-8808.450710,-1302.362347
409.748303,740.205942,-8660.409521,-1072.533697
409.748625,-814.226536,-8290.306550,-612.876398
409.748947,-1924.535449,-8068.244768,-766.095498
409.749269,-3404.947333,-8956.491898,-689.485948
409.749591,-4959.379811,-8734.430116,-919.314598
409.749913,-6735.874072,-8956.491898,-1149.143247
409.750235,-7105.977043,-10140.821405,-2145.067394
409.750557,-6365.771101,-11325.150913,-2987.772442
409.750879,-4515.256246,-11769.274478,-3294.210641
409.751201,-1480.411884,-11325.150913,-2221.676944
409.751523,2294.638420,-10732.986159,-1455.581446
409.751845,5255.462188,-10436.903782,-306.438199
409.752167,5847.626942,-9030.512492,-229.828649
409.752489,5403.503377,-7624.121203,-689.485948
409.752811,4811.338623,-6809.894666,-919.314598
409.753133,4515.256246,-6735.874072,-2145.067394
409.753455,3627.009116,-6809.894666,-1302.362347
409.753776,1702.473667,-6513.812290,229.828649
409.754098,222.061783,-6809.894666,1455.581446
409.754420,-592.164754,-7994.224174,919.314598
409.754742,-2368.659014,-8882.471304,-995.924147
409.755064,-4219.173869,-9030.512492,-766.095498
409.755386,-5551.544565,-8808.450710,-612.876398
409.755708,-5255.462188,-9474.636058,-1378.971896
409.756030,-3923.091493,-10658.965565,-2604.724693
409.756352,-2294.638420,-10436.903782,-2834.553343
409.756674,-222.061783,-10658.965565,-2451.505594
409.756996,2368.659014,-11621.233289,-1838.629195
409.757318,3923.091493,-11769.274478,-2068.457845
409.757640,4589.276840,-11399.171507,-2221.676944
409.757962,3552.988522,-10066.800811,-2145.067394
409.758284,3478.967927,-9474.636058,-2221.676944
409.758606,3478.967927,-8512.368333,-4060.306139
409.758928,2442.679609,-7920.203579,-4060.306139
409.759249,222.061783,-7698.141797,-2451.505594
409.759571,-1702.473667,-8512.368333,-919.314598
409.759893,-3478.967927,-9474.636058,-1378.971896
409.760215,-4663.297435,-11325.150913,-2068.457845
409.760537,-6291.750507,-12657.521608,-2451.505594
409.760859,-6587.832884,-11399.171507,-1685.410096
409.761181,-5329.482782,-10140.821405,-2145.067394
409.761503,-2738.761985,-10214.842000,-3064.381992
409.761825,370.102971,-10584.944971,-1685.410096
409.762147,1998.556043,-10214.842000,-919.314598
409.762469,3256.906145,-10066.800811,-459.657299
409.762791,4515.256246,-11251.130318,-1149.143247
409.763113,4663.297435,-11843.295072,-1072.533697
409.763435,3256.906145,-10584.944971,-536.266849
409.763757,1628.453072,-7698.141797,0.000000
409.764079,1406.391290,-5921.647536,-1838.629195
409.764401,814.226536,-5551.544565,-2068.457845
409.764723,-1184.329507,-5773.606348,-1302.362347
409.765044,-3701.029710,-6587.832884,-689.485948
409.765366,-5477.523971,-7476.080014,-919.314598
409.765688,-6661.853478,-9474.636058,-1608.800546
409.766010,-7994.224174,-10807.006753,-1072.533697
409.766332,-8438.347739,-10362.883188,-612.876398
409.766654,-7328.038826,-9844.739029,-1532.190996
409.766976,-4737.318029,-10140.821405,-2604.724693
409.767298,-1406.391290,-9252.574275,-1915.238745
409.767620,814.226536,-8364.327145,-306.438199
409.767942,3627.009116,-7698.141797,-306.438199
409.768264,5477.523971,-7846.182985,-1072.533697
409.768586,5625.565159,-9030.512492,-995.924147
409.768908,4737.318029,-9326.594869,76.609550
409.769230,4219.173869,-8512.368333,-459.657299
409.769552,3330.926739,-7698.141797,-1149.143247
409.769874,2590.720797,-8290.306550,-1302.362347
409.770196,888.247130,-7550.100608,-1608.800546
409.770518,-444.123565,-6883.915261,-1838.629195
409.770839,-1554.432478,-9474.636058,-2987.772442
409.771161,-3849.070898,-10955.047942,-2374.896044
409.771483,-6143.709319,-11399.171507,-1225.752797
409.771805,-6587.832884,-11399.171507,-1991.848295
409.772127,-4811.338623,-12287.418637,-3294.210641
409.772449,-1924.535449,-12953.603985,-3830.477490
409.772771,0.000000,-11399.171507,-2757.943793
409.773093,1924.535449,-9474.636058,-995.924147
409.773415,3478.967927,-9252.574275,-1072.533697
409.773737,4589.276840,-9844.739029,-2681.334243
409.774059,4441.235652,-10436.903782,-3140.991542
409.774381,3849.070898,-9548.656652,-3294.210641
409.774703,3997.112087,-8882.471304,-2374.896044
409.775025,4367.215058,-9030.512492,-1838.629195
409.775347,3478.967927,-8882.471304,-1532.190996
409.775669,1258.350101,-8290.306550,-459.657299
409.775991,-1036.288319,-9104.533087,-612.876398
409.776313,-3034.844362,-10436.903782,-2374.896044
409.776634,-5033.400406,-11251.130318,-2757.943793
409.776956,-6439.791695,-10955.047942,-1838.629195
409.777278,-6143.709319,-10732.986159,-306.438199
409.777600,-3997.112087,-10658.965565,76.609550
409.777922,-1406.391290,-9770.718434,-229.828649
409.778244,444.123565,-8586.388927,-306.438199
409.778566,2146.597232,-7254.018232,0.000000
409.778888,3552.988522,-7846.182985,-612.876398
409.779210,3627.009116,-7846.182985,-229.828649
409.779531,1850.514855,-6883.915261,0.000000
409.779853,0.000000,-6365.771101,-536.266849
409.780175,-444.123565,-6957.935855,-1991.848295
409.780496,-1184.329507,-8290.306550,-3370.820191
409.780818,-2294.638420,-8586.388927,-2911.162892
409.781140,-3627.009116,-7920.203579,-995.924147
409.781461,-3182.885551,-9400.615463,-842.705048
409.781783,-2960.823768,-11251.130318,-1685.410096
409.782105,-4219.173869,-11473.192101,-1762.019645
409.782426,-5625.565159,-9622.677246,-842.705048
409.782748,-4515.256246,-9104.533087,-995.924147
409.783070,-1332.370696,-9696.697840,-2145.067394
409.783391,148.041188,-9474.636058,-1762.019645
409.783713,1702.473667,-9178.553681,536.266849
409.784035,4219.173869,-8882.471304,1685.410096
409.784357,6809.894666,-9252.574275,0.000000
409.784678,7105.977043,-8734.430116,-1532.190996
409.785000,5551.544565,-8290.306550,-1378.971896
409.785322,4367.215058,-7772.162391,-1378.971896
409.785643,3775.050304,-8216.285956,-2681.334243
409.785965,2146.597232,-9030.512492,-4060.306139
409.786287,-296.082377,-9844.739029,-4366.744339
409.786608,-2960.823768,-9992.780217,-3217.601092
409.786930,-4219.173869,-12213.398043,-3217.601092
409.787252,-5847.626942,-13767.830521,-3524.039291
409.787573,-7624.121203,-12805.562797,-3140.991542
409.787895,-8290.306550,-10881.027347,-3294.210641
409.788217,-6661.853478,-11473.192101,-2451.505594
409.788538,-4145.153275,-11621.233289,-2451.505594
409.788860,-2368.659014,-9770.718434,-1378.971896
409.789182,-296.082377,-8586.388927,0.000000
409.789504,2886.803174,-8142.265362,-153.219100
409.789825,5403.503377,-8512.368333,-1149.143247
409.790147,5255.462188,-7994.224174,-1225.752797
409.790469,4145.153275,-7328.038826,0.000000
409.790790,4293.194464,-7254.018232,-459.657299
409.791112,4589.276840,-8438.347739,-2451.505594
409.791434,3478.967927,-9696.697840,-2757.943793
409.791755,0.000000,-9326.594869,-1072.533697
409.792077,-1628.453072,-8956.491898,-1225.752797
409.792399,-2294.638420,-10955.047942,-2068.457845
409.792720,-3108.864956,-12139.377449,-2451.505594
409.793042,-5773.606348,-10362.883188,-995.924147
409.793364,-6809.894666,-9326.594869,-536.266849
409.793686,-4441.235652,-9844.739029,-995.924147
409.794007,-1998.556043,-9844.739029,-1225.752797
409.794329,-740.205942,-7920.203579,0.000000
409.794651,888.247130,-6291.750507,995.924147
409.794972,3478.967927,-7105.977043,459.657299
409.795294,3997.112087,-7105.977043,0.000000
409.795616,2590.720797,-6291.750507,153.219100
409.795937,740.205942,-5699.585753,-459.657299
409.796259,666.185348,-6513.812290,-2068.457845
409.796581,814.226536,-8438.347739,-3447.429741
409.796902,-518.144159,-9178.553681,-3217.601092
409.797224,-1924.535449,-9474.636058,-2145.067394
409.797546,-2590.720797,-10510.924376,-1455.581446
409.797867,-3256.906145,-12731.542202,-2451.505594
409.798189,-4441.235652,-13175.665768,-3140.991542
409.798511,-5699.585753,-12287.418637,-2834.553343
409.798833,-5033.400406,-11769.274478,-2374.896044
409.799154,-3034.844362,-11843.295072,-2068.457845
409.799476,-888.247130,-10955.047942,-1608.800546
409.799798,740.205942,-9326.594869,383.047749
409.800119,3108.864956,-8512.368333,1225.752797
409.800441,6365.771101,-8882.471304,-842.705048
409.800763,6883.915261,-8142.265362,-1225.752797
409.801084,5329.482782,-8068.244768,0.000000
409.801406,3627.009116,-7698.141797,-229.828649
409.801728,3034.844362,-7772.162391,-2528.115143
409.802049,1776.494261,-9400.615463,-3370.820191
409.802371,0.000000,-10288.862594,-3524.039291
409.802693,-2072.576638,-10362.883188,-2528.115143
409.803014,-2960.823768,-10807.006753,-2757.943793
409.803336,-4441.235652,-12361.439231,-2757.943793
409.803658,-6217.729913,-12879.583391,-1762.019645
409.803980,-8216.285956,-10807.006753,-2451.505594
409.804301,-7402.059420,-9918.759623,-2757.943793
409.804623,-5107.421000,-10732.986159,-3217.601092
409.804945,-2812.782580,-9844.739029,-1608.800546
409.805266,-1258.350101,-8068.244768,842.705048
409.805588,1628.453072,-6587.832884,2451.505594
409.805910,4663.297435,-6587.832884,229.828649
409.806231,5921.647536,-6661.853478,-153.219100
409.806553,4589.276840,-6217.729913,919.314598
409.806875,3552.988522,-5107.421000,536.266849
409.807196,3627.009116,-5995.668130,-1685.410096
409.807518,3404.947333,-8142.265362,-2298.286494
409.807840,518.144159,-8438.347739,-1149.143247
409.808162,-1924.535449,-8216.285956,-612.876398
409.808483,-2738.761985,-10436.903782,-2298.286494
409.808805,-3627.009116,-13249.686362,-3217.601092
409.809127,-5107.421000,-12953.603985,-2834.553343
409.809448,-7179.997637,-11251.130318,-2221.676944
409.809770,-5699.585753,-10658.965565,-995.924147
409.810092,-2812.782580,-10658.965565,-1838.629195
409.810413,-444.123565,-9770.718434,-2221.676944
409.810735,1628.453072,-7698.141797,0.000000
409.811057,2960.823768,-7254.018232,306.438199
409.811378,4145.153275,-8512.368333,0.000000
409.811700,3627.009116,-8512.368333,-612.876398
409.812022,2294.638420,-8068.244768,-1072.533697
409.812343,2738.761985,-7476.080014,-2451.505594
409.812665,3256.906145,-8882.471304,-3830.477490
409.812987,2368.659014,-9030.512492,-4366.744339
409.813309,0.000000,-9326.594869,-2911.162892
409.813630,-2368.659014,-9474.636058,-1685.410096
409.813952,-3849.070898,-11621.233289,-3140.991542
409.814274,-5551.544565,-13471.748144,-4596.572988
409.814595,-7550.100608,-13619.789333,-3907.087040
409.814917,-8364.327145,-12657.521608,-2374.896044
409.815239,-5995.668130,-12065.356855,-2528.115143
409.815560,-2294.638420,-11621.233289,-2681.334243
409.815882,1406.391290,-10807.006753,-536.266849
409.816204,3627.009116,-8438.347739,842.705048
409.816525,5699.585753,-6957.935855,153.219100
409.816847,7105.977043,-7624.121203,0.000000
409.817169,6513.812290,-7846.182985,689.485948
409.817490,4589.276840,-6883.915261,536.266849
409.817812,2738.761985,-5551.544565,0.000000
409.818134,2516.700203,-6735.874072,-1532.190996
409.818456,1628.453072,-8586.388927,-2604.724693
409.818777,-1332.370696,-8068.244768,-2528.115143
409.819099,-3775.050304,-7772.162391,-919.314598
409.819421,-5329.482782,-11251.130318,-1149.143247
409.819742,-6883.915261,-13989.892304,-2834.553343
409.820064,-9474.636058,-12361.439231,-3447.429741
409.820386,-9844.739029,-9992.780217,-2757.943793
409.820707,-6883.915261,-9992.780217,-3064.381992
409.821029,-2368.659014,-10510.924376,-2911.162892
409.821351,444.123565,-9400.615463,-919.314598
409.821672,2368.659014,-8068.244768,2374.896044
409.821994,4959.379811,-7550.100608,3524.039291
409.822316,6143.709319,-7105.977043,1149.143247
409.822638,5921.647536,-6513.812290,-383.047749
409.822959,3923.091493,-6291.750507,459.657299
409.823281,3034.844362,-6291.750507,0.000000
409.823603,3034.844362,-7105.977043,-689.485948
409.823924,2368.659014,-8142.265362,-1225.752797
409.824246,592.164754,-8216.285956,-1149.143247
409.824568,-1554.432478,-8512.368333,-1532.190996
409.824889,-3034.844362,-11621.233289,-2604.724693
409.825211,-5403.503377,-14063.912898,-3064.381992
409.825533,-7624.121203,-13841.851115,-2604.724693
409.825854,-7846.182985,-12213.398043,-2911.162892
409.826176,-5181.441594,-11621.233289,-3370.820191
409.826498,-1776.494261,-11991.336260,-3907.087040
409.826819,0.000000,-11103.089130,-1608.800546
409.827141,2072.576638,-9030.512492,0.000000
409.827463,4959.379811,-7994.224174,0.000000
409.827785,6587.832884,-7846.182985,-1762.019645
409.828106,5329.482782,-7994.224174,-766.095498
409.828428,2664.741391,-6735.874072,76.609550
409.828750,1258.350101,-5773.606348,-383.047749
409.829071,1406.391290,-7105.977043,-2834.553343
409.829393,888.247130,-8586.388927,-3600.648841
409.829715,-1110.308913,-8882.471304,-1685.410096
409.830036,-3552.988522,-9844.739029,-1225.752797
409.830358,-5181.441594,-12361.439231,-1532.190996
409.830680,-6291.750507,-14211.954086,-2757.943793
409.831001,-7698.141797,-13397.727550,-3830.477490
409.831323,-6809.894666,-11843.295072,-3294.210641
409.831645,-4145.153275,-10510.924376,-2757.943793
409.831966,-888.247130,-10066.800811,-1302.362347
409.832288,1480.411884,-8956.491898,612.876398
409.832610,4219.173869,-7698.141797,1225.752797
409.832932,6439.791695,-7772.162391,459.657299
409.833253,6883.915261,-7920.203579,0.000000
409.833575,5403.503377,-7254.018232,306.438199
409.833897,3034.844362,-5847.626942,766.095498
409.834218,1776.494261,-4737.318029,612.876398
409.834540,1110.308913,-6439.791695,-1225.752797
409.834862,-296.082377,-7328.038826,-2757.943793
409.835183,-1998.556043,-7254.018232,-3294.210641
409.835505,-4145.153275,-9030.512492,-1685.410096
409.835827,-6217.729913,-11843.295072,-1378.971896
409.836148,-8142.265362,-12953.603985,-2145.067394
409.836470,-9400.615463,-11843.295072,-3524.039291
409.836792,-7402.059420,-12139.377449,-4136.915689
409.837114,-4367.215058,-11843.295072,-3294.210641
409.837435,-1628.453072,-10510.924376,-2145.067394
409.837757,592.164754,-8808.450710,-536.266849
409.838079,4367.215058,-8808.450710,995.924147
409.838400,6883.915261,-8808.450710,612.876398
409.838722,7402.059420,-8142.265362,-306.438199
409.839044,5921.647536,-7179.997637,0.000000
409.839365,4811.338623,-6587.832884,-229.828649
409.839687,4071.132681,-7179.997637,-1149.143247
409.840009,3108.864956,-8216.285956,-1225.752797
409.840330,1184.329507,-8216.285956,-1838.629195
409.840652,-1480.411884,-8290.306550,-2221.676944
409.840974,-3108.864956,-10510.924376,-2757.943793
409.841295,-5107.421000,-13397.727550,-2834.553343
409.841617,-7328.038826,-14285.974681,-2834.553343
409.841939,-8290.306550,-13027.624579,-2987.772442
409.842261,-6143.709319,-12953.603985,-3447.429741
409.842582,-3034.844362,-12287.418637,-3140.991542
409.842904,-592.164754,-10362.883188,-2221.676944
409.843226,1184.329507,-8660.409521,-842.705048
409.843547,3997.112087,-7994.224174,536.266849
409.843869,5699.585753,-8808.450710,-229.828649
409.844191,5403.503377,-8364.327145,0.000000
409.844512,3997.112087,-7179.997637,0.000000
409.844834,3108.864956,-5995.668130,-229.828649
409.845156,2368.659014,-6291.750507,-1149.143247
409.845477,666.185348,-6661.853478,-1072.533697
409.845799,-1406.391290,-7105.977043,-1149.143247
409.846121,-2812.782580,-8216.285956,-1762.019645
409.846442,-4145.153275,-9992.780217,-2298.286494
409.846764,-5847.626942,-11769.274478,-2145.067394
409.847086,-7105.977043,-11251.130318,-2145.067394
409.847408,-7328.038826,-11177.109724,-3294.210641
409.847729,-5107.421000,-11325.150913,-3600.648841
409.848051,-2220.617826,-11399.171507,-2374.896044
409.848373,0.000000,-10362.883188,76.609550
409.848694,1776.494261,-7920.203579,612.876398
409.849016,4663.297435,-7476.080014,306.438199
409.849338,6513.812290,-7994.224174,-689.485948
409.849659,6217.729913,-8142.265362,-383.047749
409.849981,4145.153275,-6735.874072,842.705048
409.850303,3182.885551,-5699.585753,1302.362347
409.850624,3552.988522,-6809.894666,-306.438199
409.850946,1924.535449,-8068.244768,-2068.457845
409.851268,-444.123565,-7698.141797,-2374.896044
409.851590,-2294.638420,-7476.080014,-1762.019645
409.851911,-2960.823768,-9992.780217,-2451.505594
409.852233,-4885.359217,-12361.439231,-3140.991542
409.852555,-7105.977043,-12509.480420,-2911.162892
409.852876,-8068.244768,-12139.377449,-2911.162892
409.853198,-6143.709319,-12509.480420,-4060.306139
409.853520,-3478.967927,-12213.398043,-4903.011187
409.853841,-1110.308913,-11399.171507,-3217.601092
409.854163,1110.308913,-11029.068536,-766.095498
409.854485,3997.112087,-10658.965565,0.000000
409.854806,5625.565159,-10140.821405,-76.609550
409.855128,5329.482782,-8882.471304,-689.485948
409.855450,4367.215058,-7179.997637,-1149.143247
409.855771,3552.988522,-6217.729913,-1532.190996
409.856093,2664.741391,-7105.977043,-1225.752797
409.856415,1184.329507,-7920.203579,-612.876398
409.856737,-814.226536,-7994.224174,-612.876398
409.857058,-2072.576638,-9770.718434,-842.705048
409.857380,-3997.112087,-11843.295072,-1378.971896
409.857702,-6439.791695,-12361.439231,-1991.848295
409.858023,-7402.059420,-11621.233289,-2528.115143
409.858345,-6291.750507,-11103.089130,-2604.724693
409.858667,-3923.091493,-11029.068536,-2911.162892
409.858988,-1924.535449,-10510.924376,-2757.943793
409.859310,-296.082377,-9844.739029,-536.266849
409.859632,1924.535449,-9252.574275,76.609550
409.859953,3849.070898,-9474.636058,0.000000
409.860275,4885.359217,-8956.491898,-689.485948
409.860597,4589.276840,-7550.100608,153.219100
409.860918,3404.947333,-5921.647536,1455.581446
409.861240,3330.926739,-5255.462188,842.705048
409.861562,2368.659014,-5107.421000,0.000000
409.861884,0.000000,-5551.544565,-536.266849
409.862205,-2590.720797,-6069.688724,-229.828649
409.862527,-3997.112087,-7698.141797,-1532.190996
409.862849,-4589.276840,-10955.047942,-2681.334243
409.863170,-6513.812290,-12139.377449,-1762.019645
409.863492,-7994.224174,-11103.089130,-1225.752797
409.863814,-6217.729913,-10881.027347,-2604.724693
409.864135,-2960.823768,-11843.295072,-4060.306139
409.864457,-592.164754,-11473.192101,-2528.115143
409.864779,296.082377,-9918.759623,-766.095498
409.865100,2664.741391,-8734.430116,0.000000
409.865422,5699.585753,-9252.574275,-1225.752797
409.865744,6809.894666,-9548.656652,-2221.676944
409.866066,5625.565159,-8586.388927,-842.705048
409.866387,4959.379811,-7179.997637,0.000000
409.866709,5403.503377,-7402.059420,-1072.533697
409.867031,4885.359217,-8290.306550,-1991.848295
409.867352,2664.741391,-8512.368333,-919.314598
409.867674,-740.205942,-7476.080014,-306.438199
409.867996,-3034.844362,-8512.368333,-1302.362347
409.868317,-4885.359217,-11843.295072,-3983.696590
409.868639,-7698.141797,-13397.727550,-3830.477490
409.868961,-9474.636058,-11843.295072,-2911.162892
409.869282,-7920.203579,-11843.295072,-3600.648841
409.869604,-4145.153275,-13175.665768,-3677.258390
409.869926,-814.226536,-12139.377449,-2221.676944
409.870247,222.061783,-10658.965565,-612.876398
409.870569,1628.453072,-9548.656652,0.000000
409.870891,3701.029710,-9474.636058,-766.095498
409.871213,4367.215058,-9474.636058,-1762.019645
409.871534,3034.844362,-8068.244768,-1608.800546
409.871856,2960.823768,-5921.647536,-612.876398
409.872178,3478.967927,-6143.709319,-766.095498
409.872499,3330.926739,-7846.182985,-766.095498
409.872821,888.247130,-8142.265362,76.609550
409.873143,-1332.370696,-7402.059420,0.000000
409.873464,-3701.029710,-9474.636058,-1225.752797
409.873786,-5107.421000,-11991.336260,-2451.505594
409.874108,-7105.977043,-10881.027347,-2221.676944
409.874429,-7476.080014,-9252.574275,-1608.800546
409.874751,-5403.503377,-9844.739029,-1838.629195
409.875073,-2220.617826,-10140.821405,-1991.848295
409.875394,-370.102971,-9474.636058,-1225.752797
409.875716,1332.370696,-8956.491898,-306.438199
409.876038,3923.091493,-9326.594869,306.438199
409.876360,5329.482782,-9030.512492,0.000000
409.876681,4811.338623,-7920.203579,153.219100
409.877003,3552.988522,-6439.791695,0.000000
409.877325,3404.947333,-6069.688724,-612.876398
409.877646,3108.864956,-6587.832884,-1991.848295
409.877968,2294.638420,-7476.080014,-1685.410096
409.878290,592.164754,-7254.018232,-1149.143247
409.878611,-222.061783,-7920.203579,-842.705048
409.878933,-1850.514855,-11029.068536,-1762.019645
409.879255,-3849.070898,-12583.501014,-1685.410096
409.879576,-5995.668130,-11473.192101,-2451.505594
409.879898,-5921.647536,-10881.027347,-3753.867940
409.880219,-4071.132681,-11991.336260,-3907.087040
409.880541,-2442.679609,-11769.274478,-2987.772442
409.880863,-740.205942,-9992.780217,-1915.238745
409.881184,1332.370696,-9622.677246,-842.705048
409.881506,4515.256246,-10658.965565,-1225.752797
409.881828,5107.421000,-10140.821405,-2145.067394
409.882149,4219.173869,-9918.759623,-1302.362347
409.882471,3330.926739,-9326.594869,-689.485948
409.882793,3552.988522,-8808.450710,-1378.971896
409.883114,3478.967927,-8734.430116,-2298.286494
409.883436,2146.597232,-8586.388927,-1685.410096
409.883757,0.000000,-8216.285956,-1149.143247
409.884079,-1776.494261,-9474.636058,-1532.190996
409.884401,-3256.906145,-11251.130318,-2374.896044
409.884722,-5181.441594,-12361.439231,-2298.286494
409.885044,-6883.915261,-11103.089130,-1991.848295
409.885366,-7031.956449,-9918.759623,-1838.629195
409.885687,-4441.235652,-10288.862594,-2451.505594
409.886009,-2516.700203,-9844.739029,-2374.896044
409.886330,-1036.288319,-8882.471304,-1225.752797
409.886652,740.205942,-8512.368333,689.485948
409.886974,2072.576638,-8808.450710,612.876398
409.887295,2886.803174,-8808.450710,0.000000
409.887617,2220.617826,-7550.100608,0.000000
409.887939,1554.432478,-5995.668130,-536.266849
409.888260,2146.597232,-5625.565159,-1225.752797
409.888582,2294.638420,-5921.647536,-1455.581446
409.888904,1406.391290,-6587.832884,-1685.410096
409.889225,-518.144159,-6883.915261,-612.876398
409.889547,-1998.556043,-8956.491898,-689.485948
409.889868,-3256.906145,-11621.233289,-1378.971896
409.890190,-5181.441594,-12213.398043,-1685.410096
409.890512,-6883.915261,-10214.842000,-2068.457845
409.890833,-6143.709319,-9622.677246,-1991.848295
409.891155,-3997.112087,-9474.636058,-1991.848295
409.891477,-2294.638420,-8956.491898,-2221.676944
409.891798,-518.144159,-8290.306550,-1762.019645
409.892120,2146.597232,-8290.306550,-1149.143247
409.892441,4071.132681,-9696.697840,-1072.533697
409.892763,4515.256246,-9844.739029,-1225.752797
409.893085,3701.029710,-9326.594869,-842.705048
409.893406,3552.988522,-8660.409521,-1149.143247
409.893728,4367.215058,-8808.450710,-2757.943793
409.894050,3478.967927,-8956.491898,-3447.429741
409.894371,1628.453072,-9548.656652,-2681.334243
409.894693,0.000000,-10362.883188,-1532.190996
409.895015,-962.267725,-12139.377449,-2374.896044
409.895336,-2368.659014,-13693.809927,-2757.943793
409.895658,-4441.235652,-12805.562797,-2681.334243
409.895979,-6217.729913,-10807.006753,-2834.553343
409.896301,-5033.400406,-10732.986159,-2911.162892
409.896623,-2960.823768,-10510.924376,-3140.991542
409.896944,-1702.473667,-9770.718434,-2145.067394
409.897266,-592.164754,-8660.409521,153.219100
409.897588,1776.494261,-8512.368333,1225.752797
409.897909,3330.926739,-8882.471304,-459.657299
409.898231,3923.091493,-8586.388927,-1608.800546
409.898552,3849.070898,-8290.306550,-995.924147
409.898874,3923.091493,-7846.182985,-383.047749
409.899196,4293.194464,-7179.997637,-1532.190996
409.899517,2960.823768,-7920.203579,-995.924147
409.899839,888.247130,-8882.471304,-919.314598
409.900161,-1480.411884,-9030.512492,-536.266849
409.900482,-3182.885551,-10066.800811,-1532.190996
409.900804,-4293.194464,-11177.109724,-2221.676944
409.901126,-5403.503377,-10807.006753,-995.924147
409.901447,-5921.647536,-9622.677246,0.000000
409.901769,-5107.421000,-8808.450710,0.000000
409.902090,-3404.947333,-8216.285956,-919.314598
409.902412,-1628.453072,-7476.080014,-842.705048
409.902734,0.000000,-6883.915261,0.000000
409.903055,888.247130,-6809.894666,76.609550
409.903377,1480.411884,-7846.182985,0.000000
409.903699,2220.617826,-8734.430116,306.438199
409.904020,2368.659014,-8586.388927,-612.876398
409.904342,3552.988522,-8216.285956,-2681.334243
409.904663,3849.070898,-8290.306550,-2374.896044
409.904985,2664.741391,-8660.409521,-1532.190996
409.905307,740.205942,-8586.388927,-1149.143247
409.905628,-666.185348,-9622.677246,-1532.190996
409.905950,-2220.617826,-11103.089130,-3217.601092
409.906272,-4367.215058,-12361.439231,-3140.991542
409.906593,-6069.688724,-11621.233289,-2757.943793
409.906915,-5551.544565,-10732.986159,-2451.505594
409.907237,-3330.926739,-10955.047942,-2451.505594
409.907558,-1406.391290,-10510.924376,-1378.971896
409.907880,-222.061783,-8956.491898,0.000000
409.908201,1258.350101,-7846.182985,-229.828649
409.908523,3256.906145,-8216.285956,-1762.019645
409.908845,3404.947333,-8586.388927,-2451.505594
409.909166,2886.803174,-8882.471304,-1915.238745
409.909488,2072.576638,-8512.368333,-1149.143247
409.909810,1850.514855,-9252.574275,-1838.629195
409.910131,1924.535449,-10510.924376,-2757.943793
409.910453,518.144159,-10510.924376,-2681.334243
409.910774,-1554.432478,-9844.739029,-2221.676944
409.911096,-2960.823768,-10955.047942,-2604.724693
409.911418,-3923.091493,-12139.377449,-3600.648841
409.911739,-5403.503377,-11991.336260,-2528.115143
409.912061,-6291.750507,-10584.944971,-1455.581446
409.912383,-5181.441594,-9474.636058,-1149.143247
409.912704,-2886.803174,-8956.491898,-1225.752797
409.913026,-888.247130,-7994.224174,-612.876398
409.913348,222.061783,-7550.100608,153.219100
409.913669,2886.803174,-7994.224174,1072.533697
409.913991,4441.235652,-8290.306550,229.828649
409.914312,4145.153275,-7624.121203,612.876398
409.914634,2738.761985,-6883.915261,1608.800546
409.914956,2590.720797,-5477.523971,0.000000
409.915277,2590.720797,-6587.832884,-2451.505594
409.915599,2294.638420,-7846.182985,-3217.601092
409.915921,518.144159,-8808.450710,-2298.286494
409.916242,-1480.411884,-9474.636058,-1225.752797
409.916564,-2220.617826,-12361.439231,-2221.676944
409.916885,-3849.070898,-14137.933492,-2451.505594
409.917207,-6217.729913,-13323.706956,-2221.676944
409.917529,-7105.977043,-10436.903782,-2068.457845
409.917850,-5033.400406,-9252.574275,-2757.943793
409.918172,-2590.720797,-9104.533087,-2911.162892
409.918494,-1258.350101,-7772.162391,-229.828649
409.918815,-518.144159,-6957.935855,1378.971896
409.919137,2516.700203,-7920.203579,995.924147
409.919459,5329.482782,-9770.718434,-995.924147
409.919780,5255.462188,-9696.697840,-1302.362347
409.920102,3849.070898,-9104.533087,842.705048
409.920423,3775.050304,-7402.059420,536.266849
409.920745,4145.153275,-7476.080014,-1915.238745
409.921067,3256.906145,-9030.512492,-3600.648841
409.921388,814.226536,-9252.574275,-2911.162892
409.921710,-1480.411884,-9770.718434,-2451.505594
409.922032,-2738.761985,-12509.480420,-2604.724693
409.922353,-4367.215058,-15470.304188,-2911.162892
409.922675,-6143.709319,-14434.015869,-2145.067394
409.922996,-7328.038826,-11991.336260,-2298.286494
409.923318,-6217.729913,-11103.089130,-2374.896044
409.923640,-4071.132681,-9326.594869,-2221.676944
409.923961,-2886.803174,-7031.956449,-2068.457845
409.924283,-962.267725,-6143.709319,-536.266849
409.924605,1850.514855,-7105.977043,383.047749
409.924926,3478.967927,-8142.265362,536.266849
409.925248,2960.823768,-8068.244768,995.924147
409.925570,2072.576638,-7328.038826,612.876398
409.925891,2886.803174,-7179.997637,-842.705048
409.926213,3701.029710,-7254.018232,-2757.943793
409.926534,2960.823768,-7698.141797,-2528.115143
409.926856,1184.329507,-8142.265362,-1532.190996
409.927178,148.041188,-9474.636058,-995.924147
409.927499,-1036.288319,-12361.439231,-1455.581446
409.927821,-2738.761985,-13471.748144,-1685.410096
409.928143,-4515.256246,-11991.336260,-1838.629195
409.928464,-4885.359217,-10807.006753,-1991.848295
409.928786,-3256.906145,-10140.821405,-1608.800546
409.929107,-1554.432478,-9030.512492,-612.876398
409.929429,0.000000,-6513.812290,229.828649
409.929751,1702.473667,-5477.523971,459.657299
409.930072,3478.967927,-6291.750507,306.438199
409.930394,3478.967927,-7402.059420,459.657299
409.930716,2072.576638,-7179.997637,306.438199
409.931037,1332.370696,-6661.853478,-459.657299
409.931359,1924.535449,-7772.162391,-2528.115143
409.931681,2146.597232,-8808.450710,-4213.525239
409.932002,370.102971,-9474.636058,-3983.696590
409.932324,-2220.617826,-9548.656652,-2604.724693
409.932645,-3552.988522,-11399.171507,-2757.943793
409.932967,-4219.173869,-14137.933492,-4519.963438
409.933289,-4885.359217,-15100.201217,-4826.401637
409.933610,-5477.523971,-13693.809927,-2987.772442
409.933932,-4293.194464,-10881.027347,-1455.581446
409.934254,-1924.535449,-9696.697840,-1608.800546
409.934575,370.102971,-8586.388927,-919.314598
409.934897,1332.370696,-7105.977043,0.000000
409.935218,2738.761985,-6809.894666,-612.876398
409.935540,3997.112087,-6883.915261,-919.314598
409.935862,4441.235652,-8734.430116,0.000000
409.936183,3182.885551,-9474.636058,689.485948
409.936505,1776.494261,-8068.244768,0.000000
409.936827,2146.597232,-8808.450710,-1685.410096
409.937148,1776.494261,-10140.821405,-3447.429741
409.937470,0.000000,-10214.842000,-2911.162892
409.937792,-2886.803174,-9548.656652,-3217.601092
409.938113,-4959.379811,-11325.150913,-2221.676944
409.938435,-6291.750507,-13471.748144,-2987.772442
409.938756,-7476.080014,-13693.809927,-4443.353888
409.939078,-8364.327145,-11843.295072,-3830.477490
409.939400,-6513.812290,-11177.109724,-1225.752797
409.939721,-4737.318029,-10214.842000,-612.876398
409.940043,-2072.576638,-8364.327145,-306.438199
409.940365,-296.082377,-6143.709319,1225.752797
409.940686,2590.720797,-5255.462188,1378.971896
409.941008,4145.153275,-5699.585753,612.876398
409.941329,4885.359217,-6217.729913,612.876398
409.941651,3701.029710,-6439.791695,1378.971896
409.941973,3701.029710,-6809.894666,995.924147
409.942294,4145.153275,-7179.997637,-689.485948
409.942616,4367.215058,-8142.265362,-2068.457845
409.942938,1850.514855,-8512.368333,-995.924147
409.943259,-296.082377,-9178.553681,-995.924147
409.943581,-2294.638420,-10436.903782,-1685.410096
409.943903,-4071.132681,-12361.439231,-2604.724693
409.944224,-6365.771101,-12435.459826,-2757.943793
409.944546,-7328.038826,-10584.944971,-1838.629195
409.944867,-6143.709319,-10807.006753,-2604.724693
409.945189,-3034.844362,-11103.089130,-2528.115143
409.945511,-296.082377,-9918.759623,-153.219100
409.945832,1480.411884,-7476.080014,1378.971896
409.946154,4145.153275,-5995.668130,919.314598
409.946476,5477.523971,-6809.894666,-995.924147
409.946797,5181.441594,-7698.141797,-1685.410096
409.947119,3552.988522,-7698.141797,-919.314598
409.947440,3034.844362,-7698.141797,-842.705048
409.947762,3701.029710,-9030.512492,-2221.676944
409.948084,3182.885551,-10436.903782,-3370.820191
409.948405,1406.391290,-10584.944971,-3217.601092
409.948727,-740.205942,-9918.759623,-2834.553343
409.949049,-1628.453072,-12435.459826,-3753.867940
409.949370,-3627.009116,-14285.974681,-4366.744339
409.949692,-6365.771101,-13767.830521,-3064.381992
409.950014,-7920.203579,-12657.521608,-2145.067394
409.950335,-5921.647536,-12657.521608,-2221.676944
409.950657,-3108.864956,-11251.130318,-2987.772442
409.950978,-518.144159,-9770.718434,-1378.971896
409.951300,1776.494261,-7105.977043,766.095498
409.951622,4441.235652,-6513.812290,919.314598
409.951943,5921.647536,-6957.935855,383.047749
409.952265,5181.441594,-6661.853478,306.438199
409.952587,2590.720797,-5551.544565,0.000000
409.952908,1258.350101,-5551.544565,-1838.629195
409.953230,1406.391290,-8364.327145,-3753.867940
409.953551,888.247130,-10140.821405,-3753.867940
409.953873,-1628.453072,-9178.553681,-2604.724693
409.954195,-3923.091493,-9474.636058,-842.705048
409.954516,-4959.379811,-12361.439231,-1762.019645
409.954838,-6809.894666,-13101.645173,-4136.915689
409.955160,-9178.553681,-11177.109724,-4673.182538
409.955481,-8660.409521,-9400.615463,-3064.381992
409.955803,-5625.565159,-9252.574275,-1991.848295
409.956125,-2146.597232,-9696.697840,-1685.410096
409.956446,-148.041188,-8364.327145,842.705048
409.956768,1924.535449,-6587.832884,2451.505594
409.957089,4293.194464,-6439.791695,2221.676944
409.957411,5255.462188,-6513.812290,689.485948
409.957733,4441.235652,-6069.688724,0.000000
409.958054,2960.823768,-5551.544565,689.485948
409.958376,3182.885551,-6957.935855,0.000000
409.958698,4145.153275,-9104.533087,-1762.019645
409.959019,3256.906145,-9030.512492,-2757.943793
409.959341,666.185348,-9104.533087,-2604.724693
409.959662,-1702.473667,-11103.089130,-2451.505594
409.959984,-3701.029710,-14211.954086,-3677.258390
409.960306,-6069.688724,-14508.036463,-4290.134789
409.960627,-7550.100608,-12805.562797,-4903.011187
409.960949,-5995.668130,-12065.356855,-4290.134789
409.961271,-2738.761985,-12731.542202,-3677.258390
409.961592,-370.102971,-11917.315666,-1532.190996
409.961914,962.267725,-9326.594869,1455.581446
409.962236,3034.844362,-7179.997637,2451.505594
409.962557,5181.441594,-7031.956449,306.438199
409.962879,5403.503377,-7254.018232,-766.095498
409.963200,3849.070898,-6365.771101,-689.485948
409.963522,3182.885551,-5477.523971,-383.047749
409.963844,3775.050304,-7031.956449,-766.095498
409.964165,4145.153275,-9992.780217,-1455.581446
409.964487,2294.638420,-11177.109724,-1991.848295
409.964809,-740.205942,-10214.842000,-1838.629195
409.965130,-2368.659014,-10658.965565,-2221.676944
409.965452,-3923.091493,-12287.418637,-3753.867940
409.965773,-6513.812290,-13249.686362,-4673.182538
409.966095,-8882.471304,-11917.315666,-3907.087040
409.966417,-8364.327145,-10955.047942,-2451.505594
409.966738,-4959.379811,-11103.089130,-2145.067394
409.967060,-2220.617826,-10436.903782,-1225.752797
409.967382,0.000000,-8364.327145,536.266849
409.967703,2442.679609,-6365.771101,1532.190996
409.968025,4885.359217,-6069.688724,1302.362347
409.968347,5625.565159,-5773.606348,1532.190996
409.968668,4293.194464,-4737.318029,689.485948
409.968990,3182.885551,-4367.215058,76.609550
409.969311,2812.782580,-6587.832884,-766.095498
409.969633,2072.576638,-8882.471304,-1225.752797
409.969955,222.061783,-9252.574275,-1072.533697
409.970276,-1480.411884,-8216.285956,-2068.457845
409.970598,-2738.761985,-9770.718434,-2145.067394
409.970920,-4885.359217,-12805.562797,-3217.601092
409.971241,-8290.306550,-13027.624579,-3447.429741
409.971563,-9770.718434,-10955.047942,-4290.134789
409.971884,-7476.080014,-10955.047942,-4596.572988
409.972206,-4219.173869,-11769.274478,-3907.087040
409.972528,-1924.535449,-10584.944971,-1149.143247
409.972849,222.061783,-7698.141797,1225.752797
409.973171,3997.112087,-6587.832884,766.095498
409.973493,7179.997637,-8068.244768,-766.095498
409.973814,7402.059420,-8438.347739,0.000000
409.974136,5181.441594,-7031.956449,689.485948
409.974458,3627.009116,-5403.503377,-153.219100
409.974779,4293.194464,-7994.224174,-2451.505594
409.975101,3701.029710,-10658.965565,-3907.087040
409.975422,740.205942,-10214.842000,-2987.772442
409.975744,-1554.432478,-9178.553681,-2145.067394
409.976066,-2442.679609,-12213.398043,-2834.553343
409.976387,-3627.009116,-15322.262999,-4060.306139
409.976709,-6291.750507,-13841.851115,-4443.353888
409.977031,-8068.244768,-11029.068536,-4213.525239
409.977352,-6291.750507,-11547.212695,-3217.601092
409.977674,-2886.803174,-12361.439231,-3064.381992
409.977995,-740.205942,-11621.233289,-2221.676944
409.978317,888.247130,-9400.615463,536.266849
409.978639,3552.988522,-8586.388927,1991.848295
409.978960,5551.544565,-8290.306550,1532.190996
409.979282,5995.668130,-6883.915261,153.219100
409.979604,4663.297435,-4737.318029,76.609550
409.979925,4145.153275,-4663.297435,-306.438199
409.980247,3034.844362,-6809.894666,-229.828649
409.980569,888.247130,-8882.471304,0.000000
409.980890,-1480.411884,-9030.512492,-842.705048
409.981212,-2738.761985,-9104.533087,-2757.943793
409.981534,-3478.967927,-11399.171507,-3140.991542
409.981855,-5477.523971,-13101.645173,-3140.991542
409.982177,-8512.368333,-11621.233289,-2604.724693
409.982499,-8882.471304,-9844.739029,-1991.848295
409.982821,-6439.791695,-10288.862594,-2145.067394
409.983143,-3256.906145,-10584.944971,-2528.115143
409.983465,-1110.308913,-8882.471304,-1302.362347
409.983786,1110.308913,-6661.853478,459.657299
409.984108,4811.338623,-6735.874072,2068.457845
409.984430,6883.915261,-7698.141797,1915.238745
409.984752,6883.915261,-6661.853478,1991.848295
409.985074,5255.462188,-5255.462188,1149.143247
409.985396,4737.318029,-6217.729913,-536.266849
409.985717,4367.215058,-8808.450710,-1455.581446
409.986039,2220.617826,-9252.574275,-1225.752797
409.986361,-370.102971,-8216.285956,-1991.848295
409.986683,-2368.659014,-9104.533087,-2451.505594
409.987005,-4145.153275,-12879.583391,-2987.772442
409.987326,-7476.080014,-14359.995275,-3983.696590
409.987648,-9918.759623,-12435.459826,-4749.792088
409.987970,-8216.285956,-11547.212695,-5669.106685
409.988292,-5033.400406,-12805.562797,-4903.011187
409.988614,-2294.638420,-12435.459826,-2681.334243
409.988936,-444.123565,-9992.780217,-536.266849
409.989257,1850.514855,-8586.388927,0.000000
409.989579,4737.318029,-9326.594869,76.609550
409.989901,5847.626942,-9104.533087,-153.219100
409.990223,4737.318029,-6439.791695,-612.876398
409.990545,4219.173869,-5255.462188,-842.705048
409.990867,4737.318029,-7179.997637,-689.485948
409.991188,4737.318029,-8734.430116,-766.095498
409.991510,3256.906145,-9104.533087,-1608.800546
409.991832,518.144159,-8956.491898,-1838.629195
409.992154,-1998.556043,-10658.965565,-2068.457845
409.992476,-4959.379811,-12583.501014,-2834.553343
409.992797,-8808.450710,-12805.562797,-3983.696590
409.993119,-10214.842000,-11695.253884,-5209.449386
409.993441,-8068.244768,-11547.212695,-4903.011187
409.993763,-5107.421000,-11547.212695,-4136.915689
409.994085,-2664.741391,-10436.903782,-2528.115143
409.994407,-518.144159,-9326.594869,459.657299
409.994728,2368.659014,-8068.244768,1532.190996
409.995050,4737.318029,-7550.100608,1225.752797
409.995372,5033.400406,-7031.956449,153.219100
409.995694,3552.988522,-5477.523971,76.609550
409.996016,2442.679609,-4737.318029,536.266849
409.996338,2886.803174,-5921.647536,306.438199
409.996659,3182.885551,-6513.812290,-383.047749
409.996981,2072.576638,-7994.224174,-919.314598
409.997303,666.185348,-8956.491898,-1072.533697
409.997625,-518.144159,-10955.047942,-1378.971896
409.997947,-3108.864956,-11843.295072,-1685.410096
409.998269,-5995.668130,-11769.274478,-2451.505594
409.998590,-8660.409521,-11177.109724,-3753.867940
409.998912,-8586.388927,-11177.109724,-4979.620737
409.999234,-6439.791695,-11029.068536,-4443.353888
409.999556,-3330.926739,-10436.903782,-2451.505594
409.999878,74.020594,-9622.677246,-842.705048
410.000199,3997.112087,-8660.409521,459.657299
410.000521,6661.853478,-8734.430116,689.485948
410.000843,7254.018232,-8290.306550,612.876398
410.001165,6661.853478,-7476.080014,612.876398
410.001487,5329.482782,-6217.729913,0.000000
410.001809,4737.318029,-7031.956449,-842.705048
410.002130,3478.967927,-8068.244768,-1838.629195
410.002452,1554.432478,-8956.491898,-2068.457845
410.002774,-222.061783,-9844.739029,-1838.629195
410.003096,-1702.473667,-11991.336260,-1991.848295
410.003418,-3923.091493,-13101.645173,-2681.334243
410.003740,-5921.647536,-12139.377449,-2987.772442
410.004061,-7254.018232,-11399.171507,-4060.306139
410.004383,-6365.771101,-11843.295072,-4290.134789
410.004705,-3923.091493,-11843.295072,-3753.867940
410.005027,-1850.514855,-10955.047942,-1915.238745
410.005349,-222.061783,-10584.944971,383.047749
410.005671,2738.761985,-10140.821405,1991.848295
410.005992,4293.194464,-9030.512492,1302.362347
410.006314,4589.276840,-7328.038826,0.000000
410.006636,3997.112087,-5773.606348,-766.095498
410.006958,3627.009116,-5033.400406,-842.705048
410.007280,2664.741391,-6069.688724,-383.047749
410.007601,1776.494261,-7846.182985,-153.219100
410.007923,444.123565,-8734.430116,-995.924147
410.008245,-518.144159,-8808.450710,-1378.971896
410.008567,-2738.761985,-10658.965565,-1991.848295
410.008889,-5847.626942,-12583.501014,-2451.505594
410.009211,-8586.388927,-11695.253884,-1915.238745
410.009532,-9474.636058,-9844.739029,-2681.334243
410.009854,-7772.162391,-9770.718434,-3064.381992
410.010176,-5107.421000,-9400.615463,-2528.115143
410.010498,-2590.720797,-7846.182985,-1608.800546
410.010820,0.000000,-7328.038826,-383.047749
410.011142,3627.009116,-7328.038826,1302.362347
410.011463,6069.688724,-7402.059420,766.095498
410.011785,6143.709319,-7328.038826,153.219100
410.012107,4515.256246,-7105.977043,766.095498
410.012429,3552.988522,-6513.812290,766.095498
410.012751,3034.844362,-7402.059420,-1532.190996
410.013073,2368.659014,-8882.471304,-2834.553343
410.013394,444.123565,-9252.574275,-2451.505594
410.013716,-1776.494261,-10288.862594,-1685.410096
410.014038,-3923.091493,-12139.377449,-1991.848295
410.014360,-5403.503377,-13989.892304,-2451.505594
410.014682,-7476.080014,-12657.521608,-3447.429741
410.015003,-7476.080014,-11399.171507,-4443.353888
410.015325,-6291.750507,-10510.924376,-4213.525239
410.015647,-4145.153275,-9474.636058,-3140.991542
410.015969,-1924.535449,-8808.450710,-1685.410096
410.016291,444.123565,-8660.409521,-766.095498
410.016613,2590.720797,-9474.636058,-536.266849
410.016934,3552.988522,-9844.739029,-842.705048
410.017256,4145.153275,-10214.842000,-766.095498
410.017578,4589.276840,-9326.594869,-766.095498
410.017900,5181.441594,-8734.430116,-1455.581446
410.018222,5699.585753,-8586.388927,-2145.067394
410.018544,4367.215058,-8734.430116,-2221.676944
410.018865,2146.597232,-9474.636058,-1762.019645
410.019187,0.000000,-10732.986159,-1991.848295
410.019509,-2516.700203,-12731.542202,-2681.334243
410.019831,-5181.441594,-13175.665768,-2451.505594
410.020153,-7402.059420,-11325.150913,-1685.410096
410.020475,-7254.018232,-9474.636058,-766.095498
410.020796,-5033.400406,-7920.203579,-1302.362347
410.021118,-3034.844362,-7402.059420,-1915.238745
410.021440,-1258.350101,-7105.977043,-612.876398
410.021762,740.205942,-7254.018232,536.266849
410.022084,2368.659014,-8290.306550,689.485948
410.022405,2738.761985,-7772.162391,919.314598
410.022727,3404.947333,-7254.018232,0.000000
410.023049,3552.988522,-6735.874072,-1302.362347
410.023371,4441.235652,-7476.080014,-1685.410096
410.023693,4071.132681,-8734.430116,-1149.143247
410.024015,2368.659014,-9252.574275,-689.485948
410.024336,592.164754,-8512.368333,-689.485948
410.024658,148.041188,-9918.759623,-1225.752797
410.024980,-1628.453072,-11695.253884,-2757.943793
410.025302,-4663.297435,-11621.233289,-2298.286494
410.025624,-7402.059420,-9770.718434,-1302.362347
410.025946,-7105.977043,-9918.759623,-1302.362347
410.026267,-5477.523971,-9326.594869,-1915.238745
410.026589,-3330.926739,-7846.182985,-1991.848295
410.026911,-1924.535449,-6883.915261,-995.924147
410.027233,1480.411884,-7846.182985,-229.828649
410.027555,4441.235652,-9030.512492,-536.266849
410.027877,4959.379811,-8734.430116,-689.485948
410.028198,4441.235652,-9326.594869,-306.438199
410.028520,4071.132681,-9178.553681,-612.876398
410.028842,4145.153275,-9104.533087,-2451.505594
410.029164,2960.823768,-9696.697840,-4213.525239
410.029486,444.123565,-10140.821405,-3677.258390
410.029807,-1258.350101,-9918.759623,-2911.162892
410.030129,-2146.597232,-11695.253884,-2757.943793
410.030451,-3478.967927,-13619.789333,-3140.991542
410.030773,-5921.647536,-13027.624579,-3064.381992
410.031095,-7402.059420,-10807.006753,-3140.991542
410.031417,-7105.977043,-11177.109724,-3294.210641
410.031738,-5551.544565,-10140.821405,-2451.505594
410.032060,-3330.926739,-8734.430116,-1455.581446
410.032382,-1480.411884,-7476.080014,-383.047749
410.032704,1036.288319,-8068.244768,612.876398
410.033026,3627.009116,-8068.244768,306.438199
410.033348,4441.235652,-8142.265362,-766.095498
410.033669,4293.194464,-8364.327145,0.000000
410.033991,3849.070898,-8290.306550,306.438199
410.034313,3849.070898,-8512.368333,-1991.848295
410.034635,3256.906145,-8956.491898,-3064.381992
410.034957,1628.453072,-9474.636058,-2757.943793
410.035279,-666.185348,-9474.636058,-1378.971896
410.035600,-2590.720797,-10955.047942,-2298.286494
410.035922,-4811.338623,-12213.398043,-2068.457845
410.036244,-8068.244768,-11695.253884,-919.314598
410.036566,-9844.739029,-9400.615463,-1532.190996
410.036888,-8364.327145,-9030.512492,-2681.334243
410.037209,-6291.750507,-7994.224174,-2374.896044
410.037531,-4441.235652,-6661.853478,-306.438199
410.037853,-3034.844362,-5477.523971,919.314598
410.038175,0.000000,-6069.688724,1532.190996
410.038497,1554.432478,-6735.874072,612.876398
410.038819,1924.535449,-7328.038826,689.485948
410.039140,1480.411884,-7476.080014,-536.266849
410.039462,2516.700203,-8586.388927,-2374.896044
410.039784,3330.926739,-10658.965565,-3140.991542
410.040106,1998.556043,-10436.903782,-2374.896044
410.040428,0.000000,-9548.656652,-612.876398
410.040750,-1998.556043,-9696.697840,-1532.190996
410.041071,-3627.009116,-11843.295072,-4136.915689
410.041393,-6365.771101,-12361.439231,-5669.106685
410.041715,-9030.512492,-12139.377449,-4136.915689
410.042037,-10658.965565,-11621.233289,-1685.410096
410.042359,-8882.471304,-11177.109724,-1149.143247
410.042680,-6217.729913,-9992.780217,-2374.896044
410.043002,-3701.029710,-8660.409521,-1149.143247
410.043324,-1406.391290,-7476.080014,612.876398
410.043646,1110.308913,-7179.997637,76.609550
410.043968,2368.659014,-6661.853478,-459.657299
410.044290,2590.720797,-7402.059420,-229.828649
410.044611,1702.473667,-8364.327145,-612.876398
410.044933,518.144159,-8882.471304,-2451.505594
410.045255,-370.102971,-9474.636058,-3677.258390
410.045577,-1332.370696,-11029.068536,-3983.696590
410.045899,-3330.926739,-12361.439231,-3064.381992
410.046221,-5255.462188,-12805.562797,-2145.067394
410.046542,-6735.874072,-11843.295072,-2221.676944
410.046864,-7179.997637,-11473.192101,-2987.772442
410.047186,-9326.594869,-10510.924376,-3983.696590
410.047508,-11769.274478,-10140.821405,-2681.334243
410.047830,-13249.686362,-9178.553681,-689.485948
410.048152,-13027.624579,-8216.285956,-612.876398
410.048473,-9918.759623,-7920.203579,-1991.848295
410.048795,-6143.709319,-7772.162391,-1838.629195
410.049117,-2368.659014,-7476.080014,-229.828649
410.049439,0.000000,-6883.915261,1762.019645
410.049761,2738.761985,-5847.626942,2451.505594
410.050082,4885.359217,-5847.626942,1225.752797
410.050404,4663.297435,-5847.626942,-306.438199
410.050726,2368.659014,-6143.709319,-1838.629195
410.051048,-962.267725,-7328.038826,-3140.991542
410.051370,-3552.988522,-10214.842000,-3064.381992
410.051692,-5699.585753,-12509.480420,-2911.162892
410.052013,-7105.977043,-12287.418637,-2911.162892
410.052335,-7254.018232,-10881.027347,-3600.648841
410.052657,-6513.812290,-11029.068536,-3907.087040
410.052979,-6365.771101,-10955.047942,-2681.334243
410.053301,-6809.894666,-9104.533087,-1532.190996
410.053623,-6217.729913,-7550.100608,-1455.581446
410.053944,-4885.359217,-8142.265362,-1378.971896
410.054266,-4071.132681,-9622.677246,-306.438199
410.054588,-3849.070898,-9992.780217,766.095498
410.054910,-2960.823768,-9992.780217,1225.752797
410.055232,-1036.288319,-9844.739029,1149.143247
410.055554,1332.370696,-8956.491898,153.219100
410.055875,1776.494261,-7328.038826,-306.438199
410.056197,2072.576638,-6291.750507,-1455.581446
410.056519,2072.576638,-6513.812290,-1915.238745
410.056841,1332.370696,-7772.162391,-3064.381992
410.057163,0.000000,-9178.553681,-4060.306139
410.057484,-1702.473667,-9696.697840,-4443.353888
410.057806,-3330.926739,-11843.295072,-4749.792088
410.058128,-4589.276840,-12805.562797,-4826.401637
410.058450,-4885.359217,-12805.562797,-5209.449386
410.058772,-4589.276840,-12805.562797,-5209.449386
410.059094,-3849.070898,-13397.727550,-4136.915689
410.059415,-2738.761985,-12435.459826,-2987.772442
410.059737,-3701.029710,-9770.718434,-1532.190996
410.060059,-3923.091493,-8512.368333,-459.657299
410.060381,-3923.091493,-7402.059420,0.000000
410.060703,-3701.029710,-6883.915261,153.219100
410.061025,-3034.844362,-7031.956449,536.266849
410.061346,-1998.556043,-8660.409521,1149.143247
410.061668,-592.164754,-8882.471304,1991.848295
410.061990,888.247130,-7846.182985,2451.505594
410.062312,2886.803174,-6513.812290,1838.629195
410.062634,4737.318029,-6587.832884,-1455.581446
410.062956,4515.256246,-8956.491898,-4979.620737
410.063277,2368.659014,-10807.006753,-3600.648841
410.063599,-2146.597232,-12953.603985,-612.876398
410.063921,-7624.121203,-14656.077652,153.219100
410.064243,-10807.006753,-13767.830521,-689.485948
410.064565,-12139.377449,-10510.924376,-3907.087040
410.064886,-12287.418637,-8364.327145,-6358.592633
410.065208,-12805.562797,-7476.080014,-4443.353888
410.065530,-12953.603985,-5625.565159,-689.485948
410.065852,-11695.253884,-4367.215058,-536.266849
410.066174,-7550.100608,-5625.565159,-1685.410096
410.066496,-5255.462188,-8438.347739,-2374.896044
410.066817,-4737.318029,-10436.903782,-1532.190996
410.067139,-4145.153275,-9918.759623,153.219100
410.067461,-1628.453072,-9178.553681,0.000000
410.067783,2368.659014,-9104.533087,-1072.533697
410.068105,3997.112087,-8512.368333,-1838.629195
410.068427,2886.803174,-7624.121203,-1532.190996
410.068748,1184.329507,-7994.224174,-1762.019645
410.069070,-296.082377,-9400.615463,-2374.896044
410.069392,-1628.453072,-11325.150913,-1991.848295
410.069714,-4145.153275,-12731.542202,-1302.362347
410.070036,-5699.585753,-13175.665768,-153.219100
410.070358,-7254.018232,-11547.212695,0.000000
410.070679,-7402.059420,-9548.656652,-306.438199
410.071001,-6957.935855,-7476.080014,-919.314598
410.071323,-5625.565159,-5699.585753,-2987.772442
410.071645,-4885.359217,-4885.359217,-2987.772442
410.071967,-3923.091493,-6069.688724,-1915.238745
410.072288,-3108.864956,-6661.853478,-1149.143247
410.072610,-2368.659014,-7698.141797,-3370.820191
410.072932,-962.267725,-10955.047942,-5362.668486
410.073254,-1036.288319,-13693.809927,-4519.963438
410.073576,-2146.597232,-14582.057057,-2987.772442
410.073898,-3034.844362,-13989.892304,-2145.067394
410.074219,-2886.803174,-13767.830521,-2221.676944
410.074541,-2516.700203,-12583.501014,-2604.724693
410.074863,-3256.906145,-9844.739029,-2451.505594
410.075185,-4737.318029,-8216.285956,-766.095498
410.075507,-5551.544565,-6143.709319,-76.609550
410.075829,-4885.359217,-5181.441594,-842.705048
410.076150,-3627.009116,-5551.544565,-2068.457845
410.076472,-1998.556043,-7254.018232,-2068.457845
410.076794,-1184.329507,-8512.368333,-2068.457845
410.077116,-962.267725,-9252.574275,-383.047749
410.077438,-1184.329507,-8290.306550,0.000000
410.077760,-1036.288319,-8438.347739,-1608.800546
410.078081,-1480.411884,-10214.842000,-3983.696590
410.078403,-2960.823768,-11991.336260,-4749.792088
410.078725,-3108.864956,-15100.201217,-2604.724693
410.079047,-2886.803174,-16654.633695,229.828649
410.079369,-1924.535449,-15544.324782,2451.505594
410.079690,-740.205942,-12361.439231,3447.429741
410.080012,296.082377,-9104.533087,2681.334243
410.080334,1110.308913,-7105.977043,2604.724693
410.080656,74.020594,-5847.626942,2987.772442
410.080978,-1110.308913,-3923.091493,3217.601092
410.081300,-2960.823768,-3478.967927,3370.820191
410.081621,-5403.503377,-4145.153275,3907.087040
410.081943,-8290.306550,-3552.988522,3370.820191
410.082265,-8808.450710,-4515.256246,-1991.848295
410.082587,-7476.080014,-5181.441594,-5745.716235
410.082909,-6661.853478,-6883.915261,-5898.935335
410.083231,-6439.791695,-9400.615463,-4673.182538
410.083552,-6957.935855,-13249.686362,-3217.601092
410.083874,-5921.647536,-17098.757260,-2681.334243
410.084196,-5699.585753,-17098.757260,-4060.306139
410.084518,-4293.194464,-16580.613101,-4673.182538
410.084840,-2590.720797,-14582.057057,-2298.286494
410.085161,-2442.679609,-10732.986159,919.314598
410.085483,-2886.803174,-5995.668130,3294.210641
410.085805,-1924.535449,-3997.112087,5056.230287
410.086127,-1036.288319,-3034.844362,4060.306139
410.086449,-666.185348,-3108.864956,1378.971896
410.086771,-666.185348,-5329.482782,1455.581446
410.087092,-1110.308913,-8660.409521,2604.724693
410.087414,-1924.535449,-10658.965565,4060.306139
410.087736,-518.144159,-11769.274478,2221.676944
410.088058,1776.494261,-10584.944971,-1225.752797
410.088380,2146.597232,-9030.512492,-3907.087040
410.088702,1406.391290,-10510.924376,-3830.477490
410.089023,0.000000,-14804.118840,-3370.820191
410.089345,74.020594,-16728.654289,-2757.943793
410.089667,666.185348,-16654.633695,-2834.553343
410.089989,1702.473667,-16210.510130,-689.485948
410.090311,2368.659014,-13545.768739,1455.581446
410.090633,888.247130,-9474.636058,1149.143247
410.090954,-1036.288319,-5921.647536,2451.505594
410.091276,-1332.370696,-3923.091493,4443.353888
410.091598,-444.123565,-1776.494261,2681.334243
410.091920,74.020594,370.102971,0.000000
410.092242,1258.350101,-1036.288319,-306.438199
410.092563,2294.638420,-5773.606348,2528.115143
410.092885,1480.411884,-8068.244768,3907.087040
410.093207,1480.411884,-9252.574275,1225.752797
410.093529,2368.659014,-11991.336260,-3753.867940
410.093851,2590.720797,-13323.706956,-5669.106685
410.094173,74.020594,-12953.603985,-4673.182538
410.094494,-1628.453072,-15100.201217,-1838.629195
410.094816,-2294.638420,-16950.716072,0.000000
410.095138,-2442.679609,-15988.448347,-612.876398
410.095460,-2812.782580,-14211.954086,-383.047749
410.095782,-2664.741391,-13249.686362,2681.334243
410.096104,-2516.700203,-11621.233289,4596.572988
410.096425,-3330.926739,-8808.450710,5286.058936
410.096747,-3701.029710,-6291.750507,7124.688131
410.097069,-2960.823768,-4959.379811,6971.469032
410.097391,-2812.782580,-6143.709319,4290.134789
410.097713,-3478.967927,-7105.977043,3907.087040
410.098035,-2664.741391,-6809.894666,5515.887586
410.098356,1332.370696,-7031.956449,3294.210641
410.098678,4737.318029,-6661.853478,0.000000
410.099000,5847.626942,-5033.400406,0.000000
410.099322,3627.009116,-4737.318029,0.000000
410.099644,1554.432478,-9622.677246,-2145.067394
410.099965,-592.164754,-13693.809927,-4290.134789
410.100287,-4515.256246,-15840.407159,-4749.792088
410.100609,-9030.512492,-17616.901420,-2451.505594
410.100931,-11251.130318,-18283.086767,2374.896044
410.101253,-12065.356855,-16284.530724,4519.963438
410.101575,-10436.903782,-11991.336260,3600.648841
410.101896,-7994.224174,-10140.821405,3907.087040
410.102218,-5773.606348,-9030.512492,5975.544884
410.102540,-5033.400406,-7402.059420,8886.707777
410.102862,-3256.906145,-2516.700203,12563.966167
410.103184,222.061783,2146.597232,11414.822920
410.103506,5921.647536,1554.432478,5745.716235
410.103827,10066.800811,-1924.535449,1608.800546
410.104149,10658.965565,-4885.359217,1685.410096
410.104471,7698.141797,-7254.018232,3907.087040
410.104793,5181.441594,-14582.057057,6205.373534
410.105115,2812.782580,-20207.622217,4519.963438
410.105437,-740.205942,-19319.375086,-1685.410096
410.105758,-3701.029710,-16802.674883,-4366.744339
410.106080,-3923.091493,-15618.345376,-2145.067394
410.106402,-3849.070898,-11177.109724,306.438199
410.106724,-3849.070898,-4663.297435,459.657299
410.107046,-3552.988522,-2664.741391,1455.581446
410.107367,-2960.823768,-6143.709319,3600.648841
410.107689,-4219.173869,-8586.388927,3907.087040
410.108011,-5773.606348,-7772.162391,2911.162892
410.108333,-3775.050304,-7846.182985,2834.553343
410.108655,518.144159,-9770.718434,5209.449386
410.108977,2072.576638,-9622.677246,7814.174080
410.109298,3108.864956,-4515.256246,7737.564530
410.109620,8290.306550,-2294.638420,153.219100
410.109942,12657.521608,-4441.235652,-5822.325785
410.110264,10436.903782,-5847.626942,-4826.401637
410.110586,3997.112087,-8660.409521,-766.095498
410.110908,-1332.370696,-16506.592507,0.000000
410.111229,-3775.050304,-21539.992912,-1991.848295
410.111551,-5921.647536,-21391.951724,-5975.544884
410.111873,-5995.668130,-18579.169144,-7431.126331
410.112195,-3627.009116,-14804.118840,-4060.306139
410.112517,-1258.350101,-10732.986159,-1685.410096
410.112838,0.000000,-7105.977043,1149.143247
410.113160,2220.617826,-5107.421000,3830.477490
410.113482,3034.844362,-5847.626942,1685.410096
410.113804,2294.638420,-8068.244768,-1838.629195
410.114126,518.144159,-10214.842000,1072.533697
410.114448,1184.329507,-9104.533087,4060.306139
410.114769,3182.885551,-8290.306550,842.705048
410.115091,4959.379811,-10436.903782,153.219100
410.115413,3701.029710,-10584.944971,1225.752797
410.115735,-1702.473667,-9400.615463,995.924147
410.116057,-6883.915261,-8290.306550,229.828649
410.116379,-8808.450710,-7550.100608,-2451.505594
410.116700,-9400.615463,-7920.203579,-7048.078582
410.117022,-10732.986159,-9770.718434,-9039.926876
410.117344,-11473.192101,-13767.830521,-4596.572988
410.117666,-10214.842000,-16432.571912,153.219100
410.117988,-7402.059420,-14804.118840,612.876398
410.118310,-3923.091493,-13027.624579,1762.019645
410.118631,-1184.329507,-11029.068536,2145.067394
410.118953,1480.411884,-6365.771101,2221.676944
410.119275,4515.256246,-1406.391290,1608.800546
410.119597,7550.100608,666.185348,2834.553343
410.119919,9696.697840,0.000000,5745.716235
410.120240,8734.430116,-2738.761985,7354.516781
410.120562,4293.194464,-6809.894666,6665.030833
410.120884,814.226536,-10955.047942,5822.325785
410.121206,-962.267725,-14359.995275,4136.915689
410.121528,-2146.597232,-14804.118840,1991.848295
410.121850,-2664.741391,-12139.377449,1302.362347
410.122171,-1924.535449,-9474.636058,2298.286494
410.122493,-666.185348,-7179.997637,2221.676944
410.122815,-740.205942,-7105.977043,2068.457845
410.123137,-2664.741391,-8364.327145,919.314598
410.123459,-4663.297435,-9844.739029,0.000000
410.123781,-5403.503377,-12583.501014,153.219100
410.124102,-5625.565159,-14211.954086,1991.848295
410.124424,-4441.235652,-13027.624579,2834.553343
410.124746,-2294.638420,-11695.253884,2911.162892
410.125068,0.000000,-10510.924376,4060.306139
410.125390,1702.473667,-8882.471304,4903.011187
410.125712,2516.700203,-7105.977043,4060.306139
410.126033,4441.235652,-5995.668130,2834.553343
410.126355,5477.523971,-6957.935855,2145.067394
410.126677,5033.400406,-8364.327145,2298.286494
410.126999,3182.885551,-10288.862594,3600.648841
410.127321,370.102971,-11621.233289,3370.820191
410.127642,-2072.576638,-12731.542202,1608.800546
410.127964,-2590.720797,-13841.851115,-536.266849
410.128286,-2738.761985,-14211.954086,-842.705048
410.128608,-2368.659014,-13323.706956,536.266849
410.128930,-444.123565,-11103.089130,1378.971896
410.129252,1480.411884,-10140.821405,3064.381992
410.129573,2368.659014,-8586.388927,3140.991542
410.129895,1184.329507,-7698.141797,2145.067394
410.130217,-888.247130,-7698.141797,1991.848295
410.130539,-2072.576638,-8142.265362,2145.067394
410.130861,-2516.700203,-8512.368333,2298.286494
410.131183,-1184.329507,-8068.244768,1991.848295
410.131504,962.267725,-7105.977043,2451.505594
410.131826,2812.782580,-6809.894666,2451.505594
410.132148,3775.050304,-6883.915261,1838.629195
410.132470,2664.741391,-7105.977043,229.828649
410.132792,148.041188,-7550.100608,-919.314598
410.133114,-2738.761985,-8808.450710,-1685.410096
410.133435,-5329.482782,-9622.677246,-2451.505594
410.133757,-6365.771101,-10436.903782,-3677.258390
410.134079,-6735.874072,-10362.883188,-4443.353888
410.134401,-5847.626942,-11399.171507,-4213.525239
410.134723,-4293.194464,-12583.501014,-2757.943793
410.135044,-2442.679609,-13545.768739,-689.485948
410.135366,-1554.432478,-12657.521608,459.657299
410.135688,-962.267725,-10140.821405,995.924147
410.136010,-518.144159,-7402.059420,383.047749
410.136332,0.000000,-4589.276840,-689.485948
410.136654,962.267725,-3923.091493,-2451.505594
410.136975,2664.741391,-5033.400406,-2604.724693
410.137297,4589.276840,-8808.450710,-1532.190996
410.137619,5847.626942,-12139.377449,536.266849
410.137941,5329.482782,-13471.748144,1378.971896
410.138263,3552.988522,-11769.274478,229.828649
410.138585,1776.494261,-8364.327145,-2757.943793
410.138906,74.020594,-5329.482782,-6435.202183
410.139228,-1184.329507,-4441.235652,-9422.974625
410.139550,-4515.256246,-6883.915261,-10265.679673
410.139872,-7105.977043,-12361.439231,-6818.249932
410.140194,-8290.306550,-17838.963202,-2911.162892
410.140515,-8068.244768,-20651.745782,-1838.629195
410.140837,-5847.626942,-18801.230927,-1991.848295
410.141159,-3034.844362,-14063.912898,-3064.381992
410.141481,-666.185348,-8364.327145,-2911.162892
410.141803,518.144159,-3701.029710,-1915.238745
410.142125,1924.535449,-2738.761985,306.438199
410.142446,2590.720797,-4367.215058,1762.019645
410.142768,3182.885551,-7031.956449,2757.943793
410.143090,3849.070898,-8586.388927,2451.505594
410.143412,5773.606348,-9622.677246,536.266849
410.143734,8290.306550,-9992.780217,-766.095498
410.144056,8290.306550,-9400.615463,0.000000
410.144377,6439.791695,-7254.018232,1149.143247
410.144699,1776.494261,-6439.791695,-612.876398
410.145021,-2368.659014,-7624.121203,-3677.258390
410.145343,-5551.544565,-9326.594869,-6511.811733
410.145665,-6883.915261,-11991.336260,-7048.078582
410.145987,-6439.791695,-14359.995275,-4903.011187
410.146308,-5255.462188,-15544.324782,-383.047749
410.146630,-4515.256246,-13841.851115,1991.848295
410.146952,-4367.215058,-10584.944971,2528.115143
410.147274,-4515.256246,-7772.162391,1608.800546
410.147596,-4071.132681,-5551.544565,229.828649
410.147917,-3034.844362,-3478.967927,-995.924147
410.148239,-814.226536,-2146.597232,76.609550
410.148561,3034.844362,-3923.091493,2757.943793
410.148883,6513.812290,-6587.832884,4903.011187
410.149205,7476.080014,-8068.244768,4443.353888
410.149527,7105.977043,-8882.471304,1072.533697
410.149848,5551.544565,-9474.636058,-1378.971896
410.150170,2664.741391,-10140.821405,-3294.210641
410.150492,0.000000,-11621.233289,-3370.820191
410.150814,-2294.638420,-12731.542202,-3370.820191
410.151136,-2812.782580,-13027.624579,-3830.477490
410.151458,-3034.844362,-13767.830521,-3677.258390
410.151779,-3034.844362,-15100.201217,-2604.724693
410.152101,-3552.988522,-13619.789333,-919.314598
410.152423,-3849.070898,-11103.089130,-536.266849
410.152745,-3997.112087,-9548.656652,-229.828649
410.153067,-3182.885551,-8660.409521,536.266849
410.153389,-2442.679609,-6735.874072,766.095498
410.153710,-1554.432478,-5847.626942,459.657299
410.154032,222.061783,-6513.812290,766.095498
410.154354,2294.638420,-7846.182985,1608.800546
410.154676,3034.844362,-8438.347739,1762.019645
410.154998,3182.885551,-8586.388927,766.095498
410.155319,2812.782580,-8660.409521,-995.924147
410.155641,1406.391290,-8660.409521,-2757.943793
410.155963,-1036.288319,-9622.677246,-3677.258390
410.156285,-2886.803174,-10881.027347,-4443.353888
410.156607,-3552.988522,-11251.130318,-4673.182538
410.156929,-3627.009116,-13175.665768,-4749.792088
410.157250,-3256.906145,-14359.995275,-2298.286494
410.157572,-3034.844362,-13841.851115,-459.657299
410.157894,-2590.720797,-11399.171507,0.000000
410.158216,-2960.823768,-8364.327145,306.438199
410.158538,-1628.453072,-6513.812290,1072.533697
410.158860,-592.164754,-3775.050304,1225.752797
410.159181,1480.411884,-2738.761985,689.485948
410.159503,4219.173869,-3849.070898,766.095498
410.159825,6217.729913,-6513.812290,1608.800546
410.160147,6587.832884,-8586.388927,3064.381992
410.160469,4737.318029,-8882.471304,3140.991542
410.160790,2442.679609,-8660.409521,76.609550
410.161112,814.226536,-8660.409521,-3677.258390
410.161434,-592.164754,-8142.265362,-5439.278036
410.161756,-2146.597232,-8290.306550,-5822.325785
410.162078,-3552.988522,-10066.800811,-5286.058936
410.162400,-4293.194464,-13323.706956,-3983.696590
410.162721,-4885.359217,-15692.365970,-2528.115143
410.163043,-5625.565159,-14878.139434,-3064.381992
410.163365,-4885.359217,-12657.521608,-3907.087040
410.163687,-3923.091493,-10066.800811,-3600.648841
410.164009,-2960.823768,-8660.409521,-2145.067394
410.164331,-1628.453072,-6957.935855,0.000000
410.164652,1332.370696,-5181.441594,1455.581446
410.164974,4959.379811,-4885.359217,842.705048
410.165296,7624.121203,-6661.853478,-689.485948
410.165618,7846.182985,-8068.244768,-612.876398
410.165940,6735.874072,-7846.182985,0.000000
410.166262,5403.503377,-8734.430116,-1302.362347
410.166583,3923.091493,-10881.027347,-3294.210641
410.166905,888.247130,-12361.439231,-4443.353888
410.167227,-2072.576638,-12879.583391,-4903.011187
410.167549,-4441.235652,-13323.706956,-5822.325785
410.167871,-4293.194464,-14952.160028,-6358.592633
410.168192,-3849.070898,-13915.871710,-5286.058936
410.168514,-4367.215058,-10732.986159,-4749.792088
410.168836,-4145.153275,-9474.636058,-3140.991542
410.169158,-3701.029710,-10214.842000,-2221.676944
410.169480,-3552.988522,-10362.883188,-1762.019645
410.169802,-3701.029710,-9178.553681,-689.485948
410.170123,-1554.432478,-7254.018232,0.000000
410.170445,2960.823768,-6291.750507,-383.047749
410.170767,6143.709319,-5255.462188,-766.095498
410.171089,7031.956449,-4145.153275,383.047749
410.171411,6217.729913,-4219.173869,1455.581446
410.171733,3627.009116,-6143.709319,229.828649
410.172054,666.185348,-9326.594869,-1991.848295
410.172376,-3404.947333,-11473.192101,-4366.744339
410.172698,-5329.482782,-13693.809927,-4826.401637
410.173020,-5773.606348,-13323.706956,-4060.306139
410.173342,-4589.276840,-13619.789333,-2374.896044
410.173664,-3552.988522,-12583.501014,-1225.752797
410.173985,-2960.823768,-10584.944971,-229.828649
410.174307,-3997.112087,-9030.512492,0.000000
410.174629,-3775.050304,-7994.224174,-766.095498
410.174951,-2442.679609,-7402.059420,-689.485948
410.175273,-814.226536,-6439.791695,76.609550
410.175594,1036.288319,-5107.421000,2068.457845
410.175916,4441.235652,-5329.482782,3983.696590
410.176238,7031.956449,-6513.812290,3907.087040
410.176560,7179.997637,-6883.915261,1991.848295
410.176882,5625.565159,-6439.791695,1149.143247
410.177204,3478.967927,-6587.832884,306.438199
410.177525,1702.473667,-8882.471304,-2757.943793
410.177847,-814.226536,-10584.944971,-3294.210641
410.178169,-3182.885551,-11991.336260,-2374.896044
410.178491,-4737.318029,-13397.727550,-2757.943793
410.178813,-4959.379811,-15396.283594,-2911.162892
410.179135,-4959.379811,-15914.427753,-1991.848295
410.179456,-5477.523971,-13397.727550,-1532.190996
410.179778,-4737.318029,-10658.965565,-1762.019645
410.180100,-2220.617826,-9400.615463,-383.047749
410.180422,148.041188,-8364.327145,229.828649
410.180744,1702.473667,-5921.647536,1225.752797
410.181066,3849.070898,-4145.153275,1378.971896
410.181387,6883.915261,-5477.523971,1532.190996
410.181709,9030.512492,-8216.285956,536.266849
410.182031,7772.162391,-9474.636058,0.000000
410.182353,5921.647536,-10066.800811,995.924147
410.182675,4441.235652,-10436.903782,-383.047749
410.182997,2294.638420,-11473.192101,-2604.724693
410.183319,-1110.308913,-11251.130318,-3907.087040
410.183641,-4367.215058,-10732.986159,-3830.477490
410.183963,-5995.668130,-11843.295072,-5515.887586
410.184284,-6513.812290,-14063.912898,-4903.011187
410.184606,-7105.977043,-14730.098246,-2528.115143
410.184928,-8290.306550,-12805.562797,-612.876398
410.185250,-7550.100608,-9696.697840,-536.266849
410.185572,-4885.359217,-8364.327145,-1302.362347
410.185894,-2960.823768,-6217.729913,-1991.848295
410.186216,74.020594,-3478.967927,-612.876398
410.186538,2664.741391,-3478.967927,-842.705048
410.186860,5921.647536,-5477.523971,153.219100
410.187181,7105.977043,-7624.121203,1608.800546
410.187503,5403.503377,-7624.121203,2221.676944
410.187825,3701.029710,-6587.832884,0.000000
410.188147,2590.720797,-7920.203579,-3370.820191
410.188469,962.267725,-9918.759623,-6435.202183
410.188791,-2368.659014,-10140.821405,-5822.325785
410.189113,-5477.523971,-10140.821405,-3064.381992
410.189435,-6069.688724,-12435.459826,-1915.238745
410.189757,-5107.421000,-13767.830521,-2987.772442
410.190078,-5625.565159,-12657.521608,-5286.058936
410.190400,-5773.606348,-11399.171507,-4136.915689
410.190722,-4515.256246,-10436.903782,-1532.190996
410.191044,-2368.659014,-8808.450710,153.219100
410.191366,0.000000,-6069.688724,-689.485948
410.191688,2812.782580,-4293.194464,-306.438199
410.192010,6217.729913,-4293.194464,-229.828649
410.192332,8734.430116,-6069.688724,-1149.143247
410.192653,9178.553681,-8512.368333,-689.485948
410.192975,8290.306550,-9622.677246,612.876398
410.193297,6809.894666,-8956.491898,-153.219100
410.193619,4293.194464,-9548.656652,-2451.505594
410.193941,1258.350101,-10955.047942,-4519.963438
410.194263,-2146.597232,-11103.089130,-5669.106685
410.194585,-5329.482782,-12509.480420,-5975.544884
410.194907,-6439.791695,-14582.057057,-4519.963438
410.195229,-6735.874072,-15914.427753,-3140.991542
410.195550,-7328.038826,-14582.057057,-2221.676944
410.195872,-7105.977043,-11843.295072,-1762.019645
410.196194,-5403.503377,-9474.636058,-1762.019645
410.196516,-3182.885551,-7772.162391,-1915.238745
410.196838,-1332.370696,-6291.750507,-1302.362347
410.197160,592.164754,-5625.565159,842.705048
410.197482,3478.967927,-5625.565159,2298.286494
410.197804,6661.853478,-6513.812290,2451.505594
410.198126,8586.388927,-7254.018232,1072.533697
410.198447,7254.018232,-7105.977043,0.000000
410.198769,6291.750507,-6957.935855,-229.828649
410.199091,4219.173869,-8660.409521,-1225.752797
410.199413,1406.391290,-11029.068536,-2451.505594
410.199735,-1258.350101,-12953.603985,-2221.676944
410.200057,-4589.276840,-13397.727550,-2374.896044
410.200379,-5847.626942,-14508.036463,-2451.505594
410.200701,-6439.791695,-14211.954086,-1225.752797
410.201023,-5699.585753,-11473.192101,229.828649
410.201344,-5477.523971,-7476.080014,-306.438199
410.201666,-3997.112087,-5551.544565,0.000000
410.201988,-2442.679609,-5699.585753,1302.362347
410.202310,-1554.432478,-6143.709319,2145.067394
410.202632,296.082377,-5255.462188,2221.676944
410.202954,3034.844362,-5921.647536,1302.362347
410.203276,4959.379811,-8290.306550,1378.971896
410.203598,5107.421000,-9030.512492,1838.629195
410.203920,4145.153275,-7179.997637,995.924147
410.204241,3330.926739,-6143.709319,-1378.971896
410.204563,2516.700203,-8068.244768,-3370.820191
410.204885,-740.205942,-9622.677246,-4366.744339
410.205207,-3701.029710,-10732.986159,-3830.477490
410.205529,-5477.523971,-13397.727550,-4060.306139
410.205851,-6069.688724,-16580.613101,-3370.820191
410.206173,-6809.894666,-16506.592507,-2451.505594
410.206495,-7105.977043,-13693.809927,-1915.238745
410.206817,-5921.647536,-10732.986159,-1072.533697
410.207138,-3775.050304,-9474.636058,-1532.190996
410.207460,-1628.453072,-6957.935855,-766.095498
410.207782,518.144159,-4663.297435,0.000000
410.208104,4219.173869,-4293.194464,383.047749
410.208426,7698.141797,-6217.729913,76.609550
410.208748,8734.430116,-7994.224174,229.828649
410.209070,7254.018232,-8290.306550,1532.190996
410.209392,6513.812290,-6957.935855,229.828649
410.209714,5625.565159,-7402.059420,-3753.867940
410.210035,3404.947333,-9696.697840,-5822.325785
410.210357,-1036.288319,-9622.677246,-5592.497135
410.210679,-4811.338623,-10214.842000,-4903.011187
410.211001,-7105.977043,-13619.789333,-4749.792088
410.211323,-7402.059420,-16432.571912,-4443.353888
410.211645,-8734.430116,-14878.139434,-4903.011187
410.211967,-9104.533087,-11769.274478,-4366.744339
410.212289,-7624.121203,-10066.800811,-2221.676944
410.212610,-5107.421000,-9178.553681,-1378.971896
410.212932,-3701.029710,-6217.729913,-1455.581446
410.213254,-1554.432478,-4589.276840,0.000000
410.213576,1554.432478,-4589.276840,919.314598
410.213898,5329.482782,-6217.729913,919.314598
410.214220,7550.100608,-6513.812290,229.828649
410.214542,9030.512492,-6587.832884,-306.438199
410.214864,9474.636058,-6809.894666,-1149.143247
410.215186,8734.430116,-7994.224174,-2298.286494
410.215507,6217.729913,-10140.821405,-3447.429741
410.215829,2368.659014,-11695.253884,-3907.087040
410.216151,-1480.411884,-13693.809927,-4290.134789
410.216473,-4441.235652,-15174.221811,-4366.744339
410.216795,-5921.647536,-15766.386565,-4213.525239
410.217117,-6439.791695,-14137.933492,-3830.477490
410.217439,-6513.812290,-10658.965565,-3064.381992
410.217761,-5107.421000,-9030.512492,-1915.238745
410.218083,-4293.194464,-8512.368333,0.000000
410.218404,-3849.070898,-7328.038826,1149.143247
410.218726,-2590.720797,-6069.688724,1762.019645
410.219048,0.000000,-4959.379811,1302.362347
410.219370,2664.741391,-4515.256246,-229.828649
410.219692,4515.256246,-5329.482782,306.438199
410.220014,4885.359217,-6439.791695,995.924147
410.220336,4811.338623,-7031.956449,-459.657299
410.220658,4737.318029,-9326.594869,-3217.601092
410.220980,3108.864956,-11103.089130,-4903.011187
410.221301,444.123565,-12583.501014,-4673.182538
410.221623,-2516.700203,-13767.830521,-3983.696590
410.221945,-4219.173869,-15914.427753,-3677.258390
410.222267,-5181.441594,-16876.695478,-3370.820191
410.222589,-6217.729913,-14656.077652,-2834.553343
410.222911,-6883.915261,-11473.192101,-1072.533697
410.223233,-5625.565159,-9474.636058,306.438199
410.223555,-3478.967927,-7179.997637,536.266849
410.223877,-814.226536,-4515.256246,766.095498
410.224198,2442.679609,-3627.009116,2221.676944
410.224520,5477.523971,-3997.112087,2604.724693
410.224842,6957.935855,-6291.750507,2757.943793
410.225164,5699.585753,-7772.162391,3217.601092
410.225486,3404.947333,-7402.059420,2757.943793
410.225808,2368.659014,-7846.182985,-1149.143247
410.226130,2664.741391,-9548.656652,-4443.353888
410.226452,814.226536,-9548.656652,-5362.668486
410.226774,-2072.576638,-9844.739029,-4290.134789
410.227095,-4959.379811,-12657.521608,-3140.991542
410.227417,-6661.853478,-16506.592507,-2604.724693
410.227739,-8068.244768,-18061.024985,-3753.867940
410.228061,-9770.718434,-15470.304188,-4596.572988
410.228383,-9474.636058,-11917.315666,-2681.334243
410.228705,-7179.997637,-8808.450710,-612.876398
410.229027,-4515.256246,-5921.647536,0.000000
410.229349,-1258.350101,-3330.926739,2221.676944
410.229670,2072.576638,-2442.679609,3064.381992
410.229992,5107.421000,-3849.070898,2528.115143
410.230314,7105.977043,-5329.482782,2451.505594
410.230636,7402.059420,-6513.812290,2298.286494
410.230958,7179.997637,-6217.729913,1685.410096
410.231280,7105.977043,-5847.626942,0.000000
410.231602,5995.668130,-7698.141797,-3370.820191
410.231924,3478.967927,-9770.718434,-4596.572988
410.232246,-370.102971,-10881.027347,-3907.087040
410.232567,-3775.050304,-13619.789333,-4213.525239
410.232889,-5329.482782,-17764.942608,-4826.401637
410.233211,-6587.832884,-18505.148550,-4826.401637
410.233533,-7105.977043,-14878.139434,-4290.134789
410.233855,-5847.626942,-10510.924376,-2834.553343
410.234177,-3330.926739,-8068.244768,-1378.971896
410.234499,-1776.494261,-6217.729913,-383.047749
410.234821,-666.185348,-5329.482782,383.047749
410.235143,444.123565,-5329.482782,1762.019645
410.235464,2960.823768,-6439.791695,1685.410096
410.235786,5477.523971,-7031.956449,536.266849
410.236108,6957.935855,-7476.080014,-306.438199
410.236430,6809.894666,-6883.915261,306.438199
410.236752,6143.709319,-5995.668130,0.000000
410.237074,4885.359217,-8734.430116,-4213.525239
410.237396,2664.741391,-12139.377449,-6894.859482
410.237718,-1480.411884,-13915.871710,-5669.106685
410.238040,-5995.668130,-14952.160028,-4519.963438
410.238361,-7920.203579,-16580.613101,-3217.601092
410.238683,-8216.285956,-17098.757260,-4903.011187
410.239005,-8068.244768,-13249.686362,-5975.544884
410.239327,-7624.121203,-9770.718434,-4673.182538
410.239649,-6069.688724,-8956.491898,-842.705048
410.239971,-4737.318029,-7179.997637,612.876398
410.240293,-2812.782580,-6217.729913,689.485948
410.240615,-222.061783,-5181.441594,689.485948
410.240937,2516.700203,-4663.297435,459.657299
410.241258,4515.256246,-4071.132681,383.047749
410.241580,5477.523971,-3330.926739,383.047749
410.241902,5255.462188,-4959.379811,229.828649
410.242224,4145.153275,-7698.141797,-766.095498
410.242546,1998.556043,-9770.718434,-2298.286494
410.242868,222.061783,-12583.501014,-4673.182538
410.243190,-1480.411884,-13175.665768,-5056.230287
410.243512,-2738.761985,-12509.480420,-4213.525239
410.243834,-2960.823768,-13619.789333,-3753.867940
410.244155,-3701.029710,-12509.480420,-2681.334243
410.244477,-3849.070898,-10214.842000,-2451.505594
410.244799,-3552.988522,-9474.636058,-2145.067394
410.245121,-3034.844362,-9770.718434,-536.266849
410.245443,-2220.617826,-9400.615463,1149.143247
410.245765,-740.205942,-7254.018232,2068.457845
410.246087,2220.617826,-5921.647536,2681.334243
410.246409,5477.523971,-4811.338623,2681.334243
410.246731,6661.853478,-3849.070898,1685.410096
410.247052,6661.853478,-3775.050304,1455.581446
410.247374,4885.359217,-4663.297435,536.266849
410.247696,3627.009116,-7402.059420,-2451.505594
410.248018,1258.350101,-10881.027347,-3983.696590
410.248340,-1332.370696,-13249.686362,-3677.258390
410.248662,-4071.132681,-14656.077652,-3830.477490
410.248984,-4959.379811,-16432.571912,-4826.401637
410.249306,-6513.812290,-17838.963202,-4136.915689
410.249627,-7550.100608,-15544.324782,-3524.039291
410.249949,-7772.162391,-11769.274478,-4136.915689
410.250271,-5921.647536,-9548.656652,-3064.381992
410.250593,-3775.050304,-8734.430116,-842.705048
410.250915,-2516.700203,-6735.874072,-306.438199
410.251237,0.000000,-5181.441594,1072.533697
410.251559,2442.679609,-5995.668130,2681.334243
410.251881,4737.318029,-7179.997637,3600.648841
410.252203,6217.729913,-7031.956449,2451.505594
410.252524,6143.709319,-5699.585753,995.924147
410.252846,5699.585753,-5181.441594,0.000000
410.253168,5403.503377,-7402.059420,-1838.629195
410.253490,3775.050304,-10140.821405,-4366.744339
410.253812,1110.308913,-11177.109724,-4213.525239
410.254134,-1850.514855,-13027.624579,-3524.039291
410.254456,-4367.215058,-16654.633695,-3524.039291
410.254778,-6513.812290,-17838.963202,-4290.134789
410.255100,-7476.080014,-15026.180623,-4749.792088
410.255421,-7105.977043,-11325.150913,-4979.620737
410.255743,-5699.585753,-8290.306550,-1838.629195
410.256065,-3701.029710,-6439.791695,76.609550
410.256387,-2072.576638,-5033.400406,689.485948
410.256709,148.041188,-5107.421000,1455.581446
410.257031,2146.597232,-6365.771101,2528.115143
410.257353,4293.194464,-6809.894666,2604.724693
410.257675,4663.297435,-6439.791695,2681.334243
410.257997,4367.215058,-5699.585753,2374.896044
410.258318,3775.050304,-4737.318029,995.924147
410.258640,3923.091493,-6143.709319,-1991.848295
410.258962,3256.906145,-7920.203579,-4136.915689
410.259284,814.226536,-9178.553681,-5515.887586
410.259606,-2146.597232,-12213.398043,-4673.182538
410.259928,-4737.318029,-17468.860231,-2298.286494
410.260250,-7254.018232,-19097.313304,-2068.457845
410.260572,-8216.285956,-16358.551318,-4290.134789
410.260894,-7476.080014,-11991.336260,-5056.230287
410.261215,-4515.256246,-9622.677246,-3447.429741
410.261537,-3552.988522,-7105.977043,-1608.800546
410.261859,-2368.659014,-4811.338623,153.219100
410.262181,74.020594,-4589.276840,2145.067394
410.262503,3923.091493,-5329.482782,2681.334243
410.262825,5625.565159,-5107.421000,229.828649
410.263147,5551.544565,-4959.379811,-459.657299
410.263469,5551.544565,-6217.729913,-383.047749
410.263791,5181.441594,-7698.141797,-306.438199
410.264112,4145.153275,-9178.553681,-1685.410096
410.264434,2590.720797,-11029.068536,-3064.381992
410.264756,740.205942,-12731.542202,-4903.011187
410.265078,-2072.576638,-13471.748144,-4826.401637
410.265400,-4071.132681,-14582.057057,-3983.696590
410.265722,-4737.318029,-14878.139434,-4366.744339
410.266044,-3701.029710,-13471.748144,-5056.230287
410.266366,-3701.029710,-11473.192101,-4290.134789
410.266688,-3552.988522,-10584.944971,-1072.533697
410.267009,-3034.844362,-10214.842000,842.705048
410.267331,-1628.453072,-8142.265362,842.705048
410.267653,592.164754,-6365.771101,0.000000
410.267975,3552.988522,-4737.318029,229.828649
410.268297,4441.235652,-2886.803174,306.438199
410.268619,4663.297435,-3330.926739,689.485948
410.268941,3034.844362,-5773.606348,919.314598
410.269263,814.226536,-7772.162391,0.000000
410.269584,-1184.329507,-10584.944971,-2681.334243
410.269906,-2960.823768,-12953.603985,-5592.497135
410.270228,-4219.173869,-13101.645173,-6205.373534
410.270550,-5033.400406,-12805.562797,-5592.497135
410.270872,-5033.400406,-13619.789333,-4366.744339
410.271194,-4811.338623,-13175.665768,-3140.991542
410.271516,-4959.379811,-10955.047942,-3217.601092
410.271838,-5181.441594,-8734.430116,-3370.820191
410.272160,-3478.967927,-8734.430116,-2221.676944
410.272481,-1406.391290,-8364.327145,-1838.629195
410.272803,1332.370696,-7105.977043,-229.828649
410.273125,4737.318029,-6883.915261,1532.190996
410.273447,7105.977043,-7402.059420,4060.306139
410.273769,7624.121203,-6587.832884,3524.039291
410.274091,7254.018232,-5181.441594,2451.505594
410.274413,6291.750507,-4219.173869,0.000000
410.274735,5773.606348,-4737.318029,-2528.115143
410.275057,4071.132681,-7402.059420,-4290.134789
410.275378,1628.453072,-10066.800811,-3753.867940
410.275700,-1258.350101,-12509.480420,-2604.724693
410.276022,-3478.967927,-14656.077652,-2145.067394
410.276344,-5625.565159,-16506.592507,-2604.724693
410.276666,-7698.141797,-15914.427753,-4903.011187
410.276988,-8660.409521,-12879.583391,-6281.983084
410.277310,-7920.203579,-10288.862594,-5132.839837
410.277632,-5699.585753,-8586.388927,-1991.848295
410.277954,-3775.050304,-6735.874072,-919.314598
410.278275,-888.247130,-5403.503377,-766.095498
410.278597,1628.453072,-6439.791695,536.266849
410.278919,3182.885551,-7772.162391,919.314598
410.279241,3404.947333,-8512.368333,459.657299
410.279563,3997.112087,-8216.285956,919.314598
410.279885,4737.318029,-7698.141797,459.657299
410.280207,5107.421000,-7772.162391,-1225.752797
410.280529,3256.906145,-8586.388927,-2528.115143
410.280851,666.185348,-10066.800811,-2451.505594
410.281172,-1776.494261,-11325.150913,-2604.724693
410.281494,-2886.803174,-13989.892304,-2757.943793
410.281816,-3923.091493,-15100.201217,-3140.991542
410.282138,-4737.318029,-13989.892304,-2834.553343
410.282460,-5329.482782,-10732.986159,-2757.943793
410.282782,-3923.091493,-9992.780217,-2374.896044
410.283104,-2516.700203,-9030.512492,-995.924147
410.283426,-1406.391290,-7698.141797,0.000000
410.283748,0.000000,-5699.585753,383.047749
410.284069,3256.906145,-5477.523971,1072.533697
410.284391,5403.503377,-6513.812290,612.876398
410.284713,4737.318029,-7328.038826,1072.533697
410.285035,2516.700203,-6883.915261,2681.334243
410.285356,1406.391290,-6439.791695,1072.533697
410.285678,1258.350101,-8512.368333,-2221.676944
410.286000,0.000000,-9622.677246,-3830.477490
410.286322,-2442.679609,-9326.594869,-3064.381992
410.286643,-3627.009116,-10658.965565,-2528.115143
410.286965,-3330.926739,-13323.706956,-1915.238745
410.287287,-3849.070898,-14063.912898,-1915.238745
410.287609,-5181.441594,-11177.109724,-2911.162892
410.287930,-5477.523971,-9474.636058,-2604.724693
410.288252,-4145.153275,-9622.677246,-1608.800546
410.288574,-2442.679609,-9622.677246,-1072.533697
410.288896,-1258.350101,-8290.306550,-229.828649
410.289218,1332.370696,-7105.977043,1762.019645
410.289539,4885.359217,-6883.915261,2221.676944
410.289861,6809.894666,-6439.791695,229.828649
410.290183,6883.915261,-5329.482782,-612.876398
410.290505,5995.668130,-4959.379811,-842.705048
410.290826,4663.297435,-7031.956449,-766.095498
410.291148,1850.514855,-10140.821405,-2451.505594
410.291470,-1406.391290,-12139.377449,-3294.210641
410.291792,-4515.256246,-13027.624579,-3524.039291
410.292113,-5773.606348,-13915.871710,-3447.429741
410.292435,-5181.441594,-14952.160028,-3600.648841
410.292757,-4811.338623,-13027.624579,-4903.011187
410.293079,-4441.235652,-10066.800811,-4826.401637
410.293400,-3627.009116,-9474.636058,-2451.505594
410.293722,-2664.741391,-9400.615463,-536.266849
410.294044,-2368.659014,-8512.368333,-1608.800546
410.294366,-1258.350101,-7328.038826,-2298.286494
410.294688,1850.514855,-6883.915261,-1302.362347
410.295009,5625.565159,-7698.141797,-383.047749
410.295331,7994.224174,-8882.471304,-612.876398
410.295653,7105.977043,-8438.347739,0.000000
410.295975,4663.297435,-7772.162391,1915.238745
410.296296,2812.782580,-9178.553681,995.924147
410.296618,740.205942,-9844.739029,-2834.553343
410.296940,-1702.473667,-8956.491898,-5822.325785
410.297262,-3997.112087,-9474.636058,-4903.011187
410.297583,-4145.153275,-11695.253884,-3140.991542
410.297905,-4515.256246,-12731.542202,-1608.800546
410.298227,-5329.482782,-11251.130318,-1762.019645
410.298549,-6365.771101,-9474.636058,-1838.629195
410.298871,-5699.585753,-8586.388927,-2451.505594
410.299192,-4737.318029,-8216.285956,-3524.039291
410.299514,-3330.926739,-7698.141797,-3064.381992
410.299836,-1628.453072,-7772.162391,-306.438199
410.300158,1850.514855,-7402.059420,1455.581446
410.300479,6365.771101,-7550.100608,1225.752797
410.300801,7920.203579,-8142.265362,-536.266849
410.301123,7920.203579,-8290.306550,-459.657299
410.301445,6143.709319,-7031.956449,-536.266849
410.301766,5107.421000,-8216.285956,-1608.800546
410.302088,2886.803174,-10140.821405,-2681.334243
410.302410,-296.082377,-10807.006753,-2451.505594
410.302732,-3775.050304,-9918.759623,-2604.724693
410.303053,-4441.235652,-12509.480420,-3140.991542
410.303375,-4737.318029,-14211.954086,-2451.505594
410.303697,-5107.421000,-12065.356855,-3217.601092
410.304019,-5625.565159,-9696.697840,-3753.867940
410.304341,-4589.276840,-9770.718434,-2068.457845
410.304662,-3108.864956,-10881.027347,-1378.971896
410.304984,-3478.967927,-9326.594869,-1455.581446
410.305306,-2294.638420,-7994.224174,-842.705048
410.305628,1776.494261,-7624.121203,-1149.143247
410.305949,5181.441594,-8290.306550,-2068.457845
410.306271,5181.441594,-8438.347739,-1378.971896
410.306593,3997.112087,-7846.182985,1838.629195
410.306915,3478.967927,-7031.956449,1532.190996
410.307236,2590.720797,-7772.162391,-1762.019645
410.307558,-148.041188,-8956.491898,-3677.258390
410.307880,-3775.050304,-9770.718434,-3753.867940
410.308202,-5773.606348,-11325.150913,-3064.381992
410.308523,-5551.544565,-14211.954086,-1685.410096
410.308845,-5551.544565,-14285.974681,-612.876398
410.309167,-5921.647536,-11251.130318,-536.266849
410.309489,-5181.441594,-8586.388927,-383.047749
410.309811,-3775.050304,-6883.915261,-153.219100
410.310132,-1702.473667,-5551.544565,-1225.752797
410.310454,-148.041188,-4589.276840,-2451.505594
410.310776,1924.535449,-5107.421000,-919.314598
410.311098,4959.379811,-7920.203579,1685.410096
410.311419,6365.771101,-10584.944971,2298.286494
410.311741,6365.771101,-11473.192101,612.876398
410.312063,5921.647536,-9696.697840,76.609550
410.312385,6217.729913,-7624.121203,-766.095498
410.312706,4737.318029,-7476.080014,-2221.676944
410.313028,1850.514855,-7402.059420,-2757.943793
410.313350,-1480.411884,-7550.100608,-2757.943793
410.313672,-3701.029710,-9844.739029,-3140.991542
410.313993,-4441.235652,-14137.933492,-2681.334243
410.314315,-5847.626942,-15766.386565,-1685.410096
410.314637,-7254.018232,-13989.892304,-1149.143247
410.314959,-6957.935855,-11843.295072,-1072.533697
410.315281,-5033.400406,-10881.027347,-689.485948
410.315602,-2368.659014,-8290.306550,-612.876398
410.315924,222.061783,-5107.421000,-842.705048
410.316246,2516.700203,-3849.070898,-612.876398
410.316568,5625.565159,-4959.379811,306.438199
410.316889,6291.750507,-7105.977043,1225.752797
410.317211,6143.709319,-8956.491898,536.266849
410.317533,5551.544565,-10066.800811,-1149.143247
410.317855,4737.318029,-11843.295072,-2451.505594
410.318176,2072.576638,-12953.603985,-2068.457845
410.318498,-1628.453072,-11621.233289,-1225.752797
410.318820,-4293.194464,-10214.842000,-2604.724693
410.319142,-4737.318029,-10732.986159,-4290.134789
410.319464,-4737.318029,-11695.253884,-4290.134789
410.319785,-6513.812290,-11325.150913,-3447.429741
410.320107,-6883.915261,-11103.089130,-1608.800546
410.320429,-6735.874072,-11325.150913,0.000000
410.320751,-5033.400406,-10584.944971,689.485948
410.321072,-3256.906145,-8586.388927,229.828649
410.321394,0.000000,-6365.771101,-995.924147
410.321716,3552.988522,-4663.297435,-1302.362347
410.322038,6957.935855,-5255.462188,-919.314598
410.322359,7920.203579,-7105.977043,1302.362347
410.322681,8364.327145,-7105.977043,1608.800546
410.323003,6661.853478,-7476.080014,76.609550
410.323325,4219.173869,-9696.697840,-1762.019645
410.323646,888.247130,-10881.027347,-2604.724693
410.323968,-1924.535449,-10955.047942,-4366.744339
410.324290,-4293.194464,-11843.295072,-3983.696590
410.324612,-5107.421000,-13767.830521,-1915.238745
410.324934,-5551.544565,-13397.727550,-1685.410096
410.325255,-6069.688724,-10732.986159,-2451.505594
410.325577,-6513.812290,-9400.615463,-1149.143247
410.325899,-5995.668130,-8216.285956,-1378.971896
410.326221,-5181.441594,-6513.812290,-1608.800546
410.326542,-3478.967927,-5773.606348,-536.266849
410.326864,-1036.288319,-6587.832884,0.000000
410.327186,1628.453072,-7105.977043,76.609550
410.327508,3701.029710,-7624.121203,229.828649
410.327829,4737.318029,-7550.100608,306.438199
410.328151,6883.915261,-7105.977043,-1225.752797
410.328473,7105.977043,-7624.121203,-3983.696590
410.328795,5773.606348,-9474.636058,-3753.867940
410.329116,2886.803174,-11029.068536,-2834.553343
410.329438,-148.041188,-11547.212695,-2451.505594
410.329760,-2294.638420,-13027.624579,-3064.381992
410.330082,-3256.906145,-14211.954086,-2987.772442
410.330404,-4367.215058,-13619.789333,-3524.039291
410.330725,-5033.400406,-11547.212695,-2298.286494
410.331047,-4515.256246,-10140.821405,-919.314598
410.331369,-2368.659014,-8512.368333,0.000000
410.331691,-1258.350101,-7105.977043,153.219100
410.332012,-444.123565,-5403.503377,842.705048
410.332334,1258.350101,-4959.379811,459.657299
410.332656,3701.029710,-5551.544565,0.000000
410.332978,5107.421000,-7476.080014,-536.266849
410.333299,4737.318029,-9252.574275,-766.095498
410.333621,4219.173869,-10066.800811,-153.219100
410.333943,3034.844362,-10584.944971,-1838.629195
410.334265,1332.370696,-10955.047942,-3217.601092
410.334586,-1554.432478,-10658.965565,-3907.087040
410.334908,-3404.947333,-10584.944971,-4596.572988
410.335230,-4959.379811,-10955.047942,-5822.325785
410.335552,-5699.585753,-12657.521608,-4136.915689
410.335874,-7179.997637,-12657.521608,-995.924147
410.336195,-7105.977043,-12139.377449,-612.876398
410.336517,-7105.977043,-10584.944971,-919.314598
410.336839,-5995.668130,-9918.759623,-995.924147
410.337161,-4811.338623,-8660.409521,-153.219100
410.337482,-2590.720797,-6661.853478,1149.143247
410.337804,1332.370696,-4811.338623,919.314598
410.338126,6513.812290,-4441.235652,229.828649
410.338448,9696.697840,-5995.668130,-459.657299
410.338769,9696.697840,-7994.224174,536.266849
410.339091,7920.203579,-9326.594869,1302.362347
410.339413,5403.503377,-10140.821405,-842.705048
410.339735,2960.823768,-11621.233289,-2681.334243
410.340057,518.144159,-10807.006753,-4136.915689
410.340378,-1406.391290,-9770.718434,-4673.182538
410.340700,-2442.679609,-10955.047942,-4519.963438
410.341022,-3701.029710,-13027.624579,-2068.457845
410.341344,-5033.400406,-13397.727550,-459.657299
410.341665,-6143.709319,-11991.336260,-383.047749
410.341987,-6439.791695,-10881.027347,-766.095498
410.342309,-5255.462188,-9178.553681,-842.705048
410.342631,-4293.194464,-7031.956449,-229.828649
410.342952,-2220.617826,-4219.173869,459.657299
410.343274,1036.288319,-3256.906145,306.438199
410.343596,4515.256246,-5033.400406,536.266849
410.343918,4959.379811,-7254.018232,1225.752797
410.344239,3997.112087,-7624.121203,1378.971896
410.344561,4145.153275,-7698.141797,-766.095498
410.344883,4589.276840,-8956.491898,-4213.525239
410.345205,3775.050304,-10066.800811,-4903.011187
410.345527,1258.350101,-10658.965565,-4366.744339
410.345848,-1406.391290,-12065.356855,-3524.039291
410.346170,-3997.112087,-14434.015869,-2068.457845
410.346492,-5551.544565,-16950.716072,-2068.457845
410.346814,-7179.997637,-14804.118840,-1608.800546
410.347135,-6587.832884,-10881.027347,-2145.067394
410.347457,-4737.318029,-8438.347739,-2374.896044
410.347779,-2516.700203,-6217.729913,-536.266849
410.348101,-1406.391290,-4441.235652,1072.533697
410.348422,888.247130,-4219.173869,2374.896044
410.348744,3256.906145,-5995.668130,1072.533697
410.349066,4737.318029,-9326.594869,76.609550
410.349388,4737.318029,-10288.862594,306.438199
410.349709,4737.318029,-9326.594869,76.609550
410.350031,4811.338623,-8808.450710,-1991.848295
410.350353,5255.462188,-9696.697840,-3447.429741
410.350675,2886.803174,-9918.759623,-3907.087040
410.350997,-814.226536,-9992.780217,-4596.572988
410.351318,-3849.070898,-11843.295072,-4136.915689
410.351640,-4515.256246,-15692.365970,-4060.306139
410.351962,-5995.668130,-15988.448347,-3064.381992
410.352284,-7105.977043,-12361.439231,-2145.067394
410.352605,-6587.832884,-9844.739029,-995.924147
410.352927,-5033.400406,-8364.327145,0.000000
410.353249,-4663.297435,-7031.956449,536.266849
410.353571,-3923.091493,-5329.482782,995.924147
410.353892,-1998.556043,-5255.462188,1455.581446
410.354214,1480.411884,-5699.585753,1302.362347
410.354536,4737.318029,-5773.606348,1149.143247
410.354858,5477.523971,-5329.482782,1762.019645
410.355180,6809.894666,-5033.400406,612.876398
410.355501,7254.018232,-6587.832884,-1762.019645
410.355823,5921.647536,-8956.491898,-3677.258390
410.356145,2886.803174,-9992.780217,-3830.477490
410.356467,-148.041188,-11251.130318,-3140.991542
410.356788,-2146.597232,-13471.748144,-3907.087040
410.357110,-3701.029710,-14952.160028,-3677.258390
410.357432,-5033.400406,-14063.912898,-3753.867940
410.357754,-5699.585753,-11621.233289,-3524.039291
410.358075,-5255.462188,-9992.780217,-1302.362347
410.358397,-4441.235652,-8512.368333,-153.219100
410.358719,-3849.070898,-7105.977043,-536.266849
410.359041,-2590.720797,-6143.709319,76.609550
410.359362,370.102971,-6587.832884,995.924147
410.359684,2886.803174,-6661.853478,612.876398
410.360006,4959.379811,-6513.812290,383.047749
410.360328,5329.482782,-6809.894666,76.609550
410.360650,6143.709319,-7920.203579,-842.705048
410.360971,6217.729913,-9178.553681,-3907.087040
410.361293,4589.276840,-11177.109724,-5975.544884
410.361615,1258.350101,-12509.480420,-5515.887586
410.361937,-1702.473667,-13767.830521,-3830.477490
410.362258,-4071.132681,-16432.571912,-4749.792088
410.362580,-6069.688724,-17764.942608,-5132.839837
410.362902,-7772.162391,-16358.551318,-4826.401637
410.363224,-7994.224174,-13323.706956,-3140.991542
410.363545,-6809.894666,-10214.842000,-1302.362347
410.363867,-3997.112087,-8216.285956,0.000000
410.364189,-3034.844362,-5403.503377,842.705048
410.364511,-1480.411884,-3701.029710,2451.505594
410.364832,962.267725,-2664.741391,3447.429741
410.365154,5033.400406,-3552.988522,1762.019645
410.365476,6809.894666,-5921.647536,153.219100
410.365798,5625.565159,-8808.450710,1455.581446
410.366120,3923.091493,-9326.594869,2987.772442
410.366441,3552.988522,-9474.636058,612.876398
410.366763,3627.009116,-10214.842000,-3370.820191
410.367085,2294.638420,-8882.471304,-5439.278036
410.367407,-888.247130,-8290.306550,-4979.620737
410.367728,-2590.720797,-10955.047942,-4060.306139
410.368050,-3182.885551,-15618.345376,-2374.896044
410.368372,-5033.400406,-16654.633695,-1532.190996
410.368694,-7254.018232,-13323.706956,-536.266849
410.369015,-7105.977043,-10510.924376,919.314598
410.369337,-5255.462188,-7994.224174,536.266849
410.369659,-3108.864956,-4219.173869,-842.705048
410.369981,-888.247130,-1184.329507,306.438199
410.370302,2146.597232,-1628.453072,1838.629195
410.370624,4959.379811,-5773.606348,2834.553343
410.370946,4737.318029,-9400.615463,3370.820191
410.371268,3330.926739,-9400.615463,3524.039291
410.371590,3997.112087,-8438.347739,0.000000
410.371911,6661.853478,-8660.409521,-4826.401637
410.372233,6513.812290,-8364.327145,-5669.106685
410.372555,3701.029710,-8290.306550,-4443.353888
410.372877,666.185348,-11177.109724,-2834.553343
410.373198,-1110.308913,-15692.365970,-2451.505594
410.373520,-3701.029710,-17764.942608,-3064.381992
410.373842,-7476.080014,-15544.324782,-3217.601092
410.374164,-7550.100608,-12213.398043,-2987.772442
410.374485,-5921.647536,-9548.656652,-2604.724693
410.374807,-3775.050304,-7476.080014,-1915.238745
410.375129,-3182.885551,-6217.729913,995.924147
410.375451,-1998.556043,-5921.647536,3524.039291
410.375773,-592.164754,-6513.812290,2451.505594
410.376094,2146.597232,-7254.018232,459.657299
410.376416,3256.906145,-6439.791695,-1225.752797
410.376738,3775.050304,-5329.482782,-1378.971896
410.377060,4071.132681,-5921.647536,-1991.848295
410.377381,2886.803174,-8438.347739,-4060.306139
410.377703,962.267725,-11843.295072,-4903.011187
410.378025,-1998.556043,-13545.768739,-4596.572988
410.378347,-4145.153275,-15544.324782,-4979.620737
410.378668,-5033.400406,-17616.901420,-6052.154434
410.378990,-5477.523971,-16284.530724,-5286.058936
410.379312,-4441.235652,-12065.356855,-3524.039291
410.379634,-2590.720797,-7994.224174,-2451.505594
410.379955,-1184.329507,-5995.668130,-1685.410096
410.380277,-1036.288319,-6439.791695,-153.219100
410.380599,-1776.494261,-7031.956449,1302.362347
410.380921,-370.102971,-7031.956449,3064.381992
410.381243,1998.556043,-7105.977043,2451.505594
410.381564,5329.482782,-6809.894666,1685.410096
410.381886,6809.894666,-5329.482782,995.924147
410.382208,7179.997637,-3627.009116,1838.629195
410.382530,7624.121203,-3478.967927,459.657299
410.382851,5255.462188,-7254.018232,-3294.210641
410.383173,1406.391290,-10881.027347,-4979.620737
410.383495,-2368.659014,-12139.377449,-3983.696590
410.383817,-4663.297435,-13175.665768,-4519.963438
410.384138,-5329.482782,-15692.365970,-4366.744339
410.384460,-6217.729913,-15840.407159,-4749.792088
410.384782,-7105.977043,-12139.377449,-3524.039291
410.385104,-7179.997637,-9400.615463,-3140.991542
410.385426,-5625.565159,-9178.553681,-1685.410096
410.385747,-4663.297435,-8364.327145,-612.876398
410.386069,-3478.967927,-6217.729913,-612.876398
410.386391,-666.185348,-5477.523971,459.657299
410.386713,3108.864956,-6587.832884,1838.629195
410.387034,5551.544565,-7476.080014,1762.019645
410.387356,6217.729913,-7772.162391,995.924147
410.387678,5995.668130,-7105.977043,612.876398
410.388000,6069.688724,-8586.388927,-766.095498
410.388321,5033.400406,-11103.089130,-3294.210641
410.388643,2738.761985,-11177.109724,-4060.306139
410.388965,666.185348,-10658.965565,-3524.039291
410.389287,-888.247130,-11917.315666,-3370.820191
410.389609,-2072.576638,-15174.221811,-2834.553343
410.389930,-4663.297435,-15692.365970,-2757.943793
410.390252,-6735.874072,-13545.768739,-3064.381992
410.390574,-7105.977043,-11843.295072,-2068.457845
