#time,accel_x,accel_y,accel_z
298.417483,-592.164754,-9548.656652,-1455.581446
298.417805,-518.144159,-9474.636058,-1532.190996
298.418127,-370.102971,-9474.636058,-1455.581446
298.418449,-444.123565,-9252.574275,-1608.800546
298.418770,-370.102971,-9178.553681,-1685.410096
298.419092,-592.164754,-9474.636058,-1915.238745
298.419414,-370.102971,-9548.656652,-1532.190996
298.419736,-518.144159,-9474.636058,-1302.362347
298.420058,-444.123565,-9474.636058,-689.485948
298.420380,-592.164754,-9400.615463,-1532.190996
298.420702,-296.082377,-9252.574275,-1455.581446
298.421024,-148.041188,-9178.553681,-1685.410096
298.421345,-148.041188,-9178.553681,-1762.019645
298.421667,0.000000,-9326.594869,-1685.410096
298.421989,0.000000,-9104.533087,-1225.752797
298.422311,0.000000,-9474.636058,-1378.971896
298.422633,0.000000,-9696.697840,-1225.752797
298.422955,-296.082377,-9622.677246,-1072.533697
298.423277,0.000000,-9474.636058,-1378.971896
298.423599,0.000000,-9178.553681,-1302.362347
298.423921,0.000000,-9104.533087,-1532.190996
298.424242,74.020594,-9326.594869,-1685.410096
298.424564,0.000000,-9326.594869,-1302.362347
298.424886,-222.061783,-9474.636058,-1302.362347
298.425208,148.041188,-9770.718434,-1455.581446
298.425530,0.000000,-9252.574275,-995.924147
298.425852,0.000000,-9400.615463,-1378.971896
298.426174,0.000000,-9474.636058,-1378.971896
298.426496,74.020594,-9400.615463,-1532.190996
298.426818,0.000000,-9178.553681,-1302.362347
298.427139,-370.102971,-9030.512492,-1302.362347
298.427461,0.000000,-9474.636058,-1532.190996
298.427783,-370.102971,-9474.636058,-1378.971896
298.428105,-518.144159,-9548.656652,-1225.752797
298.428427,-592.164754,-9696.697840,-1225.752797
298.428749,-666.185348,-9030.512492,-1378.971896
298.429071,-518.144159,-9252.574275,-1455.581446
298.429393,-296.082377,-9326.594869,-1532.190996
298.429715,-296.082377,-9030.512492,-1302.362347
298.430036,-666.185348,-9252.574275,-1302.362347
298.430358,-444.123565,-9326.594869,-1608.800546
298.430680,-518.144159,-9548.656652,-1455.581446
298.431002,-888.247130,-9622.677246,-1149.143247
298.431324,-666.185348,-9622.677246,-1302.362347
298.431646,-518.144159,-9474.636058,-1378.971896
298.431968,-666.185348,-9326.594869,-1225.752797
298.432290,-296.082377,-9326.594869,-842.705048
298.432612,-814.226536,-9030.512492,-1225.752797
298.432933,-444.123565,-9178.553681,-1378.971896
298.433255,148.041188,-9400.615463,-1762.019645
298.433577,888.247130,-9770.718434,-1838.629195
298.433899,1110.308913,-10066.800811,-766.095498
298.434221,888.247130,-9622.677246,-536.266849
298.434543,222.061783,-8882.471304,-766.095498
298.434865,0.000000,-9030.512492,-1532.190996
298.435187,-592.164754,-9252.574275,-1608.800546
298.435509,-1184.329507,-9326.594869,-1302.362347
298.435830,-1110.308913,-8660.409521,-1608.800546
298.436152,-148.041188,-9178.553681,-2068.457845
298.436474,518.144159,-10140.821405,-1455.581446
298.436796,0.000000,-10066.800811,-919.314598
298.437118,0.000000,-9474.636058,-766.095498
298.437440,444.123565,-8586.388927,-1762.019645
298.437762,1998.556043,-10140.821405,-2221.676944
298.438084,1628.453072,-9918.759623,-1225.752797
298.438405,1406.391290,-8734.430116,-536.266849
298.438727,2368.659014,-8512.368333,-919.314598
298.439049,3701.029710,-9622.677246,-1072.533697
298.439371,4071.132681,-9844.739029,-919.314598
298.439693,2886.803174,-8882.471304,76.609550
298.440015,2664.741391,-8290.306550,-153.219100
298.440337,3627.009116,-8586.388927,-919.314598
298.440659,3478.967927,-9326.594869,-1225.752797
298.440981,2738.761985,-7846.182985,-536.266849
298.441302,3108.864956,-7772.162391,-1378.971896
298.441624,4293.194464,-8734.430116,-2757.943793
298.441946,4737.318029,-10658.965565,-1838.629195
298.442268,4367.215058,-10955.047942,-1072.533697
298.442590,3775.050304,-10214.842000,-1072.533697
298.442912,4367.215058,-10066.800811,-2068.457845
298.443234,4441.235652,-10732.986159,-1608.800546
298.443556,4071.132681,-9992.780217,-2451.505594
298.443878,3034.844362,-8734.430116,-2145.067394
298.444199,2960.823768,-9178.553681,-1378.971896
298.444521,3552.988522,-8438.347739,-1685.410096
298.444843,4663.297435,-8734.430116,-2298.286494
298.445165,5033.400406,-9252.574275,-2145.067394
298.445487,5699.585753,-9992.780217,-1225.752797
298.445809,5921.647536,-9474.636058,-536.266849
298.446131,5773.606348,-9030.512492,-689.485948
298.446453,4959.379811,-8438.347739,-1762.019645
298.446775,3849.070898,-9400.615463,-2374.896044
298.447096,2442.679609,-10066.800811,-2604.724693
298.447418,1110.308913,-11325.150913,-2298.286494
298.447740,814.226536,-12731.542202,-1149.143247
298.448062,518.144159,-12879.583391,0.000000
298.448384,592.164754,-12953.603985,459.657299
298.448706,666.185348,-11991.336260,766.095498
298.449028,888.247130,-10732.986159,1149.143247
298.449350,518.144159,-9252.574275,1608.800546
298.449672,-222.061783,-7179.997637,1685.410096
298.449993,-1110.308913,-5477.523971,1149.143247
298.450315,-1110.308913,-4367.215058,-383.047749
298.450637,-444.123565,-4811.338623,-2068.457845
298.450959,814.226536,-5551.544565,-2681.334243
298.451281,2738.761985,-5773.606348,-3294.210641
298.451603,4441.235652,-6661.853478,-4136.915689
298.451925,6217.729913,-8660.409521,-4213.525239
298.452247,6439.791695,-11103.089130,-4673.182538
298.452568,5625.565159,-13027.624579,-4366.744339
298.452890,4589.276840,-14359.995275,-3294.210641
298.453212,4293.194464,-14508.036463,-2298.286494
298.453534,3552.988522,-13989.892304,-1225.752797
298.453856,2146.597232,-12435.459826,612.876398
298.454178,814.226536,-10436.903782,2834.553343
298.454500,296.082377,-8216.285956,2911.162892
298.454822,962.267725,-5699.585753,2834.553343
298.455144,1332.370696,-4737.318029,2451.505594
298.455465,666.185348,-3849.070898,1991.848295
298.455787,296.082377,-4663.297435,1072.533697
298.456109,444.123565,-6587.832884,689.485948
298.456431,1110.308913,-7105.977043,-995.924147
298.456753,1258.350101,-8216.285956,-3830.477490
298.457075,1110.308913,-10214.842000,-5286.058936
298.457397,2294.638420,-14137.933492,-4903.011187
298.457719,2516.700203,-16802.674883,-5132.839837
298.458041,1554.432478,-17987.004391,-4749.792088
298.458362,1110.308913,-15692.365970,-2221.676944
298.458684,1258.350101,-11695.253884,-2834.553343
298.459006,1998.556043,-8586.388927,-4519.963438
298.459328,2738.761985,-8290.306550,-3830.477490
298.459650,3478.967927,-8438.347739,-536.266849
298.459972,4071.132681,-7846.182985,1685.410096
298.460294,4959.379811,-8068.244768,3907.087040
298.460616,5403.503377,-6661.853478,5286.058936
298.460938,5625.565159,-4663.297435,3524.039291
298.461259,5773.606348,-2516.700203,153.219100
298.461581,5181.441594,-2812.782580,76.609550
298.461903,2516.700203,-4441.235652,766.095498
298.462225,-296.082377,-7105.977043,76.609550
298.462547,-1702.473667,-11843.295072,-2451.505594
298.462869,-1850.514855,-14508.036463,-4366.744339
298.463191,-1924.535449,-13027.624579,-6052.154434
298.463513,-2442.679609,-13101.645173,-6511.811733
298.463835,-2516.700203,-16210.510130,-4519.963438
298.464156,-3330.926739,-15100.201217,-2374.896044
298.464478,-3849.070898,-10807.006753,-4136.915689
298.464800,-2072.576638,-9030.512492,-5669.106685
298.465122,1036.288319,-9548.656652,-4826.401637
298.465444,2146.597232,-8438.347739,-3447.429741
298.465766,2442.679609,-7179.997637,-1225.752797
298.466088,4885.359217,-7179.997637,2374.896044
298.466410,7328.038826,-8660.409521,2451.505594
298.466732,7105.977043,-9548.656652,229.828649
298.467053,5255.462188,-9030.512492,612.876398
298.467375,3701.029710,-7698.141797,1225.752797
298.467697,2294.638420,-7772.162391,0.000000
298.468019,-74.020594,-8808.450710,306.438199
298.468341,-4219.173869,-8142.265362,1455.581446
298.468663,-7254.018232,-7624.121203,-306.438199
298.468985,-9400.615463,-10436.903782,-3064.381992
298.469307,-10436.903782,-12731.542202,-3983.696590
298.469628,-10807.006753,-11103.089130,-4366.744339
298.469950,-8882.471304,-8660.409521,-4979.620737
298.470272,-3997.112087,-9548.656652,-4596.572988
298.470594,0.000000,-10362.883188,-3217.601092
298.470916,814.226536,-9844.739029,-2604.724693
298.471238,1702.473667,-8660.409521,-2374.896044
298.471560,2812.782580,-8956.491898,-2528.115143
298.471882,4145.153275,-9770.718434,-2298.286494
298.472204,3775.050304,-8512.368333,-1455.581446
298.472525,2960.823768,-6661.853478,-459.657299
298.472847,3034.844362,-6069.688724,229.828649
298.473169,2516.700203,-7920.203579,1532.190996
298.473491,-296.082377,-8660.409521,2145.067394
298.473813,-2960.823768,-7846.182985,1225.752797
298.474135,-4219.173869,-7698.141797,-306.438199
298.474457,-3330.926739,-10066.800811,-2451.505594
298.474779,-2442.679609,-10881.027347,-2221.676944
298.475101,-2146.597232,-10066.800811,-229.828649
298.475422,-1110.308913,-10584.944971,919.314598
298.475744,1184.329507,-11399.171507,76.609550
298.476066,3330.926739,-11917.315666,-2451.505594
298.476388,4959.379811,-11621.233289,-4519.963438
298.476710,6217.729913,-12065.356855,-4443.353888
298.477032,7328.038826,-12583.501014,-2451.505594
298.477354,8512.368333,-10658.965565,-1225.752797
298.477676,7328.038826,-9252.574275,0.000000
298.477998,2960.823768,-9326.594869,1149.143247
298.478319,-2146.597232,-7698.141797,1378.971896
298.478641,-5699.585753,-5699.585753,-1149.143247
298.478963,-7772.162391,-4959.379811,-3064.381992
298.479285,-9474.636058,-5625.565159,-1762.019645
298.479607,-10881.027347,-6143.709319,153.219100
298.479929,-10362.883188,-6883.915261,-689.485948
298.480251,-7031.956449,-8734.430116,-2145.067394
298.480573,-3627.009116,-11103.089130,-2145.067394
298.480895,-1628.453072,-12435.459826,-1455.581446
298.481216,666.185348,-12435.459826,-2681.334243
298.481538,4071.132681,-11251.130318,-3370.820191
298.481860,7994.224174,-11473.192101,-3600.648841
298.482182,10881.027347,-11621.233289,-3064.381992
298.482504,11251.130318,-9252.574275,-2604.724693
298.482826,10214.842000,-8364.327145,-2374.896044
298.483147,8364.327145,-10362.883188,-306.438199
298.483469,5181.441594,-10658.965565,536.266849
298.483791,370.102971,-8882.471304,-229.828649
298.484113,-3478.967927,-7328.038826,-1302.362347
298.484434,-5921.647536,-6735.874072,-1991.848295
298.484756,-6809.894666,-6439.791695,-1915.238745
298.485078,-6661.853478,-6883.915261,-2451.505594
298.485400,-5921.647536,-9252.574275,-842.705048
298.485721,-4663.297435,-10955.047942,766.095498
298.486043,-2738.761985,-10732.986159,459.657299
298.486365,-444.123565,-10140.821405,-995.924147
298.486687,1924.535449,-11177.109724,-4060.306139
298.487008,3034.844362,-12361.439231,-5669.106685
298.487330,3182.885551,-12213.398043,-4903.011187
298.487652,2664.741391,-11473.192101,-3370.820191
298.487974,1406.391290,-11029.068536,-2757.943793
298.488295,0.000000,-11029.068536,-2221.676944
298.488617,-2072.576638,-10436.903782,-2681.334243
298.488939,-4811.338623,-8808.450710,-2298.286494
298.489261,-7105.977043,-7476.080014,0.000000
298.489582,-7328.038826,-5477.523971,459.657299
298.489904,-6217.729913,-3256.906145,-842.705048
298.490226,-4737.318029,-5033.400406,-1532.190996
298.490548,-4737.318029,-9252.574275,153.219100
298.490869,-4589.276840,-10955.047942,2451.505594
298.491191,-1628.453072,-9252.574275,766.095498
298.491513,2146.597232,-8142.265362,-2911.162892
298.491835,6069.688724,-9548.656652,-3447.429741
298.492156,6587.832884,-10584.944971,-2298.286494
298.492478,5995.668130,-10436.903782,-1532.190996
298.492800,5773.606348,-10362.883188,-1378.971896
298.493122,5107.421000,-11103.089130,-1608.800546
298.493443,3034.844362,-11843.295072,-2221.676944
298.493765,-1406.391290,-10362.883188,-1608.800546
298.494087,-4959.379811,-8068.244768,-1149.143247
298.494409,-5921.647536,-7179.997637,-1072.533697
298.494730,-5625.565159,-6661.853478,-1378.971896
298.495052,-5625.565159,-5847.626942,-1378.971896
298.495374,-5625.565159,-7402.059420,-689.485948
298.495696,-4515.256246,-9696.697840,1225.752797
298.496017,-1998.556043,-9474.636058,2145.067394
298.496339,296.082377,-7772.162391,383.047749
298.496661,3627.009116,-8734.430116,-2451.505594
298.496983,4885.359217,-11029.068536,-2681.334243
298.497304,4071.132681,-11621.233289,-1762.019645
298.497626,2442.679609,-11547.212695,-766.095498
298.497948,1850.514855,-12805.562797,-995.924147
298.498270,2072.576638,-13841.851115,-2145.067394
298.498591,370.102971,-12287.418637,-2528.115143
298.498913,-2146.597232,-9622.677246,-689.485948
298.499235,-3330.926739,-8142.265362,1302.362347
298.499557,-2960.823768,-6143.709319,459.657299
298.499878,-2738.761985,-4219.173869,-2451.505594
298.500200,-3330.926739,-4737.318029,-3370.820191
298.500522,-3182.885551,-8734.430116,-1378.971896
298.500844,-3108.864956,-10955.047942,459.657299
298.501165,-1480.411884,-10658.965565,-306.438199
298.501487,1924.535449,-10140.821405,-2068.457845
298.501809,5773.606348,-11251.130318,-3370.820191
298.502131,6217.729913,-10510.924376,-2987.772442
298.502452,6217.729913,-9770.718434,-2911.162892
298.502774,5995.668130,-9696.697840,-2451.505594
298.503096,5477.523971,-10510.924376,-1915.238745
298.503417,2738.761985,-10881.027347,-1455.581446
298.503739,-1406.391290,-9622.677246,-995.924147
298.504061,-4293.194464,-8734.430116,-766.095498
298.504383,-4737.318029,-8068.244768,-1302.362347
298.504704,-3849.070898,-7698.141797,-1991.848295
298.505026,-2886.803174,-6587.832884,-842.705048
298.505348,-2368.659014,-6957.935855,0.000000
298.505670,-2072.576638,-8364.327145,1149.143247
298.505991,-296.082377,-9474.636058,766.095498
298.506313,1480.411884,-9178.553681,-1225.752797
298.506635,2960.823768,-9622.677246,-3370.820191
298.506957,3997.112087,-11769.274478,-3370.820191
298.507278,4589.276840,-12139.377449,-2757.943793
298.507600,3478.967927,-11029.068536,-2145.067394
298.507922,2368.659014,-10807.006753,-1762.019645
298.508244,814.226536,-11547.212695,-2298.286494
298.508565,-1628.453072,-10881.027347,-3677.258390
298.508887,-4737.318029,-9104.533087,-3217.601092
298.509209,-6883.915261,-8586.388927,-1608.800546
298.509531,-7846.182985,-7772.162391,-153.219100
298.509852,-8216.285956,-6069.688724,-1149.143247
298.510174,-7624.121203,-6143.709319,-2604.724693
298.510496,-6217.729913,-8956.491898,-1455.581446
298.510818,-4959.379811,-10140.821405,-1225.752797
298.511139,-2442.679609,-8882.471304,-1225.752797
298.511461,1258.350101,-8068.244768,-2221.676944
298.511783,4663.297435,-9326.594869,-2681.334243
298.512105,6217.729913,-11029.068536,-2221.676944
298.512426,6143.709319,-10658.965565,-2681.334243
298.512748,5329.482782,-10584.944971,-2374.896044
298.513070,4959.379811,-11769.274478,-2145.067394
298.513392,3256.906145,-11843.295072,-1302.362347
298.513713,222.061783,-9992.780217,-842.705048
298.514035,-1850.514855,-8142.265362,-995.924147
298.514357,-3034.844362,-7105.977043,-612.876398
298.514679,-3627.009116,-6143.709319,-1225.752797
298.515000,-4589.276840,-6143.709319,-1838.629195
298.515322,-4959.379811,-8216.285956,-612.876398
298.515644,-4219.173869,-10510.924376,536.266849
298.515966,-2960.823768,-11251.130318,1302.362347
298.516287,-296.082377,-9770.718434,229.828649
298.516609,2368.659014,-8438.347739,-1225.752797
298.516931,4367.215058,-8956.491898,-2298.286494
298.517253,4737.318029,-9696.697840,-2221.676944
298.517574,4293.194464,-10584.944971,-1685.410096
298.517896,2516.700203,-11621.233289,-1685.410096
298.518218,814.226536,-12213.398043,-1532.190996
298.518540,-1258.350101,-11843.295072,-1378.971896
298.518861,-3701.029710,-10658.965565,-1225.752797
298.519183,-5403.503377,-8734.430116,0.000000
298.519505,-6291.750507,-6883.915261,-229.828649
298.519827,-5699.585753,-5329.482782,-1225.752797
298.520148,-4367.215058,-5921.647536,-2221.676944
298.520470,-3108.864956,-8068.244768,-1149.143247
298.520792,-2146.597232,-9326.594869,689.485948
298.521114,-74.020594,-9104.533087,1225.752797
298.521435,2516.700203,-8734.430116,-612.876398
298.521757,5033.400406,-9474.636058,-2298.286494
298.522079,6217.729913,-10955.047942,-2451.505594
298.522401,5551.544565,-10955.047942,-1915.238745
298.522722,4959.379811,-10732.986159,-1149.143247
298.523044,4515.256246,-10881.027347,-1608.800546
298.523366,3034.844362,-10955.047942,-1685.410096
298.523688,0.000000,-9992.780217,-1455.581446
298.524009,-3256.906145,-8216.285956,-1149.143247
298.524331,-4885.359217,-7328.038826,-1072.533697
298.524653,-4885.359217,-7031.956449,-2145.067394
298.524975,-4663.297435,-7254.018232,-2298.286494
298.525296,-4737.318029,-8586.388927,-1532.190996
298.525618,-3849.070898,-9696.697840,229.828649
298.525940,-1628.453072,-9770.718434,536.266849
298.526262,1332.370696,-9474.636058,-1072.533697
298.526583,3849.070898,-9770.718434,-2911.162892
298.526905,5107.421000,-11177.109724,-2834.553343
298.527227,4663.297435,-11621.233289,-1915.238745
298.527548,3478.967927,-11029.068536,-1378.971896
298.527870,2294.638420,-10436.903782,-1302.362347
298.528192,592.164754,-11399.171507,-2451.505594
298.528514,-1776.494261,-10584.944971,-2451.505594
298.528835,-4219.173869,-9030.512492,-2145.067394
298.529157,-5699.585753,-7994.224174,-1072.533697
298.529479,-5551.544565,-7402.059420,-536.266849
298.529801,-5625.565159,-6291.750507,-1762.019645
298.530122,-5255.462188,-5995.668130,-2604.724693
298.530444,-4589.276840,-8364.327145,-2374.896044
298.530766,-3775.050304,-10881.027347,-1302.362347
298.531088,-2220.617826,-10436.903782,-612.876398
298.531409,740.205942,-8956.491898,-2451.505594
298.531731,4071.132681,-10140.821405,-3447.429741
298.532053,5773.606348,-10807.006753,-2987.772442
298.532375,5773.606348,-10214.842000,-2528.115143
298.532696,5329.482782,-10066.800811,-2451.505594
298.533018,5107.421000,-10955.047942,-2451.505594
298.533340,3182.885551,-11029.068536,-1838.629195
298.533662,0.000000,-9474.636058,-1302.362347
298.533983,-2960.823768,-8216.285956,-459.657299
298.534305,-4441.235652,-7550.100608,-229.828649
298.534627,-4515.256246,-6809.894666,-1532.190996
298.534949,-4145.153275,-7179.997637,-1685.410096
298.535270,-3701.029710,-8882.471304,-766.095498
298.535592,-2812.782580,-10140.821405,919.314598
298.535914,-1332.370696,-10288.862594,1685.410096
298.536236,814.226536,-9178.553681,536.266849
298.536557,3552.988522,-8512.368333,-1762.019645
298.536879,4737.318029,-9178.553681,-3294.210641
298.537201,4293.194464,-10066.800811,-3140.991542
298.537523,3552.988522,-10436.903782,-1991.848295
298.537844,2812.782580,-11103.089130,-1762.019645
298.538166,1776.494261,-11621.233289,-2145.067394
298.538488,-74.020594,-11325.150913,-1915.238745
298.538810,-2590.720797,-9770.718434,-1455.581446
298.539131,-5033.400406,-8660.409521,-842.705048
298.539453,-6513.812290,-7994.224174,-842.705048
298.539775,-7105.977043,-6365.771101,-612.876398
298.540097,-7105.977043,-5625.565159,-1608.800546
298.540418,-6069.688724,-8438.347739,-1762.019645
298.540740,-4219.173869,-10066.800811,0.000000
298.541062,-1776.494261,-9326.594869,459.657299
298.541384,1628.453072,-8290.306550,-1149.143247
298.541705,4663.297435,-9104.533087,-1532.190996
298.542027,6143.709319,-10288.862594,-1378.971896
298.542349,5921.647536,-10436.903782,-1532.190996
298.542671,5625.565159,-10510.924376,-1608.800546
298.542992,5033.400406,-11473.192101,-1532.190996
298.543314,3552.988522,-11621.233289,-1225.752797
298.543636,814.226536,-10658.965565,-1072.533697
298.543958,-1924.535449,-8882.471304,-612.876398
298.544279,-3849.070898,-7994.224174,-842.705048
298.544601,-4441.235652,-7476.080014,-1608.800546
298.544923,-4737.318029,-6809.894666,-1991.848295
298.545245,-4367.215058,-7476.080014,-2145.067394
298.545566,-3923.091493,-9622.677246,-229.828649
298.545888,-2368.659014,-10510.924376,1072.533697
298.546210,-370.102971,-9548.656652,0.000000
298.546532,2146.597232,-9400.615463,-1378.971896
298.546853,3849.070898,-10140.821405,-2681.334243
298.547175,3552.988522,-10807.006753,-2068.457845
298.547497,1924.535449,-10436.903782,-1685.410096
298.547819,1184.329507,-10658.965565,-1532.190996
298.548140,592.164754,-11621.233289,-2298.286494
298.548462,-1036.288319,-10881.027347,-2145.067394
298.548784,-3627.009116,-8882.471304,-1072.533697
298.549106,-4811.338623,-7994.224174,-459.657299
298.549427,-4885.359217,-7624.121203,-229.828649
298.549749,-4737.318029,-6661.853478,-1532.190996
298.550071,-4663.297435,-5995.668130,-2604.724693
298.550393,-4367.215058,-7402.059420,-1991.848295
298.550714,-4219.173869,-9622.677246,-383.047749
298.551036,-2664.741391,-10066.800811,-383.047749
298.551358,222.061783,-9770.718434,-2374.896044
298.551680,2886.803174,-9770.718434,-3064.381992
298.552001,4441.235652,-10658.965565,-2068.457845
298.552323,5773.606348,-9622.677246,-2145.067394
298.552645,5995.668130,-9252.574275,-2451.505594
298.552966,5847.626942,-9918.759623,-2451.505594
298.553288,4367.215058,-10510.924376,-1991.848295
298.553610,740.205942,-9844.739029,-1532.190996
298.553932,-2738.761985,-8956.491898,-842.705048
298.554253,-4515.256246,-8512.368333,-995.924147
298.554575,-4663.297435,-7920.203579,-1915.238745
298.554897,-4071.132681,-7179.997637,-2298.286494
298.555219,-3330.926739,-7846.182985,-1532.190996
298.555540,-1998.556043,-9178.553681,229.828649
298.555862,0.000000,-9474.636058,1225.752797
298.556184,2368.659014,-9252.574275,0.000000
298.556506,4367.215058,-9548.656652,-1991.848295
298.556827,5255.462188,-11103.089130,-2528.115143
298.557149,4737.318029,-11325.150913,-1225.752797
298.557471,3552.988522,-10510.924376,-1608.800546
298.557793,2664.741391,-10362.883188,-1991.848295
298.558114,1702.473667,-10732.986159,-2221.676944
298.558436,-296.082377,-10436.903782,-2298.286494
298.558758,-3034.844362,-9474.636058,-2068.457845
298.559080,-5255.462188,-8068.244768,-995.924147
298.559401,-6809.894666,-7772.162391,-689.485948
298.559723,-7031.956449,-7179.997637,-1915.238745
298.560045,-6661.853478,-7254.018232,-2834.553343
298.560367,-5625.565159,-8660.409521,-2604.724693
298.560688,-4071.132681,-9992.780217,-1532.190996
298.561010,-1184.329507,-9770.718434,-459.657299
298.561332,2072.576638,-8734.430116,-995.924147
298.561654,5477.523971,-9104.533087,-2451.505594
298.561975,6809.894666,-10881.027347,-2221.676944
298.562297,6217.729913,-11251.130318,-1149.143247
298.562619,5773.606348,-10288.862594,-1762.019645
298.562941,5181.441594,-10436.903782,-1915.238745
298.563262,4145.153275,-10955.047942,-1225.752797
298.563584,1628.453072,-9548.656652,-919.314598
298.563906,-1850.514855,-7698.141797,-1149.143247
298.564228,-3627.009116,-6957.935855,-1072.533697
298.564549,-4811.338623,-7105.977043,-1378.971896
298.564871,-4885.359217,-7920.203579,-2757.943793
298.565193,-4885.359217,-9474.636058,-2298.286494
298.565515,-4737.318029,-11103.089130,0.000000
298.565836,-3330.926739,-11473.192101,1149.143247
298.566158,-444.123565,-9400.615463,76.609550
298.566480,2516.700203,-8660.409521,-1991.848295
298.566802,4367.215058,-9992.780217,-3217.601092
298.567123,3849.070898,-10881.027347,-2374.896044
298.567445,2738.761985,-9992.780217,-1455.581446
298.567767,1702.473667,-9696.697840,-1072.533697
298.568089,1184.329507,-10214.842000,-1685.410096
298.568410,-370.102971,-10140.821405,-2221.676944
298.568732,-3404.947333,-8956.491898,-2145.067394
298.569054,-6217.729913,-8512.368333,-1302.362347
298.569376,-7698.141797,-7920.203579,-153.219100
298.569697,-7994.224174,-6587.832884,-995.924147
298.570019,-7105.977043,-5773.606348,-2911.162892
298.570341,-5921.647536,-8290.306550,-2911.162892
298.570663,-4589.276840,-10732.986159,-689.485948
298.570984,-2368.659014,-10362.883188,0.000000
298.571306,814.226536,-9696.697840,-919.314598
298.571628,4441.235652,-9474.636058,-2221.676944
298.571950,6143.709319,-10214.842000,-2451.505594
298.572271,5995.668130,-9844.739029,-2221.676944
298.572593,5403.503377,-9474.636058,-2145.067394
298.572915,5033.400406,-10436.903782,-1991.848295
298.573237,3701.029710,-11473.192101,-2221.676944
298.573558,148.041188,-10732.986159,-995.924147
298.573880,-2886.803174,-9252.574275,-612.876398
298.574202,-4515.256246,-8290.306550,-1072.533697
298.574524,-4663.297435,-7698.141797,-2145.067394
298.574845,-4071.132681,-6587.832884,-2681.334243
298.575167,-2886.803174,-7402.059420,-2145.067394
298.575489,-1998.556043,-9548.656652,76.609550
298.575811,-740.205942,-10510.924376,1532.190996
298.576132,1184.329507,-9474.636058,76.609550
298.576454,3775.050304,-9252.574275,-2298.286494
298.576776,5329.482782,-11103.089130,-2604.724693
298.577097,5181.441594,-11621.233289,-1991.848295
298.577419,4145.153275,-10436.903782,-1149.143247
298.577741,2960.823768,-9696.697840,-995.924147
298.578063,2146.597232,-9696.697840,-1455.581446
298.578384,666.185348,-10288.862594,-2911.162892
298.578706,-2590.720797,-9622.677246,-2604.724693
298.579028,-5255.462188,-9030.512492,-1532.190996
298.579350,-7031.956449,-8216.285956,-842.705048
298.579671,-7179.997637,-6809.894666,-1302.362347
298.579993,-5699.585753,-6439.791695,-2451.505594
298.580315,-4663.297435,-7624.121203,-2757.943793
298.580637,-3256.906145,-9918.759623,-1455.581446
298.580958,-1184.329507,-10288.862594,306.438199
298.581280,1702.473667,-9104.533087,-153.219100
298.581602,4885.359217,-8882.471304,-2374.896044
298.581924,7550.100608,-10955.047942,-2374.896044
298.582245,7476.080014,-11399.171507,-1762.019645
298.582566,6365.771101,-10066.800811,-1685.410096
298.582888,5477.523971,-9548.656652,-1685.410096
298.583210,4441.235652,-9992.780217,-1455.581446
298.583532,1850.514855,-9548.656652,-1378.971896
298.583853,-2072.576638,-8734.430116,-1149.143247
298.584175,-4959.379811,-8068.244768,-383.047749
298.584497,-5477.523971,-7846.182985,-1455.581446
298.584819,-4737.318029,-7846.182985,-2987.772442
298.585141,-4515.256246,-8808.450710,-2757.943793
298.585463,-3849.070898,-10436.903782,-842.705048
298.585785,-2886.803174,-11029.068536,1532.190996
298.586106,-148.041188,-9844.739029,536.266849
298.586428,2886.803174,-9400.615463,-1685.410096
298.586750,4811.338623,-9918.759623,-3524.039291
298.587072,4811.338623,-10510.924376,-2757.943793
298.587394,3701.029710,-9770.718434,-1532.190996
298.587716,2886.803174,-9474.636058,-1762.019645
298.588038,2072.576638,-9992.780217,-2298.286494
298.588359,-148.041188,-10584.944971,-2604.724693
298.588681,-2960.823768,-10362.883188,-2451.505594
298.589003,-6661.853478,-9770.718434,-1149.143247
298.589325,-8586.388927,-9178.553681,-842.705048
298.589647,-8882.471304,-8290.306550,-1532.190996
298.589969,-7846.182985,-7105.977043,-2604.724693
298.590291,-6291.750507,-7476.080014,-3064.381992
298.590612,-4515.256246,-8734.430116,-1532.190996
298.590934,-1776.494261,-9622.677246,-153.219100
298.591256,1332.370696,-8808.450710,0.000000
298.591578,3923.091493,-8956.491898,-1149.143247
298.591900,5181.441594,-10436.903782,-1378.971896
298.592222,5255.462188,-10584.944971,-2145.067394
298.592543,4811.338623,-9918.759623,-2451.505594
298.592865,4959.379811,-10140.821405,-2298.286494
298.593187,4515.256246,-10807.006753,-1455.581446
298.593509,2368.659014,-10214.842000,-459.657299
298.593831,-740.205942,-9326.594869,-306.438199
298.594153,-4145.153275,-7920.203579,0.000000
298.594475,-5329.482782,-7624.121203,-842.705048
298.594796,-5403.503377,-7402.059420,-3064.381992
298.595118,-5033.400406,-8290.306550,-3140.991542
298.595440,-4737.318029,-9622.677246,-306.438199
298.595762,-3997.112087,-10288.862594,2451.505594
298.596084,-1776.494261,-9548.656652,1685.410096
298.596406,1850.514855,-8586.388927,-459.657299
298.596728,4219.173869,-8660.409521,-2451.505594
298.597049,4737.318029,-9844.739029,-2681.334243
298.597371,3701.029710,-9844.739029,-995.924147
298.597693,3182.885551,-10288.862594,-536.266849
298.598015,3256.906145,-11029.068536,-1608.800546
298.598337,2220.617826,-11621.233289,-2221.676944
298.598659,0.000000,-10658.965565,-1455.581446
298.598981,-2960.823768,-9104.533087,-689.485948
298.599302,-4589.276840,-7772.162391,-229.828649
298.599624,-4663.297435,-6883.915261,-689.485948
298.599946,-4293.194464,-6439.791695,-2068.457845
298.600268,-3849.070898,-7328.038826,-2068.457845
298.600590,-3552.988522,-8660.409521,-536.266849
298.600912,-2442.679609,-9104.533087,459.657299
298.601233,222.061783,-8882.471304,-153.219100
298.601555,2886.803174,-9474.636058,-1762.019645
298.601877,4367.215058,-10066.800811,-2068.457845
298.602199,4959.379811,-10140.821405,-2604.724693
298.602521,5403.503377,-9844.739029,-2604.724693
298.602843,5699.585753,-10658.965565,-2681.334243
298.603165,4293.194464,-11547.212695,-2145.067394
298.603486,1258.350101,-11251.130318,-1455.581446
298.603808,-1998.556043,-10214.842000,-1378.971896
298.604130,-4219.173869,-9622.677246,-1149.143247
298.604452,-5033.400406,-9548.656652,-2068.457845
298.604774,-5403.503377,-8586.388927,-2298.286494
298.605096,-4367.215058,-7624.121203,-1915.238745
298.605418,-3034.844362,-8364.327145,-612.876398
298.605739,-1554.432478,-9326.594869,459.657299
298.606061,962.267725,-9178.553681,76.609550
298.606383,2368.659014,-8660.409521,-1532.190996
298.606705,4515.256246,-9992.780217,-2451.505594
298.607027,4811.338623,-11029.068536,-2298.286494
298.607349,3997.112087,-10584.944971,-1455.581446
298.607671,3182.885551,-10436.903782,-1225.752797
298.607992,1924.535449,-10214.842000,-1455.581446
298.608314,0.000000,-10584.944971,-2681.334243
298.608636,-2146.597232,-10140.821405,-3294.210641
298.608958,-4737.318029,-9474.636058,-2451.505594
298.609280,-7179.997637,-8660.409521,-919.314598
298.609602,-7994.224174,-7105.977043,-536.266849
298.609923,-7402.059420,-5847.626942,-2221.676944
298.610245,-6587.832884,-6957.935855,-3907.087040
298.610567,-5403.503377,-9178.553681,-2681.334243
298.610889,-3627.009116,-9770.718434,-766.095498
298.611211,-740.205942,-9400.615463,0.000000
298.611533,2886.803174,-8142.265362,-689.485948
298.611855,5921.647536,-9548.656652,-1915.238745
298.612176,6587.832884,-10214.842000,-2528.115143
298.612498,6143.709319,-10362.883188,-2221.676944
298.612820,5329.482782,-10362.883188,-1455.581446
298.613142,4441.235652,-10510.924376,-842.705048
298.613464,2294.638420,-10510.924376,-536.266849
298.613786,-222.061783,-9548.656652,-766.095498
298.614108,-2886.803174,-8512.368333,-612.876398
298.614429,-4737.318029,-7920.203579,-919.314598
298.614751,-5033.400406,-7328.038826,-1838.629195
298.615073,-5329.482782,-7846.182985,-2221.676944
298.615395,-4959.379811,-9474.636058,-995.924147
298.615717,-3997.112087,-10955.047942,459.657299
298.616039,-2146.597232,-10436.903782,689.485948
298.616361,1258.350101,-8956.491898,-612.876398
298.616682,3552.988522,-9030.512492,-2528.115143
298.617004,4885.359217,-9770.718434,-2604.724693
298.617326,3849.070898,-9918.759623,-1762.019645
298.617648,2960.823768,-10214.842000,-1608.800546
298.617970,2368.659014,-10807.006753,-2374.896044
298.618292,1406.391290,-11843.295072,-2757.943793
298.618613,-1554.432478,-10658.965565,-1838.629195
298.618935,-4663.297435,-9474.636058,-919.314598
298.619257,-6513.812290,-8882.471304,-306.438199
298.619579,-6587.832884,-7698.141797,-995.924147
298.619901,-5477.523971,-6143.709319,-2145.067394
298.620223,-3849.070898,-6661.853478,-2681.334243
298.620545,-2442.679609,-8586.388927,-919.314598
298.620866,-888.247130,-9400.615463,1455.581446
298.621188,1332.370696,-8956.491898,1149.143247
298.621510,4145.153275,-8882.471304,-383.047749
298.621832,5995.668130,-10140.821405,-1762.019645
298.622154,5995.668130,-10362.883188,-1838.629195
298.622476,5107.421000,-10066.800811,-1302.362347
298.622798,4515.256246,-9844.739029,-1302.362347
298.623119,3775.050304,-10732.986159,-1302.362347
298.623441,1850.514855,-10658.965565,-1225.752797
298.623763,-2294.638420,-9178.553681,-1149.143247
298.624085,-4959.379811,-8438.347739,-1072.533697
298.624407,-6365.771101,-8438.347739,-1532.190996
298.624729,-6069.688724,-8290.306550,-2451.505594
298.625051,-5551.544565,-7994.224174,-2298.286494
298.625372,-4737.318029,-8660.409521,-1149.143247
298.625694,-3256.906145,-9696.697840,459.657299
298.626016,-1110.308913,-9622.677246,612.876398
298.626338,1184.329507,-8438.347739,-1378.971896
298.626660,3849.070898,-9548.656652,-2834.553343
298.626982,5403.503377,-11251.130318,-2757.943793
298.627303,4663.297435,-11843.295072,-1991.848295
298.627625,3552.988522,-11251.130318,-919.314598
298.627947,2960.823768,-11029.068536,-383.047749
298.628269,1776.494261,-10436.903782,-1149.143247
298.628591,-296.082377,-9474.636058,-1762.019645
298.628913,-3478.967927,-8290.306550,-1838.629195
298.629235,-5847.626942,-7179.997637,-766.095498
298.629556,-6587.832884,-6661.853478,-689.485948
298.629878,-6069.688724,-6587.832884,-1608.800546
298.630200,-5181.441594,-7031.956449,-1915.238745
298.630522,-4145.153275,-9104.533087,-1532.190996
298.630844,-3182.885551,-10436.903782,0.000000
298.631166,-1184.329507,-9400.615463,-536.266849
298.631488,1776.494261,-8364.327145,-2528.115143
298.631809,4293.194464,-9326.594869,-3830.477490
298.632131,5403.503377,-10288.862594,-3677.258390
298.632453,5033.400406,-9992.780217,-3064.381992
298.632775,4811.338623,-10955.047942,-2451.505594
298.633097,3923.091493,-11769.274478,-1991.848295
298.633419,2220.617826,-11547.212695,-1149.143247
298.633741,-740.205942,-9696.697840,-919.314598
298.634062,-2516.700203,-9104.533087,-2221.676944
298.634384,-3997.112087,-8216.285956,-1608.800546
298.634706,-4145.153275,-6735.874072,-1608.800546
298.635028,-3849.070898,-6735.874072,-1149.143247
298.635350,-3256.906145,-8734.430116,-306.438199
298.635672,-2220.617826,-10510.924376,689.485948
298.635993,-518.144159,-10214.842000,1225.752797
298.636315,1924.535449,-9030.512492,229.828649
298.636637,4663.297435,-9030.512492,-1762.019645
298.636959,5403.503377,-9844.739029,-2374.896044
298.637281,4737.318029,-9474.636058,-1685.410096
298.637603,4293.194464,-10288.862594,-2068.457845
298.637925,2960.823768,-11325.150913,-2221.676944
298.638246,1036.288319,-11843.295072,-2451.505594
298.638568,-1554.432478,-11547.212695,-2451.505594
298.638890,-4589.276840,-9696.697840,-1762.019645
298.639212,-6069.688724,-9178.553681,-2068.457845
298.639534,-7254.018232,-8068.244768,-1532.190996
298.639856,-7179.997637,-6365.771101,-2681.334243
298.640178,-6513.812290,-5921.647536,-2604.724693
298.640499,-4811.338623,-7698.141797,-1532.190996
298.640821,-3034.844362,-8956.491898,-229.828649
298.641143,-1036.288319,-8734.430116,76.609550
298.641465,1924.535449,-8512.368333,-766.095498
298.641787,4663.297435,-9474.636058,-2221.676944
298.642109,5773.606348,-10288.862594,-2451.505594
298.642431,5625.565159,-10436.903782,-2298.286494
298.642752,5551.544565,-11029.068536,-1378.971896
298.643074,4367.215058,-11917.315666,-995.924147
298.643396,2590.720797,-11695.253884,-842.705048
298.643718,-222.061783,-10288.862594,-766.095498
298.644040,-2886.803174,-8808.450710,-995.924147
298.644362,-4589.276840,-8290.306550,-1149.143247
298.644684,-4811.338623,-7846.182985,-1838.629195
298.645005,-4959.379811,-7179.997637,-1532.190996
298.645327,-4737.318029,-7920.203579,-306.438199
298.645649,-3775.050304,-8956.491898,383.047749
298.645971,-2368.659014,-9474.636058,612.876398
298.646293,74.020594,-9474.636058,-1149.143247
298.646615,1406.391290,-9622.677246,-1378.971896
298.646936,2664.741391,-10288.862594,-1838.629195
298.647258,3330.926739,-10436.903782,-2221.676944
298.647580,3330.926739,-11325.150913,-2528.115143
298.647902,2146.597232,-11399.171507,-1455.581446
298.648224,370.102971,-11547.212695,-919.314598
298.648546,-1554.432478,-10510.924376,-1608.800546
298.648868,-3478.967927,-8956.491898,-1838.629195
298.649189,-4737.318029,-7476.080014,-1378.971896
298.649511,-5255.462188,-6217.729913,-612.876398
298.649833,-4589.276840,-5995.668130,-2221.676944
298.650155,-3404.947333,-7031.956449,-2374.896044
298.650477,-2368.659014,-8956.491898,-536.266849
298.650799,-1628.453072,-10140.821405,1072.533697
298.651121,666.185348,-10066.800811,536.266849
298.651442,3034.844362,-8438.347739,-1455.581446
298.651764,5921.647536,-9252.574275,-2834.553343
298.652086,6809.894666,-9252.574275,-2757.943793
298.652408,6069.688724,-8882.471304,-2298.286494
298.652730,5033.400406,-10066.800811,-1991.848295
298.653052,3627.009116,-11843.295072,-1455.581446
298.653374,1776.494261,-11991.336260,-1532.190996
298.653695,-1258.350101,-10510.924376,-1532.190996
298.654017,-3997.112087,-9252.574275,-1915.238745
298.654339,-5329.482782,-8512.368333,-1838.629195
298.654661,-5477.523971,-7624.121203,-1915.238745
298.654983,-4885.359217,-7179.997637,-2145.067394
298.655305,-3552.988522,-8216.285956,-1762.019645
298.655626,-1850.514855,-9844.739029,-766.095498
298.655948,-444.123565,-10066.800811,0.000000
298.656270,1554.432478,-9918.759623,0.000000
298.656592,3997.112087,-9548.656652,-1072.533697
298.656914,4959.379811,-10362.883188,-2681.334243
298.657236,4589.276840,-10140.821405,-2374.896044
298.657558,3923.091493,-9770.718434,-2145.067394
298.657879,3404.947333,-10436.903782,-2911.162892
298.658201,2590.720797,-11251.130318,-2145.067394
298.658523,222.061783,-11473.192101,-1455.581446
298.658845,-2442.679609,-9992.780217,-995.924147
298.659167,-4737.318029,-9252.574275,-995.924147
298.659489,-6143.709319,-8290.306550,-1532.190996
298.659811,-6143.709319,-6809.894666,-2374.896044
298.660132,-6069.688724,-5773.606348,-2221.676944
298.660454,-4885.359217,-7031.956449,-1915.238745
298.660776,-3552.988522,-8438.347739,-612.876398
298.661098,-1332.370696,-8734.430116,-919.314598
298.661420,962.267725,-8586.388927,-1915.238745
298.661742,3627.009116,-9622.677246,-1455.581446
298.662064,4515.256246,-10881.027347,-2298.286494
298.662385,4367.215058,-10510.924376,-2604.724693
298.662707,4367.215058,-10510.924376,-2298.286494
298.663029,3923.091493,-11251.130318,-1915.238745
298.663351,3108.864956,-11621.233289,-1838.629195
298.663673,518.144159,-9622.677246,-1608.800546
298.663995,-1924.535449,-8808.450710,-1378.971896
298.664316,-3701.029710,-8660.409521,-919.314598
298.664638,-4367.215058,-8586.388927,-1225.752797
298.664960,-4811.338623,-7920.203579,-1532.190996
298.665282,-4441.235652,-7772.162391,-689.485948
298.665604,-3701.029710,-9030.512492,229.828649
298.665926,-2294.638420,-9474.636058,689.485948
298.666248,-370.102971,-9474.636058,76.609550
298.666569,1702.473667,-8882.471304,-459.657299
298.666891,3478.967927,-9770.718434,-1455.581446
298.667213,3627.009116,-10140.821405,-2221.676944
298.667535,2886.803174,-10066.800811,-1991.848295
298.667857,2220.617826,-11029.068536,-1685.410096
298.668179,1184.329507,-11843.295072,-2451.505594
298.668501,-1184.329507,-11843.295072,-2451.505594
298.668822,-3849.070898,-10732.986159,-306.438199
298.669144,-5995.668130,-9326.594869,-459.657299
298.669466,-6587.832884,-7772.162391,-1532.190996
298.669788,-5847.626942,-7179.997637,-2528.115143
298.670110,-4737.318029,-7031.956449,-2451.505594
298.670432,-3701.029710,-7624.121203,-459.657299
298.670754,-2812.782580,-8142.265362,689.485948
298.671075,-888.247130,-8586.388927,1072.533697
298.671397,1628.453072,-8438.347739,-153.219100
298.671719,3923.091493,-8586.388927,-2145.067394
298.672041,5329.482782,-8438.347739,-2757.943793
298.672363,6143.709319,-9474.636058,-1685.410096
298.672685,5625.565159,-10288.862594,-1915.238745
298.673006,4885.359217,-11325.150913,-1838.629195
298.673328,3923.091493,-11843.295072,-1225.752797
298.673650,1406.391290,-11325.150913,-1378.971896
298.673972,-1776.494261,-9696.697840,-1225.752797
298.674294,-4219.173869,-8956.491898,-1532.190996
298.674616,-4885.359217,-8512.368333,-2068.457845
298.674938,-4885.359217,-7994.224174,-2298.286494
298.675259,-3849.070898,-7920.203579,-1685.410096
298.675581,-2220.617826,-8956.491898,-842.705048
298.675903,-962.267725,-9622.677246,0.000000
298.676225,888.247130,-9770.718434,-306.438199
298.676547,2442.679609,-9400.615463,-766.095498
298.676869,3849.070898,-9696.697840,-1608.800546
298.677191,4441.235652,-10214.842000,-2374.896044
298.677512,3849.070898,-10362.883188,-2298.286494
298.677834,2516.700203,-10436.903782,-1608.800546
298.678156,1184.329507,-11103.089130,-1455.581446
298.678478,-222.061783,-10732.986159,-1838.629195
298.678800,-2294.638420,-10066.800811,-2374.896044
298.679122,-3849.070898,-8808.450710,-2068.457845
298.679444,-5773.606348,-7772.162391,-1762.019645
298.679765,-5995.668130,-6587.832884,-2068.457845
298.680087,-5181.441594,-6439.791695,-3064.381992
298.680409,-4219.173869,-7772.162391,-2528.115143
298.680731,-2738.761985,-9622.677246,-1532.190996
298.681053,-888.247130,-9548.656652,-1149.143247
298.681375,1628.453072,-9326.594869,-1838.629195
298.681696,4071.132681,-9326.594869,-2298.286494
298.682018,5847.626942,-9474.636058,-2451.505594
298.682340,6513.812290,-8956.491898,-2987.772442
298.682662,6365.771101,-9548.656652,-2987.772442
298.682984,5773.606348,-11473.192101,-2604.724693
298.683306,3923.091493,-11547.212695,-1302.362347
298.683627,740.205942,-10732.986159,-995.924147
298.683949,-1776.494261,-9770.718434,-1149.143247
298.684271,-3627.009116,-9326.594869,-1685.410096
298.684593,-4737.318029,-8808.450710,-2298.286494
298.684914,-4885.359217,-7772.162391,-2221.676944
298.685236,-4663.297435,-7920.203579,-1608.800546
298.685558,-3627.009116,-9400.615463,-153.219100
298.685880,-2590.720797,-10066.800811,689.485948
298.686202,-888.247130,-9326.594869,383.047749
298.686523,740.205942,-9030.512492,-1455.581446
298.686845,2664.741391,-9400.615463,-2681.334243
298.687167,3182.885551,-9696.697840,-2757.943793
298.687489,2664.741391,-9770.718434,-2374.896044
298.687811,2072.576638,-10658.965565,-1762.019645
298.688132,740.205942,-11325.150913,-1455.581446
298.688454,-444.123565,-11769.274478,-2068.457845
298.688776,-2368.659014,-10732.986159,-1685.410096
298.689098,-4737.318029,-9696.697840,-995.924147
298.689420,-6291.750507,-8364.327145,306.438199
298.689741,-6513.812290,-7179.997637,0.000000
298.690063,-5181.441594,-6069.688724,-1762.019645
298.690385,-3552.988522,-7254.018232,-1915.238745
298.690707,-2146.597232,-8660.409521,-612.876398
298.691029,-1036.288319,-9030.512492,1225.752797
298.691350,592.164754,-8364.327145,842.705048
298.691672,3552.988522,-8882.471304,-766.095498
298.691994,5033.400406,-9326.594869,-1991.848295
298.692316,5107.421000,-9474.636058,-2221.676944
298.692638,4441.235652,-10066.800811,-1991.848295
298.692959,3701.029710,-11547.212695,-689.485948
298.693281,2146.597232,-11769.274478,-536.266849
298.693603,-296.082377,-11325.150913,-689.485948
298.693925,-2812.782580,-9622.677246,-1302.362347
298.694246,-4589.276840,-8586.388927,-1455.581446
298.694568,-5255.462188,-7772.162391,-1608.800546
298.694890,-5181.441594,-6439.791695,-1149.143247
298.695212,-4663.297435,-6957.935855,-1455.581446
298.695534,-3701.029710,-8734.430116,-229.828649
298.695855,-2590.720797,-9770.718434,766.095498
298.696177,-740.205942,-9474.636058,76.609550
298.696499,1776.494261,-9030.512492,-1378.971896
298.696821,3330.926739,-9474.636058,-2068.457845
298.697143,3627.009116,-9696.697840,-1685.410096
298.697464,3034.844362,-9918.759623,-2068.457845
298.697786,2812.782580,-11177.109724,-2374.896044
298.698108,2072.576638,-12213.398043,-2374.896044
298.698430,592.164754,-11769.274478,-1532.190996
298.698752,-1850.514855,-10066.800811,-1072.533697
298.699073,-3182.885551,-8882.471304,-919.314598
298.699395,-4145.153275,-7846.182985,-1378.971896
298.699717,-4219.173869,-7105.977043,-2681.334243
298.700039,-3627.009116,-6735.874072,-2604.724693
298.700361,-3330.926739,-7698.141797,-1532.190996
298.700682,-2664.741391,-9622.677246,0.000000
298.701004,-1554.432478,-10140.821405,0.000000
298.701326,518.144159,-9474.636058,-1149.143247
298.701648,3034.844362,-8660.409521,-2145.067394
298.701970,5181.441594,-8882.471304,-2757.943793
298.702291,5773.606348,-8586.388927,-2911.162892
298.702613,5625.565159,-8364.327145,-2834.553343
298.702935,4885.359217,-10362.883188,-2987.772442
298.703257,3627.009116,-12657.521608,-2068.457845
298.703579,740.205942,-11917.315666,-1685.410096
298.703900,-2220.617826,-11177.109724,-1991.848295
298.704222,-4589.276840,-9992.780217,-1608.800546
298.704544,-5699.585753,-8882.471304,-1762.019645
298.704866,-5477.523971,-7846.182985,-2451.505594
298.705187,-4145.153275,-7179.997637,-2604.724693
298.705509,-2886.803174,-7920.203579,-1532.190996
298.705831,-1480.411884,-9326.594869,-229.828649
298.706153,0.000000,-9696.697840,306.438199
298.706475,1554.432478,-9622.677246,306.438199
298.706796,3330.926739,-9474.636058,-1378.971896
298.707118,4367.215058,-10140.821405,-2681.334243
298.707440,4219.173869,-9992.780217,-2681.334243
298.707762,3256.906145,-9770.718434,-2145.067394
298.708084,1776.494261,-10732.986159,-1149.143247
298.708405,592.164754,-11621.233289,-1149.143247
298.708727,-1332.370696,-10658.965565,-842.705048
298.709049,-3923.091493,-9770.718434,-1532.190996
298.709371,-5551.544565,-9104.533087,-1072.533697
298.709693,-5995.668130,-7846.182985,-1302.362347
298.710014,-5403.503377,-6735.874072,-1838.629195
298.710336,-4441.235652,-6735.874072,-1685.410096
298.710658,-3256.906145,-7402.059420,-306.438199
298.710980,-1924.535449,-7846.182985,0.000000
298.711302,0.000000,-7846.182985,-689.485948
298.711623,2368.659014,-8586.388927,-1072.533697
298.711945,4071.132681,-9252.574275,-1378.971896
298.712267,4293.194464,-9400.615463,-1915.238745
298.712589,4589.276840,-9474.636058,-2145.067394
298.712911,4145.153275,-10807.006753,-1762.019645
298.713232,3034.844362,-11769.274478,-1455.581446
298.713554,888.247130,-11325.150913,-1532.190996
298.713876,-1702.473667,-9770.718434,-1225.752797
298.714198,-2738.761985,-9844.739029,-1072.533697
298.714519,-4219.173869,-9252.574275,-1072.533697
298.714841,-4589.276840,-8068.244768,-1608.800546
298.715163,-4293.194464,-7698.141797,-1225.752797
298.715485,-3108.864956,-8660.409521,0.000000
298.715807,-2516.700203,-8808.450710,229.828649
298.716128,-1332.370696,-8660.409521,536.266849
298.716450,666.185348,-8734.430116,-383.047749
298.716772,3034.844362,-9622.677246,-1762.019645
298.717094,4071.132681,-10436.903782,-1915.238745
298.717416,3330.926739,-10140.821405,-1378.971896
298.717737,2442.679609,-10955.047942,-1608.800546
298.718059,1332.370696,-11399.171507,-1762.019645
298.718381,0.000000,-11843.295072,-2145.067394
298.718703,-2146.597232,-10584.944971,-2528.115143
298.719025,-4071.132681,-9474.636058,-1838.629195
298.719346,-5403.503377,-8512.368333,-1455.581446
298.719668,-5699.585753,-8438.347739,-1685.410096
298.719990,-5477.523971,-7698.141797,-2528.115143
298.720312,-4737.318029,-8142.265362,-2451.505594
298.720634,-3849.070898,-9178.553681,-1225.752797
298.720955,-2294.638420,-9030.512492,-76.609550
298.721277,222.061783,-8512.368333,-919.314598
298.721599,2812.782580,-7994.224174,-1762.019645
298.721921,5107.421000,-8734.430116,-1838.629195
298.722243,5995.668130,-8512.368333,-2068.457845
298.722564,6217.729913,-8660.409521,-2451.505594
298.722886,5847.626942,-10214.842000,-2145.067394
298.723208,4293.194464,-11769.274478,-1685.410096
298.723530,1628.453072,-11843.295072,-766.095498
298.723852,-1332.370696,-10584.944971,-689.485948
298.724173,-3330.926739,-9400.615463,-1762.019645
298.724495,-4441.235652,-8956.491898,-2221.676944
298.724817,-5255.462188,-7550.100608,-2681.334243
298.725139,-5329.482782,-6661.853478,-1685.410096
298.725460,-4515.256246,-7105.977043,-1149.143247
298.725782,-2664.741391,-8660.409521,-842.705048
298.726104,-740.205942,-9696.697840,-1072.533697
298.726426,814.226536,-10288.862594,-1072.533697
298.726748,1702.473667,-10510.924376,-1532.190996
298.727069,2590.720797,-10732.986159,-1378.971896
298.727391,2442.679609,-10288.862594,-1455.581446
298.727713,2146.597232,-10288.862594,-1915.238745
298.728035,1776.494261,-11029.068536,-2604.724693
298.728357,444.123565,-11621.233289,-2145.067394
298.728678,-444.123565,-10807.006753,-1378.971896
298.729000,-1924.535449,-9474.636058,-995.924147
298.729322,-3330.926739,-8438.347739,0.000000
298.729644,-3923.091493,-7328.038826,-689.485948
298.729966,-4441.235652,-6809.894666,-1991.848295
298.730287,-4293.194464,-7254.018232,-2068.457845
298.730609,-3182.885551,-8660.409521,-612.876398
298.730931,-1480.411884,-9030.512492,0.000000
298.731253,1036.288319,-8808.450710,-306.438199
298.731575,3701.029710,-8734.430116,-1378.971896
298.731896,5551.544565,-9178.553681,-1225.752797
298.732218,6069.688724,-9030.512492,-2068.457845
298.732540,5625.565159,-9474.636058,-2987.772442
298.732862,4737.318029,-10658.965565,-2451.505594
298.733184,3330.926739,-11843.295072,-1991.848295
298.733505,1036.288319,-11843.295072,-1302.362347
298.733827,-1332.370696,-10807.006753,-1302.362347
298.734149,-3330.926739,-9622.677246,-1455.581446
298.734471,-4811.338623,-8956.491898,-1608.800546
298.734793,-5181.441594,-8290.306550,-2298.286494
298.735114,-5551.544565,-6735.874072,-1608.800546
298.735436,-4293.194464,-7179.997637,-1225.752797
298.735758,-2368.659014,-8734.430116,-842.705048
298.736080,-148.041188,-9400.615463,-306.438199
298.736401,1850.514855,-9696.697840,-229.828649
298.736723,3552.988522,-10362.883188,-459.657299
298.737045,3627.009116,-10881.027347,-459.657299
298.737367,3627.009116,-10436.903782,-1915.238745
298.737689,3330.926739,-10436.903782,-2604.724693
298.738010,2664.741391,-11029.068536,-2374.896044
298.738332,814.226536,-11251.130318,-1149.143247
298.738654,-1406.391290,-10140.821405,-1302.362347
298.738976,-3182.885551,-9474.636058,-1149.143247
298.739298,-4589.276840,-9178.553681,-536.266849
298.739619,-5625.565159,-8216.285956,-1378.971896
298.739941,-5477.523971,-7476.080014,-2528.115143
298.740263,-4959.379811,-7105.977043,-2221.676944
298.740585,-4219.173869,-7772.162391,-1149.143247
298.740907,-3182.885551,-7698.141797,-536.266849
298.741228,-1406.391290,-7772.162391,-995.924147
298.741550,1184.329507,-7624.121203,-1225.752797
298.741872,3182.885551,-9178.553681,-2987.772442
298.742194,4071.132681,-9770.718434,-3140.991542
298.742516,4293.194464,-9992.780217,-2911.162892
298.742837,4071.132681,-11177.109724,-2145.067394
298.743159,3330.926739,-12139.377449,-1838.629195
298.743481,1554.432478,-12287.418637,-1532.190996
298.743803,-1406.391290,-10584.944971,-1915.238745
298.744125,-3034.844362,-9474.636058,-1838.629195
298.744446,-3923.091493,-9252.574275,-1991.848295
298.744768,-4145.153275,-7920.203579,-1685.410096
298.745090,-3849.070898,-7031.956449,-919.314598
298.745412,-2590.720797,-7179.997637,0.000000
298.745733,-1036.288319,-8660.409521,76.609550
298.746055,296.082377,-9400.615463,0.000000
298.746377,1628.453072,-9474.636058,0.000000
298.746699,2886.803174,-9326.594869,0.000000
298.747021,3775.050304,-9252.574275,-1685.410096
298.747342,3330.926739,-10140.821405,-1762.019645
298.747664,2294.638420,-10732.986159,-2221.676944
298.747986,666.185348,-12139.377449,-2068.457845
298.748308,-1184.329507,-12805.562797,-1302.362347
298.748630,-2960.823768,-11029.068536,-536.266849
298.748951,-5329.482782,-8586.388927,-842.705048
298.749273,-5773.606348,-7624.121203,-1608.800546
298.749595,-5921.647536,-7105.977043,-2145.067394
298.749917,-5773.606348,-6365.771101,-3064.381992
298.750239,-5255.462188,-6069.688724,-2528.115143
298.750560,-3997.112087,-8808.450710,-306.438199
298.750882,-2664.741391,-9992.780217,612.876398
298.751204,-444.123565,-9696.697840,0.000000
298.751526,2368.659014,-9104.533087,-1378.971896
298.751848,5255.462188,-8956.491898,-1685.410096
298.752169,6661.853478,-8142.265362,-2374.896044
298.752491,7179.997637,-8068.244768,-2451.505594
298.752813,6365.771101,-9252.574275,-1762.019645
298.753135,5329.482782,-11325.150913,-842.705048
298.753457,3330.926739,-11917.315666,-995.924147
298.753778,222.061783,-11029.068536,-536.266849
298.754100,-1998.556043,-9992.780217,-766.095498
298.754422,-3182.885551,-9474.636058,-1608.800546
298.754744,-3923.091493,-8216.285956,-2068.457845
298.755066,-4219.173869,-6735.874072,-919.314598
298.755387,-3701.029710,-6809.894666,-536.266849
298.755709,-2368.659014,-8068.244768,-1838.629195
298.756031,-518.144159,-9474.636058,-1838.629195
298.756353,888.247130,-10881.027347,-1302.362347
298.756674,1924.535449,-11029.068536,-536.266849
298.756996,2442.679609,-10288.862594,-1149.143247
298.757318,2960.823768,-10584.944971,-1762.019645
298.757640,2590.720797,-10807.006753,-3600.648841
298.757962,1850.514855,-10732.986159,-3907.087040
298.758283,518.144159,-10881.027347,-2528.115143
298.758605,-1258.350101,-11029.068536,-1378.971896
298.758927,-3182.885551,-9844.739029,-536.266849
298.759249,-4737.318029,-9104.533087,-995.924147
298.759571,-5107.421000,-8512.368333,-2068.457845
298.759892,-4959.379811,-7698.141797,-2834.553343
298.760214,-4219.173869,-7402.059420,-2681.334243
298.760536,-3330.926739,-7846.182985,-1302.362347
298.760858,-1850.514855,-8364.327145,612.876398
298.761180,888.247130,-8438.347739,-459.657299
298.761501,3256.906145,-8216.285956,-1838.629195
298.761823,5477.523971,-8660.409521,-2451.505594
298.762145,5995.668130,-9326.594869,-2757.943793
298.762467,5773.606348,-9474.636058,-2451.505594
298.762789,5255.462188,-10955.047942,-1915.238745
298.763110,3923.091493,-11843.295072,-1378.971896
298.763432,1998.556043,-11843.295072,-1532.190996
298.763754,-814.226536,-10807.006753,-2221.676944
298.764076,-3552.988522,-9918.759623,-2221.676944
298.764398,-5181.441594,-8660.409521,-2145.067394
298.764719,-5995.668130,-8142.265362,-2221.676944
298.765041,-5699.585753,-7254.018232,-2221.676944
298.765363,-4811.338623,-7624.121203,-995.924147
298.765685,-3849.070898,-7994.224174,-383.047749
298.766006,-2368.659014,-8364.327145,-153.219100
298.766328,-222.061783,-9844.739029,-612.876398
298.766650,1184.329507,-10140.821405,-842.705048
298.766972,1776.494261,-10362.883188,-1608.800546
298.767294,1998.556043,-9992.780217,-2298.286494
298.767615,2220.617826,-10288.862594,-2451.505594
298.767937,1776.494261,-11103.089130,-2681.334243
298.768259,740.205942,-11991.336260,-1838.629195
298.768581,-962.267725,-11621.233289,-1072.533697
298.768903,-2368.659014,-10214.842000,-383.047749
298.769224,-3849.070898,-8882.471304,-306.438199
298.769546,-4589.276840,-7698.141797,-766.095498
298.769868,-4515.256246,-6661.853478,-2145.067394
298.770190,-3775.050304,-6883.915261,-2451.505594
298.770512,-3108.864956,-8586.388927,-766.095498
298.770833,-2516.700203,-8882.471304,1225.752797
298.771155,-962.267725,-8586.388927,766.095498
298.771477,1036.288319,-7624.121203,-1378.971896
298.771799,3404.947333,-8734.430116,-2374.896044
298.772121,4219.173869,-8808.450710,-2374.896044
298.772442,4071.132681,-8882.471304,-2221.676944
298.772764,3997.112087,-10066.800811,-1378.971896
298.773086,3256.906145,-11325.150913,-766.095498
298.773408,1628.453072,-11917.315666,-1302.362347
298.773730,-1184.329507,-11029.068536,-1149.143247
298.774051,-2886.803174,-9326.594869,-1149.143247
298.774373,-3849.070898,-8438.347739,-1838.629195
298.774695,-4219.173869,-7254.018232,-1915.238745
298.775017,-3701.029710,-6883.915261,-1762.019645
298.775339,-2960.823768,-7105.977043,0.000000
298.775660,-1850.514855,-8364.327145,153.219100
298.775982,-148.041188,-9548.656652,-229.828649
298.776304,1702.473667,-9696.697840,-229.828649
298.776626,3108.864956,-9252.574275,-612.876398
298.776947,4219.173869,-10214.842000,-1532.190996
298.777269,4293.194464,-10658.965565,-1991.848295
298.777591,3775.050304,-11029.068536,-1762.019645
298.777913,2738.761985,-11991.336260,-1762.019645
298.778235,962.267725,-11769.274478,-766.095498
298.778556,-518.144159,-11399.171507,-1608.800546
298.778878,-2294.638420,-9844.739029,-1532.190996
298.779200,-3627.009116,-8512.368333,-1302.362347
298.779522,-4515.256246,-7254.018232,-1532.190996
298.779844,-4737.318029,-6069.688724,-1915.238745
298.780165,-4515.256246,-6439.791695,-2911.162892
298.780487,-4071.132681,-8586.388927,-1685.410096
298.780809,-3330.926739,-9474.636058,-536.266849
298.781131,-1554.432478,-9326.594869,-842.705048
298.781453,1036.288319,-8734.430116,-1991.848295
298.781774,4219.173869,-9030.512492,-2298.286494
298.782096,5995.668130,-8512.368333,-2681.334243
298.782418,6291.750507,-8512.368333,-3064.381992
298.782740,6143.709319,-9844.739029,-2757.943793
298.783062,5255.462188,-11695.253884,-2068.457845
298.783384,3404.947333,-12435.459826,-1532.190996
298.783706,666.185348,-11621.233289,-1455.581446
298.784028,-1850.514855,-10436.903782,-1378.971896
298.784349,-3108.864956,-9696.697840,-1838.629195
298.784671,-3997.112087,-8290.306550,-2451.505594
298.784993,-4071.132681,-7031.956449,-2145.067394
298.785315,-3849.070898,-6809.894666,-229.828649
298.785637,-3108.864956,-7624.121203,-536.266849
298.785959,-1480.411884,-8734.430116,-1225.752797
298.786281,814.226536,-10214.842000,-1302.362347
298.786603,1776.494261,-10881.027347,-1072.533697
298.786924,2146.597232,-10807.006753,-536.266849
298.787246,1628.453072,-10214.842000,-1072.533697
298.787568,888.247130,-10584.944971,-2451.505594
298.787890,74.020594,-10955.047942,-3753.867940
298.788212,-666.185348,-11547.212695,-3830.477490
298.788534,-2294.638420,-11029.068536,-1608.800546
298.788856,-3256.906145,-11029.068536,-1225.752797
298.789178,-4737.318029,-9696.697840,0.000000
298.789499,-5403.503377,-8438.347739,-153.219100
298.789821,-5181.441594,-7624.121203,-1762.019645
298.790143,-4737.318029,-7031.956449,-2911.162892
298.790465,-4293.194464,-6957.935855,-1225.752797
298.790787,-3256.906145,-7476.080014,306.438199
298.791109,-1554.432478,-7402.059420,689.485948
298.791431,1110.308913,-7846.182985,-459.657299
298.791753,3404.947333,-8364.327145,-1072.533697
298.792074,4959.379811,-8586.388927,-1608.800546
298.792396,5033.400406,-8882.471304,-1762.019645
298.792718,5181.441594,-10066.800811,-1532.190996
298.793040,4737.318029,-11695.253884,-842.705048
298.793362,2812.782580,-12065.356855,153.219100
298.793684,370.102971,-10807.006753,-153.219100
298.794006,-1702.473667,-9474.636058,-2145.067394
298.794328,-2738.761985,-8882.471304,-2221.676944
298.794649,-3923.091493,-7772.162391,-1685.410096
298.794971,-4293.194464,-6661.853478,-1608.800546
298.795293,-4071.132681,-7550.100608,-1302.362347
298.795615,-3034.844362,-8882.471304,306.438199
298.795937,-2294.638420,-9252.574275,0.000000
298.796259,-1258.350101,-9252.574275,-1225.752797
298.796581,518.144159,-9844.739029,-1378.971896
298.796903,2294.638420,-10584.944971,-1608.800546
298.797224,3034.844362,-9548.656652,-2068.457845
298.797546,3478.967927,-10807.006753,-1532.190996
298.797868,2812.782580,-11843.295072,-995.924147
298.798190,2294.638420,-12657.521608,-1608.800546
298.798512,296.082377,-11917.315666,-2145.067394
298.798834,-1332.370696,-10066.800811,-1225.752797
298.799156,-2886.803174,-8956.491898,-306.438199
298.799478,-3627.009116,-8142.265362,-1072.533697
298.799799,-3701.029710,-6957.935855,-2068.457845
298.800121,-3034.844362,-6809.894666,-2374.896044
298.800443,-2516.700203,-8512.368333,-919.314598
298.800765,-2516.700203,-9326.594869,459.657299
298.801087,-1184.329507,-9030.512492,229.828649
298.801409,592.164754,-8586.388927,-1072.533697
298.801731,2812.782580,-9326.594869,-1991.848295
298.802053,3775.050304,-9030.512492,-1915.238745
298.802374,3182.885551,-7402.059420,-2068.457845
298.802696,3849.070898,-8216.285956,-2834.553343
298.803018,3701.029710,-10140.821405,-2681.334243
298.803340,2368.659014,-11547.212695,-2451.505594
298.803662,0.000000,-11029.068536,-2068.457845
298.803984,-2146.597232,-9918.759623,-1225.752797
298.804306,-3182.885551,-9844.739029,-1225.752797
298.804628,-3997.112087,-9104.533087,-2528.115143
298.804949,-4071.132681,-8660.409521,-2757.943793
298.805271,-4071.132681,-8142.265362,-1685.410096
298.805593,-2886.803174,-8216.285956,-689.485948
298.805915,-740.205942,-8586.388927,-766.095498
298.806237,1998.556043,-8808.450710,-1532.190996
298.806559,3997.112087,-9696.697840,-1608.800546
298.806881,4737.318029,-10288.862594,-1149.143247
298.807203,4737.318029,-10436.903782,-229.828649
298.807524,4663.297435,-10510.924376,-1608.800546
298.807846,4219.173869,-10881.027347,-2221.676944
298.808168,2886.803174,-11695.253884,-2145.067394
298.808490,444.123565,-11769.274478,-1455.581446
298.808812,-2960.823768,-10881.027347,-612.876398
298.809134,-5033.400406,-9622.677246,153.219100
298.809456,-5921.647536,-8068.244768,-383.047749
298.809778,-6365.771101,-7254.018232,-2681.334243
298.810099,-6069.688724,-7550.100608,-3447.429741
298.810421,-5773.606348,-7698.141797,-1991.848295
298.810743,-4737.318029,-7772.162391,-689.485948
298.811065,-2220.617826,-7920.203579,-459.657299
298.811387,-74.020594,-8364.327145,-1225.752797
298.811709,1406.391290,-8956.491898,-2298.286494
298.812031,2294.638420,-9326.594869,-2604.724693
298.812353,2960.823768,-9474.636058,-2451.505594
298.812674,3701.029710,-9770.718434,-2528.115143
298.812996,3997.112087,-10510.924376,-1762.019645
298.813318,2886.803174,-11029.068536,-1149.143247
298.813640,962.267725,-10510.924376,-612.876398
298.813962,-1110.308913,-9844.739029,-766.095498
298.814284,-2812.782580,-9252.574275,-1378.971896
298.814606,-3404.947333,-8364.327145,-1685.410096
298.814928,-2886.803174,-7920.203579,-1915.238745
298.815249,-2590.720797,-8068.244768,-919.314598
298.815571,-1924.535449,-8512.368333,536.266849
298.815893,-1332.370696,-8808.450710,1072.533697
298.816215,-222.061783,-8956.491898,153.219100
298.816537,1184.329507,-8660.409521,-689.485948
298.816859,1924.535449,-9326.594869,-2068.457845
298.817181,2368.659014,-9474.636058,-2374.896044
298.817503,2442.679609,-9844.739029,-2221.676944
298.817824,2220.617826,-11399.171507,-2451.505594
298.818146,962.267725,-13175.665768,-1991.848295
298.818468,-1702.473667,-13323.706956,-766.095498
298.818790,-4367.215058,-11621.233289,-153.219100
298.819112,-5995.668130,-8882.471304,-766.095498
298.819434,-5921.647536,-6883.915261,-2145.067394
298.819756,-5255.462188,-5921.647536,-3294.210641
298.820078,-4737.318029,-6365.771101,-3064.381992
298.820399,-3997.112087,-7846.182985,-842.705048
298.820721,-3182.885551,-9252.574275,995.924147
298.821043,-1628.453072,-10066.800811,842.705048
298.821365,518.144159,-9918.759623,-1149.143247
298.821687,3256.906145,-9770.718434,-2604.724693
298.822009,4441.235652,-9030.512492,-2528.115143
298.822331,5403.503377,-8660.409521,-1991.848295
298.822653,5921.647536,-8586.388927,-1762.019645
298.822974,6069.688724,-9178.553681,-1532.190996
298.823296,4367.215058,-10732.986159,-1532.190996
298.823618,2442.679609,-11029.068536,-1378.971896
298.823940,-444.123565,-10510.924376,-1455.581446
298.824262,-2294.638420,-10510.924376,-1762.019645
298.824584,-3330.926739,-10066.800811,-1762.019645
298.824906,-3627.009116,-8808.450710,-1072.533697
298.825228,-4071.132681,-7772.162391,-459.657299
298.825549,-3404.947333,-8290.306550,0.000000
298.825871,-2146.597232,-8068.244768,-536.266849
298.826193,-666.185348,-7994.224174,-1532.190996
298.826515,666.185348,-9104.533087,-1455.581446
298.826837,2368.659014,-9696.697840,-229.828649
298.827159,2738.761985,-9918.759623,-1072.533697
298.827481,2960.823768,-10214.842000,-2221.676944
298.827803,2516.700203,-11843.295072,-2451.505594
298.828124,1702.473667,-12583.501014,-1991.848295
298.828446,0.000000,-11325.150913,-1149.143247
298.828768,-1628.453072,-10732.986159,-1762.019645
298.829090,-3034.844362,-9844.739029,-766.095498
298.829412,-3552.988522,-8512.368333,-995.924147
298.829734,-3849.070898,-7105.977043,-1838.629195
298.830056,-3404.947333,-6661.853478,-1991.848295
298.830378,-3182.885551,-7994.224174,-842.705048
298.830699,-2812.782580,-8808.450710,153.219100
298.831021,-1702.473667,-8882.471304,0.000000
298.831343,0.000000,-8068.244768,-689.485948
298.831665,2442.679609,-8586.388927,-1991.848295
298.831987,3923.091493,-8660.409521,-2221.676944
298.832309,4589.276840,-7920.203579,-1838.629195
298.832631,4737.318029,-8882.471304,-2298.286494
298.832953,4441.235652,-10881.027347,-1685.410096
298.833274,2516.700203,-11695.253884,-1072.533697
298.833596,296.082377,-10955.047942,-1225.752797
298.833918,-1998.556043,-10436.903782,-2451.505594
298.834240,-3404.947333,-10436.903782,-2604.724693
298.834562,-4515.256246,-9104.533087,-2221.676944
298.834884,-4737.318029,-7920.203579,-2145.067394
298.835206,-4515.256246,-7846.182985,-2298.286494
298.835528,-3182.885551,-8512.368333,-995.924147
298.835849,-2368.659014,-8734.430116,-153.219100
298.836171,-740.205942,-8660.409521,-612.876398
298.836493,740.205942,-8660.409521,-842.705048
298.836815,1776.494261,-8734.430116,-1149.143247
298.837137,2590.720797,-9030.512492,-1685.410096
298.837459,2590.720797,-9992.780217,-2374.896044
298.837781,3108.864956,-11695.253884,-2451.505594
298.838103,2220.617826,-12731.542202,-1838.629195
298.838424,518.144159,-12435.459826,-1149.143247
298.838746,-1480.411884,-11325.150913,-459.657299
298.839068,-3256.906145,-9696.697840,-689.485948
298.839390,-5181.441594,-8216.285956,-1762.019645
298.839712,-5699.585753,-7179.997637,-2451.505594
298.840034,-5033.400406,-6439.791695,-2528.115143
298.840356,-3923.091493,-7476.080014,-2145.067394
298.840678,-2960.823768,-8956.491898,-689.485948
298.840999,-1998.556043,-8808.450710,1072.533697
298.841321,-296.082377,-8734.430116,-153.219100
298.841643,1924.535449,-8882.471304,-2451.505594
298.841965,3404.947333,-9474.636058,-3064.381992
298.842287,4145.153275,-8956.491898,-2374.896044
298.842609,4441.235652,-8586.388927,-2374.896044
298.842931,4071.132681,-9770.718434,-1302.362347
298.843253,3330.926739,-11251.130318,-1072.533697
298.843574,1184.329507,-11251.130318,-1302.362347
298.843896,-1036.288319,-10288.862594,-2068.457845
298.844218,-2664.741391,-9918.759623,-1608.800546
298.844540,-3478.967927,-9326.594869,-1608.800546
298.844862,-3849.070898,-8438.347739,-1302.362347
298.845184,-3923.091493,-8068.244768,-459.657299
298.845506,-3256.906145,-8512.368333,153.219100
298.845828,-2368.659014,-8956.491898,229.828649
298.846149,-962.267725,-8586.388927,-459.657299
298.846471,666.185348,-8734.430116,-919.314598
298.846793,2368.659014,-9178.553681,-1149.143247
298.847115,4145.153275,-9474.636058,-1455.581446
298.847437,4663.297435,-10214.842000,-1991.848295
298.847759,3923.091493,-11473.192101,-1991.848295
298.848081,2738.761985,-12731.542202,-1991.848295
298.848403,296.082377,-13545.768739,-995.924147
298.848724,-1850.514855,-12287.418637,-383.047749
298.849046,-3108.864956,-9918.759623,-689.485948
298.849368,-3775.050304,-7105.977043,-689.485948
298.849690,-3182.885551,-6291.750507,-2145.067394
298.850012,-3256.906145,-5847.626942,-2451.505594
298.850334,-3034.844362,-7031.956449,-1225.752797
298.850656,-3330.926739,-8734.430116,536.266849
298.850978,-2960.823768,-9326.594869,842.705048
298.851299,-1332.370696,-9104.533087,-766.095498
298.851621,962.267725,-9030.512492,-2374.896044
298.851943,2590.720797,-8882.471304,-2145.067394
298.852265,3849.070898,-7328.038826,-1608.800546
298.852587,4737.318029,-7105.977043,-2145.067394
298.852909,5329.482782,-8808.450710,-2221.676944
298.853231,3701.029710,-10658.965565,-1532.190996
298.853553,888.247130,-10584.944971,-1378.971896
298.853874,-1628.453072,-10807.006753,-1685.410096
298.854196,-3034.844362,-11103.089130,-2068.457845
298.854518,-3849.070898,-10510.924376,-2757.943793
298.854840,-4145.153275,-9104.533087,-2298.286494
298.855162,-3627.009116,-8068.244768,-1072.533697
298.855484,-2738.761985,-8216.285956,-383.047749
298.855806,-1628.453072,-7846.182985,-612.876398
298.856128,-444.123565,-7179.997637,-1225.752797
298.856449,592.164754,-7994.224174,-1225.752797
298.856771,1702.473667,-9474.636058,-1455.581446
298.857093,2072.576638,-10658.965565,-1838.629195
298.857415,2442.679609,-10807.006753,-2451.505594
298.857737,2442.679609,-11695.253884,-2451.505594
298.858059,2294.638420,-12287.418637,-2145.067394
298.858381,888.247130,-11917.315666,-2221.676944
298.858703,-962.267725,-11251.130318,-1915.238745
298.859024,-2738.761985,-10214.842000,-1685.410096
298.859346,-4071.132681,-9400.615463,-1378.971896
298.859668,-4515.256246,-7550.100608,-1915.238745
298.859990,-4219.173869,-6957.935855,-2451.505594
298.860312,-3330.926739,-7698.141797,-2451.505594
298.860634,-2738.761985,-8438.347739,-689.485948
298.860956,-1480.411884,-8438.347739,0.000000
298.861278,518.144159,-8068.244768,-1225.752797
298.861599,2886.803174,-8068.244768,-2374.896044
298.861921,4515.256246,-9252.574275,-2221.676944
298.862243,4589.276840,-9104.533087,-1838.629195
298.862565,4663.297435,-9030.512492,-2145.067394
298.862887,4589.276840,-10288.862594,-2145.067394
298.863209,3404.947333,-11621.233289,-1455.581446
298.863531,1184.329507,-11103.089130,-995.924147
298.863853,-1036.288319,-9992.780217,-1838.629195
298.864174,-2442.679609,-9474.636058,-1915.238745
298.864496,-3627.009116,-9400.615463,-1991.848295
298.864818,-4145.153275,-8660.409521,-2374.896044
298.865140,-3849.070898,-7920.203579,-1455.581446
298.865462,-3552.988522,-8586.388927,-995.924147
298.865784,-2516.700203,-9030.512492,229.828649
298.866106,-1702.473667,-8438.347739,153.219100
298.866428,0.000000,-8586.388927,-995.924147
298.866749,1480.411884,-9252.574275,-1532.190996
298.867071,2886.803174,-9030.512492,-1608.800546
298.867393,2960.823768,-8956.491898,-1991.848295
298.867715,3552.988522,-10510.924376,-1762.019645
298.868037,3627.009116,-12213.398043,-995.924147
298.868359,1924.535449,-12583.501014,-842.705048
298.868681,0.000000,-12139.377449,-995.924147
298.869003,-2812.782580,-10584.944971,-306.438199
298.869324,-4441.235652,-8882.471304,-459.657299
298.869646,-4737.318029,-6809.894666,-1685.410096
298.869968,-4737.318029,-5773.606348,-2298.286494
298.870290,-4219.173869,-6661.853478,-2068.457845
298.870612,-4589.276840,-8660.409521,0.000000
298.870934,-3552.988522,-9622.677246,612.876398
298.871256,-2072.576638,-9178.553681,-153.219100
298.871578,148.041188,-9252.574275,-1838.629195
298.871899,2072.576638,-8808.450710,-2604.724693
298.872221,2738.761985,-8364.327145,-2451.505594
298.872543,2886.803174,-8142.265362,-2068.457845
298.872865,3034.844362,-9326.594869,-1991.848295
298.873187,2220.617826,-10510.924376,-1685.410096
298.873509,444.123565,-10732.986159,-1149.143247
298.873831,-1332.370696,-10288.862594,-1225.752797
298.874153,-3108.864956,-10214.842000,-1685.410096
298.874474,-3552.988522,-9992.780217,-2068.457845
298.874796,-3552.988522,-9474.636058,-2451.505594
298.875118,-3182.885551,-9030.512492,-1378.971896
298.875440,-2738.761985,-8734.430116,76.609550
298.875762,-2294.638420,-8734.430116,689.485948
298.876084,-666.185348,-8068.244768,-536.266849
298.876406,1036.288319,-8068.244768,-1532.190996
298.876728,2590.720797,-8586.388927,-1378.971896
298.877049,3404.947333,-8512.368333,-766.095498
298.877371,4219.173869,-9474.636058,-1378.971896
298.877693,4219.173869,-11251.130318,-2604.724693
298.878015,3182.885551,-12583.501014,-2451.505594
298.878337,740.205942,-12509.480420,-842.705048
298.878659,-2220.617826,-11029.068536,-919.314598
298.878981,-3923.091493,-8808.450710,-1608.800546
298.879303,-4811.338623,-7698.141797,-2451.505594
298.879624,-4737.318029,-6957.935855,-3294.210641
298.879946,-4441.235652,-6883.915261,-3524.039291
298.880268,-3701.029710,-8142.265362,-2451.505594
298.880590,-2590.720797,-9474.636058,-459.657299
298.880912,-1480.411884,-9474.636058,153.219100
298.881234,444.123565,-8734.430116,-1225.752797
298.881556,2294.638420,-8660.409521,-2911.162892
298.881878,4071.132681,-8956.491898,-2834.553343
298.882199,5255.462188,-8956.491898,-2681.334243
298.882521,6143.709319,-8586.388927,-2757.943793
298.882843,6735.874072,-10066.800811,-2221.676944
298.883165,5551.544565,-11547.212695,-995.924147
298.883487,3478.967927,-11621.233289,-689.485948
298.883809,888.247130,-10732.986159,-1225.752797
298.884131,-1110.308913,-9992.780217,-1915.238745
298.884453,-2590.720797,-9178.553681,-1991.848295
298.884774,-3627.009116,-8216.285956,-1838.629195
298.885096,-4367.215058,-7105.977043,-1072.533697
298.885418,-4071.132681,-7846.182985,-612.876398
298.885740,-3182.885551,-9030.512492,-459.657299
298.886062,-2368.659014,-9474.636058,-1838.629195
298.886384,-740.205942,-10066.800811,-1532.190996
298.886706,222.061783,-10658.965565,-612.876398
298.887028,1110.308913,-9622.677246,-995.924147
298.887350,2072.576638,-8734.430116,-2451.505594
298.887672,2886.803174,-9474.636058,-3447.429741
298.887994,2812.782580,-11177.109724,-3830.477490
298.888316,592.164754,-12583.501014,-2221.676944
298.888638,-1776.494261,-12065.356855,229.828649
298.888960,-3478.967927,-10732.986159,1455.581446
298.889281,-4145.153275,-9474.636058,306.438199
298.889603,-4441.235652,-6809.894666,-1915.238745
298.889925,-4071.132681,-6291.750507,-2834.553343
298.890247,-3478.967927,-6883.915261,-1915.238745
298.890569,-3108.864956,-7994.224174,766.095498
298.890891,-1998.556043,-8438.347739,2374.896044
298.891213,-296.082377,-7920.203579,995.924147
298.891535,1924.535449,-8364.327145,-1532.190996
298.891857,2960.823768,-9548.656652,-2834.553343
298.892179,3256.906145,-9548.656652,-2451.505594
298.892501,2738.761985,-9474.636058,-1838.629195
298.892823,2220.617826,-10732.986159,-1532.190996
298.893145,1258.350101,-11103.089130,-459.657299
298.893467,-370.102971,-11621.233289,-1302.362347
298.893789,-2664.741391,-10288.862594,-1838.629195
298.894110,-4219.173869,-9104.533087,-2298.286494
298.894432,-4737.318029,-9326.594869,-2451.505594
298.894754,-4515.256246,-8882.471304,-2298.286494
298.895076,-5033.400406,-7550.100608,-1149.143247
298.895398,-4737.318029,-7920.203579,-383.047749
298.895720,-3478.967927,-9104.533087,-229.828649
298.896042,-2146.597232,-9030.512492,-536.266849
298.896364,-518.144159,-8438.347739,-1302.362347
298.896686,1406.391290,-8586.388927,-995.924147
298.897008,2960.823768,-9104.533087,-1072.533697
298.897330,4145.153275,-9400.615463,-2145.067394
298.897652,4441.235652,-10658.965565,-2757.943793
298.897974,3627.009116,-11917.315666,-1608.800546
298.898296,1628.453072,-13175.665768,-1455.581446
298.898618,-1036.288319,-11843.295072,-383.047749
298.898939,-2960.823768,-9918.759623,-842.705048
298.899261,-3701.029710,-7772.162391,-1838.629195
298.899583,-3775.050304,-6217.729913,-3140.991542
298.899905,-3182.885551,-5847.626942,-4826.401637
298.900227,-3034.844362,-7402.059420,-2145.067394
298.900549,-2664.741391,-9622.677246,536.266849
298.900871,-2664.741391,-10140.821405,1532.190996
298.901193,-962.267725,-9400.615463,0.000000
298.901515,1776.494261,-8438.347739,-2298.286494
298.901837,3997.112087,-7698.141797,-3447.429741
298.902159,4959.379811,-7476.080014,-3294.210641
298.902481,5329.482782,-7328.038826,-2451.505594
298.902803,5995.668130,-8956.491898,-2221.676944
298.903125,5255.462188,-11399.171507,-1991.848295
298.903447,3256.906145,-11843.295072,-1149.143247
298.903768,814.226536,-11769.274478,-1838.629195
298.904090,-1184.329507,-11251.130318,-2451.505594
298.904412,-2146.597232,-10436.903782,-2068.457845
298.904734,-2442.679609,-8660.409521,-1302.362347
298.905056,-2368.659014,-6439.791695,-1455.581446
298.905378,-2146.597232,-7328.038826,-1455.581446
298.905700,-1776.494261,-8882.471304,-612.876398
298.906022,-1480.411884,-8882.471304,-306.438199
298.906344,-296.082377,-9178.553681,-766.095498
298.906666,1258.350101,-9992.780217,-919.314598
298.906988,2516.700203,-10288.862594,-766.095498
298.907310,2886.803174,-9622.677246,-1991.848295
298.907632,3256.906145,-9844.739029,-3524.039291
298.907954,3256.906145,-11621.233289,-3140.991542
298.908276,1628.453072,-13175.665768,-1991.848295
298.908597,-1998.556043,-12583.501014,-306.438199
298.908919,-4219.173869,-11399.171507,383.047749
298.909241,-5551.544565,-9844.739029,-306.438199
298.909563,-5773.606348,-8438.347739,-2374.896044
298.909885,-5477.523971,-6957.935855,-3447.429741
298.910207,-5033.400406,-6365.771101,-2451.505594
298.910529,-4071.132681,-7402.059420,0.000000
298.910851,-2220.617826,-8364.327145,612.876398
298.911173,0.000000,-8512.368333,0.000000
298.911495,1998.556043,-8438.347739,-1455.581446
298.911817,3330.926739,-9400.615463,-2145.067394
298.912139,3627.009116,-8808.450710,-1072.533697
298.912461,3330.926739,-8586.388927,-1225.752797
298.912783,3256.906145,-9474.636058,-1532.190996
298.913105,2738.761985,-10732.986159,-1225.752797
298.913426,888.247130,-10881.027347,-995.924147
298.913748,-962.267725,-9844.739029,-1838.629195
298.914070,-2812.782580,-9178.553681,-1378.971896
298.914392,-3701.029710,-9400.615463,-1608.800546
298.914714,-4145.153275,-8882.471304,-1838.629195
298.915036,-4441.235652,-7920.203579,-1378.971896
298.915358,-4367.215058,-8142.265362,-383.047749
298.915680,-4811.338623,-8956.491898,612.876398
298.916002,-3849.070898,-8660.409521,76.609550
298.916324,-2590.720797,-8586.388927,-1302.362347
298.916646,-444.123565,-8808.450710,-2068.457845
298.916968,1628.453072,-9104.533087,-2298.286494
298.917290,3108.864956,-8882.471304,-2987.772442
298.917612,3923.091493,-9548.656652,-2834.553343
298.917933,3849.070898,-11621.233289,-2374.896044
298.918255,2072.576638,-13175.665768,-1225.752797
298.918577,-814.226536,-12953.603985,-995.924147
298.918899,-2738.761985,-11769.274478,-842.705048
298.919221,-3849.070898,-9474.636058,-1072.533697
298.919543,-3404.947333,-7179.997637,-2145.067394
298.919865,-2664.741391,-5551.544565,-2681.334243
298.920187,-1776.494261,-5921.647536,-2298.286494
298.920509,-1110.308913,-8142.265362,-612.876398
298.920831,-814.226536,-9696.697840,229.828649
298.921153,-296.082377,-9992.780217,229.828649
298.921475,1332.370696,-9918.759623,-1302.362347
298.921797,3108.864956,-9548.656652,-2451.505594
298.922119,4367.215058,-8660.409521,-2298.286494
298.922441,4515.256246,-7624.121203,-2221.676944
298.922762,5033.400406,-8216.285956,-2911.162892
298.923084,4589.276840,-10066.800811,-2757.943793
298.923406,2516.700203,-11547.212695,-1915.238745
298.923728,0.000000,-11843.295072,-1302.362347
298.924050,-2220.617826,-11029.068536,-2298.286494
298.924372,-3478.967927,-10658.965565,-2987.772442
298.924694,-4737.318029,-9178.553681,-2451.505594
298.925016,-4885.359217,-8142.265362,-2145.067394
298.925338,-4663.297435,-7846.182985,-1225.752797
298.925660,-3404.947333,-8068.244768,-1072.533697
298.925982,-1332.370696,-8142.265362,-1149.143247
298.926304,0.000000,-8586.388927,-1072.533697
298.926626,1702.473667,-9474.636058,-689.485948
298.926948,2442.679609,-9474.636058,306.438199
298.927270,3256.906145,-9030.512492,-612.876398
298.927591,3108.864956,-9622.677246,-1378.971896
298.927913,3849.070898,-11325.150913,-2298.286494
298.928235,2146.597232,-12435.459826,-2145.067394
298.928557,-296.082377,-12805.562797,-1225.752797
298.928879,-2220.617826,-11991.336260,383.047749
298.929201,-2886.803174,-9770.718434,306.438199
298.929523,-2664.741391,-7105.977043,-1378.971896
298.929845,-2960.823768,-5625.565159,-2834.553343
298.930167,-3330.926739,-5255.462188,-2451.505594
298.930489,-3701.029710,-7179.997637,-995.924147
298.930811,-3775.050304,-8660.409521,766.095498
298.931133,-3034.844362,-8142.265362,689.485948
298.931455,-740.205942,-8808.450710,-1302.362347
298.931777,1776.494261,-9696.697840,-1991.848295
298.932099,3034.844362,-9474.636058,-1762.019645
298.932420,3849.070898,-7994.224174,-1915.238745
298.932742,4367.215058,-8290.306550,-2221.676944
298.933064,3849.070898,-8956.491898,-1455.581446
298.933386,2368.659014,-10510.924376,-1225.752797
298.933708,-666.185348,-10436.903782,-1378.971896
298.934030,-3108.864956,-10732.986159,-1302.362347
298.934352,-4441.235652,-11103.089130,-1685.410096
298.934674,-4737.318029,-10066.800811,-1762.019645
298.934996,-4071.132681,-8882.471304,-1838.629195
298.935318,-3330.926739,-8808.450710,-689.485948
298.935640,-2220.617826,-8734.430116,153.219100
298.935962,-1184.329507,-7920.203579,0.000000
298.936284,518.144159,-8438.347739,-842.705048
298.936606,1110.308913,-8586.388927,-1225.752797
298.936928,2294.638420,-9400.615463,-995.924147
298.937249,3256.906145,-9400.615463,-1991.848295
298.937571,3849.070898,-10140.821405,-2451.505594
298.937893,3849.070898,-11621.233289,-1762.019645
298.938215,1924.535449,-11843.295072,-1532.190996
298.938537,-814.226536,-11843.295072,-1378.971896
298.938859,-3256.906145,-11177.109724,-1378.971896
298.939181,-5033.400406,-9696.697840,-2451.505594
298.939503,-5699.585753,-8364.327145,-3753.867940
298.939825,-5847.626942,-7476.080014,-4060.306139
298.940147,-5107.421000,-7402.059420,-2681.334243
298.940469,-3923.091493,-8290.306550,-1378.971896
298.940791,-2590.720797,-9400.615463,0.000000
298.941113,-1036.288319,-9030.512492,-153.219100
298.941435,1036.288319,-7994.224174,-2145.067394
298.941757,2664.741391,-8290.306550,-2451.505594
298.942078,4293.194464,-8734.430116,-2221.676944
298.942400,4959.379811,-8142.265362,-1762.019645
298.942722,5403.503377,-8808.450710,-2298.286494
298.943044,4959.379811,-10214.842000,-1532.190996
298.943366,3404.947333,-11325.150913,-766.095498
298.943688,592.164754,-11103.089130,-766.095498
298.944010,-1480.411884,-10362.883188,-1378.971896
298.944332,-2886.803174,-9844.739029,-1532.190996
298.944654,-3849.070898,-9104.533087,-1991.848295
298.944976,-3775.050304,-7624.121203,-2451.505594
298.945298,-3330.926739,-7846.182985,-1685.410096
298.945620,-2886.803174,-9178.553681,-612.876398
298.945942,-2220.617826,-9400.615463,0.000000
298.946264,-1332.370696,-9030.512492,0.000000
298.946586,148.041188,-8882.471304,-536.266849
298.946907,2516.700203,-9178.553681,-1991.848295
298.947229,3701.029710,-9326.594869,-2604.724693
298.947551,3627.009116,-9474.636058,-1608.800546
298.947873,2812.782580,-10584.944971,-766.095498
298.948195,1406.391290,-11547.212695,-1302.362347
298.948517,0.000000,-12139.377449,-1149.143247
298.948839,-2368.659014,-11029.068536,-1072.533697
298.949161,-3701.029710,-9770.718434,-1532.190996
298.949483,-4071.132681,-8142.265362,-1991.848295
298.949805,-4071.132681,-6883.915261,-2145.067394
298.950127,-3627.009116,-6883.915261,-2145.067394
298.950449,-3034.844362,-8512.368333,-1378.971896
298.950771,-3256.906145,-9400.615463,153.219100
298.951093,-2220.617826,-9548.656652,459.657299
298.951415,0.000000,-9252.574275,-766.095498
298.951736,2368.659014,-9252.574275,-1455.581446
298.952058,4441.235652,-9252.574275,-1225.752797
298.952380,5329.482782,-7550.100608,-1608.800546
298.952702,6439.791695,-7624.121203,-1762.019645
298.953024,5995.668130,-8660.409521,-1915.238745
298.953346,4145.153275,-9918.759623,-1149.143247
298.953668,666.185348,-10288.862594,76.609550
298.953990,-2442.679609,-10362.883188,-383.047749
298.954312,-4441.235652,-10732.986159,-1532.190996
298.954634,-4959.379811,-10362.883188,-2298.286494
298.954956,-5329.482782,-9030.512492,-2451.505594
298.955278,-5107.421000,-8290.306550,-1225.752797
298.955600,-3627.009116,-8142.265362,0.000000
298.955922,-2368.659014,-8438.347739,-306.438199
298.956244,-814.226536,-8660.409521,-1072.533697
298.956565,518.144159,-9474.636058,-1608.800546
298.956887,1258.350101,-9548.656652,-1225.752797
298.957209,2590.720797,-9474.636058,-2068.457845
298.957531,3478.967927,-9696.697840,-2681.334243
298.957853,3997.112087,-11103.089130,-2298.286494
298.958175,2812.782580,-11917.315666,-1378.971896
298.958497,148.041188,-11843.295072,-766.095498
298.958819,-2516.700203,-11103.089130,-306.438199
298.959141,-3997.112087,-9918.759623,-766.095498
298.959463,-4367.215058,-8290.306550,-2528.115143
298.959785,-4663.297435,-6809.894666,-3677.258390
298.960107,-4071.132681,-7254.018232,-3140.991542
298.960429,-3701.029710,-7994.224174,-1302.362347
298.960751,-2368.659014,-9252.574275,-306.438199
298.961072,-740.205942,-8660.409521,-612.876398
298.961394,1554.432478,-8216.285956,-2451.505594
298.961716,2960.823768,-9400.615463,-2757.943793
298.962038,3552.988522,-9474.636058,-2145.067394
298.962360,4145.153275,-8364.327145,-2221.676944
298.962682,4811.338623,-8586.388927,-2911.162892
298.963004,4367.215058,-10140.821405,-2451.505594
298.963326,2442.679609,-10955.047942,-1991.848295
298.963648,-444.123565,-10362.883188,-1915.238745
298.963970,-2664.741391,-9992.780217,-1915.238745
298.964292,-4293.194464,-10362.883188,-1532.190996
298.964614,-4367.215058,-10362.883188,-2681.334243
298.964936,-4737.318029,-8808.450710,-2298.286494
298.965258,-4441.235652,-7994.224174,-612.876398
298.965580,-3182.885551,-8068.244768,0.000000
298.965901,-1554.432478,-8512.368333,-1608.800546
298.966223,-444.123565,-8586.388927,-919.314598
298.966545,1110.308913,-8660.409521,-689.485948
298.966867,2738.761985,-9622.677246,-1532.190996
298.967189,3775.050304,-10214.842000,-1762.019645
298.967511,4293.194464,-10288.862594,-1149.143247
298.967833,3404.947333,-9992.780217,-689.485948
298.968155,1776.494261,-11103.089130,-1532.190996
298.968477,-962.267725,-11843.295072,-842.705048
298.968799,-3404.947333,-11029.068536,-995.924147
298.969121,-4959.379811,-9474.636058,-1685.410096
298.969443,-5625.565159,-8290.306550,-1685.410096
298.969765,-5255.462188,-7402.059420,-1915.238745
298.970087,-4737.318029,-7476.080014,-2834.553343
298.970409,-4145.153275,-8586.388927,-2145.067394
298.970730,-3256.906145,-9548.656652,-383.047749
298.971052,-1480.411884,-9474.636058,76.609550
298.971374,888.247130,-9326.594869,-1149.143247
298.971696,2812.782580,-9252.574275,-995.924147
298.972018,5033.400406,-8512.368333,-995.924147
298.972340,6439.791695,-8068.244768,-1302.362347
298.972662,7031.956449,-8586.388927,-2145.067394
298.972984,5995.668130,-8956.491898,-1149.143247
298.973306,4145.153275,-9918.759623,-153.219100
298.973628,1184.329507,-10362.883188,0.000000
298.973950,-1406.391290,-10140.821405,-459.657299
298.974272,-3256.906145,-9844.739029,-1685.410096
298.974594,-4663.297435,-8882.471304,-1762.019645
298.974916,-4811.338623,-8438.347739,-1685.410096
298.975238,-4737.318029,-8216.285956,-995.924147
298.975559,-3627.009116,-8734.430116,-306.438199
298.975881,-2072.576638,-9252.574275,-536.266849
298.976203,-296.082377,-9104.533087,0.000000
298.976525,1036.288319,-8956.491898,-1532.190996
298.976847,2442.679609,-9326.594869,-1225.752797
298.977169,3182.885551,-9474.636058,-1608.800546
298.977491,3034.844362,-9622.677246,-1838.629195
298.977813,2738.761985,-10732.986159,-1838.629195
298.978135,1776.494261,-11917.315666,-1378.971896
298.978457,-370.102971,-11547.212695,-842.705048
298.978779,-2590.720797,-10288.862594,-995.924147
298.979101,-4071.132681,-9030.512492,-842.705048
298.979423,-4885.359217,-7920.203579,-1838.629195
298.979745,-5255.462188,-7105.977043,-2834.553343
298.980067,-4737.318029,-7105.977043,-2911.162892
298.980388,-3849.070898,-8290.306550,-2374.896044
298.980710,-3108.864956,-9770.718434,-919.314598
298.981032,-1628.453072,-10140.821405,-306.438199
298.981354,148.041188,-9326.594869,-1532.190996
298.981676,2442.679609,-8734.430116,-2834.553343
298.981998,4737.318029,-8956.491898,-2987.772442
298.982320,5699.585753,-8512.368333,-3064.381992
298.982642,6365.771101,-8512.368333,-2987.772442
298.982964,5847.626942,-9474.636058,-1915.238745
298.983286,3775.050304,-11029.068536,-842.705048
298.983608,1184.329507,-11251.130318,-1149.143247
298.983930,-2294.638420,-10140.821405,-2221.676944
298.984252,-3627.009116,-9770.718434,-3140.991542
298.984574,-4515.256246,-9844.739029,-3447.429741
298.984895,-4959.379811,-8512.368333,-2757.943793
298.985217,-4885.359217,-6587.832884,-1455.581446
298.985539,-3849.070898,-7550.100608,-1455.581446
298.985861,-1998.556043,-9326.594869,-1378.971896
298.986183,0.000000,-9770.718434,-1915.238745
298.986505,1184.329507,-9548.656652,-2451.505594
298.986827,2738.761985,-10807.006753,-1685.410096
298.987149,3997.112087,-11325.150913,-995.924147
298.987471,4071.132681,-9770.718434,-995.924147
298.987793,3552.988522,-9252.574275,-2451.505594
298.988115,2368.659014,-10214.842000,-2374.896044
298.988436,592.164754,-11177.109724,-1762.019645
298.988758,-1924.535449,-10658.965565,-1378.971896
298.989080,-3627.009116,-10732.986159,-612.876398
298.989402,-4737.318029,-9918.759623,536.266849
298.989724,-4885.359217,-8882.471304,-383.047749
298.990046,-4885.359217,-7550.100608,-2068.457845
298.990368,-4663.297435,-7402.059420,-1608.800546
298.990690,-3701.029710,-7698.141797,-383.047749
298.991012,-2294.638420,-7920.203579,0.000000
298.991334,0.000000,-7772.162391,-459.657299
298.991655,2368.659014,-8364.327145,-1072.533697
298.991977,3627.009116,-9400.615463,-1225.752797
298.992299,3997.112087,-9770.718434,-1378.971896
298.992621,3997.112087,-10214.842000,-1532.190996
298.992943,3701.029710,-10807.006753,-1838.629195
298.993265,2368.659014,-11029.068536,-919.314598
298.993587,370.102971,-10362.883188,-612.876398
298.993909,-2072.576638,-9030.512492,0.000000
298.994231,-3552.988522,-8364.327145,-1302.362347
298.994553,-4293.194464,-8660.409521,-2068.457845
298.994874,-4811.338623,-8364.327145,-1685.410096
298.995196,-4811.338623,-8068.244768,-766.095498
298.995518,-3404.947333,-8660.409521,842.705048
298.995840,-2664.741391,-8364.327145,536.266849
298.996162,-962.267725,-8438.347739,0.000000
298.996484,444.123565,-8364.327145,-459.657299
298.996806,1924.535449,-9178.553681,-689.485948
298.997128,3034.844362,-9622.677246,-1455.581446
298.997450,3775.050304,-9622.677246,-1532.190996
298.997772,4145.153275,-11029.068536,-995.924147
298.998093,3182.885551,-11843.295072,-919.314598
298.998415,962.267725,-12139.377449,-919.314598
298.998737,-1850.514855,-11473.192101,-153.219100
298.999059,-4071.132681,-9474.636058,-842.705048
298.999381,-5255.462188,-7994.224174,-2068.457845
298.999703,-5551.544565,-7179.997637,-3217.601092
299.000025,-5107.421000,-7105.977043,-3140.991542
299.000347,-4367.215058,-7920.203579,-1991.848295
299.000669,-3108.864956,-9104.533087,-612.876398
299.000991,-1332.370696,-8734.430116,-306.438199
299.001312,888.247130,-9178.553681,-1838.629195
299.001634,2812.782580,-9252.574275,-2528.115143
299.001956,4219.173869,-9326.594869,-2451.505594
299.002278,4959.379811,-8734.430116,-2757.943793
299.002600,5847.626942,-8882.471304,-2987.772442
299.002922,5255.462188,-9770.718434,-2451.505594
299.003244,4071.132681,-11251.130318,-1685.410096
299.003566,1924.535449,-11843.295072,-2068.457845
299.003888,-740.205942,-11473.192101,-1915.238745
299.004210,-2220.617826,-10288.862594,-1991.848295
299.004532,-3775.050304,-9474.636058,-1532.190996
299.004853,-3923.091493,-7772.162391,-2221.676944
299.005175,-3701.029710,-7105.977043,-2987.772442
299.005497,-2516.700203,-8290.306550,-2834.553343
299.005819,-888.247130,-9622.677246,-1838.629195
299.006141,666.185348,-9622.677246,-1455.581446
299.006463,2146.597232,-10288.862594,-689.485948
299.006785,3478.967927,-10658.965565,0.000000
299.007107,3997.112087,-9844.739029,-842.705048
299.007429,3923.091493,-8808.450710,-2604.724693
299.007751,3775.050304,-9178.553681,-3217.601092
299.008072,1776.494261,-10214.842000,-2681.334243
299.008394,-444.123565,-10881.027347,-1991.848295
299.008716,-2886.803174,-11029.068536,-1302.362347
299.009038,-4737.318029,-10436.903782,-842.705048
299.009360,-5847.626942,-9992.780217,-1378.971896
299.009682,-5995.668130,-8734.430116,-2757.943793
299.010004,-5773.606348,-8216.285956,-2757.943793
299.010326,-5181.441594,-7402.059420,-2374.896044
299.010648,-3627.009116,-7772.162391,-842.705048
299.010970,-1628.453072,-7846.182985,-306.438199
299.011291,1036.288319,-7476.080014,-1149.143247
299.011613,3330.926739,-8068.244768,-2145.067394
299.011935,4885.359217,-9622.677246,-1762.019645
299.012257,5403.503377,-9770.718434,-766.095498
299.012579,5329.482782,-9400.615463,-766.095498
299.012901,5107.421000,-9770.718434,-1072.533697
299.013223,4441.235652,-11177.109724,-842.705048
299.013545,1776.494261,-10214.842000,-612.876398
299.013867,-962.267725,-8956.491898,-153.219100
299.014189,-3330.926739,-9030.512492,-459.657299
299.014510,-4293.194464,-9474.636058,-1225.752797
299.014832,-4959.379811,-8586.388927,-1685.410096
299.015154,-5403.503377,-8660.409521,-1608.800546
299.015476,-4737.318029,-9252.574275,-383.047749
299.015798,-3627.009116,-9326.594869,76.609550
299.016120,-2516.700203,-8808.450710,-153.219100
299.016442,-962.267725,-8734.430116,-612.876398
299.016764,518.144159,-9104.533087,-1225.752797
299.017086,1702.473667,-8882.471304,-2451.505594
299.017408,2516.700203,-9770.718434,-2374.896044
299.017729,2442.679609,-10288.862594,-1302.362347
299.018051,1406.391290,-10510.924376,-1149.143247
299.018373,0.000000,-11695.253884,-766.095498
299.018695,-2516.700203,-12139.377449,-306.438199
299.019017,-4589.276840,-10658.965565,-1072.533697
299.019339,-5773.606348,-8956.491898,-1532.190996
299.019661,-5699.585753,-8068.244768,-2068.457845
299.019983,-4071.132681,-8068.244768,-1838.629195
299.020305,-3552.988522,-7624.121203,-1455.581446
299.020627,-2664.741391,-8438.347739,0.000000
299.020948,-1480.411884,-8586.388927,612.876398
299.021270,888.247130,-8290.306550,-612.876398
299.021592,2664.741391,-8660.409521,-2068.457845
299.021914,4589.276840,-9844.739029,-2068.457845
299.022236,4663.297435,-9696.697840,-1532.190996
299.022558,5033.400406,-9474.636058,-2068.457845
299.022880,5033.400406,-10362.883188,-2604.724693
299.023202,4071.132681,-11473.192101,-1685.410096
299.023524,1998.556043,-11251.130318,-1838.629195
299.023846,-444.123565,-10214.842000,-1762.019645
299.024168,-2590.720797,-9770.718434,-1838.629195
299.024489,-3849.070898,-9326.594869,-1685.410096
299.024811,-4737.318029,-7550.100608,-2451.505594
299.025133,-4737.318029,-6439.791695,-2681.334243
299.025455,-3552.988522,-8364.327145,-2604.724693
299.025777,-1406.391290,-9992.780217,-1915.238745
299.026099,518.144159,-9844.739029,-1455.581446
299.026421,2368.659014,-9992.780217,-842.705048
299.026743,4145.153275,-9918.759623,229.828649
299.027065,4737.318029,-9696.697840,-459.657299
299.027387,4219.173869,-8438.347739,-2221.676944
299.027708,3404.947333,-9030.512492,-2528.115143
299.028030,2442.679609,-10140.821405,-2221.676944
299.028352,888.247130,-11103.089130,-1532.190996
299.028674,-888.247130,-10658.965565,-1302.362347
299.028996,-2516.700203,-9918.759623,-229.828649
299.029318,-3330.926739,-9326.594869,-766.095498
299.029640,-3923.091493,-8660.409521,-2911.162892
299.029962,-4367.215058,-7846.182985,-3294.210641
299.030284,-4071.132681,-7772.162391,-1915.238745
299.030606,-3108.864956,-8660.409521,-1378.971896
299.030927,-1850.514855,-9326.594869,-995.924147
299.031249,592.164754,-8882.471304,-1608.800546
299.031571,2886.803174,-9178.553681,-2451.505594
299.031893,4367.215058,-10214.842000,-2987.772442
299.032215,4959.379811,-10214.842000,-689.485948
299.032537,5107.421000,-8882.471304,-1378.971896
299.032859,5255.462188,-9474.636058,-2298.286494
299.033181,4367.215058,-10807.006753,-1532.190996
299.033503,1998.556043,-10732.986159,-536.266849
299.033825,-962.267725,-9548.656652,76.609550
299.034146,-3256.906145,-9326.594869,-612.876398
299.034468,-4219.173869,-9326.594869,-1149.143247
299.034790,-4885.359217,-8512.368333,-1685.410096
299.035112,-5181.441594,-7476.080014,-1455.581446
299.035434,-4441.235652,-8438.347739,-1455.581446
299.035756,-2516.700203,-9474.636058,-995.924147
299.036078,-1036.288319,-9696.697840,-536.266849
299.036400,0.000000,-9474.636058,-612.876398
299.036722,962.267725,-9696.697840,-383.047749
299.037044,2294.638420,-9326.594869,-1302.362347
299.037365,3182.885551,-8586.388927,-3064.381992
299.037687,2886.803174,-9474.636058,-2987.772442
299.038009,1628.453072,-10140.821405,-1532.190996
299.038331,-296.082377,-10658.965565,-612.876398
299.038653,-2516.700203,-11251.130318,-612.876398
299.038975,-4219.173869,-10658.965565,-306.438199
299.039297,-6143.709319,-8808.450710,-766.095498
299.039619,-6957.935855,-7772.162391,-2298.286494
299.039941,-6809.894666,-7476.080014,-2068.457845
299.040263,-5773.606348,-7476.080014,-1991.848295
299.040584,-4737.318029,-7624.121203,-995.924147
299.040906,-2442.679609,-8216.285956,-612.876398
299.041228,-370.102971,-8142.265362,-1149.143247
299.041550,2294.638420,-8512.368333,-2374.896044
299.041872,3923.091493,-9992.780217,-1991.848295
299.042194,4737.318029,-10140.821405,-1072.533697
299.042516,5107.421000,-9918.759623,-842.705048
299.042838,4811.338623,-10214.842000,-1302.362347
299.043160,3997.112087,-11325.150913,-1685.410096
299.043482,2294.638420,-11177.109724,-1608.800546
299.043804,-296.082377,-9400.615463,-1455.581446
299.044125,-1850.514855,-8438.347739,-1302.362347
299.044447,-2812.782580,-8956.491898,-1302.362347
299.044769,-3849.070898,-8956.491898,-1915.238745
299.045091,-4145.153275,-7772.162391,-1072.533697
299.045413,-4145.153275,-7698.141797,-1378.971896
299.045735,-2664.741391,-9104.533087,-1302.362347
299.046057,-592.164754,-9474.636058,-2068.457845
299.046379,1258.350101,-9918.759623,-2221.676944
299.046701,2442.679609,-10510.924376,-1608.800546
299.047023,4071.132681,-11103.089130,76.609550
299.047344,4959.379811,-9992.780217,-689.485948
299.047666,4219.173869,-9252.574275,-1685.410096
299.047988,3034.844362,-10436.903782,-1915.238745
299.048310,888.247130,-10881.027347,-1378.971896
299.048632,-666.185348,-10881.027347,-2298.286494
299.048954,-1998.556043,-9918.759623,-1991.848295
299.049276,-2738.761985,-9178.553681,383.047749
299.049598,-3552.988522,-7846.182985,0.000000
299.049920,-4293.194464,-7254.018232,-1991.848295
299.050242,-4071.132681,-7550.100608,-2374.896044
299.050563,-3552.988522,-8808.450710,-1991.848295
299.050885,-2960.823768,-9696.697840,-1378.971896
299.051207,-1332.370696,-9030.512492,-1072.533697
299.051529,666.185348,-8290.306550,-1532.190996
299.051851,2886.803174,-9400.615463,-2145.067394
299.052173,3775.050304,-9474.636058,-1838.629195
299.052495,4145.153275,-8956.491898,-2221.676944
299.052817,4219.173869,-9474.636058,-2604.724693
299.053139,3997.112087,-11325.150913,-2298.286494
299.053461,1702.473667,-11547.212695,-995.924147
299.053782,-1036.288319,-11325.150913,-306.438199
299.054104,-3108.864956,-9474.636058,0.000000
299.054426,-4293.194464,-7846.182985,-766.095498
299.054748,-4145.153275,-6809.894666,-2451.505594
299.055070,-3182.885551,-7179.997637,-2911.162892
299.055392,-2294.638420,-8956.491898,-2298.286494
299.055714,-962.267725,-10807.006753,-995.924147
299.056036,888.247130,-11029.068536,995.924147
299.056358,2886.803174,-9770.718434,459.657299
299.056680,3849.070898,-9622.677246,-689.485948
299.057001,3627.009116,-9104.533087,-1149.143247
299.057323,2590.720797,-7772.162391,-1149.143247
299.057645,1998.556043,-8068.244768,-2604.724693
299.057967,1850.514855,-9474.636058,-2068.457845
299.058289,1258.350101,-11399.171507,-1149.143247
299.058611,-1332.370696,-10732.986159,-306.438199
299.058933,-3627.009116,-10436.903782,-306.438199
299.059255,-5403.503377,-9918.759623,306.438199
299.059577,-6069.688724,-8512.368333,-1608.800546
299.059899,-6513.812290,-7179.997637,-3830.477490
299.060220,-6217.729913,-7031.956449,-3830.477490
299.060542,-5329.482782,-8216.285956,-2145.067394
299.060864,-3923.091493,-8956.491898,-1302.362347
299.061186,-2072.576638,-8882.471304,-1149.143247
299.061508,814.226536,-8956.491898,-2451.505594
299.061830,3627.009116,-10510.924376,-2604.724693
299.062152,4293.194464,-10436.903782,-2451.505594
299.062474,4589.276840,-9326.594869,-1991.848295
299.062796,4959.379811,-9326.594869,-1915.238745
299.063118,4885.359217,-10140.821405,-1685.410096
299.063440,3478.967927,-10732.986159,-1302.362347
299.063761,814.226536,-10584.944971,-1225.752797
299.064083,-1258.350101,-9770.718434,-612.876398
299.064405,-2442.679609,-9400.615463,-459.657299
299.064727,-3034.844362,-8734.430116,-1532.190996
299.065049,-2960.823768,-8142.265362,-2451.505594
299.065371,-2220.617826,-9104.533087,-2068.457845
299.065693,-1480.411884,-9844.739029,-1455.581446
299.066015,-148.041188,-10066.800811,-1608.800546
299.066337,1258.350101,-10436.903782,-1378.971896
299.066659,2368.659014,-10510.924376,-612.876398
299.066980,2442.679609,-9474.636058,-459.657299
299.067302,2368.659014,-7920.203579,-1608.800546
299.067624,2146.597232,-8512.368333,-3294.210641
299.067946,1332.370696,-10214.842000,-3217.601092
299.068268,-518.144159,-10732.986159,-1455.581446
299.068590,-2812.782580,-10066.800811,0.000000
299.068912,-3997.112087,-10436.903782,-459.657299
299.069234,-5255.462188,-9918.759623,-536.266849
299.069556,-6439.791695,-8438.347739,-1838.629195
299.069878,-6883.915261,-7031.956449,-3064.381992
299.070199,-6143.709319,-7105.977043,-2757.943793
299.070521,-4367.215058,-8660.409521,-1915.238745
299.070843,-3701.029710,-9030.512492,-766.095498
299.071165,-1776.494261,-8290.306550,-612.876398
299.071487,962.267725,-8808.450710,-1532.190996
299.071809,3404.947333,-9622.677246,-1991.848295
299.072131,4441.235652,-9622.677246,-1225.752797
299.072453,4885.359217,-9326.594869,-1455.581446
299.072775,5181.441594,-9844.739029,-1302.362347
299.073097,5033.400406,-11251.130318,-1378.971896
299.073418,3478.967927,-11251.130318,-689.485948
299.073740,1406.391290,-9770.718434,76.609550
299.074062,-740.205942,-9030.512492,76.609550
299.074384,-2738.761985,-9178.553681,-1072.533697
299.074706,-4145.153275,-8364.327145,-1225.752797
299.075028,-4811.338623,-7105.977043,-1455.581446
299.075350,-4589.276840,-7328.038826,-919.314598
299.075672,-3627.009116,-8808.450710,-1225.752797
299.075994,-1480.411884,-9844.739029,-612.876398
299.076316,148.041188,-9770.718434,-995.924147
299.076637,1406.391290,-10288.862594,-919.314598
299.076959,2294.638420,-10510.924376,-306.438199
299.077281,2960.823768,-8882.471304,-612.876398
299.077603,2886.803174,-8142.265362,-2374.896044
299.077925,2368.659014,-9696.697840,-2987.772442
299.078247,1110.308913,-10955.047942,-2298.286494
299.078569,-592.164754,-11473.192101,-1685.410096
299.078891,-2664.741391,-10732.986159,-689.485948
299.079213,-3182.885551,-9474.636058,76.609550
299.079535,-3478.967927,-8142.265362,-1149.143247
299.079856,-3552.988522,-7550.100608,-2987.772442
299.080178,-3775.050304,-7846.182985,-2604.724693
299.080500,-3627.009116,-8734.430116,-1302.362347
299.080822,-2738.761985,-8142.265362,-536.266849
299.081144,-518.144159,-8512.368333,-1149.143247
299.081466,1924.535449,-8216.285956,-2145.067394
299.081788,4441.235652,-8660.409521,-2068.457845
299.082110,5625.565159,-9178.553681,-1838.629195
299.082432,6069.688724,-8882.471304,-1608.800546
299.082754,6143.709319,-9622.677246,-1762.019645
299.083076,5477.523971,-11399.171507,-2298.286494
299.083397,4145.153275,-11917.315666,-1762.019645
299.083719,1850.514855,-10807.006753,-1915.238745
299.084041,-444.123565,-9770.718434,-1608.800546
299.084363,-2886.803174,-9030.512492,-766.095498
299.084685,-4293.194464,-8290.306550,-1532.190996
299.085007,-4737.318029,-7920.203579,-2681.334243
299.085329,-3701.029710,-9474.636058,-2834.553343
299.085651,-2072.576638,-10807.006753,-2374.896044
299.085973,-740.205942,-10362.883188,-1685.410096
299.086294,740.205942,-9696.697840,-153.219100
299.086616,1998.556043,-9696.697840,229.828649
299.086938,2664.741391,-8734.430116,-995.924147
299.087260,2516.700203,-7179.997637,-2374.896044
299.087582,2294.638420,-7550.100608,-3217.601092
299.087904,1184.329507,-9696.697840,-3064.381992
299.088226,74.020594,-11621.233289,-1915.238745
299.088548,-1480.411884,-11843.295072,-536.266849
299.088870,-2738.761985,-11473.192101,-153.219100
299.089192,-4219.173869,-10732.986159,0.000000
299.089513,-5773.606348,-9326.594869,-1225.752797
299.089835,-6439.791695,-7402.059420,-3294.210641
299.090157,-6365.771101,-7105.977043,-3064.381992
299.090479,-5773.606348,-8216.285956,-2068.457845
299.090801,-5033.400406,-8956.491898,-995.924147
299.091123,-3034.844362,-8216.285956,-229.828649
299.091445,-296.082377,-7698.141797,-995.924147
299.091767,2146.597232,-8808.450710,-1762.019645
299.092089,3256.906145,-9622.677246,-1455.581446
299.092411,3330.926739,-9252.574275,-919.314598
299.092732,3552.988522,-9474.636058,-1072.533697
299.093054,3775.050304,-9918.759623,-689.485948
299.093376,3256.906145,-10658.965565,-842.705048
299.093698,888.247130,-10066.800811,-1455.581446
299.094020,-1776.494261,-9400.615463,-995.924147
299.094342,-3552.988522,-9474.636058,-459.657299
299.094664,-4515.256246,-9548.656652,-919.314598
299.094986,-4589.276840,-8882.471304,-1685.410096
299.095308,-4441.235652,-9178.553681,-1915.238745
299.095629,-3701.029710,-9474.636058,-383.047749
299.095951,-2738.761985,-8660.409521,536.266849
299.096273,-1110.308913,-7550.100608,-306.438199
299.096595,740.205942,-8142.265362,-1455.581446
299.096917,2812.782580,-9326.594869,-995.924147
299.097239,2960.823768,-8660.409521,-766.095498
299.097561,2738.761985,-9178.553681,-1378.971896
299.097883,2812.782580,-10584.944971,-1378.971896
299.098205,1998.556043,-11399.171507,-2068.457845
299.098527,222.061783,-11399.171507,-2068.457845
299.098848,-1776.494261,-10881.027347,-1302.362347
299.099170,-2812.782580,-9992.780217,-612.876398
299.099492,-3256.906145,-8734.430116,-1302.362347
299.099814,-3256.906145,-7254.018232,-2757.943793
299.100136,-2738.761985,-7402.059420,-2221.676944
299.100458,-2516.700203,-8808.450710,-1302.362347
299.100780,-2368.659014,-9030.512492,-536.266849
299.101102,-814.226536,-8512.368333,-153.219100
299.101424,1628.453072,-7772.162391,-766.095498
299.101745,3997.112087,-7846.182985,-2145.067394
299.102067,4885.359217,-8142.265362,-2221.676944
299.102389,4959.379811,-8216.285956,-1915.238745
299.102711,4885.359217,-9252.574275,-1915.238745
299.103033,4811.338623,-11103.089130,-2298.286494
299.103355,3478.967927,-11843.295072,-2068.457845
299.103677,1554.432478,-11843.295072,-1455.581446
299.103999,-1332.370696,-11177.109724,-1608.800546
299.104321,-3108.864956,-10584.944971,-1685.410096
299.104643,-4293.194464,-8882.471304,-2298.286494
299.104964,-4737.318029,-7105.977043,-2528.115143
299.105286,-4071.132681,-8216.285956,-3064.381992
299.105608,-2590.720797,-9548.656652,-1991.848295
299.105930,-814.226536,-10066.800811,-995.924147
299.106252,1110.308913,-9992.780217,-919.314598
299.106574,2812.782580,-10288.862594,0.000000
299.106896,3775.050304,-9770.718434,306.438199
299.107218,3701.029710,-7550.100608,-995.924147
299.107540,2886.803174,-6513.812290,-2451.505594
299.107862,2442.679609,-8438.347739,-3217.601092
299.108183,1554.432478,-10807.006753,-3140.991542
299.108505,148.041188,-12213.398043,-2221.676944
299.108827,-2072.576638,-11917.315666,-1149.143247
299.109149,-3627.009116,-11177.109724,0.000000
299.109471,-4663.297435,-10066.800811,-1225.752797
299.109793,-5181.441594,-8364.327145,-3064.381992
299.110115,-5477.523971,-7105.977043,-3907.087040
299.110437,-5107.421000,-7624.121203,-2757.943793
299.110759,-4515.256246,-8438.347739,-1302.362347
299.111080,-3552.988522,-7994.224174,-689.485948
299.111402,-1258.350101,-7994.224174,-1149.143247
299.111724,814.226536,-8882.471304,-1685.410096
299.112046,2664.741391,-9400.615463,-1455.581446
299.112368,2738.761985,-9178.553681,-1685.410096
299.112690,2886.803174,-9252.574275,-1762.019645
299.113012,3404.947333,-10436.903782,-995.924147
299.113334,2590.720797,-10584.944971,-1072.533697
299.113656,814.226536,-9622.677246,-1378.971896
299.113978,-1036.288319,-9474.636058,-1149.143247
299.114299,-2738.761985,-9918.759623,-1378.971896
299.114621,-4145.153275,-10510.924376,-1378.971896
299.114943,-5329.482782,-10140.821405,-1302.362347
299.115265,-4959.379811,-9400.615463,-536.266849
299.115587,-4441.235652,-9400.615463,-459.657299
299.115909,-2738.761985,-9326.594869,-1072.533697
299.116231,-1406.391290,-8438.347739,-995.924147
299.116553,592.164754,-7994.224174,-1455.581446
299.116875,2294.638420,-8882.471304,-1532.190996
299.117197,3849.070898,-9030.512492,-919.314598
299.117518,3552.988522,-8142.265362,-459.657299
299.117840,3404.947333,-9178.553681,-1302.362347
299.118162,2368.659014,-10881.027347,-1608.800546
299.118484,592.164754,-11917.315666,-1225.752797
299.118806,-1924.535449,-11769.274478,-1378.971896
299.119128,-3775.050304,-10436.903782,-1149.143247
299.119450,-4811.338623,-8882.471304,-766.095498
299.119772,-4663.297435,-7254.018232,-1762.019645
299.120094,-2960.823768,-6809.894666,-3140.991542
299.120415,-1554.432478,-8438.347739,-2757.943793
299.120737,0.000000,-9548.656652,-1302.362347
299.121059,1036.288319,-9548.656652,383.047749
299.121381,2664.741391,-9104.533087,306.438199
299.121703,4367.215058,-8734.430116,-842.705048
299.122025,4737.318029,-8216.285956,-1072.533697
299.122347,4515.256246,-7698.141797,-1378.971896
299.122669,3997.112087,-7772.162391,-2068.457845
299.122991,4071.132681,-10214.842000,-2374.896044
299.123313,3775.050304,-12139.377449,-1225.752797
299.123634,1850.514855,-11399.171507,-153.219100
299.123956,-222.061783,-10658.965565,229.828649
299.124278,-1998.556043,-9696.697840,-306.438199
299.124600,-3627.009116,-9030.512492,-2451.505594
299.124922,-5699.585753,-6957.935855,-2681.334243
299.125244,-6735.874072,-6291.750507,-3217.601092
299.125566,-5995.668130,-8660.409521,-3294.210641
299.125888,-3256.906145,-10362.883188,-2451.505594
299.126210,-740.205942,-10732.986159,-1838.629195
299.126531,1924.535449,-10732.986159,-1302.362347
299.126853,3849.070898,-11399.171507,0.000000
299.127175,4293.194464,-10510.924376,0.000000
299.127497,3552.988522,-7994.224174,-2451.505594
299.127819,2368.659014,-7624.121203,-2987.772442
299.128141,1332.370696,-9548.656652,-2604.724693
299.128463,0.000000,-10955.047942,-2221.676944
299.128785,-2072.576638,-10955.047942,-1149.143247
299.129107,-3182.885551,-10214.842000,919.314598
299.129429,-3330.926739,-9696.697840,1378.971896
299.129750,-3034.844362,-9030.512492,-919.314598
299.130072,-2886.803174,-7920.203579,-3064.381992
299.130394,-3404.947333,-7402.059420,-2451.505594
299.130716,-3775.050304,-7920.203579,-995.924147
299.131038,-3478.967927,-8068.244768,-995.924147
299.131360,-2220.617826,-7698.141797,-2221.676944
299.131682,518.144159,-8586.388927,-3217.601092
299.132004,2294.638420,-9770.718434,-2604.724693
299.132326,2812.782580,-10362.883188,-2221.676944
299.132648,3108.864956,-10362.883188,-2145.067394
299.132969,3108.864956,-11177.109724,-1685.410096
299.133291,2146.597232,-11251.130318,-1225.752797
299.133613,222.061783,-10140.821405,-1685.410096
299.133935,-1850.514855,-8438.347739,-2451.505594
299.134257,-3108.864956,-8660.409521,-2374.896044
299.134579,-3849.070898,-8882.471304,-1685.410096
299.134901,-4293.194464,-8216.285956,-919.314598
299.135223,-3923.091493,-9326.594869,-306.438199
299.135545,-3108.864956,-9918.759623,459.657299
299.135866,-1924.535449,-9400.615463,0.000000
299.136188,-518.144159,-8438.347739,-1149.143247
299.136510,1702.473667,-8142.265362,-1838.629195
299.136832,3478.967927,-8808.450710,-1915.238745
299.137154,4145.153275,-9030.512492,-1378.971896
299.137476,4219.173869,-8882.471304,-919.314598
299.137798,4293.194464,-10140.821405,-1072.533697
299.138120,3627.009116,-11843.295072,-1608.800546
299.138442,1776.494261,-12213.398043,-2221.676944
299.138764,-962.267725,-11843.295072,-1302.362347
299.139085,-3701.029710,-11251.130318,-689.485948
299.139407,-5107.421000,-9400.615463,-689.485948
299.139729,-5033.400406,-7254.018232,-2068.457845
299.140051,-3997.112087,-5921.647536,-3600.648841
299.140373,-3478.967927,-7031.956449,-2757.943793
299.140695,-3182.885551,-8216.285956,-1072.533697
299.141017,-2812.782580,-8290.306550,229.828649
299.141339,-962.267725,-7994.224174,-229.828649
299.141661,1110.308913,-8142.265362,-1685.410096
299.141982,2960.823768,-8290.306550,-2221.676944
299.142304,2812.782580,-8142.265362,-2451.505594
299.142626,3034.844362,-9030.512492,-2374.896044
299.142948,3478.967927,-10955.047942,-1991.848295
299.143270,3182.885551,-12287.418637,-1302.362347
299.143592,2590.720797,-12361.439231,-1532.190996
299.143914,962.267725,-10955.047942,-1378.971896
299.144236,-814.226536,-10066.800811,-1072.533697
299.144558,-2220.617826,-9400.615463,-1455.581446
299.144880,-3849.070898,-8290.306550,-1915.238745
299.145201,-4219.173869,-8364.327145,-2068.457845
299.145523,-3997.112087,-8586.388927,-689.485948
299.145845,-2590.720797,-8808.450710,0.000000
299.146167,-740.205942,-8734.430116,-689.485948
299.146489,1628.453072,-8660.409521,-612.876398
299.146811,3404.947333,-9474.636058,-842.705048
299.147133,2738.761985,-9844.739029,-766.095498
299.147455,1776.494261,-9178.553681,-536.266849
299.147777,1628.453072,-9252.574275,-1685.410096
299.148099,1036.288319,-10955.047942,-3064.381992
299.148420,222.061783,-12213.398043,-1991.848295
299.148742,-1998.556043,-11547.212695,-1608.800546
299.149064,-3627.009116,-11325.150913,-1072.533697
299.149386,-4145.153275,-10436.903782,-459.657299
299.149708,-4293.194464,-8438.347739,-1915.238745
299.150030,-4515.256246,-7031.956449,-3217.601092
299.150352,-4663.297435,-7624.121203,-2987.772442
299.150674,-4663.297435,-8364.327145,-689.485948
299.150996,-3849.070898,-7476.080014,0.000000
299.151317,-1480.411884,-7105.977043,-1149.143247
299.151639,1332.370696,-7624.121203,-1608.800546
299.151961,3552.988522,-8438.347739,-1302.362347
299.152283,4367.215058,-7772.162391,-1608.800546
299.152605,4959.379811,-8438.347739,-1608.800546
299.152927,5477.523971,-10362.883188,-1838.629195
299.153249,4367.215058,-11621.233289,-1455.581446
299.153571,2072.576638,-11547.212695,0.000000
299.153893,-592.164754,-10066.800811,-536.266849
299.154215,-1702.473667,-10288.862594,-1608.800546
299.154536,-2146.597232,-10066.800811,-2528.115143
299.154858,-2442.679609,-9770.718434,-1838.629195
299.155180,-2886.803174,-9474.636058,-306.438199
299.155502,-2812.782580,-9030.512492,459.657299
299.155824,-2072.576638,-8364.327145,229.828649
299.156146,-1110.308913,-7846.182985,-1378.971896
299.156468,0.000000,-7846.182985,-2451.505594
299.156790,1258.350101,-8586.388927,-2298.286494
299.157112,2294.638420,-9474.636058,-1608.800546
299.157433,2664.741391,-9400.615463,-919.314598
299.157755,3108.864956,-10066.800811,-1072.533697
299.158077,3108.864956,-11029.068536,-2221.676944
299.158399,2220.617826,-11843.295072,-3064.381992
299.158721,148.041188,-11991.336260,-3064.381992
299.159043,-2146.597232,-11621.233289,-1685.410096
299.159365,-3923.091493,-11103.089130,-1455.581446
299.159687,-4515.256246,-9622.677246,-1302.362347
299.160009,-3775.050304,-7772.162391,-2374.896044
299.160331,-2960.823768,-7105.977043,-2528.115143
299.160652,-2220.617826,-7402.059420,-1762.019645
299.160974,-1480.411884,-7402.059420,-229.828649
299.161296,148.041188,-7328.038826,0.000000
299.161618,2220.617826,-7105.977043,-229.828649
299.161940,3923.091493,-7402.059420,-919.314598
299.162262,4589.276840,-7698.141797,-1532.190996
299.162584,4589.276840,-7920.203579,-2987.772442
299.162906,3552.988522,-10140.821405,-1915.238745
299.163228,2886.803174,-11769.274478,-1225.752797
299.163550,1628.453072,-12065.356855,-1302.362347
299.163871,0.000000,-11325.150913,-1608.800546
299.164193,-1776.494261,-10066.800811,-2221.676944
299.164515,-3478.967927,-9992.780217,-2834.553343
299.164837,-4737.318029,-9400.615463,-2834.553343
299.165159,-5477.523971,-9030.512492,-2221.676944
299.165481,-5847.626942,-9252.574275,-1608.800546
299.165803,-5107.421000,-9474.636058,-766.095498
299.166125,-3701.029710,-8956.491898,0.000000
299.166447,-1776.494261,-8216.285956,-995.924147
299.166768,222.061783,-8364.327145,-995.924147
299.167090,1332.370696,-8068.244768,-536.266849
299.167412,2220.617826,-7624.121203,-919.314598
299.167734,3182.885551,-8142.265362,-1991.848295
299.168056,2812.782580,-10955.047942,-2145.067394
299.168378,1480.411884,-12953.603985,-2451.505594
299.168700,-888.247130,-13397.727550,-1532.190996
299.169022,-3108.864956,-12435.459826,0.000000
299.169344,-4145.153275,-11103.089130,-1302.362347
299.169666,-4071.132681,-9178.553681,-2834.553343
299.169987,-3997.112087,-7698.141797,-4136.915689
299.170309,-2960.823768,-7402.059420,-2911.162892
299.170631,-2590.720797,-7772.162391,-842.705048
299.170953,-2368.659014,-8142.265362,383.047749
299.171275,-888.247130,-7920.203579,-612.876398
299.171597,296.082377,-7846.182985,-689.485948
299.171919,1554.432478,-7698.141797,-1378.971896
299.172241,2368.659014,-7328.038826,-1991.848295
299.172563,2738.761985,-7920.203579,-2145.067394
299.172884,3108.864956,-9918.759623,-1302.362347
299.173206,2368.659014,-10732.986159,0.000000
299.173528,1184.329507,-11103.089130,0.000000
299.173850,0.000000,-10584.944971,-1302.362347
299.174172,-888.247130,-10510.924376,-2911.162892
299.174494,-1628.453072,-10436.903782,-2528.115143
299.174816,-2220.617826,-9548.656652,-1608.800546
299.175138,-3108.864956,-8586.388927,-995.924147
299.175460,-3478.967927,-8586.388927,-459.657299
299.175782,-2960.823768,-9178.553681,0.000000
299.176103,-2368.659014,-8956.491898,-919.314598
299.176425,-666.185348,-8438.347739,-1455.581446
299.176747,1184.329507,-9252.574275,-1532.190996
299.177069,2738.761985,-9326.594869,-306.438199
299.177391,3849.070898,-7994.224174,153.219100
299.177713,4145.153275,-8068.244768,-459.657299
299.178035,3552.988522,-9474.636058,-1302.362347
299.178357,2368.659014,-11621.233289,-1838.629195
299.178679,-148.041188,-12139.377449,-1608.800546
299.179001,-2664.741391,-12065.356855,-1149.143247
299.179322,-3849.070898,-11547.212695,-459.657299
299.179644,-4293.194464,-9918.759623,-536.266849
299.179966,-2886.803174,-7772.162391,-1915.238745
299.180288,-2516.700203,-6587.832884,-2757.943793
299.180610,-1184.329507,-7328.038826,-2451.505594
299.180932,-222.061783,-8438.347739,-1608.800546
299.181254,444.123565,-8882.471304,-1072.533697
299.181576,1776.494261,-8808.450710,-1149.143247
299.181898,3330.926739,-8808.450710,-766.095498
299.182219,4145.153275,-7846.182985,-1685.410096
299.182541,3478.967927,-7328.038826,-2834.553343
299.182863,2516.700203,-8882.471304,-2681.334243
299.183185,1850.514855,-11029.068536,-2145.067394
299.183507,222.061783,-12065.356855,-1225.752797
299.183829,-1332.370696,-11399.171507,-1072.533697
299.184151,-3256.906145,-10510.924376,-1225.752797
299.184473,-4737.318029,-9474.636058,-1685.410096
299.184794,-6069.688724,-8364.327145,-2298.286494
299.185116,-6661.853478,-7254.018232,-2604.724693
299.185438,-6291.750507,-8956.491898,-3064.381992
299.185760,-4515.256246,-10807.006753,-1685.410096
299.186081,-3256.906145,-11251.130318,-766.095498
299.186403,-2072.576638,-10066.800811,229.828649
299.186725,0.000000,-8512.368333,995.924147
299.187047,2072.576638,-6587.832884,0.000000
299.187369,3478.967927,-6661.853478,-3447.429741
299.187690,3552.988522,-8290.306550,-5056.230287
299.188012,2738.761985,-10140.821405,-3294.210641
299.188334,296.082377,-11843.295072,-1302.362347
299.188656,-2590.720797,-12583.501014,459.657299
299.188977,-5403.503377,-13101.645173,766.095498
299.189299,-8068.244768,-11621.233289,-1685.410096
299.189621,-10214.842000,-10214.842000,-4519.963438
299.189943,-11769.274478,-9178.553681,-3524.039291
299.190264,-11399.171507,-6513.812290,-2221.676944
299.190586,-9992.780217,-3923.091493,-2987.772442
299.190908,-7105.977043,-5033.400406,-3753.867940
299.191230,-4663.297435,-8364.327145,-2528.115143
299.191552,-3775.050304,-11325.150913,-1455.581446
299.191873,-3404.947333,-12361.439231,-153.219100
299.192195,-1406.391290,-12509.480420,0.000000
299.192517,1406.391290,-10955.047942,-1149.143247
299.192839,2516.700203,-9474.636058,-1915.238745
299.193160,2146.597232,-7105.977043,-1302.362347
299.193482,1258.350101,-5033.400406,-1302.362347
299.193804,0.000000,-5181.441594,-2681.334243
299.194126,-2072.576638,-8290.306550,-1991.848295
299.194447,-4737.318029,-11177.109724,-995.924147
299.194769,-7105.977043,-12805.562797,-536.266849
299.195091,-8438.347739,-13545.768739,-306.438199
299.195413,-8882.471304,-11917.315666,-459.657299
299.195735,-8734.430116,-9696.697840,-689.485948
299.196056,-8364.327145,-7402.059420,-1302.362347
299.196378,-7254.018232,-5477.523971,-1378.971896
299.196700,-5255.462188,-4145.153275,-1838.629195
299.197022,-2664.741391,-4071.132681,-2604.724693
299.197343,-222.061783,-5329.482782,-3447.429741
299.197665,518.144159,-9474.636058,-3447.429741
299.197987,592.164754,-12657.521608,-2451.505594
299.198309,296.082377,-14359.995275,-919.314598
299.198630,74.020594,-14211.954086,-306.438199
299.198952,-518.144159,-12657.521608,-919.314598
299.199274,-1110.308913,-10214.842000,-2374.896044
299.199596,-2072.576638,-9548.656652,-1762.019645
299.199918,-3775.050304,-9178.553681,-689.485948
299.200239,-5403.503377,-8290.306550,229.828649
299.200561,-6439.791695,-6957.935855,-459.657299
299.200883,-6883.915261,-6809.894666,-1149.143247
299.201205,-6365.771101,-7624.121203,-2145.067394
299.201526,-5255.462188,-7994.224174,-3217.601092
299.201848,-4071.132681,-8438.347739,-4136.915689
299.202170,-2960.823768,-8956.491898,-2834.553343
