#time,accel_x,accel_y,accel_z
515.698121,0.000000,-9104.533087,-1915.238745
515.698443,-148.041188,-9400.615463,-1608.800546
515.698766,-296.082377,-9548.656652,-1455.581446
515.699088,-518.144159,-9474.636058,-995.924147
515.699411,-222.061783,-9844.739029,-1455.581446
515.699733,-518.144159,-9548.656652,-1455.581446
515.700056,-518.144159,-9474.636058,-1532.190996
515.700378,-592.164754,-9326.594869,-1225.752797
515.700701,0.000000,-9400.615463,-1225.752797
515.701023,-444.123565,-9030.512492,-1225.752797
515.701346,-444.123565,-9104.533087,-1455.581446
515.701668,-592.164754,-9400.615463,-1378.971896
515.701990,-740.205942,-9474.636058,-1302.362347
515.702313,-888.247130,-9474.636058,-766.095498
515.702635,-370.102971,-9178.553681,-995.924147
515.702958,-296.082377,-9104.533087,-1302.362347
515.703280,-148.041188,-9030.512492,-1302.362347
515.703603,-296.082377,-8956.491898,-1378.971896
515.703925,-518.144159,-8808.450710,-1225.752797
515.704248,0.000000,-9474.636058,-995.924147
515.704570,-370.102971,-9474.636058,-1225.752797
515.704893,-444.123565,-9326.594869,-1532.190996
515.705215,-370.102971,-9030.512492,-1302.362347
515.705538,-370.102971,-9252.574275,-1378.971896
515.705860,0.000000,-9252.574275,-995.924147
515.706183,0.000000,-9326.594869,-1455.581446
515.706505,0.000000,-9104.533087,-1532.190996
515.706827,-370.102971,-9104.533087,-1608.800546
515.707150,-444.123565,-9474.636058,-1532.190996
515.707472,-518.144159,-9770.718434,-1532.190996
515.707795,-592.164754,-9326.594869,-1455.581446
515.708117,-518.144159,-9326.594869,-1762.019645
515.708440,-592.164754,-9252.574275,-1762.019645
515.708762,-370.102971,-9030.512492,-1838.629195
515.709085,-518.144159,-9178.553681,-1608.800546
515.709407,-814.226536,-9252.574275,-766.095498
515.709730,-370.102971,-9770.718434,-1838.629195
515.710052,-592.164754,-9474.636058,-1762.019645
515.710375,-444.123565,-9474.636058,-2221.676944
515.710697,-444.123565,-9474.636058,-2068.457845
515.711020,-296.082377,-9326.594869,-1915.238745
515.711342,0.000000,-9474.636058,-2221.676944
515.711664,-222.061783,-9400.615463,-2221.676944
515.711987,-296.082377,-9400.615463,-2145.067394
515.712309,-518.144159,-9548.656652,-2068.457845
515.712632,-592.164754,-9548.656652,-1991.848295
515.712954,-518.144159,-9918.759623,-1838.629195
515.713277,-518.144159,-9326.594869,-1532.190996
515.713599,-222.061783,-9104.533087,-1991.848295
515.713922,0.000000,-8956.491898,-1915.238745
515.714244,-222.061783,-9178.553681,-1532.190996
515.714567,-592.164754,-9104.533087,-1378.971896
515.714889,-370.102971,-9474.636058,-1378.971896
515.715212,-370.102971,-9548.656652,-1915.238745
515.715534,-592.164754,-9400.615463,-1762.019645
515.715857,-370.102971,-9252.574275,-1378.971896
515.716179,-148.041188,-9326.594869,-1455.581446
515.716501,74.020594,-9326.594869,-1762.019645
515.716824,-444.123565,-9104.533087,-1762.019645
515.717146,-592.164754,-9400.615463,-1685.410096
515.717469,-222.061783,-9400.615463,-1915.238745
515.717791,518.144159,-9696.697840,-1991.848295
515.718114,1998.556043,-10362.883188,-1378.971896
515.718436,2072.576638,-9104.533087,-612.876398
515.718759,1998.556043,-8438.347739,0.000000
515.719081,962.267725,-8290.306550,-1072.533697
515.719404,-148.041188,-8586.388927,-2451.505594
515.719726,-1554.432478,-9252.574275,-2451.505594
515.720049,-3182.885551,-9770.718434,-2145.067394
515.720371,-3775.050304,-10362.883188,-2145.067394
515.720694,-3330.926739,-9474.636058,-2451.505594
515.721016,-814.226536,-10214.842000,-2298.286494
515.721339,1776.494261,-11029.068536,-1378.971896
515.721661,3256.906145,-10362.883188,0.000000
515.721983,2738.761985,-8660.409521,153.219100
515.722306,2220.617826,-7698.141797,-689.485948
515.722628,2442.679609,-9252.574275,-2068.457845
515.722951,2368.659014,-10362.883188,-2145.067394
515.723273,1036.288319,-9696.697840,-995.924147
515.723596,-444.123565,-8290.306550,842.705048
515.723918,370.102971,-8068.244768,-766.095498
515.724241,2220.617826,-9326.594869,-2298.286494
515.724563,1998.556043,-9992.780217,-1915.238745
515.724886,0.000000,-9252.574275,0.000000
515.725208,-444.123565,-8734.430116,-1149.143247
515.725531,0.000000,-8956.491898,-3370.820191
515.725853,444.123565,-9474.636058,-3140.991542
515.726176,0.000000,-10214.842000,-995.924147
515.726498,74.020594,-11029.068536,-536.266849
515.726820,1480.411884,-9474.636058,-1455.581446
515.727143,3108.864956,-8734.430116,-2068.457845
515.727465,3775.050304,-9770.718434,-1072.533697
515.727788,3701.029710,-10436.903782,-459.657299
515.728110,2516.700203,-9178.553681,-766.095498
515.728433,2146.597232,-7328.038826,-995.924147
515.728755,2368.659014,-8364.327145,-1532.190996
515.729078,2516.700203,-9252.574275,-1532.190996
515.729400,1850.514855,-8068.244768,-1915.238745
515.729723,1480.411884,-8290.306550,-1378.971896
515.730045,2368.659014,-9770.718434,-689.485948
515.730368,3849.070898,-10732.986159,-995.924147
515.730690,3923.091493,-9326.594869,-1532.190996
515.731013,2664.741391,-9104.533087,-1991.848295
515.731335,2738.761985,-9474.636058,-766.095498
515.731657,3552.988522,-9474.636058,-1149.143247
515.731980,3404.947333,-9474.636058,-2604.724693
515.732302,2590.720797,-8808.450710,-1762.019645
515.732625,2738.761985,-9474.636058,-766.095498
515.732947,3330.926739,-9326.594869,-689.485948
515.733270,3034.844362,-9252.574275,-2068.457845
515.733592,2072.576638,-9326.594869,-2298.286494
515.733915,1776.494261,-8586.388927,-919.314598
515.734237,888.247130,-7846.182985,-1302.362347
515.734560,0.000000,-8438.347739,-2145.067394
515.734882,-814.226536,-9178.553681,-2528.115143
515.735205,-962.267725,-10214.842000,-2374.896044
515.735527,-962.267725,-10436.903782,-1685.410096
515.735850,-444.123565,-11695.253884,-1838.629195
515.736172,74.020594,-12065.356855,-1915.238745
515.736495,888.247130,-11621.233289,-1455.581446
515.736817,1628.453072,-10436.903782,-995.924147
515.737139,1924.535449,-9178.553681,-1532.190996
515.737462,2590.720797,-8216.285956,-1532.190996
515.737784,2368.659014,-7920.203579,-1302.362347
515.738107,1850.514855,-7920.203579,-995.924147
515.738429,1554.432478,-8512.368333,-1072.533697
515.738752,1184.329507,-8808.450710,-1378.971896
515.739074,1480.411884,-8808.450710,-1762.019645
515.739397,1184.329507,-8882.471304,-995.924147
515.739719,1184.329507,-8512.368333,-1685.410096
515.740042,1776.494261,-8808.450710,-2145.067394
515.740364,1554.432478,-9104.533087,-1991.848295
515.740687,1554.432478,-9400.615463,-1608.800546
515.741009,962.267725,-9474.636058,-2068.457845
515.741332,888.247130,-10066.800811,-2451.505594
515.741654,814.226536,-10881.027347,-2604.724693
515.741976,814.226536,-11325.150913,-1532.190996
515.742299,888.247130,-11251.130318,-153.219100
515.742621,1480.411884,-11251.130318,-1225.752797
515.742944,1184.329507,-10214.842000,-459.657299
515.743266,1258.350101,-8586.388927,0.000000
515.743589,1184.329507,-7698.141797,0.000000
515.743911,2146.597232,-7179.997637,-995.924147
515.744234,3330.926739,-6735.874072,-2451.505594
515.744556,4737.318029,-7328.038826,-2221.676944
515.744879,5403.503377,-8512.368333,-995.924147
515.745201,5699.585753,-9918.759623,-459.657299
515.745524,5107.421000,-10584.944971,-842.705048
515.745846,4589.276840,-11103.089130,-2451.505594
515.746169,3552.988522,-11695.253884,-2298.286494
515.746491,2220.617826,-12065.356855,-2068.457845
515.746813,1110.308913,-11177.109724,-995.924147
515.747136,444.123565,-10214.842000,-689.485948
515.747458,370.102971,-8882.471304,-306.438199
515.747781,962.267725,-7328.038826,76.609550
515.748103,1184.329507,-6217.729913,-306.438199
515.748426,962.267725,-5995.668130,-842.705048
515.748748,1184.329507,-6291.750507,-383.047749
515.749071,1036.288319,-7254.018232,153.219100
515.749393,888.247130,-8660.409521,0.000000
515.749716,222.061783,-9844.739029,-995.924147
515.750038,-740.205942,-9844.739029,-1915.238745
515.750361,-296.082377,-10140.821405,-3064.381992
515.750683,296.082377,-9992.780217,-2911.162892
515.751006,518.144159,-9918.759623,-3064.381992
515.751328,222.061783,-10436.903782,-3370.820191
515.751650,-592.164754,-11769.274478,-2451.505594
515.751973,-1554.432478,-12657.521608,-2451.505594
515.752295,-2738.761985,-13027.624579,-2681.334243
515.752618,-3256.906145,-12805.562797,-2834.553343
515.752940,-2368.659014,-11621.233289,-2681.334243
515.753263,-666.185348,-9622.677246,-995.924147
515.753585,1332.370696,-7920.203579,0.000000
515.753908,2516.700203,-6439.791695,459.657299
515.754230,3849.070898,-5699.585753,306.438199
515.754553,4737.318029,-5551.544565,-306.438199
515.754875,5107.421000,-6365.771101,-766.095498
515.755198,4959.379811,-7254.018232,-612.876398
515.755520,5033.400406,-8290.306550,-1915.238745
515.755843,5551.544565,-10214.842000,-3064.381992
515.756165,6365.771101,-11621.233289,-2374.896044
515.756488,5551.544565,-10288.862594,-689.485948
515.756810,3627.009116,-10510.924376,-1378.971896
515.757132,888.247130,-10807.006753,-919.314598
515.757455,-1184.329507,-10436.903782,-1302.362347
515.757777,-4145.153275,-10807.006753,-3140.991542
515.758100,-6883.915261,-10658.965565,-2221.676944
515.758422,-8142.265362,-9252.574275,-1532.190996
515.758745,-6735.874072,-7994.224174,-3830.477490
515.759067,-3775.050304,-8068.244768,-2987.772442
515.759390,444.123565,-8290.306550,-1455.581446
515.759712,3997.112087,-8660.409521,-2451.505594
515.760035,7179.997637,-10214.842000,-2145.067394
515.760357,10362.883188,-11473.192101,-153.219100
515.760680,12657.521608,-11251.130318,-306.438199
515.761002,13397.727550,-9548.656652,-919.314598
515.761325,12953.603985,-7550.100608,-229.828649
515.761647,11991.336260,-6661.853478,0.000000
515.761969,9992.780217,-7920.203579,-1378.971896
515.762292,6069.688724,-10362.883188,306.438199
515.762614,1998.556043,-11399.171507,689.485948
515.762937,-2146.597232,-10955.047942,0.000000
515.763259,-5403.503377,-11029.068536,0.000000
515.763582,-7402.059420,-10881.027347,0.000000
515.763904,-8438.347739,-9474.636058,0.000000
515.764227,-9770.718434,-5403.503377,842.705048
515.764549,-9178.553681,-2960.823768,-536.266849
515.764872,-5921.647536,-3849.070898,-2987.772442
515.765194,-1184.329507,-8364.327145,-5362.668486
515.765517,3478.967927,-11325.150913,-4060.306139
515.765839,5477.523971,-12805.562797,-3524.039291
515.766162,7105.977043,-14952.160028,-2451.505594
515.766484,9474.636058,-15322.262999,-1455.581446
515.766806,10140.821405,-11917.315666,-2528.115143
515.767128,7920.203579,-7254.018232,-4213.525239
515.767451,6069.688724,-5033.400406,-4826.401637
515.767773,4145.153275,-6957.935855,-4979.620737
515.768095,1850.514855,-9696.697840,-2298.286494
515.768418,-2886.803174,-12361.439231,2604.724693
515.768740,-6957.935855,-12583.501014,5132.839837
515.769062,-6957.935855,-10881.027347,3140.991542
515.769384,-4811.338623,-7994.224174,-1378.971896
515.769707,-2368.659014,-7994.224174,-1608.800546
515.770029,1998.556043,-7031.956449,536.266849
515.770351,6217.729913,-4737.318029,1838.629195
515.770674,9548.656652,-5699.585753,612.876398
515.770996,11399.171507,-9548.656652,-1072.533697
515.771318,9992.780217,-12583.501014,-536.266849
515.771640,6587.832884,-11621.233289,-766.095498
515.771963,2664.741391,-11251.130318,-4443.353888
515.772285,-148.041188,-12805.562797,-7201.297681
515.772607,-3627.009116,-12879.583391,-5439.278036
515.772930,-7328.038826,-9474.636058,-1225.752797
515.773252,-9992.780217,-7105.977043,-766.095498
515.773574,-8586.388927,-6883.915261,-3447.429741
515.773896,-5255.462188,-6587.832884,-4519.963438
515.774219,-2590.720797,-8216.285956,-2911.162892
515.774541,-2294.638420,-8438.347739,2145.067394
515.774863,0.000000,-7624.121203,4673.182538
515.775185,3256.906145,-6291.750507,919.314598
515.775508,6069.688724,-5329.482782,-2221.676944
515.775830,5625.565159,-7105.977043,-2451.505594
515.776152,3404.947333,-10584.944971,-1762.019645
515.776475,2368.659014,-13397.727550,-1685.410096
515.776797,4071.132681,-13989.892304,-1915.238745
515.777119,6735.874072,-12657.521608,-3677.258390
515.777441,8808.450710,-10066.800811,-5439.278036
515.777764,8216.285956,-9252.574275,-3753.867940
515.778086,3923.091493,-9770.718434,229.828649
515.778408,0.000000,-10436.903782,842.705048
515.778731,-2516.700203,-11843.295072,-3140.991542
515.779053,-3627.009116,-11769.274478,-4290.134789
515.779375,-3997.112087,-12509.480420,-2757.943793
515.779697,-2368.659014,-11251.130318,612.876398
515.780020,1110.308913,-9548.656652,2298.286494
515.780342,5255.462188,-6883.915261,2298.286494
515.780664,8290.306550,-4737.318029,2145.067394
515.780987,9104.533087,-4441.235652,1532.190996
515.781309,7402.059420,-5403.503377,-536.266849
515.781631,5699.585753,-6513.812290,-2528.115143
515.781953,4737.318029,-8216.285956,-2911.162892
515.782276,2886.803174,-9474.636058,-2145.067394
515.782598,370.102971,-10881.027347,-3064.381992
515.782920,-3182.885551,-11843.295072,-4213.525239
515.783243,-4515.256246,-11547.212695,-3447.429741
515.783565,-3108.864956,-11177.109724,-2528.115143
515.783887,-2146.597232,-11325.150913,-5132.839837
515.784209,-2442.679609,-11621.233289,-4979.620737
515.784532,-1554.432478,-11621.233289,-689.485948
515.784854,1184.329507,-10881.027347,1685.410096
515.785176,4885.359217,-12213.398043,1072.533697
515.785499,7105.977043,-11621.233289,-383.047749
515.785821,6735.874072,-8956.491898,1378.971896
515.786143,6957.935855,-7476.080014,3907.087040
515.786465,7031.956449,-6069.688724,5362.668486
515.786788,8068.244768,-4219.173869,3217.601092
515.787110,8882.471304,-3404.947333,-1762.019645
515.787432,8956.491898,-4737.318029,-2604.724693
515.787755,7105.977043,-7179.997637,1225.752797
515.788077,4219.173869,-8956.491898,2757.943793
515.788399,1184.329507,-10362.883188,306.438199
515.788721,-1998.556043,-10955.047942,-3600.648841
515.789044,-5403.503377,-10140.821405,-4903.011187
515.789366,-7402.059420,-9474.636058,-4749.792088
515.789688,-8364.327145,-10955.047942,-6741.640382
515.790011,-7105.977043,-13989.892304,-6358.592633
515.790333,-6439.791695,-13175.665768,-3524.039291
515.790655,-6069.688724,-10510.924376,-689.485948
515.790977,-5107.421000,-10288.862594,-306.438199
515.791300,-2738.761985,-12583.501014,-2911.162892
515.791622,-1850.514855,-11473.192101,-5286.058936
515.791944,-2146.597232,-8216.285956,-3064.381992
515.792267,-1036.288319,-6587.832884,1302.362347
515.792589,2664.741391,-6735.874072,2451.505594
515.792911,6365.771101,-5403.503377,-766.095498
515.793233,8364.327145,-6365.771101,-3064.381992
515.793556,8512.368333,-8364.327145,153.219100
515.793878,8364.327145,-10362.883188,2298.286494
515.794200,5921.647536,-11177.109724,842.705048
515.794523,1776.494261,-10436.903782,-1378.971896
515.794845,-2368.659014,-8734.430116,-2451.505594
515.795167,-4071.132681,-8882.471304,-3140.991542
515.795489,-4441.235652,-9400.615463,-5209.449386
515.795812,-5107.421000,-10732.986159,-6205.373534
515.796134,-6883.915261,-10288.862594,-3600.648841
515.796456,-5551.544565,-10510.924376,0.000000
515.796778,-4071.132681,-12435.459826,-612.876398
515.797101,-4663.297435,-14285.974681,-3830.477490
515.797423,-6069.688724,-11695.253884,-3447.429741
515.797745,-5847.626942,-6957.935855,-2068.457845
515.798068,-2368.659014,-5403.503377,-2757.943793
515.798390,3034.844362,-5921.647536,-3524.039291
515.798712,5773.606348,-6513.812290,-3600.648841
515.799034,7254.018232,-7105.977043,459.657299
515.799357,8586.388927,-7698.141797,4366.744339
515.799679,9252.574275,-9326.594869,1685.410096
515.800001,7031.956449,-10066.800811,-2834.553343
515.800324,3478.967927,-9548.656652,-1532.190996
515.800646,1110.308913,-7698.141797,383.047749
515.800968,740.205942,-8068.244768,-1532.190996
515.801290,74.020594,-9622.677246,-3600.648841
515.801613,-1776.494261,-9252.574275,-1762.019645
515.801935,-3108.864956,-9474.636058,153.219100
515.802257,-2442.679609,-13397.727550,-459.657299
515.802580,-2886.803174,-17616.901420,-2451.505594
515.802902,-4145.153275,-16728.654289,-306.438199
515.803224,-2960.823768,-10436.903782,995.924147
515.803546,148.041188,-5255.462188,-766.095498
515.803869,3552.988522,-4663.297435,-4290.134789
515.804191,3256.906145,-4589.276840,-2757.943793
515.804513,1776.494261,-4737.318029,1225.752797
515.804836,1184.329507,-7179.997637,842.705048
515.805158,1406.391290,-11103.089130,-3677.258390
515.805480,-740.205942,-13545.768739,-5439.278036
515.805802,-4293.194464,-12213.398043,-2757.943793
515.806125,-5551.544565,-9474.636058,-383.047749
515.806447,-4071.132681,-7402.059420,-2451.505594
515.806769,-2886.803174,-7476.080014,-5592.497135
515.807092,-5107.421000,-7254.018232,-3140.991542
515.807414,-5847.626942,-8808.450710,0.000000
515.807736,-4515.256246,-12287.418637,-1072.533697
515.808058,-2368.659014,-16210.510130,-2145.067394
515.808381,-1628.453072,-14285.974681,383.047749
515.808703,0.000000,-8142.265362,2451.505594
515.809025,3552.988522,-5329.482782,842.705048
515.809348,7254.018232,-5699.585753,-689.485948
515.809670,7772.162391,-5847.626942,0.000000
515.809992,5773.606348,-4293.194464,766.095498
515.810314,3997.112087,-5403.503377,153.219100
515.810637,2738.761985,-8882.471304,-2221.676944
515.810959,-814.226536,-10955.047942,-3370.820191
515.811281,-5033.400406,-10658.965565,-2451.505594
515.811604,-6217.729913,-10066.800811,-3447.429741
515.811926,-4515.256246,-11103.089130,-6894.859482
515.812248,-4589.276840,-11621.233289,-7584.345430
515.812570,-7179.997637,-10362.883188,-2757.943793
515.812893,-8660.409521,-10066.800811,0.000000
515.813215,-6587.832884,-13693.809927,-2068.457845
515.813537,-3701.029710,-15470.304188,-4443.353888
515.813860,-2442.679609,-13989.892304,-2911.162892
515.814182,0.000000,-9474.636058,689.485948
515.814504,4737.318029,-6661.853478,1608.800546
515.814826,9548.656652,-5255.462188,1225.752797
515.815149,12287.418637,-2738.761985,1455.581446
515.815471,12065.356855,-740.205942,612.876398
515.815793,9474.636058,-4219.173869,-229.828649
515.816116,6217.729913,-9326.594869,-689.485948
515.816438,296.082377,-10584.944971,-1762.019645
515.816760,-4885.359217,-10732.986159,-2681.334243
515.817082,-6217.729913,-10955.047942,-3294.210641
515.817405,-4219.173869,-10362.883188,-6971.469032
515.817727,-4367.215058,-10510.924376,-6511.811733
515.818049,-5921.647536,-10881.027347,-2911.162892
515.818372,-7402.059420,-13767.830521,-383.047749
515.818694,-7105.977043,-15914.427753,-1072.533697
515.819016,-6217.729913,-16210.510130,-1149.143247
515.819338,-5107.421000,-11621.233289,-2451.505594
515.819661,-1924.535449,-7846.182985,-2451.505594
515.819983,4219.173869,-5477.523971,-229.828649
515.820305,8290.306550,-3330.926739,1149.143247
515.820627,9030.512492,-3478.967927,2374.896044
515.820950,8808.450710,-4515.256246,3907.087040
515.821272,6883.915261,-5033.400406,1225.752797
515.821594,2738.761985,-7105.977043,-3447.429741
515.821917,-2368.659014,-9770.718434,-3830.477490
515.822239,-5255.462188,-10436.903782,-2757.943793
515.822561,-5255.462188,-9474.636058,-3217.601092
515.822883,-4145.153275,-9326.594869,-4903.011187
515.823206,-6439.791695,-10362.883188,-4826.401637
515.823528,-6735.874072,-13323.706956,-2757.943793
515.823850,-5403.503377,-16358.551318,-1915.238745
515.824173,-4959.379811,-18505.148550,-1302.362347
515.824495,-4737.318029,-16580.613101,0.000000
515.824817,-2590.720797,-10066.800811,995.924147
515.825139,1628.453072,-5403.503377,-383.047749
515.825462,6809.894666,-4663.297435,-383.047749
515.825784,9030.512492,-3034.844362,2145.067394
515.826106,7624.121203,-962.267725,3294.210641
515.826429,5847.626942,-1776.494261,3064.381992
515.826751,3478.967927,-5995.668130,536.266849
515.827073,-962.267725,-10140.821405,-2681.334243
515.827395,-5847.626942,-10955.047942,-3983.696590
515.827718,-7994.224174,-9252.574275,-4060.306139
515.828040,-6883.915261,-8660.409521,-6588.421283
515.828362,-3627.009116,-10732.986159,-8427.050478
515.828685,-3330.926739,-13027.624579,-5209.449386
515.829007,-4959.379811,-14952.160028,-306.438199
515.829329,-5403.503377,-16876.695478,2068.457845
515.829651,-4663.297435,-19319.375086,-2221.676944
515.829974,-4441.235652,-17024.736666,-2528.115143
515.830296,-3775.050304,-9252.574275,689.485948
515.830618,1184.329507,-4145.153275,1149.143247
515.830941,8734.430116,-3034.844362,153.219100
515.831263,13323.706956,-1480.411884,1532.190996
515.831585,12287.418637,222.061783,4060.306139
515.831907,9918.759623,-1036.288319,4596.572988
515.832230,5995.668130,-6143.709319,1455.581446
515.832552,148.041188,-9696.697840,-1608.800546
515.832874,-6587.832884,-9770.718434,-4136.915689
515.833197,-9400.615463,-9474.636058,-7354.516781
515.833519,-8068.244768,-11103.089130,-9652.803275
515.833841,-6513.812290,-12213.398043,-7967.393179
515.834163,-6217.729913,-13693.809927,-3983.696590
515.834486,-6587.832884,-13767.830521,-612.876398
515.834808,-5107.421000,-17838.963202,-2221.676944
515.835130,-3182.885551,-19097.313304,-3830.477490
515.835453,-2516.700203,-16136.489536,-2221.676944
515.835775,-1110.308913,-9992.780217,-459.657299
515.836097,3775.050304,-3034.844362,0.000000
515.836419,9548.656652,-518.144159,459.657299
515.836742,11917.315666,222.061783,2374.896044
515.837064,10288.862594,-222.061783,4903.011187
515.837386,7031.956449,-2294.638420,3294.210641
515.837709,2590.720797,-6883.915261,-689.485948
515.838031,-1628.453072,-11325.150913,-2451.505594
515.838353,-6439.791695,-12435.459826,-4290.134789
515.838675,-8216.285956,-11399.171507,-6128.763984
515.838998,-8068.244768,-10288.862594,-6665.030833
515.839320,-6587.832884,-11177.109724,-6511.811733
515.839642,-7254.018232,-12879.583391,-4213.525239
515.839965,-7550.100608,-15248.242405,-3447.429741
515.840287,-5625.565159,-19393.395680,-3217.601092
515.840609,-3701.029710,-20503.704593,-2911.162892
515.840931,-2220.617826,-15914.427753,-919.314598
515.841254,1184.329507,-8364.327145,0.000000
515.841576,6291.750507,-3478.967927,0.000000
515.841898,10732.986159,-1628.453072,842.705048
515.842221,9992.780217,888.247130,4213.525239
515.842543,6809.894666,1554.432478,4826.401637
515.842865,3849.070898,-2368.659014,766.095498
515.843187,740.205942,-7772.162391,-2604.724693
515.843510,-3923.091493,-10436.903782,-2911.162892
515.843832,-7624.121203,-10584.944971,-2604.724693
515.844154,-7105.977043,-10732.986159,-4903.011187
515.844476,-4515.256246,-11399.171507,-6281.983084
515.844799,-4515.256246,-13101.645173,-4826.401637
515.845121,-6587.832884,-13175.665768,-1455.581446
515.845443,-6143.709319,-15100.201217,-1762.019645
515.845766,-3627.009116,-18209.066173,-3140.991542
515.846088,-1480.411884,-17690.922014,-2834.553343
515.846410,962.267725,-12657.521608,0.000000
515.846732,4663.297435,-6957.935855,2604.724693
515.847055,9252.574275,-3108.864956,2451.505594
515.847377,11251.130318,-444.123565,2528.115143
515.847699,9030.512492,1406.391290,4366.744339
515.848022,6069.688724,1184.329507,3447.429741
515.848344,3256.906145,-2368.659014,-612.876398
515.848666,-666.185348,-8734.430116,-3907.087040
515.848988,-5921.647536,-11325.150913,-2068.457845
515.849311,-8586.388927,-10955.047942,-2068.457845
515.849633,-7105.977043,-11029.068536,-5745.716235
515.849955,-6365.771101,-11843.295072,-8044.002729
515.850278,-7402.059420,-13471.748144,-5132.839837
515.850600,-7920.203579,-14063.912898,-2681.334243
515.850922,-6291.750507,-16876.695478,-3447.429741
515.851244,-3034.844362,-19467.416275,-4366.744339
515.851567,-222.061783,-17542.880825,-1915.238745
515.851889,2368.659014,-11103.089130,1072.533697
515.852211,6587.832884,-5921.647536,1991.848295
515.852534,10732.986159,-2516.700203,1532.190996
515.852856,11621.233289,-296.082377,2145.067394
515.853178,9622.677246,666.185348,3140.991542
515.853500,7254.018232,-1184.329507,2145.067394
515.853823,3849.070898,-5255.462188,-612.876398
515.854145,-1480.411884,-9548.656652,-2298.286494
515.854467,-6439.791695,-11029.068536,-2911.162892
515.854790,-8068.244768,-11029.068536,-4826.401637
515.855112,-7550.100608,-11103.089130,-7124.688131
515.855434,-6661.853478,-12583.501014,-7201.297681
515.855756,-8364.327145,-12731.542202,-4596.572988
515.856079,-9474.636058,-14730.098246,-3830.477490
515.856401,-6661.853478,-18135.045579,-4903.011187
515.856723,-2738.761985,-19541.436869,-4749.792088
515.857046,-148.041188,-17024.736666,-2528.115143
515.857368,2294.638420,-9548.656652,1149.143247
515.857690,6365.771101,-3627.009116,2145.067394
515.858012,11399.171507,-1110.308913,1762.019645
515.858335,12361.439231,-148.041188,2068.457845
515.858657,9104.533087,0.000000,3524.039291
515.858979,5329.482782,-1554.432478,1838.629195
515.859302,1480.411884,-5107.421000,-459.657299
515.859624,-3552.988522,-9474.636058,-1072.533697
515.859946,-7476.080014,-10732.986159,-1225.752797
515.860268,-8438.347739,-10066.800811,-3907.087040
515.860591,-7105.977043,-10214.842000,-6588.421283
515.860913,-6143.709319,-11843.295072,-6281.983084
515.861235,-7920.203579,-13619.789333,-2298.286494
515.861558,-8660.409521,-14878.139434,-1762.019645
515.861880,-6439.791695,-17616.901420,-3294.210641
515.862202,-4589.276840,-16950.716072,-4136.915689
515.862524,-2738.761985,-14285.974681,-2221.676944
515.862847,-740.205942,-8734.430116,689.485948
515.863169,4367.215058,-4959.379811,229.828649
515.863491,9474.636058,-3627.009116,-1762.019645
515.863814,11103.089130,-2886.803174,1991.848295
515.864136,9474.636058,-1332.370696,4136.915689
515.864458,6143.709319,-2738.761985,1378.971896
515.864780,2072.576638,-6217.729913,-2604.724693
515.865103,-3330.926739,-9622.677246,-2221.676944
515.865425,-6439.791695,-10732.986159,-1838.629195
515.865747,-7031.956449,-9918.759623,-4979.620737
515.866069,-5329.482782,-10732.986159,-7201.297681
515.866384,-5625.565159,-12509.480420,-4366.744339
515.866706,-5477.523971,-14656.077652,-1302.362347
515.867029,-3627.009116,-16432.571912,-1225.752797
515.867351,-1184.329507,-17616.901420,-2221.676944
515.867674,74.020594,-16210.510130,-2221.676944
515.867996,1628.453072,-11991.336260,-76.609550
515.868319,4515.256246,-7031.956449,1072.533697
515.868641,8290.306550,-4293.194464,153.219100
515.868963,9770.718434,-3108.864956,383.047749
515.869286,9178.553681,-2516.700203,3064.381992
515.869608,6661.853478,-1480.411884,3370.820191
515.869931,3627.009116,-3701.029710,-1302.362347
515.870253,148.041188,-9030.512492,-4673.182538
515.870576,-3923.091493,-11621.233289,-2757.943793
515.870898,-6439.791695,-10066.800811,-2374.896044
515.871221,-6217.729913,-9030.512492,-5515.887586
515.871543,-4293.194464,-11177.109724,-7124.688131
515.871866,-4515.256246,-13471.748144,-3677.258390
515.872188,-6291.750507,-14211.954086,-1072.533697
515.872511,-5847.626942,-15988.448347,-1302.362347
515.872833,-2960.823768,-16950.716072,-3064.381992
515.873156,-296.082377,-14804.118840,-2145.067394
515.873478,1554.432478,-9400.615463,689.485948
515.873801,4219.173869,-4811.338623,1991.848295
515.874123,7698.141797,-1998.556043,919.314598
515.874446,9030.512492,-888.247130,995.924147
515.874768,6291.750507,-370.102971,3217.601092
515.875091,3923.091493,-1924.535449,1915.238745
515.875413,1554.432478,-5995.668130,-2374.896044
515.875735,-1776.494261,-10584.944971,-4443.353888
515.876058,-6809.894666,-12065.356855,-2528.115143
515.876380,-10066.800811,-11399.171507,-2604.724693
515.876703,-9844.739029,-10732.986159,-5822.325785
515.877025,-7772.162391,-12583.501014,-8810.098227
515.877348,-9030.512492,-12879.583391,-6741.640382
515.877670,-9622.677246,-15248.242405,-2681.334243
515.877993,-6513.812290,-17912.983796,-2757.943793
515.878315,-2590.720797,-19171.333898,-3600.648841
515.878638,666.185348,-15100.201217,-1608.800546
515.878960,4811.338623,-9178.553681,766.095498
515.879283,9104.533087,-5255.462188,1455.581446
515.879605,12361.439231,-2516.700203,2221.676944
515.879928,10955.047942,148.041188,3217.601092
515.880250,8882.471304,592.164754,2911.162892
515.880573,7031.956449,-1924.535449,842.705048
515.880895,4441.235652,-7031.956449,-2451.505594
515.881218,-666.185348,-10881.027347,-3217.601092
515.881540,-5699.585753,-12805.562797,-1149.143247
515.881862,-7994.224174,-12731.542202,-1455.581446
515.882185,-8364.327145,-11325.150913,-5209.449386
515.882507,-9178.553681,-11029.068536,-7660.954980
515.882830,-11991.336260,-11695.253884,-5209.449386
515.883152,-11769.274478,-14434.015869,-3830.477490
515.883475,-6883.915261,-17098.757260,-5822.325785
515.883797,-2442.679609,-17690.922014,-4903.011187
515.884120,518.144159,-15100.201217,76.609550
515.884442,4441.235652,-9992.780217,2987.772442
515.884765,9622.677246,-5329.482782,1915.238745
515.885087,12879.583391,-2886.803174,1225.752797
515.885410,12139.377449,-1036.288319,1532.190996
515.885732,9178.553681,444.123565,3064.381992
515.886055,6809.894666,-518.144159,2528.115143
515.886377,2664.741391,-4737.318029,612.876398
515.886700,-2146.597232,-8956.491898,-153.219100
515.887022,-5107.421000,-10732.986159,-842.705048
515.887345,-5477.523971,-11399.171507,-3294.210641
515.887667,-4515.256246,-12657.521608,-4903.011187
515.887990,-6661.853478,-12139.377449,-3140.991542
515.888312,-9030.512492,-11769.274478,229.828649
515.888634,-7550.100608,-13101.645173,-1685.410096
515.888957,-4219.173869,-15840.407159,-5822.325785
515.889279,-2812.782580,-16432.571912,-5362.668486
515.889602,-1258.350101,-13101.645173,-766.095498
515.889924,2368.659014,-8586.388927,766.095498
515.890247,8512.368333,-7254.018232,-689.485948
515.890569,11917.315666,-6365.771101,459.657299
515.890892,10955.047942,-4293.194464,2528.115143
515.891214,7920.203579,-1110.308913,2451.505594
515.891537,4367.215058,-1184.329507,0.000000
515.891859,148.041188,-4959.379811,-3064.381992
515.892182,-5625.565159,-8660.409521,-2145.067394
515.892504,-9104.533087,-9548.656652,-2068.457845
515.892827,-8660.409521,-11547.212695,-4749.792088
515.893149,-6661.853478,-14211.954086,-5745.716235
515.893472,-6735.874072,-14137.933492,-2757.943793
515.893794,-6661.853478,-13323.706956,0.000000
515.894117,-5033.400406,-13767.830521,-1455.581446
515.894439,-1776.494261,-15766.386565,-3830.477490
515.894762,444.123565,-14211.954086,-4060.306139
515.895084,2146.597232,-9474.636058,-1378.971896
515.895406,4663.297435,-7031.956449,0.000000
515.895729,8882.471304,-6365.771101,76.609550
515.896051,9992.780217,-5921.647536,536.266849
515.896374,8290.306550,-4515.256246,1915.238745
515.896696,6143.709319,-3256.906145,0.000000
515.897019,2812.782580,-4219.173869,-2987.772442
515.897341,-2294.638420,-6957.935855,-3753.867940
515.897664,-7550.100608,-8882.471304,-2681.334243
515.897986,-9992.780217,-10140.821405,-2987.772442
515.898309,-9622.677246,-11399.171507,-5822.325785
515.898631,-8290.306550,-13175.665768,-6665.030833
515.898954,-8660.409521,-13841.851115,-3983.696590
515.899276,-7476.080014,-14211.954086,-1072.533697
515.899599,-4441.235652,-14434.015869,-1685.410096
515.899921,-444.123565,-15248.242405,-2987.772442
515.900244,2960.823768,-12805.562797,-1455.581446
515.900566,5699.585753,-8586.388927,995.924147
515.900889,8216.285956,-4737.318029,995.924147
515.901211,9252.574275,-3182.885551,1072.533697
515.901534,8882.471304,-2664.741391,2604.724693
515.901856,7402.059420,-3034.844362,1915.238745
515.902178,5477.523971,-2664.741391,-842.705048
515.902501,3775.050304,-6143.709319,-3600.648841
515.902823,-370.102971,-9992.780217,-3370.820191
515.903146,-5255.462188,-11843.295072,-766.095498
515.903468,-8290.306550,-10955.047942,-689.485948
515.903791,-8512.368333,-11843.295072,-4596.572988
515.904113,-9622.677246,-12213.398043,-6665.030833
515.904436,-11029.068536,-13249.686362,-5132.839837
515.904758,-9696.697840,-13989.892304,-2604.724693
515.905081,-5699.585753,-15026.180623,-3294.210641
515.905403,-1036.288319,-15766.386565,-2911.162892
515.905726,2220.617826,-12805.562797,536.266849
515.906048,4663.297435,-8290.306550,1762.019645
515.906371,8216.285956,-5107.421000,1378.971896
515.906693,10807.006753,-4367.215058,536.266849
515.907016,10214.842000,-3256.906145,1302.362347
515.907338,8142.265362,-1406.391290,1455.581446
515.907661,6069.688724,-2442.679609,612.876398
515.907983,3330.926739,-6735.874072,-766.095498
515.908306,-740.205942,-9770.718434,-1455.581446
515.908628,-4737.318029,-11103.089130,-1991.848295
515.908950,-6365.771101,-12139.377449,-3753.867940
515.909273,-6661.853478,-14211.954086,-5132.839837
515.909595,-7476.080014,-14508.036463,-3753.867940
515.909918,-9992.780217,-12805.562797,-919.314598
515.910240,-9770.718434,-12361.439231,-1685.410096
515.910563,-5773.606348,-13693.809927,-4290.134789
515.910885,-2812.782580,-13767.830521,-3753.867940
515.911208,-814.226536,-11325.150913,0.000000
515.911530,1776.494261,-7105.977043,2221.676944
515.911853,6291.750507,-5699.585753,1302.362347
515.912175,9992.780217,-5403.503377,536.266849
515.912498,9918.759623,-2590.720797,1915.238745
515.912820,8068.244768,-1554.432478,919.314598
515.913143,5551.544565,-3552.988522,-1378.971896
515.913465,3108.864956,-7254.018232,-1991.848295
515.913788,-1480.411884,-8956.491898,-1149.143247
515.914110,-6291.750507,-9474.636058,-2068.457845
515.914433,-7624.121203,-12287.418637,-4366.744339
515.914755,-8216.285956,-14063.912898,-6052.154434
515.915078,-9548.656652,-14434.015869,-4213.525239
515.915400,-10732.986159,-12139.377449,-689.485948
515.915722,-8512.368333,-12657.521608,-1915.238745
515.916045,-3108.864956,-14211.954086,-4443.353888
515.916367,370.102971,-13101.645173,-2298.286494
515.916690,1628.453072,-9474.636058,766.095498
515.917012,4219.173869,-6069.688724,612.876398
515.917335,8734.430116,-5403.503377,-306.438199
515.917657,11843.295072,-5921.647536,-306.438199
515.917980,11325.150913,-5107.421000,306.438199
515.918302,8882.471304,-4811.338623,306.438199
515.918625,6143.709319,-5477.523971,-1225.752797
515.918947,2960.823768,-8512.368333,-3294.210641
515.919270,-2368.659014,-10362.883188,-3753.867940
515.919592,-7105.977043,-10955.047942,-3294.210641
515.919915,-9474.636058,-11695.253884,-4826.401637
515.920237,-9844.739029,-14137.933492,-6052.154434
515.920560,-10066.800811,-13841.851115,-4366.744339
515.920882,-9474.636058,-13915.871710,-2221.676944
515.921205,-6883.915261,-13767.830521,-1378.971896
515.921527,-2960.823768,-13027.624579,-842.705048
515.921850,148.041188,-10732.986159,306.438199
515.922172,2590.720797,-7254.018232,842.705048
515.922494,5921.647536,-5403.503377,612.876398
515.922817,8882.471304,-5625.565159,1072.533697
515.923139,9474.636058,-4441.235652,1149.143247
515.923462,8068.244768,-3034.844362,536.266849
515.923784,7179.997637,-3404.947333,-1302.362347
515.924107,4737.318029,-6217.729913,-3064.381992
515.924429,0.000000,-9252.574275,-3140.991542
515.924752,-5921.647536,-10066.800811,-2451.505594
515.925074,-7994.224174,-11399.171507,-4290.134789
515.925397,-7772.162391,-13545.768739,-6435.202183
515.925719,-9104.533087,-14804.118840,-5439.278036
515.926042,-10732.986159,-14211.954086,-2068.457845
515.926364,-9696.697840,-13249.686362,0.000000
515.926687,-5477.523971,-13545.768739,-995.924147
515.927009,-592.164754,-13027.624579,-1532.190996
515.927332,2368.659014,-10510.924376,536.266849
515.927654,4663.297435,-6957.935855,2911.162892
515.927977,8512.368333,-4737.318029,3294.210641
515.928299,12583.501014,-4071.132681,2987.772442
515.928622,12657.521608,-2664.741391,2068.457845
515.928944,9104.533087,-1480.411884,2374.896044
515.929266,5921.647536,-1776.494261,995.924147
515.929589,3182.885551,-5107.421000,-3140.991542
515.929911,-1258.350101,-8956.491898,-5056.230287
515.930234,-6957.935855,-11843.295072,-3753.867940
515.930556,-10214.842000,-13397.727550,-3370.820191
515.930879,-10436.903782,-14878.139434,-6205.373534
515.931201,-11399.171507,-15914.427753,-7431.126331
515.931524,-12879.583391,-16210.510130,-3600.648841
515.931846,-12139.377449,-13397.727550,-2528.115143
515.932169,-8216.285956,-12805.562797,-4136.915689
515.932491,-3108.864956,-13397.727550,-4213.525239
515.932814,592.164754,-10066.800811,-1072.533697
515.933136,3034.844362,-6439.791695,536.266849
515.933459,7328.038826,-5551.544565,1149.143247
515.933781,10807.006753,-5403.503377,2298.286494
515.934104,11769.274478,-4071.132681,2068.457845
515.934426,10140.821405,-2368.659014,842.705048
515.934749,7698.141797,-2738.761985,-689.485948
515.935071,4441.235652,-5995.668130,-2451.505594
515.935394,0.000000,-9844.739029,-2834.553343
515.935716,-4071.132681,-11029.068536,-2987.772442
515.936038,-6143.709319,-12361.439231,-5515.887586
515.936361,-6513.812290,-14730.098246,-6052.154434
515.936683,-7402.059420,-16506.592507,-2681.334243
515.937006,-9474.636058,-14063.912898,-612.876398
515.937328,-8882.471304,-13693.809927,-1072.533697
515.937651,-5033.400406,-13619.789333,-2757.943793
515.937973,-888.247130,-11325.150913,-2068.457845
515.938296,1332.370696,-8512.368333,-536.266849
515.938618,4145.153275,-5773.606348,1838.629195
515.938941,6735.874072,-5107.421000,2528.115143
515.939263,8734.430116,-4811.338623,1762.019645
515.939586,7402.059420,-3923.091493,536.266849
515.939908,4589.276840,-3627.009116,-766.095498
515.940231,1998.556043,-3775.050304,-3600.648841
515.940553,-444.123565,-6217.729913,-4903.011187
515.940876,-3552.988522,-9770.718434,-3830.477490
515.941198,-5477.523971,-11843.295072,-3140.991542
515.941521,-5699.585753,-13545.768739,-4596.572988
515.941843,-6143.709319,-14508.036463,-4903.011187
515.942166,-7328.038826,-14211.954086,-1762.019645
515.942488,-7846.182985,-12657.521608,-1149.143247
515.942810,-5329.482782,-12213.398043,-2757.943793
515.943133,-2146.597232,-12805.562797,-2451.505594
515.943455,-148.041188,-11399.171507,1455.581446
515.943778,1258.350101,-7624.121203,3677.258390
515.944100,4441.235652,-5477.523971,3600.648841
515.944423,8882.471304,-5699.585753,1149.143247
515.944745,10362.883188,-4737.318029,842.705048
515.945068,8734.430116,-2368.659014,1991.848295
515.945390,6513.812290,-1998.556043,1225.752797
515.945713,4663.297435,-4071.132681,-3217.601092
515.946035,740.205942,-8216.285956,-5822.325785
515.946358,-4293.194464,-11325.150913,-4673.182538
515.946680,-7105.977043,-13101.645173,-4749.792088
515.947003,-6883.915261,-15988.448347,-7048.078582
515.947325,-7105.977043,-17320.819043,-5975.544884
515.947648,-7698.141797,-17764.942608,-1608.800546
515.947970,-7179.997637,-14730.098246,0.000000
515.948293,-4071.132681,-12583.501014,-2451.505594
515.948615,-1036.288319,-10658.965565,-2834.553343
515.948938,74.020594,-8216.285956,536.266849
515.949260,888.247130,-4589.276840,3447.429741
515.949582,3108.864956,-2516.700203,2374.896044
515.949905,6587.832884,-4219.173869,842.705048
515.950227,7624.121203,-4811.338623,1838.629195
515.950550,6217.729913,-4145.153275,2757.943793
515.950872,4737.318029,-3330.926739,-612.876398
515.951195,3108.864956,-5551.544565,-4213.525239
515.951517,222.061783,-10288.862594,-4903.011187
515.951840,-4441.235652,-11251.130318,-3677.258390
515.952162,-7105.977043,-11547.212695,-4596.572988
515.952485,-7476.080014,-14137.933492,-7967.393179
515.952807,-7402.059420,-17690.922014,-6435.202183
515.953130,-8512.368333,-17690.922014,-2834.553343
515.953452,-7994.224174,-15248.242405,-1838.629195
515.953775,-4515.256246,-14434.015869,-2451.505594
515.954097,-370.102971,-12805.562797,-612.876398
515.954420,1850.514855,-7920.203579,1302.362347
515.954742,3404.947333,-2590.720797,2451.505594
515.955065,5921.647536,-1554.432478,1455.581446
515.955387,7772.162391,-2294.638420,1991.848295
515.955710,6513.812290,-2368.659014,4596.572988
515.956032,3478.967927,-2442.679609,3370.820191
515.956354,2072.576638,-3923.091493,-1378.971896
515.956677,1258.350101,-6661.853478,-4596.572988
515.956999,-1702.473667,-10362.883188,-4366.744339
515.957322,-5255.462188,-12657.521608,-2911.162892
515.957644,-6735.874072,-12139.377449,-5286.058936
515.957967,-6365.771101,-13989.892304,-8120.612279
515.958289,-7179.997637,-16210.510130,-6818.249932
515.958612,-9400.615463,-17172.777854,-3217.601092
515.958934,-8956.491898,-16654.633695,-2681.334243
515.959257,-4885.359217,-15100.201217,-5286.058936
515.959579,-1332.370696,-13249.686362,-3217.601092
515.959902,296.082377,-8882.471304,1991.848295
515.960224,2738.761985,-4219.173869,3677.258390
515.960547,6365.771101,-2590.720797,459.657299
515.960869,9326.594869,-3775.050304,-229.828649
515.961192,9326.594869,-3701.029710,2757.943793
515.961514,7994.224174,-2738.761985,2528.115143
515.961837,7179.997637,-3701.029710,0.000000
515.962159,5107.421000,-6735.874072,-2068.457845
515.962482,1110.308913,-9030.512492,-2298.286494
515.962804,-2220.617826,-10510.924376,-3064.381992
515.963126,-3552.988522,-12879.583391,-5439.278036
515.963449,-4145.153275,-15840.407159,-7354.516781
515.963771,-5551.544565,-16950.716072,-4136.915689
515.964094,-7105.977043,-16136.489536,-995.924147
515.964416,-6217.729913,-14508.036463,-1532.190996
515.964739,-3701.029710,-13693.809927,-3217.601092
515.965061,-2220.617826,-12213.398043,-1838.629195
515.965384,-2072.576638,-7624.121203,1608.800546
515.965706,0.000000,-3404.947333,1991.848295
515.966029,3108.864956,-2886.803174,612.876398
515.966351,5107.421000,-4145.153275,1685.410096
515.966674,4885.359217,-2812.782580,2528.115143
515.966996,4441.235652,-2368.659014,766.095498
515.967319,4219.173869,-4293.194464,-2298.286494
515.967641,2146.597232,-8216.285956,-3447.429741
515.967964,-2146.597232,-11029.068536,-1991.848295
515.968286,-5107.421000,-11103.089130,-2298.286494
515.968609,-4811.338623,-13249.686362,-5439.278036
515.968931,-4515.256246,-15544.324782,-7737.564530
515.969254,-5847.626942,-15840.407159,-3217.601092
515.969576,-6217.729913,-14359.995275,-383.047749
515.969899,-3330.926739,-13323.706956,-1608.800546
515.970221,74.020594,-12879.583391,-1838.629195
515.970544,1406.391290,-11621.233289,1225.752797
515.970866,1332.370696,-7105.977043,3064.381992
515.971189,2960.823768,-3627.009116,2298.286494
515.971511,6439.791695,-3849.070898,1072.533697
515.971833,7179.997637,-3775.050304,1455.581446
515.972156,6513.812290,-2738.761985,2451.505594
515.972478,4737.318029,-1776.494261,919.314598
515.972801,2886.803174,-3775.050304,-3217.601092
515.973123,-740.205942,-8660.409521,-5362.668486
515.973446,-5773.606348,-12213.398043,-3907.087040
515.973768,-8364.327145,-13841.851115,-5669.106685
515.974091,-7402.059420,-15840.407159,-8350.440928
515.974413,-6883.915261,-17616.901420,-8120.612279
515.974736,-7254.018232,-16580.613101,-3294.210641
515.975058,-5995.668130,-13841.851115,-1532.190996
515.975381,-3256.906145,-12509.480420,-3753.867940
515.975703,-592.164754,-12435.459826,-2604.724693
515.976026,1036.288319,-10140.821405,536.266849
515.976348,2368.659014,-5847.626942,1762.019645
515.976671,5181.441594,-3701.029710,1149.143247
515.976993,8586.388927,-3627.009116,1762.019645
515.977316,9696.697840,-3256.906145,3447.429741
515.977638,8068.244768,-2368.659014,2681.334243
515.977961,6069.688724,-2220.617826,229.828649
515.978283,3034.844362,-5181.441594,-2834.553343
515.978606,-1554.432478,-9696.697840,-4443.353888
515.978928,-5329.482782,-13249.686362,-4290.134789
515.979251,-6957.935855,-14878.139434,-5515.887586
515.979573,-7031.956449,-16136.489536,-8120.612279
515.979896,-7920.203579,-16210.510130,-5822.325785
515.980218,-10807.006753,-14508.036463,-995.924147
515.980541,-9844.739029,-13693.809927,-766.095498
515.980863,-6513.812290,-12805.562797,-4673.182538
515.981186,-4219.173869,-12213.398043,-4366.744339
515.981508,-2368.659014,-9252.574275,0.000000
515.981831,74.020594,-5181.441594,2374.896044
515.982153,3404.947333,-3404.947333,2834.553343
515.982476,6809.894666,-2812.782580,2221.676944
515.982798,7624.121203,-1628.453072,2681.334243
515.983121,6809.894666,-1332.370696,2068.457845
515.983443,6143.709319,-2960.823768,-459.657299
515.983765,4737.318029,-7179.997637,-2911.162892
515.984088,2072.576638,-11473.192101,-2451.505594
515.984410,-1110.308913,-12953.603985,-1072.533697
515.984733,-1924.535449,-13841.851115,-3600.648841
515.985055,-2220.617826,-14804.118840,-6818.249932
515.985378,-4515.256246,-14952.160028,-4060.306139
515.985700,-6957.935855,-13989.892304,-459.657299
515.986023,-7105.977043,-13323.706956,-1762.019645
515.986345,-4663.297435,-12879.583391,-3753.867940
515.986668,-2368.659014,-12509.480420,-2528.115143
515.986990,-740.205942,-9252.574275,0.000000
515.987313,2590.720797,-5921.647536,1838.629195
515.987635,6291.750507,-4737.318029,2374.896044
515.987958,8364.327145,-4071.132681,1455.581446
515.988280,8216.285956,-2960.823768,2068.457845
515.988603,6291.750507,-3404.947333,1225.752797
515.988925,3701.029710,-5477.523971,-1455.581446
515.989248,296.082377,-8660.409521,-3830.477490
515.989570,-3404.947333,-11843.295072,-3447.429741
515.989893,-4441.235652,-12657.521608,-3294.210641
515.990215,-2516.700203,-13323.706956,-5209.449386
515.990538,-2368.659014,-14359.995275,-5515.887586
515.990860,-4589.276840,-14434.015869,-1072.533697
515.991183,-5699.585753,-12879.583391,612.876398
515.991505,-4737.318029,-12213.398043,-1991.848295
515.991828,-2886.803174,-12435.459826,-2911.162892
515.992150,-1628.453072,-11029.068536,-459.657299
515.992473,-666.185348,-6883.915261,1608.800546
515.992795,2960.823768,-4071.132681,1455.581446
515.993118,6365.771101,-4071.132681,1915.238745
515.993440,7994.224174,-4293.194464,2681.334243
515.993763,6513.812290,-3182.885551,1608.800546
515.994085,4293.194464,-3182.885551,-306.438199
515.994408,2590.720797,-5699.585753,-3447.429741
515.994730,-962.267725,-9844.739029,-5209.449386
515.995053,-5921.647536,-11917.315666,-3907.087040
515.995375,-8512.368333,-12509.480420,-3217.601092
515.995697,-8142.265362,-13471.748144,-5975.544884
515.996020,-6587.832884,-14804.118840,-7201.297681
515.996342,-6883.915261,-13989.892304,-3830.477490
515.996665,-6883.915261,-13545.768739,-2451.505594
515.996987,-4515.256246,-13767.830521,-2298.286494
515.997310,-1628.453072,-13619.789333,-229.828649
515.997632,-370.102971,-9992.780217,1685.410096
515.997955,1036.288319,-4737.318029,1991.848295
515.998277,4515.256246,-2738.761985,229.828649
515.998600,8290.306550,-3108.864956,76.609550
515.998922,9474.636058,-4441.235652,2145.067394
515.999245,7624.121203,-4663.297435,3294.210641
515.999567,5995.668130,-3478.967927,766.095498
515.999890,3997.112087,-5921.647536,-3830.477490
516.000212,222.061783,-10510.924376,-5669.106685
516.000535,-5033.400406,-12509.480420,-4213.525239
516.000857,-8364.327145,-13101.645173,-5822.325785
516.001180,-8364.327145,-14211.954086,-7737.564530
516.001502,-7328.038826,-16432.571912,-6894.859482
516.001825,-7772.162391,-16284.530724,-2834.553343
516.002147,-7772.162391,-14508.036463,-1762.019645
516.002470,-5329.482782,-13101.645173,-3064.381992
516.002792,-2072.576638,-12657.521608,-2757.943793
516.003115,296.082377,-8956.491898,0.000000
516.003437,1776.494261,-4663.297435,1762.019645
516.003760,4589.276840,-3034.844362,306.438199
516.004082,8438.347739,-3627.009116,919.314598
516.004405,10288.862594,-4219.173869,2681.334243
516.004727,9400.615463,-2590.720797,2451.505594
516.005050,7920.203579,-3182.885551,383.047749
516.005372,5181.441594,-7550.100608,-1915.238745
516.005695,1406.391290,-11843.295072,-2757.943793
516.006017,-2738.761985,-12731.542202,-2681.334243
516.006340,-5255.462188,-12287.418637,-4903.011187
516.006662,-5625.565159,-13767.830521,-6128.763984
516.006985,-6957.935855,-14285.974681,-4749.792088
516.007307,-8290.306550,-14137.933492,-919.314598
516.007629,-7402.059420,-12879.583391,-536.266849
516.007952,-4441.235652,-13471.748144,-2221.676944
516.008274,-1998.556043,-12213.398043,-1302.362347
516.008597,-740.205942,-8142.265362,1762.019645
516.008919,1480.411884,-3627.009116,1915.238745
516.009242,4885.359217,-2368.659014,306.438199
516.009564,7772.162391,-3108.864956,1455.581446
516.009887,7328.038826,-2516.700203,3140.991542
516.010209,5181.441594,-2072.576638,2068.457845
516.010532,3701.029710,-5107.421000,-1915.238745
516.010854,1480.411884,-9918.759623,-3600.648841
516.011177,-2294.638420,-12435.459826,-3370.820191
516.011499,-5181.441594,-11917.315666,-3830.477490
516.011822,-5625.565159,-13619.789333,-5822.325785
516.012144,-5773.606348,-14952.160028,-5898.935335
516.012467,-7105.977043,-15174.221811,-3524.039291
516.012789,-7920.203579,-15100.201217,-1149.143247
516.013112,-7105.977043,-14359.995275,-1072.533697
516.013434,-4367.215058,-13397.727550,-2221.676944
516.013757,-2368.659014,-10955.047942,0.000000
516.014079,1036.288319,-6957.935855,1915.238745
516.014402,5255.462188,-3552.988522,1225.752797
516.014724,9400.615463,-2664.741391,919.314598
516.015047,10955.047942,-3108.864956,2451.505594
516.015369,9178.553681,-3552.988522,2911.162892
516.015692,6143.709319,-3627.009116,689.485948
516.016014,3034.844362,-5995.668130,-3600.648841
516.016337,-1110.308913,-10436.903782,-6128.763984
516.016659,-6143.709319,-13175.665768,-4979.620737
516.016982,-8956.491898,-13693.809927,-4060.306139
516.017304,-9252.574275,-14211.954086,-6818.249932
516.017627,-7105.977043,-16876.695478,-7354.516781
516.017949,-7179.997637,-15026.180623,-3217.601092
516.018272,-7994.224174,-13989.892304,-1991.848295
516.018594,-5773.606348,-12139.377449,-2681.334243
516.018917,-1998.556043,-12213.398043,-2298.286494
516.019239,222.061783,-9696.697840,0.000000
516.019561,1998.556043,-5033.400406,1838.629195
516.019884,4885.359217,-2590.720797,1915.238745
516.020206,9400.615463,-2368.659014,1455.581446
516.020529,11473.192101,-1924.535449,2681.334243
516.020851,10510.924376,-2738.761985,3217.601092
516.021174,8438.347739,-3701.029710,1455.581446
516.021496,5921.647536,-7254.018232,-2221.676944
516.021819,1850.514855,-11251.130318,-4060.306139
516.022141,-3330.926739,-13471.748144,-3677.258390
516.022464,-7031.956449,-13767.830521,-4903.011187
516.022786,-8956.491898,-12731.542202,-7660.954980
516.023109,-8956.491898,-14285.974681,-7660.954980
516.023431,-9104.533087,-15396.283594,-4213.525239
516.023754,-9030.512492,-15544.324782,-1072.533697
516.024076,-7105.977043,-14878.139434,-1532.190996
516.024399,-3849.070898,-13101.645173,-1608.800546
516.024721,-888.247130,-10066.800811,76.609550
516.025044,2960.823768,-5477.523971,919.314598
516.025366,6883.915261,-2368.659014,612.876398
516.025689,9918.759623,-2368.659014,1455.581446
516.026011,10510.924376,-1480.411884,2911.162892
516.026334,8882.471304,-1924.535449,3140.991542
516.026656,5995.668130,-3775.050304,1378.971896
516.026979,2220.617826,-7402.059420,-2604.724693
516.027301,-2072.576638,-11251.130318,-4979.620737
516.027624,-5551.544565,-13101.645173,-4596.572988
516.027946,-6883.915261,-14137.933492,-4213.525239
516.028269,-7476.080014,-14211.954086,-4673.182538
516.028591,-8882.471304,-14508.036463,-3907.087040
516.028914,-10214.842000,-13323.706956,-2221.676944
516.029236,-8512.368333,-13545.768739,-2987.772442
516.029559,-5107.421000,-15026.180623,-3907.087040
516.029881,-1776.494261,-13915.871710,-2451.505594
516.030204,740.205942,-8882.471304,1072.533697
516.030526,4367.215058,-4737.318029,2451.505594
516.030849,9178.553681,-3997.112087,2145.067394
516.031171,11769.274478,-3404.947333,2604.724693
516.031493,10807.006753,-1776.494261,3140.991542
516.031816,7476.080014,-666.185348,1608.800546
516.032138,5033.400406,-2738.761985,-689.485948
516.032461,1480.411884,-7920.203579,-2987.772442
516.032783,-4071.132681,-11917.315666,-2528.115143
516.033106,-7550.100608,-13471.748144,-2451.505594
516.033428,-8068.244768,-14359.995275,-5056.230287
516.033751,-7402.059420,-14952.160028,-6665.030833
516.034073,-8068.244768,-14137.933492,-4136.915689
516.034396,-9770.718434,-14137.933492,-1072.533697
516.034718,-8882.471304,-13989.892304,-995.924147
516.035041,-5625.565159,-13767.830521,-2681.334243
516.035363,-2960.823768,-11843.295072,-2221.676944
516.035686,-444.123565,-6883.915261,229.828649
516.036008,2590.720797,-4737.318029,2068.457845
516.036331,6143.709319,-4071.132681,1762.019645
516.036653,9030.512492,-3701.029710,1838.629195
516.036976,9400.615463,-3034.844362,1072.533697
516.037298,8142.265362,-2442.679609,-612.876398
516.037621,6291.750507,-3923.091493,-2604.724693
516.037943,2072.576638,-8660.409521,-4826.401637
516.038266,-3330.926739,-11843.295072,-3370.820191
516.038588,-6957.935855,-13619.789333,-3447.429741
516.038911,-7179.997637,-15396.283594,-7277.907231
516.039233,-6439.791695,-16802.674883,-6818.249932
516.039556,-7550.100608,-15100.201217,-2757.943793
516.039878,-7550.100608,-13323.706956,-842.705048
516.040201,-4441.235652,-13471.748144,-1838.629195
516.040523,-1110.308913,-13841.851115,-766.095498
516.040846,222.061783,-10436.903782,1149.143247
516.041168,1110.308913,-5699.585753,1302.362347
516.041491,4367.215058,-3627.009116,76.609550
516.041813,8586.388927,-3849.070898,-153.219100
516.042136,9992.780217,-3256.906145,1762.019645
516.042458,8660.409521,-2442.679609,2528.115143
516.042781,7031.956449,-2664.741391,1072.533697
516.043103,4885.359217,-4737.318029,-3370.820191
516.043425,888.247130,-9178.553681,-5286.058936
516.043748,-4145.153275,-13175.665768,-4673.182538
516.044070,-7105.977043,-14285.974681,-5209.449386
516.044393,-7402.059420,-15026.180623,-7048.078582
516.044715,-7846.182985,-15766.386565,-6511.811733
516.045038,-9104.533087,-15840.407159,-3064.381992
516.045360,-8660.409521,-14359.995275,-1455.581446
516.045683,-6217.729913,-13545.768739,-2834.553343
516.046005,-3256.906145,-12509.480420,-1608.800546
516.046328,0.000000,-9030.512492,1378.971896
516.046650,2294.638420,-4219.173869,2145.067394
516.046973,6291.750507,-2664.741391,1685.410096
516.047295,10584.944971,-2516.700203,2451.505594
516.047618,11843.295072,-2294.638420,3753.867940
516.047940,10140.821405,-962.267725,3907.087040
516.048263,7105.977043,-1628.453072,1378.971896
516.048585,4145.153275,-6217.729913,-2298.286494
516.048908,-148.041188,-10807.006753,-4443.353888
516.049230,-5181.441594,-12879.583391,-4749.792088
516.049553,-7698.141797,-13249.686362,-5592.497135
516.049875,-8438.347739,-15100.201217,-7124.688131
516.050198,-8808.450710,-16580.613101,-5898.935335
516.050520,-10658.965565,-16284.530724,-2757.943793
516.050843,-12065.356855,-15988.448347,-1838.629195
516.051165,-10732.986159,-14804.118840,-2068.457845
516.051488,-7550.100608,-12731.542202,-1762.019645
516.051810,-4145.153275,-8364.327145,-1915.238745
516.052133,1406.391290,-4219.173869,-1378.971896
516.052455,8290.306550,-3330.926739,0.000000
516.052778,13323.706956,-3552.988522,3064.381992
516.053100,14063.912898,-2220.617826,6128.763984
516.053423,11029.068536,-592.164754,4749.792088
516.053745,7402.059420,-2368.659014,306.438199
516.054068,3404.947333,-8808.450710,-4519.963438
516.054390,-1332.370696,-12361.439231,-4979.620737
516.054713,-4959.379811,-12361.439231,-4060.306139
516.055035,-4663.297435,-12657.521608,-5056.230287
516.055357,-4071.132681,-13397.727550,-5822.325785
516.055680,-4737.318029,-15692.365970,-2834.553343
516.056002,-7846.182985,-15026.180623,995.924147
516.056325,-9548.656652,-15988.448347,-306.438199
516.056647,-8734.430116,-14434.015869,-3983.696590
516.056970,-6069.688724,-12435.459826,-4060.306139
516.057292,-3404.947333,-7698.141797,-689.485948
516.057615,1406.391290,-2812.782580,995.924147
516.057937,7254.018232,-2146.597232,919.314598
516.058260,11843.295072,-2368.659014,1838.629195
516.058582,12805.562797,-2886.803174,2911.162892
516.058905,9918.759623,-3849.070898,1378.971896
516.059227,5625.565159,-6143.709319,-1608.800546
516.059550,444.123565,-10362.883188,-3907.087040
516.059872,-4071.132681,-12509.480420,-5362.668486
516.060195,-6809.894666,-11177.109724,-6052.154434
516.060517,-7698.141797,-10807.006753,-7967.393179
516.060840,-7624.121203,-13101.645173,-6435.202183
516.061162,-8142.265362,-15100.201217,-2834.553343
516.061485,-7772.162391,-16284.530724,-612.876398
516.061807,-6365.771101,-15840.407159,-1302.362347
516.062130,-3997.112087,-14952.160028,-1685.410096
516.062452,-2442.679609,-11843.295072,0.000000
516.062775,-222.061783,-5921.647536,2451.505594
516.063097,4145.153275,-1702.473667,1685.410096
516.063420,8808.450710,-740.205942,459.657299
516.063742,10881.027347,-1628.453072,2681.334243
516.064065,9474.636058,-2664.741391,4213.525239
516.064387,7105.977043,-3701.029710,612.876398
516.064710,4737.318029,-7624.121203,-4366.744339
516.065032,1554.432478,-12435.459826,-5975.544884
516.065355,-2886.803174,-13767.830521,-4519.963438
516.065677,-6735.874072,-12139.377449,-5209.449386
516.066000,-7105.977043,-12435.459826,-7201.297681
516.066322,-7254.018232,-13989.892304,-8350.440928
516.066645,-9030.512492,-15618.345376,-3677.258390
516.066967,-9326.594869,-16506.592507,-1455.581446
516.067290,-6587.832884,-16358.551318,-2681.334243
516.067612,-3997.112087,-15100.201217,-1762.019645
516.067935,-1332.370696,-12139.377449,2451.505594
516.068257,1406.391290,-5847.626942,3677.258390
516.068580,5625.565159,-296.082377,1991.848295
516.068902,9992.780217,1628.453072,1532.190996
516.069225,11917.315666,1998.556043,3294.210641
516.069547,10066.800811,-296.082377,3983.696590
516.069870,7550.100608,-1998.556043,1532.190996
516.070192,4367.215058,-6809.894666,-2298.286494
516.070515,1406.391290,-13027.624579,-4519.963438
516.070837,-2146.597232,-15692.365970,-5362.668486
516.071160,-5033.400406,-14582.057057,-6128.763984
516.071482,-7031.956449,-13545.768739,-6971.469032
516.071805,-7328.038826,-15100.201217,-5975.544884
516.072128,-8586.388927,-14285.974681,-2604.724693
516.072450,-9326.594869,-15322.262999,-1838.629195
516.072773,-7328.038826,-16062.468941,-4060.306139
516.073095,-5329.482782,-14359.995275,-2757.943793
516.073418,-2368.659014,-10955.047942,2604.724693
516.073740,1258.350101,-4885.359217,3753.867940
516.074063,5921.647536,-1184.329507,2451.505594
516.074385,10140.821405,0.000000,3140.991542
516.074708,11473.192101,296.082377,4213.525239
516.075030,9474.636058,-222.061783,2451.505594
516.075353,6217.729913,-2368.659014,536.266849
516.075675,1924.535449,-7328.038826,-2298.286494
516.075998,-2072.576638,-12435.459826,-3753.867940
516.076320,-4737.318029,-14952.160028,-5822.325785
516.076643,-5699.585753,-15766.386565,-7431.126331
516.076965,-5921.647536,-16358.551318,-7431.126331
516.077288,-7254.018232,-15914.427753,-4596.572988
516.077610,-9474.636058,-15396.283594,-1225.752797
516.077933,-9178.553681,-13915.871710,-2451.505594
516.078256,-7105.977043,-14285.974681,-4443.353888
516.078578,-5477.523971,-13101.645173,-2221.676944
516.078901,-3256.906145,-8734.430116,612.876398
516.079223,296.082377,-3478.967927,1762.019645
516.079546,5847.626942,-1406.391290,1532.190996
516.079868,10066.800811,-2368.659014,3294.210641
516.080191,10881.027347,-2368.659014,3370.820191
516.080513,8808.450710,-1850.514855,1762.019645
516.080836,6217.729913,-4219.173869,-689.485948
516.081158,3404.947333,-8438.347739,-3600.648841
516.081481,-222.061783,-11843.295072,-4903.011187
516.081803,-3256.906145,-13101.645173,-5286.058936
516.082126,-4589.276840,-13915.871710,-6971.469032
516.082448,-5773.606348,-15174.221811,-7201.297681
516.082771,-6735.874072,-16358.551318,-3600.648841
516.083093,-8364.327145,-15692.365970,-1378.971896
516.083416,-8364.327145,-15322.262999,-2528.115143
516.083739,-6439.791695,-14804.118840,-2451.505594
516.084061,-3923.091493,-12287.418637,-153.219100
516.084384,-1850.514855,-6513.812290,1072.533697
516.084706,2590.720797,-2368.659014,1991.848295
516.085029,8290.306550,-814.226536,2451.505594
516.085351,12287.418637,-1036.288319,2834.553343
516.085674,12065.356855,-1184.329507,2834.553343
516.085996,8438.347739,-2368.659014,2757.943793
516.086319,5033.400406,-5477.523971,-842.705048
516.086641,740.205942,-10362.883188,-4903.011187
516.086964,-3478.967927,-13175.665768,-6741.640382
516.087286,-6291.750507,-13249.686362,-6588.421283
516.087609,-5033.400406,-13693.809927,-7967.393179
516.087931,-5403.503377,-14434.015869,-7277.907231
516.088254,-6217.729913,-14952.160028,-2298.286494
516.088576,-7105.977043,-14582.057057,-536.266849
516.088899,-6291.750507,-15470.304188,-1225.752797
516.089221,-4885.359217,-15026.180623,-1838.629195
516.089544,-4071.132681,-11621.233289,76.609550
516.089867,-1776.494261,-5699.585753,1302.362347
516.090189,3552.988522,-1628.453072,2528.115143
516.090512,9178.553681,-518.144159,3294.210641
516.090834,12287.418637,-1036.288319,3447.429741
516.091157,11103.089130,-1258.350101,4060.306139
516.091479,7698.141797,-2294.638420,2604.724693
516.091802,4589.276840,-5921.647536,-2757.943793
516.092124,-296.082377,-11843.295072,-6435.202183
516.092447,-4885.359217,-14137.933492,-6741.640382
516.092769,-7179.997637,-13693.809927,-6818.249932
516.093092,-7328.038826,-14211.954086,-7431.126331
516.093414,-8216.285956,-15618.345376,-6511.811733
516.093737,-8956.491898,-15914.427753,-2757.943793
516.094059,-9252.574275,-15692.365970,-2221.676944
516.094382,-7698.141797,-16654.633695,-2987.772442
516.094704,-5699.585753,-16284.530724,-1762.019645
516.095027,-4219.173869,-11843.295072,1072.533697
516.095349,-1036.288319,-4663.297435,2068.457845
516.095672,4737.318029,-222.061783,1378.971896
516.095995,10214.842000,222.061783,1532.190996
516.096317,11695.253884,148.041188,3217.601092
516.096640,9548.656652,-592.164754,3830.477490
516.096962,7179.997637,-2590.720797,1378.971896
516.097285,3997.112087,-7550.100608,-2604.724693
516.097607,-666.185348,-12583.501014,-4749.792088
516.097930,-4219.173869,-14359.995275,-4979.620737
516.098252,-5477.523971,-14359.995275,-6511.811733
516.098575,-5551.544565,-13175.665768,-8273.831378
516.098897,-5107.421000,-14582.057057,-5362.668486
516.099220,-5329.482782,-15100.201217,-1762.019645
516.099542,-5477.523971,-16062.468941,-1838.629195
516.099865,-5181.441594,-15692.365970,-2298.286494
516.100187,-5107.421000,-14582.057057,-306.438199
516.100510,-3108.864956,-10362.883188,1762.019645
516.100832,666.185348,-4293.194464,766.095498
516.101155,6291.750507,-1480.411884,919.314598
516.101477,10288.862594,-296.082377,3600.648841
516.101800,11325.150913,296.082377,5669.106685
516.102123,9474.636058,444.123565,5209.449386
516.102445,6291.750507,-2664.741391,842.705048
516.102768,2220.617826,-8660.409521,-3753.867940
516.103090,-1702.473667,-13397.727550,-5898.935335
516.103413,-4885.359217,-13767.830521,-6358.592633
516.103735,-5847.626942,-13323.706956,-6971.469032
516.104058,-5625.565159,-14804.118840,-6281.983084
516.104380,-6143.709319,-15692.365970,-3983.696590
516.104703,-8216.285956,-15396.283594,-1685.410096
516.105025,-8290.306550,-16136.489536,-3447.429741
516.105348,-5995.668130,-17172.777854,-3907.087040
516.105670,-4367.215058,-14878.139434,-766.095498
516.105993,-2368.659014,-9548.656652,2068.457845
516.106315,1850.514855,-2738.761985,2145.067394
516.106638,7550.100608,-148.041188,2374.896044
516.106960,11325.150913,666.185348,3907.087040
516.107283,10510.924376,1184.329507,4596.572988
516.107605,6661.853478,444.123565,3217.601092
516.107928,4219.173869,-3849.070898,-306.438199
516.108251,1258.350101,-9918.759623,-3983.696590
516.108573,-1998.556043,-13915.871710,-5515.887586
516.108896,-3997.112087,-14508.036463,-5975.544884
516.109218,-4737.318029,-14359.995275,-6818.249932
516.109541,-5995.668130,-14952.160028,-5592.497135
516.109863,-8586.388927,-15026.180623,-3677.258390
516.110186,-10140.821405,-14804.118840,-3600.648841
516.110508,-9474.636058,-15322.262999,-4443.353888
516.110831,-7328.038826,-15692.365970,-4213.525239
516.111153,-5107.421000,-12435.459826,-1991.848295
516.111476,-1924.535449,-7402.059420,1455.581446
516.111798,3404.947333,-2294.638420,3064.381992
516.112121,9622.677246,-814.226536,2911.162892
516.112443,12287.418637,74.020594,3753.867940
516.112766,10658.965565,444.123565,4443.353888
516.113088,6809.894666,-1258.350101,1915.238745
516.113411,3256.906145,-5625.565159,-2374.896044
516.113734,-444.123565,-10510.924376,-4366.744339
516.114056,-4219.173869,-13693.809927,-5669.106685
516.114379,-5033.400406,-14804.118840,-6281.983084
516.114701,-5329.482782,-15174.221811,-7124.688131
516.115024,-5551.544565,-15988.448347,-4903.011187
516.115346,-7031.956449,-14434.015869,-2145.067394
516.115669,-7476.080014,-15914.427753,-1991.848295
516.115991,-5995.668130,-15248.242405,-3447.429741
516.116314,-3923.091493,-13915.871710,-3140.991542
516.116636,-1480.411884,-10955.047942,-612.876398
516.116959,2516.700203,-5921.647536,2374.896044
516.117281,7328.038826,-2294.638420,3983.696590
516.117604,10807.006753,-1184.329507,4366.744339
516.117926,11251.130318,-518.144159,3983.696590
516.118249,9030.512492,-1850.514855,2451.505594
516.118571,4737.318029,-3034.844362,-1532.190996
516.118894,592.164754,-7328.038826,-5132.839837
516.119216,-3701.029710,-11769.274478,-6358.592633
516.119539,-6069.688724,-14656.077652,-6128.763984
516.119862,-6513.812290,-14730.098246,-5898.935335
516.120184,-6069.688724,-15618.345376,-6358.592633
516.120507,-5921.647536,-15174.221811,-4903.011187
516.120829,-6957.935855,-15692.365970,-2145.067394
516.121152,-7031.956449,-14656.077652,-2145.067394
516.121474,-4959.379811,-14508.036463,-3983.696590
516.121797,-2886.803174,-13545.768739,-1991.848295
516.122119,-1110.308913,-8808.450710,2451.505594
516.122442,2294.638420,-3701.029710,3753.867940
516.122764,7105.977043,-814.226536,3140.991542
516.123087,9844.739029,-888.247130,4366.744339
516.123409,8364.327145,-1332.370696,4136.915689
516.123732,5329.482782,-1998.556043,2298.286494
516.124054,3330.926739,-3849.070898,-1455.581446
516.124377,1110.308913,-7994.224174,-6052.154434
516.124699,-2220.617826,-12139.377449,-6052.154434
516.125022,-5773.606348,-13693.809927,-3447.429741
516.125344,-6957.935855,-13323.706956,-4060.306139
516.125667,-6143.709319,-15248.242405,-6511.811733
516.125990,-7328.038826,-16580.613101,-5209.449386
516.126312,-9844.739029,-16062.468941,-1225.752797
516.126635,-10732.986159,-15396.283594,-1149.143247
516.126957,-8660.409521,-14434.015869,-3140.991542
516.127280,-5995.668130,-10807.006753,-766.095498
516.127602,-3849.070898,-5995.668130,2298.286494
516.127925,-666.185348,-888.247130,3447.429741
516.128247,3627.009116,666.185348,2834.553343
516.128570,7328.038826,-518.144159,1762.019645
516.128892,7550.100608,-2590.720797,842.705048
516.129215,5551.544565,-5329.482782,1072.533697
516.129537,2442.679609,-7698.141797,0.000000
516.129860,-222.061783,-9696.697840,-3983.696590
516.130182,-3849.070898,-12879.583391,-6205.373534
516.130505,-7254.018232,-13841.851115,-5898.935335
516.130827,-8882.471304,-13693.809927,-6665.030833
516.131150,-8290.306550,-14878.139434,-7507.735880
516.131472,-7254.018232,-15544.324782,-5592.497135
516.131795,-7994.224174,-15322.262999,-1149.143247
516.132118,-8364.327145,-13397.727550,76.609550
516.132440,-6883.915261,-11695.253884,-1225.752797
516.132763,-4589.276840,-10955.047942,-1149.143247
516.133085,-3775.050304,-7402.059420,1149.143247
516.133408,-3108.864956,-1776.494261,2451.505594
516.133730,370.102971,592.164754,1532.190996
516.134053,5255.462188,-1036.288319,1072.533697
516.134375,6735.874072,-3256.906145,1225.752797
516.134698,4811.338623,-4737.318029,919.314598
516.135020,2442.679609,-7105.977043,383.047749
516.135343,1776.494261,-11029.068536,-2987.772442
516.135665,-370.102971,-12805.562797,-6511.811733
516.135988,-4885.359217,-14211.954086,-8044.002729
516.136310,-9622.677246,-14211.954086,-6665.030833
516.136633,-11547.212695,-13915.871710,-5822.325785
516.136955,-8956.491898,-15692.365970,-7814.174080
516.137278,-6217.729913,-15618.345376,-6511.811733
516.137600,-4737.318029,-14582.057057,-2604.724693
516.137923,-3923.091493,-11621.233289,1608.800546
516.138246,-1776.494261,-8438.347739,2374.896044
516.138568,592.164754,-5551.544565,1302.362347
516.138891,814.226536,-2960.823768,-306.438199
516.139213,-148.041188,-1776.494261,0.000000
516.139536,-1036.288319,-2220.617826,1608.800546
516.139858,-666.185348,-4515.256246,2145.067394
516.140181,370.102971,-7254.018232,766.095498
516.140503,1776.494261,-7772.162391,-1915.238745
516.140826,3627.009116,-9548.656652,-3524.039291
516.141148,5255.462188,-12287.418637,-3370.820191
516.141471,5255.462188,-13767.830521,-2528.115143
516.141793,3034.844362,-13397.727550,-2221.676944
516.142116,-444.123565,-13101.645173,-3447.429741
516.142438,-4441.235652,-13693.809927,-3983.696590
516.142761,-8068.244768,-14063.912898,-3447.429741
516.143083,-9992.780217,-12805.562797,-3753.867940
516.143406,-8882.471304,-11029.068536,-3753.867940
516.143728,-5921.647536,-8438.347739,-1762.019645
516.144051,-3552.988522,-5995.668130,1532.190996
516.144374,-1554.432478,-4589.276840,3370.820191
516.144696,-1406.391290,-2960.823768,2834.553343
516.145019,-1406.391290,-2368.659014,0.000000
516.145341,-2368.659014,-3849.070898,-2451.505594
516.145664,-4737.318029,-6957.935855,-3600.648841
516.145986,-7254.018232,-10584.944971,-2834.553343
516.146309,-8586.388927,-13101.645173,-2068.457845
516.146631,-7328.038826,-14063.912898,-2145.067394
516.146954,-3849.070898,-14211.954086,-3677.258390
516.147276,0.000000,-14063.912898,-4903.011187
516.147599,1036.288319,-12657.521608,-3830.477490
516.147921,962.267725,-9548.656652,-1302.362347
516.148244,1036.288319,-8142.265362,229.828649
516.148566,1628.453072,-8586.388927,459.657299
516.148889,814.226536,-8216.285956,-766.095498
516.149211,-1332.370696,-7031.956449,-1762.019645
516.149534,-3330.926739,-7772.162391,-153.219100
516.149857,-4293.194464,-8660.409521,1915.238745
516.150179,-4071.132681,-8216.285956,2145.067394
516.150502,-3404.947333,-5773.606348,-536.266849
516.150824,-2664.741391,-5255.462188,-3447.429741
516.151147,-3256.906145,-7254.018232,-3447.429741
516.151469,-4441.235652,-9030.512492,-2145.067394
516.151792,-5625.565159,-9770.718434,-1532.190996
516.152114,-5477.523971,-11177.109724,-3447.429741
516.152437,-4219.173869,-12657.521608,-4979.620737
516.152759,-2960.823768,-13693.809927,-4290.134789
516.153082,-2442.679609,-13693.809927,-3677.258390
516.153404,-2368.659014,-12731.542202,-1915.238745
516.153727,-1776.494261,-11473.192101,0.000000
516.154049,-1332.370696,-9622.677246,766.095498
516.154372,-2664.741391,-7179.997637,-536.266849
516.154694,-3552.988522,-6291.750507,-153.219100
516.155017,-2960.823768,-6217.729913,-536.266849
516.155339,-888.247130,-6587.832884,-995.924147
516.155662,814.226536,-5995.668130,0.000000
516.155985,1184.329507,-4367.215058,1149.143247
516.156307,1998.556043,-4885.359217,-459.657299
516.156630,2368.659014,-7328.038826,-2068.457845
516.156952,1850.514855,-9992.780217,-3447.429741
516.157275,-592.164754,-11769.274478,-4366.744339
516.157597,-3108.864956,-11695.253884,-3830.477490
516.157920,-4293.194464,-12657.521608,-3907.087040
516.158242,-3775.050304,-12509.480420,-4749.792088
516.158565,-2294.638420,-13323.706956,-5515.887586
516.158887,-2368.659014,-14434.015869,-4826.401637
516.159210,-3849.070898,-13693.809927,-1378.971896
516.159532,-6291.750507,-10140.821405,2221.676944
516.159855,-7476.080014,-6069.688724,-153.219100
516.160177,-6143.709319,-4589.276840,-4213.525239
516.160500,-3182.885551,-4811.338623,-4749.792088
516.160822,-666.185348,-5181.441594,-3370.820191
516.161145,222.061783,-6069.688724,-1072.533697
516.161467,1850.514855,-9548.656652,2451.505594
516.161790,3478.967927,-11473.192101,4903.011187
516.162113,4885.359217,-10955.047942,1225.752797
516.162435,4293.194464,-9992.780217,-5056.230287
516.162758,1998.556043,-11399.171507,-4596.572988
516.163080,-814.226536,-11991.336260,-2145.067394
516.163403,-4145.153275,-10140.821405,-229.828649
516.163725,-7550.100608,-9548.656652,-995.924147
516.164048,-9696.697840,-10881.027347,-1225.752797
516.164370,-11103.089130,-10955.047942,-1838.629195
516.164693,-12139.377449,-9844.739029,-3600.648841
516.165015,-11917.315666,-8290.306550,-2145.067394
516.165338,-9326.594869,-7698.141797,-689.485948
516.165660,-5847.626942,-5477.523971,-689.485948
516.165983,-2516.700203,-2442.679609,-1532.190996
516.166305,-296.082377,-1702.473667,-2604.724693
516.166628,962.267725,-5329.482782,-4519.963438
516.166950,1036.288319,-10066.800811,-3677.258390
516.167273,296.082377,-13249.686362,-2298.286494
516.167596,74.020594,-14804.118840,-2221.676944
516.167918,444.123565,-15914.427753,-1762.019645
516.168241,444.123565,-14137.933492,-1762.019645
516.168563,-1628.453072,-10807.006753,-1378.971896
516.168886,-3478.967927,-7920.203579,-1072.533697
516.169208,-4293.194464,-7328.038826,-383.047749
516.169531,-4959.379811,-7105.977043,459.657299
516.169853,-5699.585753,-7179.997637,306.438199
516.170176,-5921.647536,-7994.224174,919.314598
516.170498,-3775.050304,-9622.677246,1838.629195
516.170821,-1184.329507,-9400.615463,1532.190996
516.171144,888.247130,-7254.018232,1072.533697
516.171466,2812.782580,-5699.585753,459.657299
516.171789,3923.091493,-5403.503377,-842.705048
516.172111,4515.256246,-7031.956449,-2911.162892
516.172434,3552.988522,-8882.471304,-4596.572988
516.172756,1406.391290,-10584.944971,-4903.011187
516.173079,-666.185348,-12361.439231,-5515.887586
516.173401,-3330.926739,-13471.748144,-4826.401637
516.173724,-5773.606348,-14730.098246,-4060.306139
516.174046,-8216.285956,-14952.160028,-3217.601092
516.174369,-9104.533087,-13249.686362,-3524.039291
516.174691,-7698.141797,-10584.944971,-4366.744339
516.175014,-6365.771101,-8660.409521,-3370.820191
516.175337,-5477.523971,-7624.121203,-1455.581446
516.175659,-5033.400406,-5255.462188,1378.971896
516.175982,-3923.091493,-3108.864956,1685.410096
516.176304,-2220.617826,-3256.906145,-995.924147
516.176627,-370.102971,-5551.544565,-2451.505594
516.176949,148.041188,-8290.306550,-2221.676944
516.177272,-592.164754,-9400.615463,-2145.067394
516.177594,-814.226536,-11473.192101,-766.095498
516.177917,148.041188,-13323.706956,0.000000
516.178239,1702.473667,-12657.521608,-1149.143247
516.178562,2442.679609,-10658.965565,-2528.115143
516.178885,2590.720797,-11103.089130,-2757.943793
516.179207,1776.494261,-12065.356855,-536.266849
516.179530,666.185348,-10362.883188,919.314598
516.179852,-1924.535449,-7254.018232,153.219100
516.180175,-3478.967927,-5995.668130,-1378.971896
516.180497,-4145.153275,-5773.606348,-1915.238745
516.180820,-4959.379811,-5699.585753,-2221.676944
516.181142,-6883.915261,-5847.626942,-1915.238745
516.181465,-7476.080014,-7105.977043,-1149.143247
516.181787,-6735.874072,-8734.430116,-1991.848295
516.182110,-5699.585753,-9326.594869,-3753.867940
516.182432,-6291.750507,-9326.594869,-5209.449386
516.182755,-5625.565159,-11473.192101,-6205.373534
516.183078,-5033.400406,-13101.645173,-5362.668486
516.183400,-4663.297435,-14063.912898,-3294.210641
516.183723,-4515.256246,-13175.665768,-1915.238745
516.184045,-4071.132681,-12139.377449,-2604.724693
516.184368,-1850.514855,-11843.295072,-2757.943793
516.184690,-148.041188,-10066.800811,-2451.505594
516.185013,814.226536,-7698.141797,-995.924147
516.185335,1998.556043,-5921.647536,1149.143247
516.185658,3034.844362,-6069.688724,1838.629195
516.185980,3182.885551,-5847.626942,1838.629195
516.186303,2368.659014,-5847.626942,536.266849
516.186625,666.185348,-6883.915261,-229.828649
516.186948,-814.226536,-8364.327145,-1225.752797
516.187271,-1036.288319,-9622.677246,-1378.971896
516.187593,-1776.494261,-10288.862594,-995.924147
516.187916,-1628.453072,-11325.150913,-1225.752797
516.188238,-2146.597232,-11399.171507,-1455.581446
516.188561,-2368.659014,-11473.192101,-1762.019645
516.188883,-2442.679609,-10807.006753,-2068.457845
516.189206,-3330.926739,-10807.006753,-2451.505594
516.189528,-3997.112087,-10510.924376,-1915.238745
516.189851,-4367.215058,-10140.821405,-1532.190996
516.190173,-4441.235652,-8956.491898,-383.047749
516.190496,-3923.091493,-8364.327145,-459.657299
516.190819,-3552.988522,-7179.997637,-1378.971896
516.191141,-3923.091493,-6587.832884,-1762.019645
516.191464,-4663.297435,-6143.709319,-995.924147
516.191786,-5181.441594,-6513.812290,-1838.629195
516.192109,-5181.441594,-7846.182985,-2911.162892
516.192431,-5181.441594,-8734.430116,-2604.724693
516.192754,-5107.421000,-9030.512492,-2451.505594
516.193076,-4515.256246,-10658.965565,-3447.429741
516.193399,-3108.864956,-12213.398043,-2681.334243
516.193721,-1702.473667,-12435.459826,-1455.581446
516.194044,-740.205942,-11399.171507,-612.876398
516.194366,740.205942,-11547.212695,-1225.752797
516.194689,1258.350101,-10658.965565,-1455.581446
516.195012,296.082377,-9326.594869,0.000000
516.195334,-1184.329507,-8734.430116,766.095498
516.195657,-2590.720797,-8068.244768,842.705048
516.195979,-3182.885551,-7105.977043,-306.438199
516.196302,-3849.070898,-6587.832884,-1225.752797
516.196624,-4219.173869,-6809.894666,-1608.800546
516.196947,-3256.906145,-8734.430116,-995.924147
516.197269,-2368.659014,-9622.677246,-995.924147
516.197592,-1332.370696,-9696.697840,-1149.143247
516.197914,-444.123565,-10362.883188,-3064.381992
516.198237,296.082377,-12287.418637,-3217.601092
516.198560,0.000000,-12287.418637,-2451.505594
516.198882,-1332.370696,-11029.068536,-3217.601092
516.199205,-1332.370696,-11991.336260,-3753.867940
516.199527,-592.164754,-13175.665768,-3064.381992
516.199850,-814.226536,-13027.624579,-1762.019645
516.200172,-1702.473667,-11325.150913,153.219100
516.200495,-1258.350101,-10214.842000,612.876398
516.200817,444.123565,-9548.656652,0.000000
516.201140,1110.308913,-6957.935855,-153.219100
516.201462,1702.473667,-5699.585753,1225.752797
516.201785,1850.514855,-6069.688724,1302.362347
516.202107,2442.679609,-6883.915261,1302.362347
516.202430,2442.679609,-7550.100608,1072.533697
516.202753,2516.700203,-9474.636058,76.609550
516.203075,2072.576638,-11621.233289,459.657299
516.203398,2590.720797,-12731.542202,995.924147
516.203720,2886.803174,-11991.336260,1149.143247
516.204043,3034.844362,-11251.130318,1455.581446
516.204365,2738.761985,-10658.965565,1685.410096
516.204688,2072.576638,-9252.574275,2221.676944
516.205010,888.247130,-8586.388927,1991.848295
516.205333,-666.185348,-7772.162391,1685.410096
516.205655,-1776.494261,-8068.244768,1072.533697
516.205978,-2516.700203,-7994.224174,2068.457845
516.206301,-3552.988522,-7550.100608,2681.334243
516.206623,-3182.885551,-8068.244768,2987.772442
516.206946,-3330.926739,-8142.265362,2911.162892
516.207268,-3552.988522,-7624.121203,2451.505594
516.207591,-3627.009116,-7772.162391,2298.286494
516.207913,-3478.967927,-8068.244768,2604.724693
516.208236,-2812.782580,-8660.409521,2068.457845
516.208558,-2960.823768,-10066.800811,1838.629195
516.208881,-2886.803174,-11029.068536,2604.724693
516.209203,-3034.844362,-11843.295072,2987.772442
516.209526,-2886.803174,-12065.356855,2834.553343
516.209848,-2516.700203,-11473.192101,2681.334243
516.210171,-1998.556043,-10732.986159,3217.601092
516.210494,-1332.370696,-9252.574275,3294.210641
516.210816,0.000000,-8290.306550,3370.820191
516.211139,592.164754,-7920.203579,3753.867940
516.211461,1258.350101,-8068.244768,4443.353888
516.211784,1036.288319,-8216.285956,3217.601092
516.212106,0.000000,-9474.636058,2451.505594
516.212429,-666.185348,-9992.780217,2451.505594
516.212751,-1702.473667,-10066.800811,1762.019645
516.213074,-2442.679609,-9992.780217,153.219100
516.213396,-3256.906145,-9474.636058,0.000000
516.213719,-3627.009116,-9474.636058,-842.705048
516.214042,-3627.009116,-9474.636058,-1302.362347
516.214364,-3478.967927,-9992.780217,-1225.752797
516.214687,-3108.864956,-10362.883188,-612.876398
516.215009,-2664.741391,-10881.027347,-1302.362347
516.215332,-1480.411884,-10955.047942,-842.705048
516.215654,0.000000,-10510.924376,-536.266849
516.215977,1850.514855,-9474.636058,0.000000
516.216299,3627.009116,-7624.121203,76.609550
516.216622,5107.421000,-6069.688724,0.000000
516.216944,6365.771101,-5403.503377,-612.876398
516.217267,6809.894666,-6439.791695,-1378.971896
516.217589,5625.565159,-8364.327145,-2374.896044
516.217912,3034.844362,-9474.636058,-1608.800546
516.218235,0.000000,-9918.759623,-1685.410096
516.218557,-2368.659014,-11177.109724,-2298.286494
516.218880,-3775.050304,-12435.459826,-3677.258390
516.219202,-4219.173869,-12731.542202,-4596.572988
516.219525,-3627.009116,-11621.233289,-4903.011187
516.219847,-1036.288319,-11917.315666,-3907.087040
516.220170,1628.453072,-13471.748144,-1915.238745
516.220492,4515.256246,-13175.665768,-536.266849
516.220815,5625.565159,-11843.295072,536.266849
516.221137,5847.626942,-10584.944971,1455.581446
516.221460,6143.709319,-8882.471304,2451.505594
516.221783,6291.750507,-6661.853478,1302.362347
516.222105,4737.318029,-4515.256246,0.000000
516.222428,2368.659014,-4811.338623,536.266849
516.222750,-1406.391290,-3701.029710,1455.581446
516.223073,-5625.565159,-4367.215058,-689.485948
516.223395,-8586.388927,-7698.141797,-3370.820191
516.223718,-10288.862594,-11473.192101,-4519.963438
516.224040,-11177.109724,-13101.645173,-5898.935335
516.224363,-9918.759623,-14211.954086,-6205.373534
516.224685,-7328.038826,-15544.324782,-4903.011187
516.225008,-4367.215058,-16136.489536,-1915.238745
516.225330,-3108.864956,-13693.809927,-919.314598
516.225653,-2368.659014,-9474.636058,-1762.019645
516.225976,-2516.700203,-7698.141797,-3370.820191
516.226298,-2294.638420,-8660.409521,-2068.457845
516.226621,-2368.659014,-8290.306550,0.000000
516.226943,-2442.679609,-7772.162391,1991.848295
516.227266,-1850.514855,-8364.327145,3983.696590
516.227588,0.000000,-9474.636058,4749.792088
516.227911,370.102971,-9178.553681,4979.620737
516.228233,518.144159,-8364.327145,5209.449386
516.228556,-148.041188,-7105.977043,5439.278036
516.228878,0.000000,-6143.709319,4979.620737
516.229201,1110.308913,-5773.606348,2451.505594
516.229524,1554.432478,-5329.482782,536.266849
516.229846,2516.700203,-6883.915261,-306.438199
516.230169,4145.153275,-9030.512492,612.876398
516.230491,5551.544565,-11399.171507,2298.286494
516.230814,5477.523971,-12583.501014,2681.334243
516.231136,4367.215058,-13101.645173,2145.067394
516.231459,2738.761985,-12805.562797,1302.362347
516.231781,0.000000,-11991.336260,536.266849
516.232104,-2590.720797,-10140.821405,1149.143247
516.232426,-5551.544565,-7550.100608,2911.162892
516.232749,-7179.997637,-5773.606348,2834.553343
516.233071,-8068.244768,-6587.832884,2604.724693
516.233394,-6069.688724,-9622.677246,2604.724693
516.233717,-3627.009116,-10066.800811,2604.724693
516.234039,-888.247130,-11103.089130,2374.896044
516.234362,2590.720797,-11769.274478,2987.772442
516.234684,6143.709319,-10732.986159,3753.867940
516.235007,9030.512492,-9622.677246,2757.943793
516.235329,9178.553681,-9178.553681,2757.943793
516.235652,8216.285956,-7920.203579,5056.230287
516.235974,8956.491898,-6069.688724,5669.106685
516.236297,8512.368333,-5551.544565,-919.314598
516.236619,7698.141797,-12065.356855,-4366.744339
516.236942,5699.585753,-16950.716072,383.047749
516.237265,814.226536,-12435.459826,4136.915689
516.237587,-6735.874072,-10658.965565,2681.334243
516.237910,-9400.615463,-13397.727550,3370.820191
516.238232,-10955.047942,-12287.418637,-1608.800546
516.238555,-15026.180623,-10584.944971,-7814.174080
516.238877,-17987.004391,-9770.718434,-1149.143247
516.239200,-17320.819043,-7328.038826,5745.716235
516.239522,-12213.398043,-4737.318029,-306.438199
516.239845,-4293.194464,-6661.853478,-4596.572988
516.240167,2442.679609,-8586.388927,-1838.629195
516.240490,5847.626942,-9030.512492,-2911.162892
516.240812,7994.224174,-10214.842000,-766.095498
516.241135,8660.409521,-9844.739029,6588.421283
516.241458,7476.080014,-5329.482782,3447.429741
516.241780,6661.853478,-4885.359217,-6128.763984
516.242103,6661.853478,-11621.233289,-7048.078582
516.242425,4515.256246,-15766.386565,-459.657299
516.242748,-1406.391290,-14137.933492,3524.039291
516.243070,-8438.347739,-11917.315666,6205.373534
516.243393,-9992.780217,-11621.233289,6052.154434
516.243715,-9178.553681,-9474.636058,-1378.971896
516.244038,-6957.935855,-7402.059420,-8197.221829
516.244360,-6217.729913,-7772.162391,-4826.401637
516.244683,-4219.173869,-5625.565159,3370.820191
516.245005,518.144159,-3330.926739,3294.210641
516.245328,4737.318029,-3256.906145,1532.190996
516.245651,6217.729913,-5921.647536,0.000000
516.245973,5403.503377,-9548.656652,-3447.429741
516.246296,3701.029710,-10881.027347,-4826.401637
516.246618,2368.659014,-13323.706956,-3064.381992
516.246941,296.082377,-14211.954086,-1378.971896
516.247263,-1554.432478,-13175.665768,-1685.410096
516.247586,-2146.597232,-12953.603985,-1991.848295
516.247908,-2812.782580,-13249.686362,-3217.601092
516.248231,-2368.659014,-12805.562797,-3524.039291
516.248553,-2664.741391,-11769.274478,-1685.410096
516.248876,-2812.782580,-7328.038826,2451.505594
516.249199,-1850.514855,-4145.153275,1608.800546
516.249521,370.102971,-4737.318029,-1302.362347
516.249844,4071.132681,-6809.894666,-1915.238745
516.250166,4219.173869,-6069.688724,-2221.676944
516.250489,1998.556043,-7994.224174,-536.266849
516.250811,-148.041188,-11473.192101,3064.381992
516.251134,-592.164754,-13397.727550,4213.525239
516.251456,296.082377,-11991.336260,-459.657299
516.251779,3034.844362,-10807.006753,-4596.572988
516.252101,4737.318029,-10510.924376,-3983.696590
516.252424,3849.070898,-9104.533087,0.000000
516.252746,370.102971,-9696.697840,3524.039291
516.253069,-2590.720797,-12213.398043,4519.963438
516.253392,-3256.906145,-13471.748144,1302.362347
516.253714,-3701.029710,-13027.624579,-1685.410096
516.254037,-4515.256246,-11251.130318,-1608.800546
516.254359,-5181.441594,-9104.533087,2145.067394
516.254682,-3775.050304,-7698.141797,5669.106685
516.255004,-1406.391290,-7328.038826,6741.640382
516.255327,148.041188,-6735.874072,6128.763984
516.255649,592.164754,-4293.194464,2834.553343
516.255972,1036.288319,-2146.597232,-995.924147
516.256294,1776.494261,-3108.864956,-1455.581446
516.256617,2664.741391,-7698.141797,842.705048
516.256940,1258.350101,-11177.109724,2911.162892
516.257262,-1258.350101,-14137.933492,4903.011187
516.257585,-4737.318029,-14582.057057,3983.696590
516.257907,-6809.894666,-14656.077652,612.876398
516.258230,-7476.080014,-14211.954086,-1762.019645
516.258552,-6069.688724,-12509.480420,76.609550
516.258875,-5329.482782,-8512.368333,4060.306139
516.259197,-3478.967927,-3552.988522,5822.325785
516.259520,0.000000,-3108.864956,3447.429741
516.259842,2590.720797,-7031.956449,536.266849
516.260165,1332.370696,-10732.986159,1378.971896
516.260487,-2368.659014,-13175.665768,4213.525239
516.260810,-3627.009116,-13175.665768,5669.106685
516.261133,-592.164754,-10214.842000,3217.601092
516.261455,4589.276840,-7105.977043,306.438199
516.261778,8586.388927,-5107.421000,995.924147
516.262100,9770.718434,-4219.173869,2451.505594
516.262423,8512.368333,-6291.750507,1532.190996
516.262745,6069.688724,-9770.718434,-229.828649
516.263068,2590.720797,-14656.077652,-306.438199
516.263390,-1850.514855,-17542.880825,-459.657299
516.263713,-6809.894666,-16876.695478,-842.705048
516.264035,-8142.265362,-14952.160028,-1225.752797
516.264358,-7031.956449,-11917.315666,-1762.019645
516.264681,-4589.276840,-10362.883188,-229.828649
516.265003,-2368.659014,-7846.182985,2374.896044
516.265326,-666.185348,-4293.194464,1838.629195
516.265648,1036.288319,-2812.782580,-1532.190996
516.265971,2368.659014,-5255.462188,-1991.848295
516.266293,1628.453072,-7698.141797,536.266849
516.266616,-222.061783,-8660.409521,919.314598
516.266938,-814.226536,-9622.677246,0.000000
516.267261,888.247130,-9474.636058,-1915.238745
516.267583,2738.761985,-10066.800811,-3294.210641
516.267906,3849.070898,-9622.677246,-2834.553343
516.268228,5181.441594,-9030.512492,-2221.676944
516.268551,5403.503377,-7624.121203,-2834.553343
516.268874,4071.132681,-7105.977043,-2451.505594
516.269196,-444.123565,-8512.368333,-1455.581446
516.269519,-5403.503377,-9992.780217,-2298.286494
516.269841,-8364.327145,-11325.150913,-5286.058936
516.270164,-8808.450710,-12805.562797,-6818.249932
516.270486,-7994.224174,-13027.624579,-3983.696590
516.270809,-6661.853478,-10881.027347,0.000000
516.271131,-2960.823768,-8068.244768,-153.219100
516.271454,1036.288319,-5181.441594,-1149.143247
516.271776,2738.761985,-4811.338623,-1991.848295
516.272099,1332.370696,-4959.379811,-2374.896044
516.272421,-148.041188,-6143.709319,-3217.601092
516.272744,148.041188,-9696.697840,-5209.449386
516.273066,1406.391290,-13027.624579,-5439.278036
516.273389,1184.329507,-14508.036463,-3447.429741
516.273711,740.205942,-13693.809927,-2681.334243
516.274034,1480.411884,-12065.356855,-4136.915689
516.274356,2072.576638,-11991.336260,-4443.353888
516.274679,-1184.329507,-10362.883188,-3677.258390
516.275002,-4737.318029,-8512.368333,-3830.477490
516.275324,-6439.791695,-8068.244768,-5056.230287
516.275647,-5181.441594,-9474.636058,-4979.620737
516.275969,-3478.967927,-11547.212695,-2145.067394
516.276292,-3182.885551,-9770.718434,229.828649
516.276614,-2738.761985,-9030.512492,1532.190996
516.276937,-740.205942,-8882.471304,1762.019645
516.277259,1184.329507,-9548.656652,1838.629195
516.277582,962.267725,-8364.327145,995.924147
516.277904,814.226536,-6513.812290,-229.828649
516.278227,2220.617826,-4663.297435,-1915.238745
516.278549,4367.215058,-5033.400406,-766.095498
516.278872,5255.462188,-6365.771101,536.266849
516.279194,4441.235652,-7698.141797,-153.219100
516.279517,3034.844362,-9844.739029,-1302.362347
516.279839,1702.473667,-12583.501014,-1072.533697
516.280162,-740.205942,-14434.015869,-229.828649
516.280484,-3849.070898,-14211.954086,-689.485948
516.280807,-4737.318029,-12361.439231,-1302.362347
516.281130,-3701.029710,-8734.430116,-612.876398
516.281452,-2368.659014,-6217.729913,1225.752797
516.281775,-518.144159,-5329.482782,2681.334243
516.282097,1036.288319,-6217.729913,1608.800546
516.282420,1258.350101,-7402.059420,1991.848295
516.282742,222.061783,-10214.842000,4366.744339
516.283065,-1184.329507,-12287.418637,4519.963438
516.283387,-666.185348,-12139.377449,1685.410096
516.283710,1036.288319,-9400.615463,-153.219100
516.284032,1998.556043,-6439.791695,842.705048
516.284355,2738.761985,-4737.318029,1685.410096
516.284677,4219.173869,-6069.688724,-766.095498
516.285000,4145.153275,-9252.574275,-3140.991542
516.285322,1184.329507,-12213.398043,-2298.286494
516.285645,-4145.153275,-14656.077652,-1149.143247
516.285967,-7698.141797,-16210.510130,-2451.505594
516.286290,-7698.141797,-16062.468941,-4519.963438
516.286612,-6809.894666,-12213.398043,-4903.011187
516.286935,-6143.709319,-8660.409521,-1838.629195
516.287257,-4737.318029,-7550.100608,612.876398
516.287580,-2220.617826,-7550.100608,383.047749
516.287903,-740.205942,-7550.100608,919.314598
516.288225,-518.144159,-7772.162391,2068.457845
516.288548,-592.164754,-8956.491898,612.876398
516.288870,1776.494261,-8142.265362,-919.314598
516.289193,5403.503377,-5403.503377,-1762.019645
516.289515,7920.203579,-4145.153275,-1455.581446
516.289838,8586.388927,-5551.544565,-306.438199
516.290160,7698.141797,-8068.244768,-1149.143247
516.290483,4293.194464,-8882.471304,-2374.896044
516.290805,-222.061783,-10658.965565,-2987.772442
516.291128,-3552.988522,-11917.315666,-4213.525239
516.291450,-5699.585753,-11399.171507,-7277.907231
516.291773,-5625.565159,-10584.944971,-7507.735880
516.292095,-4663.297435,-10732.986159,-5056.230287
516.292418,-3256.906145,-10214.842000,-1991.848295
516.292740,-2590.720797,-10066.800811,-1838.629195
516.293063,-2886.803174,-9400.615463,-2068.457845
516.293385,-4515.256246,-9030.512492,-1302.362347
516.293708,-4589.276840,-9474.636058,-842.705048
516.294030,-2072.576638,-7920.203579,-1838.629195
516.294353,1702.473667,-5033.400406,-3600.648841
516.294676,4885.359217,-1998.556043,-2451.505594
516.294998,6513.812290,-1184.329507,-383.047749
516.295321,7179.997637,-5033.400406,-2757.943793
516.295643,6365.771101,-10955.047942,-5362.668486
516.295966,2442.679609,-15914.427753,-6052.154434
516.296288,-3923.091493,-17912.983796,-4826.401637
516.296611,-7994.224174,-18357.107362,-4213.525239
516.296933,-8068.244768,-16284.530724,-7507.735880
516.297256,-6143.709319,-12139.377449,-10495.508323
516.297578,-2886.803174,-9548.656652,-8044.002729
516.297901,-1480.411884,-8364.327145,-2604.724693
516.298223,-888.247130,-9400.615463,-842.705048
516.298546,-814.226536,-11029.068536,-1455.581446
516.298868,-1702.473667,-12435.459826,1225.752797
516.299191,-1702.473667,-11325.150913,1225.752797
516.299513,962.267725,-7476.080014,-1532.190996
516.299836,4885.359217,-3849.070898,-3753.867940
516.300158,7328.038826,-2368.659014,-689.485948
516.300481,7031.956449,-3256.906145,4213.525239
516.300803,4959.379811,-4589.276840,3983.696590
516.301126,2442.679609,-6587.832884,-1991.848295
516.301449,0.000000,-10436.903782,-5362.668486
516.301771,-2516.700203,-13175.665768,-3983.696590
516.302094,-4589.276840,-13915.871710,-3983.696590
516.302416,-5773.606348,-14211.954086,-5209.449386
516.302739,-5181.441594,-14285.974681,-1838.629195
516.303061,-4589.276840,-13693.809927,2145.067394
516.303384,-4219.173869,-11843.295072,2374.896044
516.303706,-4811.338623,-7846.182985,-383.047749
516.304029,-4441.235652,-4737.318029,-612.876398
516.304351,-2072.576638,-4811.338623,1072.533697
516.304674,148.041188,-4515.256246,3294.210641
516.304996,2368.659014,-4219.173869,4136.915689
516.305319,3034.844362,-3775.050304,3140.991542
516.305641,2812.782580,-4145.153275,3140.991542
516.305964,2368.659014,-6587.832884,2604.724693
516.306286,2220.617826,-9474.636058,-1685.410096
516.306609,2220.617826,-10214.842000,-4060.306139
516.306931,1332.370696,-8586.388927,-2374.896044
516.307254,740.205942,-9622.677246,-1838.629195
516.307576,592.164754,-14211.954086,-2757.943793
516.307899,-1702.473667,-17394.839637,-3217.601092
516.308222,-5699.585753,-17098.757260,-1762.019645
516.308544,-6883.915261,-15470.304188,0.000000
516.308867,-3997.112087,-12287.418637,-919.314598
516.309189,518.144159,-9918.759623,-3600.648841
516.309512,3330.926739,-7402.059420,-842.705048
516.309834,3478.967927,-5107.421000,3677.258390
516.310157,3775.050304,-5329.482782,3907.087040
516.310479,4515.256246,-7105.977043,0.000000
516.310802,4367.215058,-7105.977043,-1608.800546
516.311124,2960.823768,-5255.462188,-2374.896044
516.311447,2960.823768,-5107.421000,-2451.505594
516.311769,5181.441594,-8956.491898,-3140.991542
516.312092,5107.421000,-12065.356855,-2834.553343
516.312414,0.000000,-13027.624579,-1149.143247
516.312737,-6957.935855,-13767.830521,-612.876398
516.313059,-10066.800811,-15544.324782,-5056.230287
516.313382,-9030.512492,-16062.468941,-9729.412825
516.313704,-7179.997637,-12953.603985,-8197.221829
516.314027,-5773.606348,-8586.388927,-3217.601092
516.314350,-2738.761985,-6513.812290,1149.143247
516.314672,1110.308913,-6809.894666,1838.629195
516.314995,962.267725,-7105.977043,2757.943793
516.315317,-2294.638420,-6735.874072,2834.553343
516.315640,-2442.679609,-6217.729913,0.000000
516.315962,1258.350101,-4885.359217,-3830.477490
516.316285,5477.523971,-2516.700203,-4290.134789
516.316607,7105.977043,-814.226536,-842.705048
516.316930,6957.935855,-1184.329507,1991.848295
516.317252,5847.626942,-5329.482782,153.219100
516.317575,2072.576638,-11251.130318,-3677.258390
516.317897,-5033.400406,-15766.386565,-5592.497135
516.318220,-10584.944971,-17468.860231,-7048.078582
516.318542,-9770.718434,-16876.695478,-9269.755526
516.318865,-5847.626942,-14211.954086,-9729.412825
516.319187,-1480.411884,-11473.192101,-6052.154434
516.319510,592.164754,-7698.141797,-1302.362347
516.319832,1480.411884,-5995.668130,0.000000
516.320155,2072.576638,-7476.080014,-1608.800546
516.320477,888.247130,-11103.089130,-3753.867940
516.320800,-740.205942,-13175.665768,-2911.162892
516.321123,592.164754,-10510.924376,-1762.019645
516.321445,3997.112087,-5773.606348,-1915.238745
516.321768,7105.977043,-3627.009116,-1149.143247
516.322090,7772.162391,-3923.091493,306.438199
516.322413,4441.235652,-4737.318029,-766.095498
516.322735,-962.267725,-8734.430116,-4366.744339
516.323058,-5181.441594,-14952.160028,-6052.154434
516.323380,-8068.244768,-18727.210333,-6052.154434
516.323703,-8956.491898,-18357.107362,-7201.297681
516.324025,-7550.100608,-16432.571912,-7967.393179
516.324348,-4737.318029,-14359.995275,-4290.134789
516.324670,-2590.720797,-12065.356855,459.657299
516.324993,-2146.597232,-9400.615463,1838.629195
516.325315,-2072.576638,-8290.306550,-919.314598
516.325638,-2072.576638,-7772.162391,-2451.505594
516.325960,-2220.617826,-8586.388927,306.438199
516.326283,-370.102971,-7105.977043,3294.210641
516.326605,3182.885551,-4145.153275,2451.505594
516.326928,7772.162391,-1332.370696,1915.238745
516.327250,10436.903782,-888.247130,2681.334243
516.327573,9474.636058,-2886.803174,3064.381992
516.327896,6883.915261,-6883.915261,2298.286494
516.328218,3478.967927,-10362.883188,-995.924147
516.328541,-814.226536,-12731.542202,-1915.238745
516.328863,-4219.173869,-12879.583391,-1225.752797
516.329186,-5477.523971,-11029.068536,-2528.115143
516.329508,-3997.112087,-10436.903782,-5209.449386
516.329831,-3627.009116,-10510.924376,-3983.696590
516.330153,-3552.988522,-11251.130318,1378.971896
516.330476,-4219.173869,-11251.130318,1915.238745
516.330798,-4663.297435,-10732.986159,-229.828649
516.331121,-3627.009116,-9696.697840,-383.047749
516.331443,-3849.070898,-7031.956449,842.705048
516.331766,-1480.411884,-4515.256246,459.657299
516.332088,2368.659014,-2072.576638,-919.314598
516.332411,5403.503377,-1406.391290,-842.705048
516.332733,6069.688724,-3923.091493,766.095498
516.333056,4737.318029,-8364.327145,842.705048
516.333378,3034.844362,-12953.603985,-1455.581446
516.333701,2812.782580,-16432.571912,-3983.696590
516.334023,370.102971,-16358.551318,-4519.963438
516.334346,-2812.782580,-14804.118840,-3447.429741
516.334669,-4589.276840,-13101.645173,-3677.258390
516.334991,-4811.338623,-11473.192101,-5286.058936
516.335314,-4219.173869,-11029.068536,-4903.011187
516.335636,-4071.132681,-10807.006753,-2298.286494
516.335959,-3478.967927,-10362.883188,-1455.581446
516.336281,-2146.597232,-10066.800811,-2068.457845
516.336604,-1258.350101,-10732.986159,0.000000
516.336926,-962.267725,-10584.944971,2528.115143
516.337249,-518.144159,-7402.059420,1302.362347
516.337571,1628.453072,-3627.009116,-1838.629195
516.337894,3701.029710,-1924.535449,-3447.429741
516.338216,3552.988522,-3108.864956,-2221.676944
516.338539,2442.679609,-5551.544565,-766.095498
516.338861,1406.391290,-8586.388927,-1991.848295
516.339184,0.000000,-11843.295072,-3983.696590
516.339506,-2738.761985,-14285.974681,-4749.792088
516.339829,-5329.482782,-14582.057057,-4519.963438
516.340151,-6735.874072,-13767.830521,-6281.983084
516.340474,-5477.523971,-13767.830521,-7354.516781
516.340796,-3552.988522,-13767.830521,-3370.820191
516.341119,-1850.514855,-10955.047942,689.485948
516.341442,0.000000,-7772.162391,0.000000
516.341764,1480.411884,-6217.729913,-1149.143247
516.342087,2072.576638,-6439.791695,919.314598
516.342409,1850.514855,-6661.853478,2911.162892
516.342732,2812.782580,-5033.400406,1072.533697
516.343054,4885.359217,-4515.256246,-995.924147
516.343377,6735.874072,-4515.256246,-766.095498
516.343699,7179.997637,-5255.462188,76.609550
516.344022,5995.668130,-6291.750507,0.000000
516.344344,4737.318029,-7994.224174,-2451.505594
516.344667,1110.308913,-10584.944971,-4519.963438
516.344989,-3701.029710,-13175.665768,-3524.039291
516.345312,-7920.203579,-13619.789333,-3983.696590
516.345634,-9400.615463,-14878.139434,-7967.393179
516.345957,-8216.285956,-16876.695478,-8273.831378
516.346279,-7105.977043,-15766.386565,-3524.039291
516.346602,-6365.771101,-12435.459826,383.047749
516.346924,-4145.153275,-9104.533087,0.000000
516.347247,-1628.453072,-6587.832884,-766.095498
516.347570,-888.247130,-5699.585753,-383.047749
516.347892,-592.164754,-5033.400406,842.705048
516.348215,1554.432478,-4737.318029,689.485948
516.348537,4737.318029,-3034.844362,-383.047749
516.348860,7476.080014,-2812.782580,-459.657299
516.349182,9400.615463,-6365.771101,459.657299
516.349505,9622.677246,-9770.718434,229.828649
516.349827,7402.059420,-10658.965565,-1838.629195
516.350150,1702.473667,-13323.706956,-2834.553343
516.350472,-3849.070898,-16506.592507,-1378.971896
516.350795,-7920.203579,-14804.118840,-2757.943793
516.351117,-8734.430116,-12805.562797,-7354.516781
516.351440,-6883.915261,-12139.377449,-7660.954980
516.351762,-3997.112087,-11547.212695,-2987.772442
516.352085,-2664.741391,-10807.006753,-766.095498
516.352407,-2516.700203,-11029.068536,919.314598
516.352730,-3923.091493,-11325.150913,3064.381992
516.353052,-5699.585753,-11029.068536,3983.696590
516.353375,-5033.400406,-8068.244768,995.924147
516.353697,-1258.350101,-3034.844362,-2757.943793
516.354020,2960.823768,740.205942,-3217.601092
516.354343,6439.791695,592.164754,-306.438199
516.354665,8216.285956,-4071.132681,2987.772442
516.354988,7550.100608,-7105.977043,2528.115143
516.355310,4589.276840,-10807.006753,-919.314598
516.355633,-1406.391290,-16284.530724,-2604.724693
516.355955,-5847.626942,-18801.230927,-1532.190996
516.356278,-7402.059420,-17024.736666,-3830.477490
516.356600,-5625.565159,-12953.603985,-6665.030833
516.356923,-2146.597232,-10140.821405,-3753.867940
516.357245,0.000000,-7624.121203,1225.752797
516.357568,740.205942,-4959.379811,2374.896044
516.357890,-148.041188,-5847.626942,1532.190996
516.358213,-2368.659014,-9474.636058,1378.971896
516.358535,-3849.070898,-11917.315666,1608.800546
516.358858,-3108.864956,-9548.656652,1225.752797
516.359180,0.000000,-4811.338623,0.000000
516.359503,4219.173869,-370.102971,0.000000
516.359825,7402.059420,1258.350101,1455.581446
516.360148,8364.327145,-740.205942,689.485948
516.360470,7105.977043,-6809.894666,-2604.724693
516.360793,3775.050304,-13619.789333,-4213.525239
516.361116,-814.226536,-17912.983796,-3064.381992
516.361438,-4515.256246,-19023.292709,-4443.353888
516.361761,-4885.359217,-18209.066173,-7277.907231
516.362083,-3701.029710,-15026.180623,-7507.735880
516.362406,-2368.659014,-11769.274478,-3370.820191
516.362728,-2294.638420,-9992.780217,229.828649
516.363051,-1924.535449,-9400.615463,229.828649
516.363373,-1332.370696,-9918.759623,-1532.190996
516.363696,-1184.329507,-9474.636058,-1072.533697
516.364018,-222.061783,-8734.430116,-153.219100
516.364341,2368.659014,-5847.626942,-919.314598
516.364663,5773.606348,-3404.947333,-1991.848295
516.364986,7179.997637,-2516.700203,0.000000
516.365308,4737.318029,-4589.276840,1149.143247
516.365631,1332.370696,-7994.224174,0.000000
516.365953,-1554.432478,-10510.924376,-4826.401637
516.366276,-3849.070898,-13027.624579,-8810.098227
516.366598,-5847.626942,-14211.954086,-7814.174080
516.366921,-7179.997637,-13767.830521,-5745.716235
516.367243,-7624.121203,-13323.706956,-5515.887586
516.367566,-6809.894666,-14063.912898,-5822.325785
516.367889,-5477.523971,-15618.345376,-4213.525239
516.368211,-5477.523971,-14804.118840,-1608.800546
516.368534,-5699.585753,-9992.780217,-2451.505594
516.368856,-3701.029710,-6883.915261,-3217.601092
516.369179,-666.185348,-5773.606348,76.609550
516.369501,2368.659014,-4737.318029,3370.820191
516.369824,5033.400406,-3256.906145,3294.210641
516.370146,6365.771101,-1554.432478,2298.286494
516.370468,7772.162391,-1998.556043,2374.896044
516.370791,8882.471304,-4589.276840,766.095498
516.371113,9030.512492,-7846.182985,-536.266849
516.371436,7624.121203,-9252.574275,-995.924147
516.371758,4441.235652,-10436.903782,-229.828649
516.372081,0.000000,-12065.356855,0.000000
516.372403,-4145.153275,-12879.583391,-1225.752797
516.372726,-7254.018232,-13471.748144,-4366.744339
516.373048,-7846.182985,-13915.871710,-5898.935335
516.373371,-5921.647536,-13175.665768,-5209.449386
516.373693,-5033.400406,-11695.253884,-1991.848295
516.374016,-3627.009116,-10214.842000,-1149.143247
516.374338,-3478.967927,-8734.430116,1838.629195
516.374660,-4515.256246,-8734.430116,3753.867940
516.374983,-4737.318029,-8660.409521,1685.410096
516.375305,-2886.803174,-7846.182985,-2681.334243
516.375628,-1702.473667,-4811.338623,-2987.772442
516.375950,1258.350101,-2886.803174,229.828649
516.376273,5181.441594,-3256.906145,1455.581446
516.376595,8586.388927,-5403.503377,-536.266849
516.376918,9178.553681,-9548.656652,-919.314598
516.377240,5255.462188,-13989.892304,-459.657299
516.377563,-296.082377,-16580.613101,0.000000
516.377885,-4367.215058,-18505.148550,-2911.162892
516.378207,-4959.379811,-17764.942608,-5362.668486
516.378530,-2812.782580,-14285.974681,-4596.572988
516.378852,-1332.370696,-9548.656652,-229.828649
516.379175,1776.494261,-7846.182985,1455.581446
516.379497,2368.659014,-6661.853478,2374.896044
516.379820,888.247130,-7846.182985,3524.039291
516.380142,-2738.761985,-8660.409521,4826.401637
516.380465,-4071.132681,-9178.553681,1378.971896
516.380787,-2442.679609,-7328.038826,-1378.971896
516.381110,666.185348,-3256.906145,-1225.752797
516.381432,2664.741391,-1036.288319,1149.143247
516.381754,3775.050304,-814.226536,2757.943793
516.382077,3330.926739,-3701.029710,1149.143247
516.382399,1480.411884,-8660.409521,-2374.896044
516.382722,-3034.844362,-13323.706956,-3753.867940
516.383044,-7328.038826,-15100.201217,-4366.744339
516.383367,-8586.388927,-15322.262999,-6281.983084
516.383689,-6217.729913,-14582.057057,-6741.640382
516.384012,-2664.741391,-13619.789333,-3217.601092
516.384334,0.000000,-11325.150913,-766.095498
516.384657,-148.041188,-8364.327145,-995.924147
516.384979,-592.164754,-7920.203579,-995.924147
516.385302,-888.247130,-9252.574275,-229.828649
516.385624,-1258.350101,-9178.553681,-842.705048
516.385946,-148.041188,-7328.038826,-2221.676944
516.386269,3108.864956,-5699.585753,-2451.505594
516.386591,6883.915261,-4145.153275,-1838.629195
516.386914,8734.430116,-5181.441594,153.219100
516.387236,6809.894666,-4959.379811,-153.219100
516.387559,3552.988522,-7105.977043,-3140.991542
516.387881,222.061783,-12065.356855,-5822.325785
516.388204,-2738.761985,-15322.262999,-6435.202183
516.388526,-6661.853478,-14656.077652,-7967.393179
516.388849,-8142.265362,-13397.727550,-9346.365076
516.389171,-6587.832884,-14063.912898,-7737.564530
516.389493,-4589.276840,-13767.830521,-4213.525239
516.389816,-2960.823768,-13693.809927,-1608.800546
516.390138,-1924.535449,-11769.274478,-1991.848295
516.390461,-1850.514855,-10066.800811,-2987.772442
516.390783,-1924.535449,-10288.862594,-1991.848295
516.391106,-1036.288319,-9104.533087,459.657299
516.391428,1184.329507,-5255.462188,459.657299
516.391751,4885.359217,-1850.514855,-995.924147
516.392073,7846.182985,-296.082377,-306.438199
516.392396,7994.224174,-296.082377,1991.848295
516.392718,7031.956449,-4441.235652,1838.629195
516.393041,5255.462188,-8438.347739,-306.438199
516.393363,1850.514855,-12139.377449,-2451.505594
516.393685,-3034.844362,-14211.954086,-2374.896044
516.394008,-6439.791695,-12953.603985,-2221.676944
516.394330,-6957.935855,-12139.377449,-4903.011187
516.394653,-6143.709319,-10732.986159,-6052.154434
516.394975,-4811.338623,-10732.986159,-2374.896044
516.395298,-3997.112087,-9992.780217,0.000000
516.395620,-3849.070898,-9474.636058,0.000000
516.395943,-4071.132681,-10066.800811,1915.238745
516.396265,-4145.153275,-11325.150913,2987.772442
516.396588,-3627.009116,-10658.965565,2374.896044
516.396910,-1110.308913,-7994.224174,76.609550
516.397232,2442.679609,-3701.029710,-919.314598
516.397555,6069.688724,-1702.473667,689.485948
516.397877,8438.347739,-2738.761985,2604.724693
516.398200,9400.615463,-5921.647536,919.314598
516.398522,7550.100608,-9844.739029,-919.314598
516.398845,4441.235652,-14137.933492,-229.828649
516.399167,296.082377,-15692.365970,306.438199
516.399490,-2442.679609,-16580.613101,-1991.848295
516.399812,-4293.194464,-15248.242405,-4826.401637
516.400135,-3849.070898,-14137.933492,-3753.867940
516.400457,-2368.659014,-12509.480420,383.047749
516.400780,-1332.370696,-10066.800811,1378.971896
516.401102,-222.061783,-9252.574275,536.266849
516.401424,-1184.329507,-7772.162391,459.657299
516.401747,-1850.514855,-7476.080014,2068.457845
516.402069,-2368.659014,-7254.018232,1608.800546
516.402392,-1258.350101,-6883.915261,-995.924147
516.402714,-740.205942,-5403.503377,-1532.190996
516.403037,-1332.370696,-3923.091493,995.924147
516.403359,-1184.329507,-4737.318029,612.876398
516.403682,-666.185348,-6291.750507,-2911.162892
516.404004,0.000000,-8808.450710,-5209.449386
516.404327,-1628.453072,-11325.150913,-3983.696590
516.404649,-4071.132681,-11991.336260,-2068.457845
516.404971,-5625.565159,-13323.706956,-3907.087040
516.405294,-5107.421000,-14285.974681,-4979.620737
516.405616,-3923.091493,-13027.624579,-3524.039291
516.405939,-2220.617826,-10436.903782,-2068.457845
516.406261,-666.185348,-8364.327145,-1762.019645
516.406584,1406.391290,-7105.977043,-1532.190996
516.406906,3775.050304,-8216.285956,536.266849
516.407229,4737.318029,-9918.759623,2911.162892
516.407551,5033.400406,-9178.553681,2221.676944
516.407874,5255.462188,-7402.059420,-536.266849
516.408196,4071.132681,-4441.235652,-1685.410096
516.408519,3775.050304,-2516.700203,76.609550
516.408841,3849.070898,-2220.617826,-995.924147
516.409163,3849.070898,-5033.400406,-4903.011187
516.409486,1702.473667,-9548.656652,-6205.373534
516.409808,-2442.679609,-13027.624579,-4749.792088
516.410131,-6217.729913,-15914.427753,-5515.887586
516.410453,-8068.244768,-18875.251521,-9576.193725
516.410776,-7698.141797,-20429.683999,-9652.803275
516.411098,-6957.935855,-16876.695478,-5822.325785
516.411421,-6661.853478,-11621.233289,-1149.143247
516.411743,-4219.173869,-8216.285956,-2221.676944
516.412066,-1924.535449,-5551.544565,-2834.553343
516.412388,-1332.370696,-4885.359217,-1991.848295
516.412710,-1110.308913,-6883.915261,536.266849
516.413033,518.144159,-7846.182985,766.095498
516.413355,2960.823768,-6365.771101,153.219100
516.413678,6069.688724,-5403.503377,1455.581446
516.414000,8142.265362,-4737.318029,2221.676944
516.414323,9104.533087,-4737.318029,0.000000
516.414645,8808.450710,-5847.626942,-2451.505594
516.414968,5773.606348,-7254.018232,-1685.410096
516.415290,444.123565,-9178.553681,-919.314598
516.415613,-3108.864956,-13397.727550,-1991.848295
516.415935,-4589.276840,-16876.695478,-4290.134789
516.416258,-4737.318029,-18209.066173,-5362.668486
516.416580,-4071.132681,-16876.695478,-2145.067394
516.416902,-2072.576638,-12287.418637,0.000000
516.417225,0.000000,-6587.832884,-1072.533697
516.417547,518.144159,-3034.844362,-2068.457845
516.417870,-1184.329507,-3404.947333,995.924147
516.418192,-2960.823768,-4663.297435,2068.457845
516.418515,-2442.679609,-5773.606348,-612.876398
516.418837,-1332.370696,-6661.853478,-2374.896044
516.419160,-888.247130,-8216.285956,-306.438199
516.419482,-222.061783,-8364.327145,1915.238745
516.419805,1184.329507,-7179.997637,306.438199
516.420127,2368.659014,-7550.100608,-3294.210641
516.420449,1184.329507,-10881.027347,-4903.011187
516.420772,-1480.411884,-12879.583391,-3294.210641
516.421094,-4589.276840,-13841.851115,-4903.011187
516.421417,-5181.441594,-15396.283594,-6588.421283
516.421739,-3478.967927,-17172.777854,-5669.106685
516.422062,-740.205942,-15174.221811,-3064.381992
516.422384,1036.288319,-11399.171507,-1838.629195
516.422707,1850.514855,-9844.739029,-842.705048
516.423029,1406.391290,-11177.109724,1302.362347
516.423352,-962.267725,-11103.089130,3907.087040
516.423674,-2368.659014,-7846.182985,2221.676944
516.423997,-1184.329507,-4885.359217,-1915.238745
516.424319,1480.411884,-2886.803174,-3370.820191
516.424641,3478.967927,-2368.659014,383.047749
516.424964,3108.864956,-1702.473667,3064.381992
516.425286,1998.556043,-3034.844362,1991.848295
516.425609,1110.308913,-7772.162391,-1302.362347
516.425931,-1924.535449,-12583.501014,-3983.696590
516.426254,-5625.565159,-14730.098246,-5898.935335
516.426576,-7920.203579,-14582.057057,-7277.907231
516.426899,-6291.750507,-14730.098246,-6128.763984
516.427221,-2146.597232,-13027.624579,-2681.334243
516.427544,74.020594,-10732.986159,-612.876398
516.427866,740.205942,-8882.471304,-842.705048
516.428188,888.247130,-8216.285956,-1149.143247
516.428511,222.061783,-8956.491898,-383.047749
516.428833,-740.205942,-9104.533087,919.314598
516.429156,222.061783,-8512.368333,1378.971896
516.429478,2294.638420,-6661.853478,1149.143247
516.429801,4885.359217,-3256.906145,2374.896044
516.430123,6883.915261,-962.267725,3447.429741
516.430446,7105.977043,-1406.391290,995.924147
516.430768,6587.832884,-4219.173869,-2221.676944
516.431091,3701.029710,-8216.285956,-3447.429741
516.431413,-740.205942,-12213.398043,-2068.457845
516.431735,-5551.544565,-15618.345376,-2451.505594
516.432058,-7254.018232,-18579.169144,-4903.011187
516.432380,-6809.894666,-17320.819043,-6281.983084
516.432703,-5625.565159,-14359.995275,-5056.230287
516.433025,-4515.256246,-11547.212695,-2681.334243
516.433348,-2220.617826,-9622.677246,-2374.896044
516.433670,-962.267725,-8142.265362,-2757.943793
516.433993,-1332.370696,-9178.553681,-919.314598
516.434315,-2738.761985,-10140.821405,1072.533697
516.434638,-2664.741391,-9474.636058,153.219100
516.434960,-962.267725,-7179.997637,-1915.238745
516.435283,592.164754,-4811.338623,-995.924147
516.435605,2590.720797,-3108.864956,536.266849
516.435927,3627.009116,-2294.638420,-612.876398
516.436250,4219.173869,-5107.421000,-2451.505594
516.436572,2886.803174,-9844.739029,-2451.505594
516.436895,-370.102971,-12657.521608,-1532.190996
516.437217,-3256.906145,-14137.933492,-3370.820191
516.437540,-4071.132681,-15174.221811,-5975.544884
516.437862,-1924.535449,-14952.160028,-6128.763984
516.438185,518.144159,-13323.706956,-3217.601092
516.438507,1554.432478,-10807.006753,-383.047749
516.438830,1480.411884,-8660.409521,612.876398
516.439152,1628.453072,-8512.368333,536.266849
516.439474,1184.329507,-9252.574275,0.000000
516.439797,592.164754,-8512.368333,-1072.533697
516.440119,888.247130,-5921.647536,-2221.676944
516.440442,1776.494261,-3701.029710,-1378.971896
516.440764,2812.782580,-2294.638420,919.314598
516.441087,2664.741391,-2220.617826,1225.752797
516.441409,74.020594,-4663.297435,-919.314598
516.441732,-2664.741391,-8438.347739,-4519.963438
516.442054,-5847.626942,-12509.480420,-5286.058936
516.442377,-7920.203579,-14137.933492,-4826.401637
516.442699,-7179.997637,-14211.954086,-6665.030833
516.443022,-5255.462188,-14137.933492,-7890.783629
516.443344,-2664.741391,-13915.871710,-4903.011187
516.443666,-1554.432478,-12583.501014,-766.095498
516.443989,-1480.411884,-10732.986159,-459.657299
516.444311,-888.247130,-10066.800811,-2145.067394
516.444634,0.000000,-10658.965565,-2374.896044
516.444956,740.205942,-10436.903782,-536.266849
516.445279,2072.576638,-7920.203579,1608.800546
516.445601,5255.462188,-5477.523971,1685.410096
516.445924,9400.615463,-3775.050304,0.000000
516.446246,10955.047942,-3552.988522,153.219100
516.446569,8734.430116,-4885.359217,1532.190996
516.446891,4737.318029,-7254.018232,76.609550
516.447213,592.164754,-9918.759623,-3217.601092
516.447536,-3552.988522,-12657.521608,-4366.744339
516.447858,-7105.977043,-12879.583391,-4366.744339
516.448181,-9252.574275,-13175.665768,-6435.202183
516.448503,-8290.306550,-14656.077652,-6435.202183
516.448826,-6291.750507,-14582.057057,-2834.553343
516.449148,-5181.441594,-13101.645173,-153.219100
516.449471,-3849.070898,-10140.821405,-766.095498
516.449793,-2442.679609,-9400.615463,-995.924147
516.450116,-1998.556043,-8068.244768,-459.657299
516.450438,-1554.432478,-6735.874072,1149.143247
516.450761,-370.102971,-4811.338623,1608.800546
516.451083,2960.823768,-4737.318029,0.000000
516.451405,6291.750507,-5255.462188,-383.047749
516.451728,7624.121203,-6661.853478,2604.724693
516.452050,6809.894666,-6661.853478,4596.572988
516.452373,4811.338623,-7179.997637,1608.800546
516.452695,2960.823768,-10288.862594,-306.438199
516.453018,-666.185348,-11325.150913,0.000000
516.453340,-5107.421000,-9844.739029,-2604.724693
516.453663,-7772.162391,-9474.636058,-5132.839837
516.453985,-5699.585753,-12213.398043,-5515.887586
516.454308,-2812.782580,-14285.974681,-2757.943793
516.454630,-2516.700203,-13323.706956,-153.219100
516.454952,-3256.906145,-11547.212695,1915.238745
516.455275,-2590.720797,-10807.006753,919.314598
516.455597,-1702.473667,-9696.697840,-229.828649
516.455920,-2294.638420,-7994.224174,-612.876398
516.456242,-2294.638420,-4811.338623,-919.314598
516.456565,222.061783,-2072.576638,-2145.067394
516.456887,4071.132681,-2368.659014,-1608.800546
516.457210,5921.647536,-4441.235652,459.657299
516.457532,4885.359217,-6661.853478,842.705048
516.457855,1998.556043,-10362.883188,-842.705048
516.458177,-592.164754,-14952.160028,-1378.971896
516.458500,-3849.070898,-16802.674883,-2451.505594
516.458822,-6883.915261,-14582.057057,-5286.058936
516.459144,-6957.935855,-11029.068536,-7201.297681
516.459467,-2294.638420,-8734.430116,-6894.859482
516.459789,2146.597232,-7476.080014,-4903.011187
516.460112,3478.967927,-9474.636058,-2451.505594
516.460434,1924.535449,-12435.459826,0.000000
516.460757,-666.185348,-15692.365970,229.828649
516.461079,-2294.638420,-15692.365970,76.609550
516.461402,-2072.576638,-12139.377449,-2068.457845
516.461724,1184.329507,-6587.832884,-6358.592633
516.462047,5255.462188,-1702.473667,-6052.154434
516.462369,7105.977043,74.020594,-1378.971896
516.462691,5773.606348,-1184.329507,3064.381992
516.463014,2960.823768,-5995.668130,1532.190996
516.463336,-518.144159,-11695.253884,-3983.696590
516.463659,-5255.462188,-14508.036463,-5822.325785
516.463981,-8808.450710,-15100.201217,-5975.544884
516.464304,-8956.491898,-14137.933492,-7277.907231
516.464626,-5625.565159,-12731.542202,-7584.345430
516.464949,-2664.741391,-11029.068536,-3677.258390
516.465271,-2072.576638,-8586.388927,459.657299
516.465594,-2368.659014,-7476.080014,842.705048
516.465916,-1258.350101,-8956.491898,-2145.067394
516.466239,222.061783,-10584.944971,-3370.820191
516.466561,1184.329507,-10214.842000,-1225.752797
516.466883,2368.659014,-7254.018232,1608.800546
516.467206,5255.462188,-5033.400406,3600.648841
516.467528,8882.471304,-2960.823768,2298.286494
516.467851,9548.656652,-2146.597232,1455.581446
516.468173,6957.935855,-3330.926739,-229.828649
516.468496,4219.173869,-7698.141797,-2528.115143
516.468818,1554.432478,-10807.006753,-2221.676944
516.469141,-2072.576638,-13323.706956,-1072.533697
516.469463,-5551.544565,-13471.748144,-383.047749
516.469785,-7402.059420,-12139.377449,-3064.381992
516.470108,-8364.327145,-11325.150913,-6435.202183
516.470430,-7402.059420,-11991.336260,-4673.182538
516.470753,-6439.791695,-12361.439231,-2221.676944
516.471075,-5995.668130,-10807.006753,-1838.629195
516.471398,-4219.173869,-10658.965565,-919.314598
516.471720,-2368.659014,-10807.006753,459.657299
516.472042,-1110.308913,-9770.718434,1608.800546
516.472365,222.061783,-7179.997637,-536.266849
516.472687,2886.803174,-6661.853478,-1915.238745
516.473010,4737.318029,-6217.729913,-1149.143247
516.473332,5625.565159,-6439.791695,2145.067394
516.473654,5403.503377,-7105.977043,3064.381992
516.473977,5181.441594,-8512.368333,229.828649
516.474299,3404.947333,-11103.089130,-2145.067394
516.474622,-444.123565,-12657.521608,-842.705048
516.474944,-4515.256246,-11769.274478,-689.485948
516.475267,-5773.606348,-12287.418637,-3677.258390
516.475589,-4219.173869,-13471.748144,-5898.935335
516.475911,-2442.679609,-14063.912898,-3140.991542
516.476234,-2960.823768,-11991.336260,536.266849
516.476556,-3552.988522,-9918.759623,1838.629195
516.476879,-2886.803174,-9918.759623,1302.362347
516.477201,-1924.535449,-9178.553681,689.485948
516.477524,-2294.638420,-7105.977043,0.000000
516.477846,-2072.576638,-4145.153275,-995.924147
516.478168,444.123565,-3108.864956,-2221.676944
516.478491,3627.009116,-2442.679609,-306.438199
516.478813,5477.523971,-2960.823768,1072.533697
516.479136,5625.565159,-6217.729913,306.438199
516.479458,4219.173869,-9696.697840,-1225.752797
516.479780,2220.617826,-13101.645173,-2068.457845
516.480103,-1850.514855,-12953.603985,-2451.505594
516.480425,-4885.359217,-11547.212695,-3907.087040
516.480748,-4589.276840,-10955.047942,-5362.668486
516.481070,-2072.576638,-10214.842000,-4596.572988
516.481393,-518.144159,-10140.821405,-1838.629195
516.481715,-148.041188,-10288.862594,153.219100
516.482037,0.000000,-11325.150913,-459.657299
516.482360,962.267725,-12435.459826,-383.047749
516.482682,1036.288319,-10436.903782,536.266849
516.483005,1036.288319,-8364.327145,536.266849
516.483327,2368.659014,-6513.812290,-612.876398
516.483649,5181.441594,-3775.050304,-1378.971896
516.483972,6957.935855,-2220.617826,-1378.971896
516.484294,5921.647536,-2812.782580,-536.266849
