#time,accel_x,accel_y,accel_z
436.555451,-592.164754,-9474.636058,-1608.800546
436.555774,-592.164754,-9548.656652,-1608.800546
436.556096,-666.185348,-9548.656652,-1378.971896
436.556419,-370.102971,-9474.636058,-1378.971896
436.556742,0.000000,-9030.512492,-1685.410096
436.557064,-222.061783,-8882.471304,-1149.143247
436.557387,-148.041188,-8956.491898,-1455.581446
436.557710,-222.061783,-9104.533087,-1149.143247
436.558032,-370.102971,-9252.574275,-1378.971896
436.558355,-444.123565,-9548.656652,-1072.533697
436.558678,-296.082377,-9178.553681,-1302.362347
436.559000,0.000000,-9696.697840,-1455.581446
436.559323,-296.082377,-9104.533087,-1302.362347
436.559646,-296.082377,-8808.450710,-1302.362347
436.559968,0.000000,-9030.512492,-1455.581446
436.560291,0.000000,-8882.471304,-842.705048
436.560614,-148.041188,-9548.656652,-1378.971896
436.560936,-370.102971,-9622.677246,-1608.800546
436.561259,-518.144159,-9548.656652,-1378.971896
436.561582,-444.123565,-9474.636058,-1455.581446
436.561904,0.000000,-9474.636058,-1608.800546
436.562227,0.000000,-9030.512492,-1378.971896
436.562550,-296.082377,-8808.450710,-1608.800546
436.562872,-296.082377,-8956.491898,-1915.238745
436.563195,-370.102971,-9326.594869,-1608.800546
436.563518,-592.164754,-9548.656652,-1991.848295
436.563840,-888.247130,-9622.677246,-1915.238745
436.564163,-666.185348,-9696.697840,-1532.190996
436.564486,-518.144159,-9548.656652,-1762.019645
436.564808,-148.041188,-9400.615463,-1838.629195
436.565131,0.000000,-9104.533087,-1915.238745
436.565454,-74.020594,-8956.491898,-1532.190996
436.565776,0.000000,-9326.594869,-1838.629195
436.566099,-296.082377,-9622.677246,-1838.629195
436.566422,-592.164754,-9696.697840,-2068.457845
436.566744,-592.164754,-9918.759623,-1838.629195
436.567067,-518.144159,-9474.636058,-1685.410096
436.567390,-370.102971,-9030.512492,-1685.410096
436.567712,0.000000,-9178.553681,-1685.410096
436.568035,0.000000,-9178.553681,-1532.190996
436.568358,-296.082377,-9326.594869,-1608.800546
436.568680,-666.185348,-9622.677246,-1762.019645
436.569003,-962.267725,-9918.759623,-1762.019645
436.569326,-592.164754,-9474.636058,-1762.019645
436.569648,-592.164754,-9326.594869,-1762.019645
436.569971,0.000000,-9178.553681,-1762.019645
436.570294,0.000000,-9030.512492,-1685.410096
436.570616,-148.041188,-8808.450710,-1838.629195
436.570939,-592.164754,-8956.491898,-995.924147
436.571262,-814.226536,-9474.636058,-1685.410096
436.571584,-962.267725,-9696.697840,-1685.410096
436.571907,-666.185348,-9696.697840,-1455.581446
436.572230,-518.144159,-9474.636058,-1455.581446
436.572552,-296.082377,-9104.533087,-995.924147
436.572875,740.205942,-8956.491898,-1762.019645
436.573198,1998.556043,-9400.615463,-1838.629195
436.573520,2516.700203,-9622.677246,-1072.533697
436.573843,2072.576638,-9252.574275,0.000000
436.574166,814.226536,-8808.450710,-612.876398
436.574488,148.041188,-9178.553681,-2068.457845
436.574811,-1184.329507,-9474.636058,-2221.676944
436.575134,-2072.576638,-9622.677246,-1838.629195
436.575456,-3182.885551,-9474.636058,-1915.238745
436.575779,-3034.844362,-9326.594869,-2374.896044
436.576102,-1110.308913,-9992.780217,-2145.067394
436.576424,1258.350101,-10955.047942,-1991.848295
436.576747,2960.823768,-11103.089130,-689.485948
436.577070,2738.761985,-9696.697840,229.828649
436.577392,2368.659014,-8142.265362,0.000000
436.577715,2664.741391,-8364.327145,-1915.238745
436.578038,3330.926739,-9548.656652,-2145.067394
436.578360,2442.679609,-9770.718434,-1608.800546
436.578683,518.144159,-8512.368333,-153.219100
436.579006,-222.061783,-7550.100608,-153.219100
436.579328,1110.308913,-8512.368333,-2221.676944
436.579651,1554.432478,-9918.759623,-2451.505594
436.579974,0.000000,-9844.739029,-612.876398
436.580296,-1258.350101,-9030.512492,-229.828649
436.580619,-1036.288319,-8956.491898,-2757.943793
436.580942,74.020594,-9252.574275,-3677.258390
436.581264,296.082377,-9548.656652,-1685.410096
436.581587,444.123565,-10881.027347,-612.876398
436.581910,1184.329507,-10510.924376,-1915.238745
436.582232,2590.720797,-9326.594869,-2451.505594
436.582555,3997.112087,-10214.842000,-1302.362347
436.582878,4737.318029,-10658.965565,306.438199
436.583200,4219.173869,-9844.739029,-1378.971896
436.583523,2960.823768,-7772.162391,-1532.190996
436.583846,2590.720797,-8142.265362,-995.924147
436.584168,2368.659014,-8734.430116,-1072.533697
436.584491,1776.494261,-8586.388927,-1302.362347
436.584814,592.164754,-8068.244768,-1225.752797
436.585136,1036.288319,-9326.594869,-919.314598
436.585459,2516.700203,-10288.862594,-1225.752797
436.585782,3182.885551,-9474.636058,-1685.410096
436.586104,2368.659014,-8882.471304,-2068.457845
436.586427,2960.823768,-9622.677246,-2068.457845
436.586750,3108.864956,-9770.718434,-612.876398
436.587072,2664.741391,-9844.739029,-1991.848295
436.587395,1850.514855,-9696.697840,-2374.896044
436.587718,2072.576638,-10658.965565,-1991.848295
436.588040,2960.823768,-10066.800811,-689.485948
436.588363,2738.761985,-8586.388927,-1225.752797
436.588686,2220.617826,-9030.512492,-1762.019645
436.589008,2072.576638,-9030.512492,-842.705048
436.589331,1554.432478,-8290.306550,-536.266849
436.589654,370.102971,-7994.224174,-1532.190996
436.589976,-518.144159,-8364.327145,-1838.629195
436.590299,-518.144159,-9622.677246,-1991.848295
436.590622,-592.164754,-9844.739029,-1302.362347
436.590944,0.000000,-10732.986159,-1072.533697
436.591267,148.041188,-11103.089130,-1225.752797
436.591590,1110.308913,-10362.883188,-1072.533697
436.591912,2220.617826,-10362.883188,-1149.143247
436.592235,2368.659014,-9770.718434,-1455.581446
436.592558,2294.638420,-9252.574275,-1455.581446
436.592880,1702.473667,-8364.327145,-1378.971896
436.593203,1406.391290,-7698.141797,-689.485948
436.593526,1332.370696,-8512.368333,-1302.362347
436.593848,1480.411884,-9178.553681,-2145.067394
436.594171,1554.432478,-9474.636058,-1532.190996
436.594494,1332.370696,-9104.533087,-612.876398
436.594816,1702.473667,-8512.368333,-1072.533697
436.595139,2368.659014,-8808.450710,-1838.629195
436.595462,2442.679609,-8882.471304,-1915.238745
436.595784,2146.597232,-9622.677246,-1225.752797
436.596107,1406.391290,-9400.615463,-1225.752797
436.596430,962.267725,-9474.636058,-1838.629195
436.596752,740.205942,-10140.821405,-2221.676944
436.597075,444.123565,-10955.047942,-1378.971896
436.597398,222.061783,-11103.089130,-1072.533697
436.597720,148.041188,-10732.986159,-919.314598
436.598043,740.205942,-10362.883188,-1302.362347
436.598365,1998.556043,-9178.553681,-995.924147
436.598688,2812.782580,-8808.450710,-1072.533697
436.599011,3330.926739,-8438.347739,-1072.533697
436.599333,4441.235652,-7772.162391,-1685.410096
436.599656,5699.585753,-7402.059420,-1915.238745
436.599979,6883.915261,-8216.285956,-1762.019645
436.600301,6957.935855,-8586.388927,-689.485948
436.600624,5847.626942,-9992.780217,-766.095498
436.600947,4737.318029,-10510.924376,-1225.752797
436.601269,3478.967927,-11177.109724,-1762.019645
436.601592,2442.679609,-11399.171507,-1532.190996
436.601915,1184.329507,-10140.821405,-1378.971896
436.602237,0.000000,-8586.388927,-536.266849
436.602560,-444.123565,-7994.224174,-229.828649
436.602883,-740.205942,-7328.038826,0.000000
436.603205,-370.102971,-7105.977043,-612.876398
436.603528,-222.061783,-6809.894666,-1378.971896
436.603851,444.123565,-7254.018232,-1838.629195
436.604173,814.226536,-8438.347739,-919.314598
436.604496,1258.350101,-9770.718434,-612.876398
436.604819,1406.391290,-10510.924376,-1225.752797
436.605141,814.226536,-10362.883188,-1685.410096
436.605464,1036.288319,-9844.739029,-2221.676944
436.605787,814.226536,-9400.615463,-2451.505594
436.606109,888.247130,-9400.615463,-3217.601092
436.606432,-370.102971,-9474.636058,-2757.943793
436.606755,-1776.494261,-10436.903782,-1915.238745
436.607077,-3034.844362,-11769.274478,-1838.629195
436.607400,-4663.297435,-11769.274478,-1915.238745
436.607723,-4885.359217,-11695.253884,-2221.676944
436.608045,-4293.194464,-11103.089130,-2298.286494
436.608368,-1924.535449,-10066.800811,-2221.676944
436.608691,-222.061783,-8216.285956,-1225.752797
436.609013,888.247130,-6661.853478,459.657299
436.609336,2368.659014,-7698.141797,-766.095498
436.609659,4071.132681,-8068.244768,-1838.629195
436.609981,5181.441594,-8882.471304,-2681.334243
436.610304,5699.585753,-9696.697840,-1915.238745
436.610627,5847.626942,-9548.656652,-229.828649
436.610949,6735.874072,-9474.636058,-1532.190996
436.611272,7179.997637,-10658.965565,-2681.334243
436.611595,7254.018232,-11547.212695,-2068.457845
436.611917,5847.626942,-9992.780217,-536.266849
436.612240,2664.741391,-8882.471304,-229.828649
436.612563,518.144159,-8364.327145,0.000000
436.612885,-3034.844362,-9252.574275,-459.657299
436.613208,-6587.832884,-8660.409521,-842.705048
436.613531,-9030.512492,-8734.430116,-1072.533697
436.613853,-9622.677246,-8068.244768,-3140.991542
436.614176,-7402.059420,-8956.491898,-4136.915689
436.614499,-2886.803174,-9104.533087,-2681.334243
436.614821,1628.453072,-8438.347739,-2221.676944
436.615144,5329.482782,-10510.924376,-3217.601092
436.615467,9474.636058,-11917.315666,-1762.019645
436.615789,12139.377449,-11547.212695,-306.438199
436.616112,13545.768739,-9622.677246,-1302.362347
436.616435,12879.583391,-8512.368333,-1838.629195
436.616757,12361.439231,-7994.224174,-1149.143247
436.617080,10362.883188,-8438.347739,-1225.752797
436.617403,7994.224174,-8882.471304,76.609550
436.617725,4441.235652,-10510.924376,1302.362347
436.618048,962.267725,-10214.842000,229.828649
436.618371,-2294.638420,-10362.883188,0.000000
436.618693,-5033.400406,-10140.821405,1608.800546
436.619016,-8364.327145,-8068.244768,2451.505594
436.619339,-9326.594869,-4145.153275,842.705048
436.619661,-8438.347739,-4219.173869,-1762.019645
436.619984,-4885.359217,-6661.853478,-3524.039291
436.620307,-666.185348,-9104.533087,-4749.792088
436.620629,2960.823768,-12731.542202,-4443.353888
436.620952,6143.709319,-15100.201217,-1302.362347
436.621275,8364.327145,-15174.221811,-919.314598
436.621597,8882.471304,-13249.686362,-2374.896044
436.621920,7920.203579,-10140.821405,-2987.772442
436.622242,5699.585753,-7402.059420,-3830.477490
436.622565,3330.926739,-6069.688724,-5362.668486
436.622887,888.247130,-5551.544565,-4673.182538
436.623210,-2146.597232,-6143.709319,-2374.896044
436.623532,-3923.091493,-9030.512492,306.438199
436.623854,-5773.606348,-12287.418637,1838.629195
436.624177,-6883.915261,-14063.912898,1225.752797
436.624499,-7698.141797,-10807.006753,689.485948
436.624821,-6957.935855,-8438.347739,-995.924147
436.625144,-3256.906145,-7846.182985,-1225.752797
436.625466,3256.906145,-8068.244768,-919.314598
436.625789,8068.244768,-6661.853478,-2451.505594
436.626111,9696.697840,-8512.368333,-3217.601092
436.626433,9918.759623,-12065.356855,1378.971896
436.626756,8438.347739,-12657.521608,2834.553343
436.627078,5699.585753,-10584.944971,-3600.648841
436.627400,1850.514855,-10140.821405,-8350.440928
436.627723,-2146.597232,-10288.862594,-7048.078582
436.628045,-7402.059420,-10584.944971,-2987.772442
436.628368,-12213.398043,-9992.780217,1762.019645
436.628690,-15026.180623,-7031.956449,536.266849
436.629012,-12361.439231,-6513.812290,-4136.915689
436.629335,-8660.409521,-5403.503377,-4519.963438
436.629657,-6439.791695,-7402.059420,-2451.505594
436.629979,-3849.070898,-9252.574275,1302.362347
436.630302,74.020594,-9696.697840,1838.629195
436.630624,4663.297435,-9104.533087,842.705048
436.630947,6217.729913,-7179.997637,459.657299
436.631269,3849.070898,-7105.977043,-612.876398
436.631591,888.247130,-8660.409521,-1608.800546
436.631914,-518.144159,-11251.130318,-3064.381992
436.632236,-148.041188,-10955.047942,-4443.353888
436.632559,-222.061783,-9400.615463,-4903.011187
436.632881,148.041188,-10362.883188,-3294.210641
436.633203,0.000000,-9770.718434,-2451.505594
436.633526,888.247130,-10214.842000,-2604.724693
436.633848,148.041188,-10362.883188,-3294.210641
436.634170,-666.185348,-12361.439231,-2068.457845
436.634493,-740.205942,-12065.356855,-1378.971896
436.634815,370.102971,-9252.574275,-1149.143247
436.635138,2294.638420,-9178.553681,153.219100
436.635460,2886.803174,-9474.636058,612.876398
436.635782,2072.576638,-9474.636058,1072.533697
436.636105,666.185348,-8956.491898,1302.362347
436.636427,222.061783,-8734.430116,536.266849
436.636749,222.061783,-8364.327145,-1302.362347
436.637072,962.267725,-6735.874072,-2911.162892
436.637394,814.226536,-6217.729913,-2911.162892
436.637717,1184.329507,-7402.059420,-1378.971896
436.638039,1258.350101,-8956.491898,-1302.362347
436.638361,1036.288319,-10288.862594,-2298.286494
436.638684,296.082377,-10066.800811,-4060.306139
436.639006,-888.247130,-10436.903782,-3983.696590
436.639328,-1258.350101,-11843.295072,-3140.991542
436.639651,-1776.494261,-12583.501014,-2451.505594
436.639973,-2146.597232,-13027.624579,-919.314598
436.640296,-2368.659014,-11473.192101,766.095498
436.640618,-1702.473667,-9252.574275,689.485948
436.640940,-592.164754,-6957.935855,-536.266849
436.641263,1184.329507,-5699.585753,-1532.190996
436.641585,3256.906145,-6735.874072,0.000000
436.641908,4441.235652,-7105.977043,2145.067394
436.642230,4441.235652,-6735.874072,2757.943793
436.642552,3552.988522,-7179.997637,1685.410096
436.642875,3034.844362,-8586.388927,76.609550
436.643197,1850.514855,-9770.718434,-1762.019645
436.643519,-148.041188,-10362.883188,-2757.943793
436.643842,-1480.411884,-11325.150913,-2451.505594
436.644164,-3182.885551,-11103.089130,-1685.410096
436.644487,-3849.070898,-10955.047942,-1072.533697
436.644809,-4219.173869,-10362.883188,-1915.238745
436.645131,-4441.235652,-9918.759623,-3600.648841
436.645454,-3997.112087,-9474.636058,-3064.381992
436.645776,-3108.864956,-9178.553681,-1762.019645
436.646098,-1924.535449,-8068.244768,-1685.410096
436.646421,148.041188,-7476.080014,-1455.581446
436.646743,1036.288319,-7105.977043,-1608.800546
436.647066,1258.350101,-6735.874072,-1838.629195
436.647388,0.000000,-7846.182985,-1378.971896
436.647710,-1480.411884,-9474.636058,-2451.505594
436.648033,-2368.659014,-11769.274478,-3294.210641
436.648355,-2960.823768,-12213.398043,-3217.601092
436.648677,-3330.926739,-11695.253884,-2528.115143
436.649000,-2516.700203,-9770.718434,-1915.238745
436.649322,-1554.432478,-9992.780217,-2987.772442
436.649645,-666.185348,-9030.512492,-2451.505594
436.649967,-370.102971,-9400.615463,-1762.019645
436.650289,-222.061783,-10066.800811,-1225.752797
436.650612,1480.411884,-11251.130318,-1915.238745
436.650934,2960.823768,-11251.130318,-1532.190996
436.651257,3256.906145,-11029.068536,-2221.676944
436.651579,3108.864956,-11769.274478,-612.876398
436.651901,1702.473667,-11029.068536,1149.143247
436.652224,-814.226536,-8882.471304,1532.190996
436.652546,-3108.864956,-7254.018232,-459.657299
436.652868,-3552.988522,-6587.832884,-2298.286494
436.653191,-3256.906145,-5255.462188,-3370.820191
436.653513,-3330.926739,-4515.256246,-3370.820191
436.653836,-3478.967927,-5773.606348,-2451.505594
436.654158,-2812.782580,-7550.100608,-1532.190996
436.654480,-1702.473667,-9104.533087,-2374.896044
436.654803,-814.226536,-10066.800811,-3217.601092
436.655125,-592.164754,-11473.192101,-4060.306139
436.655447,-1332.370696,-11991.336260,-3983.696590
436.655770,-1628.453072,-12213.398043,-2757.943793
436.656092,-1332.370696,-12139.377449,-1532.190996
436.656415,-666.185348,-11621.233289,-1302.362347
436.656737,222.061783,-9548.656652,-1608.800546
436.657059,962.267725,-7920.203579,-1532.190996
436.657382,1998.556043,-7254.018232,-1225.752797
436.657704,2664.741391,-7846.182985,0.000000
436.658027,3775.050304,-8216.285956,612.876398
436.658349,3923.091493,-8290.306550,1302.362347
436.658671,4367.215058,-8142.265362,766.095498
436.658994,4959.379811,-8586.388927,-536.266849
436.659316,3997.112087,-8882.471304,-766.095498
436.659638,2812.782580,-10807.006753,-229.828649
436.659961,962.267725,-11621.233289,766.095498
436.660283,-666.185348,-11843.295072,-306.438199
436.660606,-2516.700203,-11103.089130,-1302.362347
436.660928,-3627.009116,-10732.986159,-1608.800546
436.661250,-3627.009116,-9622.677246,-2681.334243
436.661573,-2886.803174,-8882.471304,-4060.306139
436.661895,-2368.659014,-7254.018232,-3677.258390
436.662217,-1406.391290,-7476.080014,-1838.629195
436.662540,296.082377,-7994.224174,-1302.362347
436.662862,1184.329507,-7846.182985,-2221.676944
436.663185,888.247130,-8882.471304,-2604.724693
436.663507,-148.041188,-9770.718434,-1991.848295
436.663829,-1406.391290,-10066.800811,-1302.362347
436.664152,-2072.576638,-9918.759623,-2068.457845
436.664474,-2590.720797,-9474.636058,-2451.505594
436.664796,-2664.741391,-9474.636058,-1915.238745
436.665119,-2368.659014,-9474.636058,-1608.800546
436.665441,-1924.535449,-8956.491898,-1455.581446
436.665764,-1406.391290,-9030.512492,-2145.067394
436.666086,-370.102971,-9474.636058,-1302.362347
436.666408,814.226536,-10510.924376,-306.438199
436.666731,1554.432478,-10436.903782,-306.438199
436.667053,2516.700203,-9770.718434,-1302.362347
436.667376,3034.844362,-9622.677246,-919.314598
436.667698,3256.906145,-9474.636058,0.000000
436.668020,2146.597232,-9622.677246,383.047749
436.668343,888.247130,-11251.130318,-995.924147
436.668665,0.000000,-11029.068536,-1378.971896
436.668987,-1184.329507,-10214.842000,-919.314598
436.669310,-2738.761985,-8364.327145,-1149.143247
436.669632,-3849.070898,-6809.894666,-1685.410096
436.669955,-4367.215058,-5403.503377,-1915.238745
436.670277,-4219.173869,-5181.441594,-2987.772442
436.670599,-3775.050304,-5995.668130,-3294.210641
436.670922,-3330.926739,-7476.080014,-3447.429741
436.671244,-2664.741391,-9474.636058,-3370.820191
436.671566,-2886.803174,-10584.944971,-1915.238745
436.671889,-3330.926739,-11177.109724,-2298.286494
436.672211,-3552.988522,-12287.418637,-3447.429741
436.672534,-3849.070898,-12657.521608,-3677.258390
436.672856,-4071.132681,-11251.130318,-2911.162892
436.673178,-3330.926739,-9548.656652,-2681.334243
436.673501,-1258.350101,-8364.327145,-2451.505594
436.673823,444.123565,-7994.224174,-2451.505594
436.674145,2368.659014,-9030.512492,-1072.533697
436.674468,3552.988522,-9474.636058,306.438199
436.674790,4515.256246,-9770.718434,612.876398
436.675113,5625.565159,-9030.512492,-459.657299
436.675435,6365.771101,-9844.739029,-612.876398
436.675757,6365.771101,-10288.862594,-383.047749
436.676080,5255.462188,-10807.006753,76.609550
436.676402,3108.864956,-10732.986159,689.485948
436.676725,1184.329507,-10510.924376,383.047749
436.677047,-1036.288319,-9770.718434,-306.438199
436.677369,-3108.864956,-8956.491898,-1838.629195
436.677692,-4293.194464,-7994.224174,-3217.601092
436.678014,-3552.988522,-7550.100608,-3830.477490
436.678336,-2812.782580,-7254.018232,-2911.162892
436.678659,-1924.535449,-7624.121203,-2604.724693
436.678981,-1036.288319,-8216.285956,-2221.676944
436.679304,-148.041188,-9104.533087,-2145.067394
436.679626,-592.164754,-10732.986159,-2451.505594
436.679948,-1480.411884,-11029.068536,-2298.286494
436.680271,-2220.617826,-11251.130318,-2145.067394
436.680593,-2220.617826,-10955.047942,-2604.724693
436.680915,-1110.308913,-10214.842000,-1608.800546
436.681238,-962.267725,-8364.327145,-459.657299
436.681560,-666.185348,-7254.018232,0.000000
436.681883,518.144159,-6735.874072,0.000000
436.682205,1110.308913,-6365.771101,-1378.971896
436.682527,2072.576638,-8290.306550,-459.657299
436.682850,2812.782580,-9844.739029,459.657299
436.683172,3182.885551,-9474.636058,842.705048
436.683494,3997.112087,-9474.636058,229.828649
436.683817,4441.235652,-10066.800811,0.000000
436.684139,3108.864956,-10214.842000,76.609550
436.684462,888.247130,-10362.883188,-306.438199
436.684784,-1480.411884,-10658.965565,-1149.143247
436.685106,-3923.091493,-10584.944971,-1685.410096
436.685429,-5477.523971,-9474.636058,-2451.505594
436.685751,-6883.915261,-8364.327145,-3294.210641
436.686074,-6069.688724,-8216.285956,-4443.353888
436.686396,-5033.400406,-8438.347739,-4443.353888
436.686718,-4219.173869,-8290.306550,-2757.943793
436.687041,-3256.906145,-8290.306550,-1608.800546
436.687363,-2072.576638,-9400.615463,-1685.410096
436.687685,-1332.370696,-9474.636058,-2757.943793
436.688008,-1332.370696,-9252.574275,-2681.334243
436.688330,-1850.514855,-9918.759623,-2528.115143
436.688653,-1776.494261,-10510.924376,-2451.505594
436.688975,-1554.432478,-10288.862594,-1762.019645
436.689297,-1628.453072,-9992.780217,-1149.143247
436.689620,-1480.411884,-9622.677246,-842.705048
436.689942,-518.144159,-8660.409521,-1991.848295
436.690264,666.185348,-8364.327145,-2451.505594
436.690587,1258.350101,-8660.409521,-995.924147
436.690909,2368.659014,-9770.718434,-842.705048
436.691232,2960.823768,-9622.677246,0.000000
436.691554,3923.091493,-9474.636058,-383.047749
436.691876,4145.153275,-9770.718434,-1302.362347
436.692199,3552.988522,-10732.986159,-1915.238745
436.692521,1702.473667,-10732.986159,-383.047749
436.692844,-296.082377,-11473.192101,-306.438199
436.693166,-2146.597232,-11399.171507,-766.095498
436.693488,-3478.967927,-10436.903782,-1378.971896
436.693811,-3997.112087,-8142.265362,-2451.505594
436.694133,-4145.153275,-6439.791695,-2987.772442
436.694455,-2146.597232,-7105.977043,-2757.943793
436.694778,-962.267725,-6291.750507,-1685.410096
436.695100,-370.102971,-6883.915261,-1225.752797
436.695423,148.041188,-7846.182985,-1608.800546
436.695745,518.144159,-9400.615463,-1915.238745
436.696067,296.082377,-10362.883188,-2145.067394
436.696390,-444.123565,-10510.924376,-2681.334243
436.696712,-888.247130,-11547.212695,-2987.772442
436.697034,-592.164754,-11029.068536,-2374.896044
436.697357,-518.144159,-10510.924376,-1149.143247
436.697679,0.000000,-8660.409521,0.000000
436.698002,222.061783,-7994.224174,-1225.752797
436.698324,1332.370696,-8068.244768,-2451.505594
436.698646,1628.453072,-8586.388927,-2068.457845
436.698969,1924.535449,-9548.656652,-229.828649
436.699291,2590.720797,-9770.718434,612.876398
436.699613,3182.885551,-9178.553681,76.609550
436.699936,3627.009116,-9474.636058,-153.219100
436.700258,3256.906145,-10510.924376,-306.438199
436.700581,1924.535449,-11325.150913,0.000000
436.700903,148.041188,-10881.027347,229.828649
436.701225,-1332.370696,-10732.986159,-995.924147
436.701548,-2590.720797,-9474.636058,-1378.971896
436.701870,-2812.782580,-8068.244768,-2451.505594
436.702193,-2516.700203,-7328.038826,-3064.381992
436.702515,-2960.823768,-7179.997637,-2987.772442
436.702837,-2590.720797,-7846.182985,-2068.457845
436.703160,-2294.638420,-8512.368333,-1915.238745
436.703482,-1332.370696,-9992.780217,-2145.067394
436.703804,-592.164754,-11177.109724,-2681.334243
436.704127,-592.164754,-10584.944971,-2374.896044
436.704449,-814.226536,-9992.780217,-2221.676944
436.704772,-1776.494261,-9030.512492,-1991.848295
436.705094,-2072.576638,-9252.574275,-1991.848295
436.705416,-2664.741391,-8956.491898,-2298.286494
436.705739,-3478.967927,-8956.491898,-1762.019645
436.706061,-3478.967927,-8512.368333,-1685.410096
436.706383,-2442.679609,-8364.327145,-2681.334243
436.706706,-370.102971,-9622.677246,-2451.505594
436.707028,888.247130,-9992.780217,-536.266849
436.707351,1924.535449,-8882.471304,536.266849
436.707673,3552.988522,-8586.388927,-229.828649
436.707995,5181.441594,-8586.388927,-1685.410096
436.708318,4811.338623,-9918.759623,-1685.410096
436.708640,2960.823768,-10140.821405,-612.876398
436.708962,518.144159,-10955.047942,0.000000
436.709285,-1258.350101,-11769.274478,-689.485948
436.709607,-2590.720797,-10732.986159,-1838.629195
436.709930,-3627.009116,-9178.553681,-1378.971896
436.710252,-5033.400406,-7105.977043,-2145.067394
436.710574,-4663.297435,-6883.915261,-2451.505594
436.710897,-4071.132681,-6217.729913,-2834.553343
436.711219,-2960.823768,-6957.935855,-2451.505594
436.711542,-2368.659014,-7550.100608,-2221.676944
436.711864,-1036.288319,-8364.327145,-2834.553343
436.712186,-592.164754,-9992.780217,-3064.381992
436.712509,-666.185348,-11473.192101,-2911.162892
436.712831,-1110.308913,-12287.418637,-3064.381992
436.713153,-1184.329507,-12361.439231,-3370.820191
436.713476,-1924.535449,-11103.089130,-3294.210641
436.713798,-2516.700203,-9770.718434,-2145.067394
436.714121,-2812.782580,-8438.347739,-1762.019645
436.714443,-1184.329507,-7994.224174,-2604.724693
436.714765,1184.329507,-8882.471304,-3064.381992
436.715088,3552.988522,-9844.739029,-1532.190996
436.715410,4737.318029,-10362.883188,1149.143247
436.715732,6439.791695,-9622.677246,2145.067394
436.716055,7698.141797,-8660.409521,842.705048
436.716377,7624.121203,-8660.409521,153.219100
436.716700,5255.462188,-9400.615463,1225.752797
436.717022,2886.803174,-9918.759623,1225.752797
436.717344,148.041188,-11177.109724,-459.657299
436.717667,-2146.597232,-11251.130318,-766.095498
436.717989,-3404.947333,-9622.677246,-919.314598
436.718311,-3997.112087,-7698.141797,-1762.019645
436.718634,-4293.194464,-8068.244768,-2374.896044
436.718956,-3108.864956,-7402.059420,-2451.505594
436.719279,-2960.823768,-6735.874072,-2374.896044
436.719601,-2812.782580,-7402.059420,-2451.505594
436.719923,-2738.761985,-9178.553681,-2528.115143
436.720246,-2072.576638,-10362.883188,-3447.429741
436.720568,-1628.453072,-10955.047942,-3447.429741
436.720891,-1702.473667,-10140.821405,-2681.334243
436.721213,-1480.411884,-11325.150913,-1838.629195
436.721535,-1110.308913,-11177.109724,-919.314598
436.721858,-1110.308913,-9844.739029,-919.314598
436.722176,-1850.514855,-8512.368333,-766.095498
436.722498,-814.226536,-7476.080014,-1762.019645
436.722821,148.041188,-6439.791695,-1991.848295
436.723143,1850.514855,-6957.935855,-919.314598
436.723465,3108.864956,-7994.224174,766.095498
436.723787,4293.194464,-9104.533087,1455.581446
436.724110,5181.441594,-10066.800811,1072.533697
436.724432,5773.606348,-10955.047942,229.828649
436.724754,4663.297435,-11177.109724,-919.314598
436.725077,2516.700203,-11177.109724,-766.095498
436.725399,222.061783,-10658.965565,766.095498
436.725721,-1998.556043,-10436.903782,-383.047749
436.726043,-4145.153275,-9474.636058,-1762.019645
436.726366,-5625.565159,-8142.265362,-3064.381992
436.726688,-6513.812290,-6735.874072,-4136.915689
436.727010,-5107.421000,-8290.306550,-4596.572988
436.727333,-4441.235652,-7328.038826,-3600.648841
436.727655,-3849.070898,-8660.409521,-2834.553343
436.727977,-2664.741391,-8734.430116,-2834.553343
436.728299,-1184.329507,-9474.636058,-3217.601092
436.728622,-1036.288319,-9622.677246,-3217.601092
436.728944,-1776.494261,-9400.615463,-3753.867940
436.729266,-1702.473667,-10732.986159,-3753.867940
436.729589,-1184.329507,-12139.377449,-3907.087040
436.729911,-1480.411884,-12139.377449,-2834.553343
436.730233,-1110.308913,-11473.192101,-1149.143247
436.730556,-592.164754,-9326.594869,-995.924147
436.730878,74.020594,-7105.977043,-1991.848295
436.731200,2294.638420,-7550.100608,-2298.286494
436.731522,3849.070898,-7994.224174,-1149.143247
436.731845,4737.318029,-8216.285956,612.876398
436.732167,6217.729913,-8068.244768,919.314598
436.732489,6735.874072,-8882.471304,536.266849
436.732812,6291.750507,-10807.006753,459.657299
436.733134,4367.215058,-11769.274478,1149.143247
436.733456,1332.370696,-11695.253884,306.438199
436.733778,-1406.391290,-11251.130318,-766.095498
436.734101,-3627.009116,-10066.800811,-1685.410096
436.734423,-5107.421000,-7772.162391,-2681.334243
436.734745,-5107.421000,-6439.791695,-3370.820191
436.735068,-4737.318029,-7328.038826,-4290.134789
436.735390,-3478.967927,-8438.347739,-3140.991542
436.735712,-2886.803174,-8808.450710,-1762.019645
436.736034,-3330.926739,-9326.594869,-1915.238745
436.736357,-1924.535449,-10066.800811,-2987.772442
436.736679,-444.123565,-10584.944971,-3447.429741
436.737001,-592.164754,-9770.718434,-3217.601092
436.737324,-1110.308913,-9326.594869,-2451.505594
436.737646,-1332.370696,-10362.883188,-1532.190996
436.737968,-296.082377,-9844.739029,-766.095498
436.738290,-296.082377,-9844.739029,0.000000
436.738613,-444.123565,-8956.491898,0.000000
436.738935,370.102971,-7772.162391,-766.095498
436.739257,1258.350101,-6809.894666,-995.924147
436.739580,2516.700203,-8290.306550,0.000000
436.739902,3552.988522,-8882.471304,1225.752797
436.740224,3997.112087,-8364.327145,1149.143247
436.740546,4589.276840,-8808.450710,459.657299
436.740869,4515.256246,-10510.924376,-383.047749
436.741191,3182.885551,-11621.233289,-919.314598
436.741513,0.000000,-12287.418637,-766.095498
436.741836,-2516.700203,-12657.521608,-536.266849
436.742158,-4811.338623,-11251.130318,-1378.971896
436.742480,-5477.523971,-9326.594869,-2604.724693
436.742803,-5329.482782,-7994.224174,-3140.991542
436.743125,-5477.523971,-6217.729913,-4366.744339
436.743447,-4219.173869,-6735.874072,-3753.867940
436.743769,-3256.906145,-7624.121203,-2528.115143
436.744092,-1776.494261,-9474.636058,-1532.190996
436.744414,-666.185348,-9770.718434,-1455.581446
436.744736,518.144159,-9548.656652,-2068.457845
436.745059,222.061783,-9474.636058,-2528.115143
436.745381,148.041188,-9400.615463,-2068.457845
436.745703,74.020594,-9844.739029,-2145.067394
436.746025,444.123565,-9548.656652,-1378.971896
436.746348,370.102971,-9918.759623,-229.828649
436.746670,-148.041188,-9844.739029,0.000000
436.746992,74.020594,-8808.450710,-842.705048
436.747315,814.226536,-8882.471304,-1838.629195
436.747637,1332.370696,-8956.491898,-1302.362347
436.747959,2220.617826,-9252.574275,0.000000
436.748281,2516.700203,-8068.244768,0.000000
436.748604,3552.988522,-7920.203579,-689.485948
436.748926,4589.276840,-9326.594869,-1762.019645
436.749248,4441.235652,-10881.027347,-1685.410096
436.749571,3034.844362,-11917.315666,-612.876398
436.749893,888.247130,-12065.356855,-459.657299
436.750215,-962.267725,-11547.212695,-766.095498
436.750537,-3034.844362,-10214.842000,-1378.971896
436.750860,-4811.338623,-7846.182985,-2528.115143
436.751182,-5329.482782,-6069.688724,-3677.258390
436.751504,-5847.626942,-5329.482782,-4826.401637
436.751827,-4515.256246,-5995.668130,-3524.039291
436.752149,-3182.885551,-7328.038826,-2451.505594
436.752471,-1554.432478,-9178.553681,-2451.505594
436.752793,-740.205942,-10881.027347,-2374.896044
436.753116,-222.061783,-11103.089130,-2145.067394
436.753438,-1036.288319,-10881.027347,-2911.162892
436.753760,-1702.473667,-10881.027347,-3677.258390
436.754083,-1406.391290,-11251.130318,-3600.648841
436.754405,-1110.308913,-10955.047942,-2604.724693
436.754727,-888.247130,-10362.883188,-1378.971896
436.755050,-148.041188,-9548.656652,-1072.533697
436.755372,1480.411884,-8956.491898,-1225.752797
436.755694,2368.659014,-8512.368333,-1455.581446
436.756016,2738.761985,-8882.471304,0.000000
436.756339,3404.947333,-8882.471304,1149.143247
436.756661,4071.132681,-8290.306550,1149.143247
436.756983,3997.112087,-8216.285956,0.000000
436.757306,3627.009116,-9474.636058,0.000000
436.757628,1998.556043,-10584.944971,-153.219100
436.757950,-518.144159,-11769.274478,0.000000
436.758272,-2516.700203,-12213.398043,0.000000
436.758595,-3775.050304,-10807.006753,-1072.533697
436.758917,-4885.359217,-9400.615463,-2221.676944
436.759239,-4737.318029,-7624.121203,-2987.772442
436.759562,-5477.523971,-5995.668130,-3217.601092
436.759884,-4737.318029,-6365.771101,-2451.505594
436.760206,-4441.235652,-6661.853478,-2451.505594
436.760528,-3404.947333,-8142.265362,-2604.724693
436.760851,-2368.659014,-9622.677246,-2987.772442
436.761173,-1110.308913,-10510.924376,-2451.505594
436.761495,-814.226536,-10881.027347,-1608.800546
436.761818,-370.102971,-10436.903782,-1455.581446
436.762140,0.000000,-10140.821405,-1455.581446
436.762462,222.061783,-9622.677246,-1225.752797
436.762784,222.061783,-8808.450710,-306.438199
436.763107,222.061783,-7994.224174,-383.047749
436.763429,1554.432478,-7846.182985,-536.266849
436.763751,2146.597232,-8512.368333,-919.314598
436.764074,3552.988522,-9474.636058,0.000000
436.764396,3775.050304,-9474.636058,919.314598
436.764718,3923.091493,-9252.574275,612.876398
436.765041,4441.235652,-8660.409521,153.219100
436.765363,4071.132681,-9548.656652,-842.705048
436.765685,3108.864956,-10288.862594,-1532.190996
436.766007,1406.391290,-11029.068536,-1378.971896
436.766330,-444.123565,-11325.150913,-689.485948
436.766652,-1628.453072,-11251.130318,-1149.143247
436.766974,-2146.597232,-10140.821405,-2298.286494
436.767297,-3256.906145,-9400.615463,-3447.429741
436.767619,-3330.926739,-8216.285956,-3753.867940
436.767941,-3108.864956,-7698.141797,-2987.772442
436.768263,-2886.803174,-7920.203579,-2374.896044
436.768586,-2442.679609,-7624.121203,-2068.457845
436.768908,-1332.370696,-8364.327145,-2604.724693
436.769230,-444.123565,-9104.533087,-3064.381992
436.769553,-222.061783,-9918.759623,-2298.286494
436.769875,-962.267725,-9992.780217,-2068.457845
436.770197,-1332.370696,-10214.842000,-2374.896044
436.770519,-1850.514855,-9770.718434,-2451.505594
436.770842,-1406.391290,-10584.944971,-2451.505594
436.771164,-1998.556043,-9770.718434,-2221.676944
436.771486,-2072.576638,-8956.491898,-2374.896044
436.771809,-1110.308913,-9474.636058,-2604.724693
436.772131,518.144159,-9770.718434,-2145.067394
436.772453,1480.411884,-9992.780217,-306.438199
436.772775,2442.679609,-9326.594869,0.000000
436.773098,3849.070898,-8734.430116,-612.876398
436.773420,4589.276840,-8512.368333,-1225.752797
436.773742,4145.153275,-9252.574275,-383.047749
436.774065,2072.576638,-10066.800811,459.657299
436.774387,0.000000,-11917.315666,842.705048
436.774709,-1628.453072,-11769.274478,0.000000
436.775031,-2516.700203,-9918.759623,-612.876398
436.775354,-3182.885551,-8068.244768,-919.314598
436.775676,-2220.617826,-6661.853478,-1302.362347
436.775998,-2368.659014,-5181.441594,-1608.800546
436.776321,-2590.720797,-5477.523971,-1378.971896
436.776643,-2886.803174,-6513.812290,-1225.752797
436.776965,-3404.947333,-7698.141797,-2528.115143
436.777288,-3775.050304,-9252.574275,-4596.572988
436.777610,-4515.256246,-10732.986159,-4443.353888
436.777932,-4811.338623,-12139.377449,-2987.772442
436.778254,-5403.503377,-12583.501014,-2681.334243
436.778577,-5033.400406,-11991.336260,-2681.334243
436.778899,-3627.009116,-11325.150913,-2911.162892
436.779221,-2368.659014,-9844.739029,-2451.505594
436.779544,-814.226536,-9252.574275,-2221.676944
436.779866,296.082377,-7994.224174,-1915.238745
436.780188,2294.638420,-8216.285956,-1302.362347
436.780510,4145.153275,-9474.636058,306.438199
436.780833,5403.503377,-9992.780217,1685.410096
436.781155,5921.647536,-8364.327145,995.924147
436.781477,6217.729913,-8586.388927,153.219100
436.781800,5847.626942,-9474.636058,995.924147
436.782122,4589.276840,-10066.800811,1302.362347
436.782444,1924.535449,-10066.800811,842.705048
436.782766,222.061783,-10288.862594,689.485948
436.783089,-1036.288319,-9770.718434,-459.657299
436.783411,-1628.453072,-9030.512492,-1915.238745
436.783733,-2664.741391,-8068.244768,-2528.115143
436.784056,-3182.885551,-7994.224174,-2528.115143
436.784378,-3330.926739,-6809.894666,-2374.896044
436.784700,-2812.782580,-7698.141797,-3447.429741
436.785022,-2886.803174,-9622.677246,-4290.134789
436.785345,-2368.659014,-9770.718434,-4290.134789
436.785667,-2368.659014,-9622.677246,-4060.306139
436.785989,-2146.597232,-9844.739029,-3753.867940
436.786312,-1184.329507,-10955.047942,-3217.601092
436.786634,-370.102971,-11399.171507,-2528.115143
436.786956,-444.123565,-10436.903782,-1685.410096
436.787278,-444.123565,-9548.656652,-1225.752797
436.787601,0.000000,-8734.430116,-919.314598
436.787923,814.226536,-7476.080014,-1455.581446
436.788245,2738.761985,-7105.977043,-2068.457845
436.788568,3404.947333,-7772.162391,-153.219100
436.788890,4145.153275,-8290.306550,1149.143247
436.789212,4515.256246,-8068.244768,1378.971896
436.789535,4885.359217,-8808.450710,153.219100
436.789857,5033.400406,-10510.924376,-306.438199
436.790179,3330.926739,-11621.233289,-153.219100
436.790501,1258.350101,-11621.233289,229.828649
436.790824,-1110.308913,-11621.233289,-229.828649
436.791146,-3108.864956,-10881.027347,-1302.362347
436.791468,-4589.276840,-9770.718434,-1838.629195
436.791791,-5403.503377,-8364.327145,-3064.381992
436.792113,-6735.874072,-7254.018232,-3983.696590
436.792435,-6217.729913,-7550.100608,-3907.087040
436.792757,-5699.585753,-7698.141797,-3524.039291
436.793080,-4737.318029,-9252.574275,-2987.772442
436.793402,-3997.112087,-9548.656652,-2604.724693
436.793724,-3404.947333,-9178.553681,-3753.867940
436.794047,-2886.803174,-9474.636058,-3600.648841
436.794369,-2812.782580,-9770.718434,-3370.820191
436.794691,-2220.617826,-11177.109724,-3064.381992
436.795013,-1258.350101,-11769.274478,-2221.676944
436.795336,-962.267725,-10955.047942,-689.485948
436.795658,-296.082377,-9918.759623,-306.438199
436.795980,814.226536,-8216.285956,-1149.143247
436.796303,2072.576638,-7254.018232,-1838.629195
436.796625,3034.844362,-7179.997637,-1225.752797
436.796947,3627.009116,-8438.347739,612.876398
436.797269,3849.070898,-8512.368333,842.705048
436.797592,3849.070898,-8882.471304,383.047749
436.797914,3627.009116,-10214.842000,76.609550
436.798236,3108.864956,-11473.192101,-612.876398
436.798559,1924.535449,-12287.418637,-306.438199
436.798881,-740.205942,-11843.295072,76.609550
436.799203,-2442.679609,-11029.068536,-153.219100
436.799526,-3701.029710,-9622.677246,-1302.362347
436.799848,-4219.173869,-7698.141797,-2604.724693
436.800170,-4737.318029,-6069.688724,-3217.601092
436.800492,-4145.153275,-6735.874072,-4060.306139
436.800815,-2812.782580,-7772.162391,-2987.772442
436.801137,-1332.370696,-8290.306550,-2068.457845
436.801459,-148.041188,-8734.430116,-1838.629195
436.801782,370.102971,-9252.574275,-1838.629195
436.802104,444.123565,-9252.574275,-2681.334243
436.802426,222.061783,-10140.821405,-2911.162892
436.802748,-148.041188,-10436.903782,-2681.334243
436.803071,-518.144159,-10510.924376,-2221.676944
436.803393,-518.144159,-9918.759623,-995.924147
436.803715,-740.205942,-9252.574275,0.000000
436.804038,0.000000,-8216.285956,-689.485948
436.804360,1036.288319,-7550.100608,-1838.629195
436.804682,2220.617826,-7772.162391,-1532.190996
436.805004,2812.782580,-8512.368333,0.000000
436.805327,3552.988522,-8660.409521,229.828649
436.805649,4293.194464,-9548.656652,229.828649
436.805971,4367.215058,-10140.821405,0.000000
436.806294,3997.112087,-11251.130318,-229.828649
436.806616,2738.761985,-11695.253884,-689.485948
436.806938,1406.391290,-11695.253884,-995.924147
436.807260,-518.144159,-11029.068536,-689.485948
436.807583,-2442.679609,-10881.027347,-842.705048
436.807905,-4293.194464,-9030.512492,-1225.752797
436.808227,-5625.565159,-7031.956449,-2757.943793
436.808550,-5477.523971,-6513.812290,-4903.011187
436.808872,-3923.091493,-6513.812290,-3907.087040
436.809194,-3034.844362,-7328.038826,-3447.429741
436.809516,-2146.597232,-8142.265362,-2528.115143
436.809839,-814.226536,-9474.636058,-2374.896044
436.810161,0.000000,-10732.986159,-2451.505594
436.810483,-296.082377,-11547.212695,-2987.772442
436.810806,-1480.411884,-11325.150913,-3677.258390
436.811128,-2664.741391,-11769.274478,-3370.820191
436.811450,-2442.679609,-11251.130318,-2298.286494
436.811773,-2368.659014,-9844.739029,-995.924147
436.812095,-1924.535449,-7920.203579,-2145.067394
436.812417,-1480.411884,-6883.915261,-1838.629195
436.812739,148.041188,-7402.059420,-2221.676944
436.813062,1110.308913,-8586.388927,-536.266849
436.813384,1332.370696,-9178.553681,689.485948
436.813706,1702.473667,-8956.491898,0.000000
436.814029,2220.617826,-8734.430116,-766.095498
436.814351,2812.782580,-10362.883188,-689.485948
436.814673,2738.761985,-11695.253884,0.000000
436.814995,2146.597232,-11769.274478,-153.219100
436.815318,962.267725,-11547.212695,-383.047749
436.815640,-592.164754,-11251.130318,76.609550
436.815962,-1702.473667,-9696.697840,-766.095498
436.816285,-3552.988522,-7179.997637,-2374.896044
436.816607,-4663.297435,-5699.585753,-4290.134789
436.816929,-3701.029710,-6069.688724,-4136.915689
436.817251,-3182.885551,-6217.729913,-3217.601092
436.817574,-2442.679609,-7105.977043,-2374.896044
436.817896,-2072.576638,-9474.636058,-2451.505594
436.818218,-1258.350101,-11177.109724,-2298.286494
436.818541,-962.267725,-11547.212695,-2221.676944
436.818863,-1480.411884,-10658.965565,-2604.724693
436.819185,-1480.411884,-11251.130318,-3447.429741
436.819507,-1480.411884,-11399.171507,-1991.848295
436.819830,-1628.453072,-9992.780217,-689.485948
436.820152,-1850.514855,-8068.244768,-689.485948
436.820474,-888.247130,-7031.956449,-1915.238745
436.820797,1332.370696,-7846.182985,-2451.505594
436.821119,3701.029710,-8808.450710,-1378.971896
436.821441,4515.256246,-9474.636058,459.657299
436.821763,4811.338623,-9178.553681,1072.533697
436.822086,5773.606348,-9622.677246,229.828649
436.822408,5773.606348,-10066.800811,76.609550
436.822730,4441.235652,-10807.006753,-76.609550
436.823053,1554.432478,-11177.109724,-919.314598
436.823375,-444.123565,-11621.233289,-995.924147
436.823697,-1850.514855,-11399.171507,-766.095498
436.824020,-2590.720797,-10066.800811,-842.705048
436.824342,-3256.906145,-7328.038826,-1532.190996
436.824664,-2590.720797,-6587.832884,-2681.334243
436.824987,-2294.638420,-6143.709319,-3600.648841
436.825309,-1702.473667,-6217.729913,-2374.896044
436.825631,-1258.350101,-7179.997637,-2145.067394
436.825953,-370.102971,-7920.203579,-2451.505594
436.826276,-222.061783,-9474.636058,-2528.115143
436.826598,-444.123565,-11029.068536,-2451.505594
436.826920,-962.267725,-12065.356855,-2221.676944
436.827243,-1702.473667,-11917.315666,-2374.896044
436.827565,-1554.432478,-11769.274478,-2374.896044
436.827887,-1554.432478,-10658.965565,-1455.581446
436.828210,-1924.535449,-9326.594869,-689.485948
436.828532,-1924.535449,-7402.059420,-766.095498
436.828854,-2146.597232,-6365.771101,-1915.238745
436.829176,-1036.288319,-7031.956449,-1762.019645
436.829499,518.144159,-8438.347739,-689.485948
436.829821,1184.329507,-8660.409521,229.828649
436.830143,2368.659014,-8808.450710,459.657299
436.830466,3923.091493,-9770.718434,0.000000
436.830788,4441.235652,-10881.027347,0.000000
436.831110,3478.967927,-11325.150913,0.000000
436.831433,1332.370696,-11843.295072,153.219100
436.831755,-740.205942,-11473.192101,-612.876398
436.832077,-2516.700203,-10436.903782,-1302.362347
436.832399,-3627.009116,-8290.306550,-2451.505594
436.832722,-3552.988522,-7179.997637,-3294.210641
436.833044,-3775.050304,-6365.771101,-4290.134789
436.833366,-3182.885551,-6883.915261,-3140.991542
436.833689,-2368.659014,-7920.203579,-2451.505594
436.834011,-2146.597232,-8956.491898,-2451.505594
436.834333,-1554.432478,-10066.800811,-2911.162892
436.834656,-1406.391290,-10732.986159,-3064.381992
436.834978,-2368.659014,-11103.089130,-3677.258390
436.835300,-3034.844362,-11843.295072,-3140.991542
436.835623,-2960.823768,-11843.295072,-2451.505594
436.835945,-2738.761985,-10732.986159,-1762.019645
436.836267,-2368.659014,-9770.718434,-1685.410096
436.836589,-1702.473667,-8364.327145,-1532.190996
436.836912,-592.164754,-7772.162391,-2604.724693
436.837234,740.205942,-7624.121203,-2451.505594
436.837556,1480.411884,-7920.203579,-766.095498
436.837879,2516.700203,-8068.244768,76.609550
436.838201,4071.132681,-8216.285956,0.000000
436.838523,5033.400406,-9474.636058,-1149.143247
436.838846,4811.338623,-10807.006753,-229.828649
436.839168,3701.029710,-11547.212695,842.705048
436.839490,2146.597232,-11547.212695,689.485948
436.839812,0.000000,-11177.109724,-153.219100
436.840135,-1702.473667,-10584.944971,-76.609550
436.840457,-3034.844362,-9104.533087,-1072.533697
436.840779,-2664.741391,-6957.935855,-2374.896044
436.841102,-2368.659014,-5625.565159,-3677.258390
436.841424,-148.041188,-6513.812290,-3294.210641
436.841746,1110.308913,-7328.038826,-2145.067394
436.842069,2664.741391,-9474.636058,-536.266849
436.842391,3034.844362,-9918.759623,-1225.752797
436.842713,2516.700203,-10362.883188,-2298.286494
436.843035,814.226536,-11325.150913,-2374.896044
436.843358,-740.205942,-11399.171507,-2221.676944
436.843680,-2072.576638,-11769.274478,-2451.505594
436.844002,-2960.823768,-10066.800811,-1991.848295
436.844325,-3256.906145,-8882.471304,-1302.362347
436.844647,-2738.761985,-7624.121203,-1532.190996
436.844969,-1480.411884,-7031.956449,-1915.238745
436.845292,-814.226536,-6809.894666,-2374.896044
436.845614,-296.082377,-7994.224174,-766.095498
436.845936,370.102971,-8660.409521,-306.438199
436.846258,1332.370696,-8586.388927,-919.314598
436.846581,1776.494261,-9252.574275,-1302.362347
436.846903,2294.638420,-10807.006753,-842.705048
436.847225,1702.473667,-11991.336260,-689.485948
436.847548,592.164754,-12139.377449,-459.657299
436.847870,-370.102971,-12657.521608,-689.485948
436.848192,-962.267725,-12287.418637,-612.876398
436.848515,-1332.370696,-10436.903782,-459.657299
436.848837,-1554.432478,-7254.018232,-1838.629195
436.849159,-1924.535449,-5477.523971,-2451.505594
436.849482,-2072.576638,-5995.668130,-2451.505594
436.849804,-740.205942,-7105.977043,-1762.019645
436.850126,0.000000,-7846.182985,-1838.629195
436.850448,740.205942,-9474.636058,-1762.019645
436.850771,1332.370696,-10510.924376,-1455.581446
436.851093,1110.308913,-11103.089130,-689.485948
436.851415,0.000000,-11103.089130,-919.314598
436.851738,-1628.453072,-11251.130318,-2145.067394
436.852060,-2812.782580,-11029.068536,-2374.896044
436.852382,-4219.173869,-9474.636058,-1991.848295
436.852705,-4515.256246,-8660.409521,-2374.896044
436.853027,-4293.194464,-7772.162391,-2757.943793
436.853349,-2294.638420,-8438.347739,-3370.820191
436.853671,-740.205942,-8364.327145,-2068.457845
436.853994,148.041188,-9326.594869,-153.219100
436.854316,1332.370696,-9400.615463,-306.438199
436.854638,2442.679609,-9252.574275,-1225.752797
436.854961,2516.700203,-9474.636058,-1225.752797
436.855283,1998.556043,-9622.677246,-612.876398
436.855605,814.226536,-10807.006753,-229.828649
436.855928,0.000000,-11843.295072,-995.924147
436.856250,-740.205942,-11177.109724,-306.438199
436.856572,-962.267725,-9770.718434,-229.828649
436.856894,-962.267725,-7698.141797,-1149.143247
436.857217,-1332.370696,-6217.729913,-1915.238745
436.857539,148.041188,-6365.771101,-1915.238745
436.857861,518.144159,-5921.647536,-1762.019645
436.858184,592.164754,-6883.915261,-2145.067394
436.858506,888.247130,-8068.244768,-2451.505594
436.858828,888.247130,-10066.800811,-2604.724693
436.859151,592.164754,-11547.212695,-2451.505594
436.859473,-740.205942,-12657.521608,-2374.896044
436.859795,-2072.576638,-13101.645173,-2834.553343
436.860118,-2146.597232,-12361.439231,-3140.991542
436.860440,-2294.638420,-10955.047942,-2911.162892
436.860762,-3330.926739,-8956.491898,-2451.505594
436.861084,-4071.132681,-7624.121203,-2374.896044
436.861407,-3108.864956,-7550.100608,-2911.162892
436.861729,-2072.576638,-7031.956449,-2911.162892
436.862051,-444.123565,-8216.285956,-2298.286494
436.862374,1480.411884,-9548.656652,-1072.533697
436.862696,3034.844362,-9104.533087,-995.924147
436.863018,3701.029710,-9622.677246,0.000000
436.863341,3108.864956,-10140.821405,536.266849
436.863663,2368.659014,-10510.924376,0.000000
436.863985,1036.288319,-10807.006753,-1378.971896
436.864307,-296.082377,-11399.171507,-1225.752797
436.864630,-1924.535449,-11103.089130,-536.266849
436.864952,-2812.782580,-9252.574275,0.000000
436.865274,-2072.576638,-7328.038826,-1378.971896
436.865597,-1110.308913,-6439.791695,-2604.724693
436.865919,222.061783,-6587.832884,-2681.334243
436.866241,1184.329507,-7254.018232,-2068.457845
436.866564,1258.350101,-7254.018232,-1532.190996
436.866886,666.185348,-9178.553681,-1302.362347
436.867208,-296.082377,-10955.047942,-1302.362347
436.867530,-1702.473667,-11547.212695,-1991.848295
436.867853,-3478.967927,-11621.233289,-2834.553343
436.868175,-3849.070898,-12213.398043,-3830.477490
436.868497,-3478.967927,-11695.253884,-2681.334243
436.868820,-3034.844362,-9992.780217,-1149.143247
436.869142,-2590.720797,-7920.203579,-919.314598
436.869464,-1110.308913,-6883.915261,-1991.848295
436.869787,74.020594,-7105.977043,-2145.067394
436.870109,814.226536,-8586.388927,-1991.848295
436.870431,1628.453072,-9104.533087,-1302.362347
436.870753,2294.638420,-9326.594869,0.000000
436.871076,2960.823768,-9104.533087,995.924147
436.871398,4145.153275,-10066.800811,842.705048
436.871720,4367.215058,-10066.800811,459.657299
436.872043,2960.823768,-9918.759623,-383.047749
436.872365,1554.432478,-10436.903782,0.000000
436.872687,-222.061783,-10214.842000,0.000000
436.873010,-2812.782580,-8808.450710,0.000000
436.873332,-3627.009116,-8068.244768,-1149.143247
436.873654,-3849.070898,-7179.997637,-2834.553343
436.873977,-3552.988522,-6661.853478,-4290.134789
436.874299,-2590.720797,-7105.977043,-3600.648841
436.874621,-2220.617826,-8290.306550,-2911.162892
436.874943,-1332.370696,-9844.739029,-2451.505594
436.875266,-814.226536,-11251.130318,-2221.676944
436.875588,-1110.308913,-11473.192101,-2834.553343
436.875910,-1628.453072,-12361.439231,-3830.477490
436.876233,-1924.535449,-12805.562797,-3524.039291
436.876555,-1258.350101,-12435.459826,-3064.381992
436.876877,-1850.514855,-10658.965565,-1149.143247
436.877200,-1554.432478,-9104.533087,-76.609550
436.877522,-666.185348,-7105.977043,-995.924147
436.877844,74.020594,-6439.791695,-2145.067394
436.878166,666.185348,-7328.038826,-2068.457845
436.878489,1776.494261,-8808.450710,-459.657299
436.878811,2664.741391,-8882.471304,383.047749
436.879133,3404.947333,-8660.409521,536.266849
436.879456,4293.194464,-9252.574275,153.219100
436.879778,4219.173869,-10288.862594,229.828649
436.880100,2590.720797,-10807.006753,306.438199
436.880423,0.000000,-11473.192101,0.000000
436.880745,-1924.535449,-11325.150913,-919.314598
436.881067,-3034.844362,-10807.006753,-1608.800546
436.881389,-4145.153275,-9326.594869,-2145.067394
436.881712,-5107.421000,-6365.771101,-2757.943793
436.882034,-4367.215058,-6661.853478,-3907.087040
436.882356,-3108.864956,-6513.812290,-3983.696590
436.882679,-1776.494261,-7328.038826,-3140.991542
436.883001,-1554.432478,-8290.306550,-2068.457845
436.883323,-962.267725,-9326.594869,-2221.676944
436.883646,-666.185348,-9696.697840,-2451.505594
436.883968,-222.061783,-11029.068536,-3447.429741
436.884290,-666.185348,-11843.295072,-3447.429741
436.884613,-370.102971,-11917.315666,-2068.457845
436.884935,0.000000,-10584.944971,-612.876398
436.885257,666.185348,-9326.594869,-459.657299
436.885579,888.247130,-8068.244768,-536.266849
436.885902,1406.391290,-7105.977043,-1838.629195
436.886224,1776.494261,-7254.018232,-2298.286494
436.886546,2072.576638,-8068.244768,0.000000
436.886869,2960.823768,-8512.368333,229.828649
436.887191,3478.967927,-8142.265362,-153.219100
436.887513,3552.988522,-8808.450710,-536.266849
436.887836,2960.823768,-10658.965565,612.876398
436.888158,1702.473667,-11621.233289,612.876398
436.888480,0.000000,-11695.253884,-1072.533697
436.888802,-2072.576638,-11621.233289,-1378.971896
436.889125,-3256.906145,-11177.109724,-1685.410096
436.889447,-4367.215058,-9696.697840,-1685.410096
436.889769,-5255.462188,-7402.059420,-2987.772442
436.890092,-4145.153275,-7328.038826,-5132.839837
436.890414,-2368.659014,-6883.915261,-4903.011187
436.890736,-1480.411884,-8438.347739,-3064.381992
436.891059,-888.247130,-9104.533087,-1915.238745
436.891381,-666.185348,-9770.718434,-2298.286494
436.891703,-888.247130,-10362.883188,-2528.115143
436.892025,-814.226536,-10066.800811,-2911.162892
436.892348,-1406.391290,-10288.862594,-3140.991542
436.892670,-1998.556043,-10362.883188,-2681.334243
436.892992,-2368.659014,-9770.718434,-1072.533697
436.893315,-2294.638420,-8808.450710,153.219100
436.893637,-2146.597232,-7920.203579,-306.438199
436.893959,-1776.494261,-7772.162391,-1838.629195
436.894282,-666.185348,-8512.368333,-2374.896044
436.894604,148.041188,-8586.388927,-1532.190996
436.894926,814.226536,-8216.285956,-459.657299
436.895248,1628.453072,-8956.491898,-153.219100
436.895571,2516.700203,-9844.739029,-459.657299
436.895893,2886.803174,-10881.027347,-459.657299
436.896215,2220.617826,-11325.150913,-229.828649
436.896538,814.226536,-11991.336260,-1302.362347
436.896860,0.000000,-12657.521608,-1608.800546
436.897182,-1702.473667,-11695.253884,-153.219100
436.897505,-2812.782580,-9918.759623,-459.657299
436.897827,-3775.050304,-7105.977043,-1608.800546
436.898149,-3627.009116,-5551.544565,-3447.429741
436.898472,-2812.782580,-5033.400406,-4136.915689
436.898794,-2368.659014,-5847.626942,-2374.896044
436.899116,-2072.576638,-7179.997637,-1225.752797
436.899438,-962.267725,-8734.430116,-1455.581446
436.899761,0.000000,-9770.718434,-2451.505594
436.900083,222.061783,-10732.986159,-2145.067394
436.900405,0.000000,-11177.109724,-2068.457845
436.900728,-518.144159,-11547.212695,-2145.067394
436.901050,0.000000,-11473.192101,-2145.067394
436.901372,-962.267725,-10807.006753,-1149.143247
436.901695,-1406.391290,-9696.697840,-919.314598
436.902017,-1258.350101,-9400.615463,-1685.410096
436.902339,-592.164754,-9030.512492,-1838.629195
436.902661,1554.432478,-9030.512492,-1838.629195
436.902984,2664.741391,-8956.491898,-153.219100
436.903306,3701.029710,-8438.347739,612.876398
436.903628,4293.194464,-8290.306550,612.876398
436.903951,4737.318029,-8290.306550,229.828649
436.904273,3923.091493,-9474.636058,229.828649
436.904595,2220.617826,-11029.068536,-383.047749
436.904918,444.123565,-12361.439231,-612.876398
436.905240,-1258.350101,-12065.356855,-306.438199
436.905562,-2442.679609,-10584.944971,76.609550
436.905884,-2886.803174,-8142.265362,-1532.190996
436.906207,-2442.679609,-6661.853478,-2987.772442
436.906529,-1998.556043,-6217.729913,-4136.915689
436.906851,-1702.473667,-5995.668130,-2757.943793
436.907174,-1332.370696,-7476.080014,-2374.896044
436.907496,-1184.329507,-9030.512492,-2681.334243
436.907818,-740.205942,-9992.780217,-3600.648841
436.908141,-1036.288319,-10807.006753,-3140.991542
436.908463,-1258.350101,-11621.233289,-2681.334243
436.908785,-1258.350101,-11769.274478,-2681.334243
436.909108,-1258.350101,-11399.171507,-2451.505594
436.909430,-1480.411884,-9474.636058,-1149.143247
436.909752,-1628.453072,-8660.409521,76.609550
436.910074,-1702.473667,-7994.224174,-995.924147
436.910397,-1628.453072,-7328.038826,-2604.724693
436.910719,-1110.308913,-7550.100608,-2528.115143
436.911041,0.000000,-8734.430116,-689.485948
436.911364,1184.329507,-8956.491898,229.828649
436.911686,2886.803174,-8808.450710,0.000000
436.912008,4145.153275,-8808.450710,-766.095498
436.912331,3849.070898,-9918.759623,306.438199
436.912653,2368.659014,-10807.006753,459.657299
436.912975,444.123565,-11621.233289,-995.924147
436.913297,-1406.391290,-12213.398043,-2221.676944
436.913620,-2812.782580,-11991.336260,-1838.629195
436.913942,-4367.215058,-9770.718434,-1532.190996
436.914264,-4219.173869,-7698.141797,-2451.505594
436.914587,-3404.947333,-6365.771101,-3983.696590
436.914909,-1924.535449,-6439.791695,-3524.039291
436.915231,-888.247130,-7254.018232,-2604.724693
436.915554,-888.247130,-8512.368333,-2451.505594
436.915876,-1332.370696,-9252.574275,-2604.724693
436.916198,-1332.370696,-10510.924376,-3064.381992
436.916520,-1850.514855,-11325.150913,-3907.087040
436.916843,-2664.741391,-11991.336260,-4213.525239
436.917165,-2738.761985,-11547.212695,-3907.087040
436.917487,-2590.720797,-10881.027347,-2757.943793
436.917810,-1998.556043,-10510.924376,-1072.533697
436.918132,-962.267725,-9104.533087,-1072.533697
436.918454,-518.144159,-7550.100608,-2298.286494
436.918777,0.000000,-7254.018232,-2681.334243
436.919099,666.185348,-8216.285956,-842.705048
436.919421,1406.391290,-8586.388927,76.609550
436.919743,2368.659014,-8068.244768,76.609550
436.920066,3775.050304,-8660.409521,-842.705048
436.920388,3775.050304,-9770.718434,0.000000
436.920710,3701.029710,-10658.965565,459.657299
436.921033,2664.741391,-10955.047942,0.000000
436.921355,1702.473667,-11547.212695,-766.095498
436.921677,296.082377,-11103.089130,-536.266849
436.922000,-1406.391290,-9844.739029,-306.438199
436.922322,-2368.659014,-8364.327145,-1608.800546
436.922644,-2590.720797,-7254.018232,-3217.601092
436.922967,-1776.494261,-7105.977043,-2987.772442
436.923289,-1406.391290,-5995.668130,-1991.848295
436.923611,-1332.370696,-7031.956449,-1455.581446
436.923933,-592.164754,-8734.430116,-2451.505594
436.924256,-370.102971,-9622.677246,-2451.505594
436.924578,-740.205942,-10955.047942,-1991.848295
436.924900,-1554.432478,-11843.295072,-2068.457845
436.925223,-1406.391290,-11769.274478,-2221.676944
436.925545,-666.185348,-11547.212695,-1991.848295
436.925867,-296.082377,-11029.068536,-306.438199
436.926190,148.041188,-9622.677246,76.609550
436.926512,740.205942,-7328.038826,-995.924147
436.926834,2146.597232,-6513.812290,-2604.724693
436.927157,3627.009116,-7328.038826,-1302.362347
436.927479,3849.070898,-8364.327145,-306.438199
436.927801,3627.009116,-8512.368333,76.609550
436.928124,3182.885551,-8734.430116,306.438199
436.928446,3552.988522,-9770.718434,306.438199
436.928768,2812.782580,-9992.780217,383.047749
436.929091,444.123565,-10288.862594,-995.924147
436.929413,-1702.473667,-11399.171507,-1302.362347
436.929736,-2886.803174,-11991.336260,-689.485948
436.930058,-3923.091493,-10436.903782,-995.924147
436.930380,-5329.482782,-7846.182985,-2221.676944
436.930703,-5773.606348,-6883.915261,-3524.039291
436.931025,-5181.441594,-7031.956449,-4519.963438
436.931347,-3997.112087,-7994.224174,-3753.867940
436.931670,-3478.967927,-8956.491898,-2374.896044
436.931992,-2664.741391,-9326.594869,-2451.505594
436.932314,-1110.308913,-9474.636058,-3753.867940
436.932637,-296.082377,-10362.883188,-3447.429741
436.932959,-518.144159,-11695.253884,-2528.115143
436.933281,-1184.329507,-11621.233289,-2528.115143
436.933604,-1332.370696,-11325.150913,-1532.190996
436.933926,-1702.473667,-10066.800811,-612.876398
436.934248,-1554.432478,-9474.636058,-919.314598
436.934571,-1406.391290,-8290.306550,-1532.190996
436.934893,-962.267725,-7550.100608,-1685.410096
436.935215,0.000000,-7254.018232,-1378.971896
436.935538,1998.556043,-8290.306550,-689.485948
436.935860,2812.782580,-8586.388927,0.000000
436.936182,2664.741391,-8364.327145,306.438199
436.936505,2368.659014,-8734.430116,612.876398
436.936827,1776.494261,-9770.718434,-689.485948
436.937149,518.144159,-10807.006753,-1762.019645
436.937472,-888.247130,-11547.212695,-2451.505594
436.937794,-2738.761985,-11769.274478,-2374.896044
436.938117,-3627.009116,-11029.068536,-1608.800546
436.938439,-3775.050304,-9770.718434,-1608.800546
436.938761,-3997.112087,-8142.265362,-2757.943793
436.939084,-2516.700203,-7772.162391,-4903.011187
436.939406,-1998.556043,-7031.956449,-4060.306139
436.939728,-1332.370696,-7772.162391,-2604.724693
436.940051,-1110.308913,-7920.203579,-1838.629195
436.940373,-444.123565,-8364.327145,-2757.943793
436.940695,74.020594,-9178.553681,-3370.820191
436.941018,1184.329507,-10807.006753,-2528.115143
436.941340,1776.494261,-11991.336260,-2374.896044
436.941662,2294.638420,-12435.459826,-2451.505594
436.941985,2886.803174,-11769.274478,-612.876398
436.942307,3182.885551,-10362.883188,766.095498
436.942629,3330.926739,-8512.368333,0.000000
436.942952,3182.885551,-7402.059420,-1225.752797
436.943274,3108.864956,-6513.812290,-1915.238745
436.943596,3256.906145,-7105.977043,-689.485948
436.943919,3923.091493,-8216.285956,383.047749
436.944241,3478.967927,-8068.244768,459.657299
436.944563,2886.803174,-8882.471304,383.047749
436.944886,1702.473667,-9992.780217,153.219100
436.945208,0.000000,-10362.883188,-536.266849
436.945530,-2516.700203,-10955.047942,-1685.410096
436.945853,-4367.215058,-11029.068536,-2451.505594
436.946175,-5033.400406,-10658.965565,-2374.896044
436.946498,-5329.482782,-10066.800811,-1991.848295
436.946820,-4589.276840,-9548.656652,-2221.676944
436.947142,-3997.112087,-7476.080014,-2451.505594
436.947465,-2738.761985,-7105.977043,-2911.162892
436.947787,-1258.350101,-7846.182985,-2834.553343
436.948109,-296.082377,-8364.327145,-1762.019645
436.948432,518.144159,-9178.553681,-2451.505594
436.948754,1110.308913,-9474.636058,-2757.943793
436.949076,1702.473667,-10214.842000,-1762.019645
436.949399,2294.638420,-11177.109724,-919.314598
436.949721,1924.535449,-11325.150913,-306.438199
436.950043,1332.370696,-11251.130318,0.000000
436.950366,222.061783,-10288.862594,383.047749
436.950688,-814.226536,-8956.491898,536.266849
436.951010,-1554.432478,-7402.059420,-766.095498
436.951333,-2146.597232,-6809.894666,-1685.410096
436.951655,-1702.473667,-7550.100608,-2298.286494
436.951977,-814.226536,-8438.347739,-1608.800546
436.952300,-296.082377,-8956.491898,-612.876398
436.952622,0.000000,-10214.842000,-689.485948
436.952944,-296.082377,-10955.047942,-689.485948
436.953267,-1332.370696,-11325.150913,-1532.190996
436.953589,-2886.803174,-11399.171507,-2604.724693
436.953911,-4145.153275,-11843.295072,-2987.772442
436.954234,-5181.441594,-10658.965565,-2757.943793
436.954556,-5699.585753,-8734.430116,-2374.896044
436.954878,-4737.318029,-7476.080014,-2757.943793
436.955201,-3701.029710,-7550.100608,-2987.772442
436.955523,-2220.617826,-7402.059420,-3064.381992
436.955846,-296.082377,-7698.141797,-2604.724693
436.956168,1184.329507,-7846.182985,-2145.067394
436.956490,2294.638420,-8660.409521,-1378.971896
436.956813,2294.638420,-9400.615463,-1225.752797
436.957135,2368.659014,-9178.553681,-1532.190996
436.957457,1924.535449,-9474.636058,-1991.848295
436.957780,1998.556043,-10658.965565,-2298.286494
436.958102,1998.556043,-11325.150913,-2145.067394
436.958424,1998.556043,-11917.315666,-1378.971896
436.958747,814.226536,-11251.130318,0.000000
436.959069,888.247130,-10140.821405,0.000000
436.959391,1184.329507,-8734.430116,-1915.238745
436.959714,1332.370696,-7550.100608,-2834.553343
436.960036,1776.494261,-7105.977043,-1225.752797
436.960358,1850.514855,-7624.121203,-919.314598
436.960681,2146.597232,-8586.388927,-459.657299
436.961003,1998.556043,-9400.615463,-229.828649
436.961325,962.267725,-10066.800811,-612.876398
436.961648,0.000000,-10658.965565,-1149.143247
436.961970,-1628.453072,-11325.150913,-1149.143247
436.962292,-2590.720797,-10807.006753,-1532.190996
436.962615,-3404.947333,-9844.739029,-1532.190996
436.962937,-4293.194464,-8290.306550,-1685.410096
436.963259,-4663.297435,-6439.791695,-2298.286494
436.963582,-2590.720797,-7402.059420,-3064.381992
436.963904,-740.205942,-7402.059420,-3677.258390
436.964227,814.226536,-8660.409521,-2911.162892
436.964549,1480.411884,-9030.512492,-1608.800546
436.964871,2294.638420,-9400.615463,-1302.362347
436.965194,1480.411884,-10362.883188,-1685.410096
436.965516,1036.288319,-10658.965565,-2451.505594
436.965838,444.123565,-10955.047942,-3064.381992
436.966161,-592.164754,-11177.109724,-2834.553343
436.966483,-1332.370696,-10732.986159,-1149.143247
436.966805,-1406.391290,-10658.965565,229.828649
436.967128,-222.061783,-9252.574275,-383.047749
436.967450,518.144159,-7994.224174,-1685.410096
436.967772,1258.350101,-7846.182985,-1685.410096
436.968095,2220.617826,-7994.224174,-919.314598
436.968417,2368.659014,-8216.285956,306.438199
436.968739,2368.659014,-8438.347739,612.876398
436.969062,2146.597232,-9548.656652,229.828649
436.969384,1258.350101,-10214.842000,0.000000
436.969706,0.000000,-10140.821405,0.000000
436.970029,-1850.514855,-10881.027347,-1149.143247
436.970351,-2294.638420,-11547.212695,-1762.019645
436.970673,-2960.823768,-11399.171507,-1838.629195
436.970996,-3627.009116,-9770.718434,-1072.533697
436.971318,-5033.400406,-7550.100608,-1532.190996
436.971640,-4515.256246,-7105.977043,-2757.943793
436.971963,-3775.050304,-6513.812290,-3600.648841
436.972285,-2960.823768,-6365.771101,-3677.258390
436.972608,-2442.679609,-7476.080014,-3370.820191
436.972930,-1998.556043,-8956.491898,-2834.553343
436.973252,-1406.391290,-9696.697840,-2757.943793
436.973575,-370.102971,-10066.800811,-1991.848295
436.973897,148.041188,-11769.274478,-2757.943793
436.974219,222.061783,-12583.501014,-3140.991542
436.974542,-222.061783,-12287.418637,-2298.286494
436.974864,-1110.308913,-11325.150913,-306.438199
436.975186,-1480.411884,-9326.594869,229.828649
436.975509,-1258.350101,-7105.977043,-1072.533697
436.975831,148.041188,-6883.915261,-3217.601092
436.976153,1628.453072,-7550.100608,-2528.115143
436.976476,1998.556043,-8808.450710,-306.438199
436.976798,2516.700203,-9770.718434,612.876398
436.977120,3701.029710,-10584.944971,612.876398
436.977443,3478.967927,-11029.068536,459.657299
436.977765,3256.906145,-10436.903782,-459.657299
436.978087,1850.514855,-9992.780217,-1072.533697
436.978410,0.000000,-9770.718434,-1455.581446
436.978732,-1702.473667,-9696.697840,-1532.190996
436.979054,-2516.700203,-8956.491898,-1838.629195
436.979377,-3923.091493,-7994.224174,-2374.896044
436.979699,-4737.318029,-8290.306550,-3524.039291
436.980021,-4071.132681,-9104.533087,-3447.429741
436.980344,-3182.885551,-8660.409521,-2604.724693
436.980666,-2146.597232,-8438.347739,-2068.457845
436.980989,-1258.350101,-8068.244768,-2374.896044
436.981311,-1036.288319,-7476.080014,-2604.724693
436.981633,-1258.350101,-8512.368333,-3140.991542
436.981956,-1702.473667,-10510.924376,-3830.477490
436.982278,-1702.473667,-11769.274478,-2681.334243
436.982600,-1924.535449,-11843.295072,-1915.238745
436.982923,-1184.329507,-11473.192101,-842.705048
436.983245,-592.164754,-10732.986159,0.000000
436.983567,592.164754,-9326.594869,-153.219100
436.983890,2368.659014,-7550.100608,-1149.143247
436.984212,3552.988522,-6365.771101,-1378.971896
436.984534,4367.215058,-7179.997637,-229.828649
436.984857,4441.235652,-7624.121203,766.095498
436.985179,4959.379811,-8586.388927,459.657299
436.985501,4885.359217,-10436.903782,306.438199
436.985824,4071.132681,-11177.109724,766.095498
436.986146,2294.638420,-11029.068536,383.047749
436.986468,814.226536,-10214.842000,-689.485948
436.986791,-296.082377,-10362.883188,-1302.362347
436.987113,-1776.494261,-9696.697840,-766.095498
436.987435,-2960.823768,-8142.265362,-1302.362347
436.987758,-4959.379811,-7105.977043,-2298.286494
436.988080,-4811.338623,-7476.080014,-3217.601092
436.988402,-4293.194464,-7624.121203,-3140.991542
436.988725,-3182.885551,-8808.450710,-3830.477490
436.989047,-2664.741391,-9474.636058,-3600.648841
436.989369,-1702.473667,-9252.574275,-3294.210641
436.989692,-1480.411884,-9770.718434,-2987.772442
436.990014,-1554.432478,-10140.821405,-2757.943793
436.990337,-2072.576638,-10807.006753,-2834.553343
436.990659,-2516.700203,-11177.109724,-4060.306139
436.990981,-2368.659014,-11843.295072,-3217.601092
436.991304,-1258.350101,-11769.274478,-1072.533697
436.991626,-518.144159,-9548.656652,-229.828649
436.991948,1110.308913,-7920.203579,-1149.143247
436.992271,2886.803174,-7254.018232,-1302.362347
436.992593,4663.297435,-7031.956449,-383.047749
436.992915,4737.318029,-7550.100608,0.000000
436.993238,4663.297435,-8512.368333,689.485948
436.993560,4367.215058,-9474.636058,536.266849
436.993882,3849.070898,-9918.759623,612.876398
436.994205,2146.597232,-10140.821405,0.000000
436.994527,0.000000,-10955.047942,-689.485948
436.994849,-2590.720797,-11769.274478,-459.657299
436.995172,-3552.988522,-10658.965565,-612.876398
436.995494,-4737.318029,-8586.388927,-1991.848295
436.995816,-6069.688724,-7772.162391,-2604.724693
436.996139,-5699.585753,-7254.018232,-4136.915689
436.996461,-5625.565159,-6661.853478,-3294.210641
436.996783,-5033.400406,-7624.121203,-4213.525239
436.997106,-4219.173869,-8142.265362,-3600.648841
436.997428,-3182.885551,-9104.533087,-3753.867940
436.997750,-2516.700203,-9622.677246,-3677.258390
436.998073,-1406.391290,-10807.006753,-2834.553343
436.998395,-740.205942,-11843.295072,-2604.724693
436.998718,74.020594,-11843.295072,-3140.991542
436.999040,1406.391290,-11917.315666,-2374.896044
436.999362,1998.556043,-11177.109724,-459.657299
436.999685,2368.659014,-8290.306550,612.876398
437.000007,2220.617826,-6439.791695,0.000000
437.000329,2146.597232,-5995.668130,-766.095498
437.000652,2664.741391,-7698.141797,-995.924147
437.000974,3182.885551,-9030.512492,0.000000
437.001296,2960.823768,-9178.553681,1225.752797
437.001619,3478.967927,-9474.636058,1915.238745
437.001941,4145.153275,-10288.862594,766.095498
437.002263,3552.988522,-10807.006753,76.609550
437.002586,1184.329507,-10732.986159,-229.828649
437.002908,-1258.350101,-11399.171507,-612.876398
437.003230,-3404.947333,-10288.862594,-1608.800546
437.003553,-5033.400406,-9992.780217,-2757.943793
437.003875,-5921.647536,-8882.471304,-3294.210641
437.004197,-5847.626942,-7920.203579,-4290.134789
437.004520,-5033.400406,-8364.327145,-3983.696590
437.004842,-3701.029710,-8142.265362,-3294.210641
437.005164,-1776.494261,-7994.224174,-3447.429741
437.005487,-444.123565,-8290.306550,-3524.039291
437.005809,148.041188,-8956.491898,-3064.381992
437.006131,-370.102971,-9178.553681,-2451.505594
437.006454,-1036.288319,-9918.759623,-2451.505594
437.006776,-296.082377,-10214.842000,-3447.429741
437.007099,296.082377,-11251.130318,-2604.724693
437.007421,592.164754,-10658.965565,-229.828649
437.007743,296.082377,-9178.553681,1072.533697
437.008066,592.164754,-7254.018232,306.438199
437.008388,2294.638420,-7031.956449,-459.657299
437.008710,3330.926739,-7476.080014,-689.485948
437.009033,3404.947333,-8364.327145,0.000000
437.009355,3108.864956,-8068.244768,1225.752797
437.009677,3404.947333,-9178.553681,1455.581446
437.010000,3997.112087,-10955.047942,919.314598
437.010322,3108.864956,-11547.212695,-229.828649
437.010644,1036.288319,-11769.274478,-229.828649
437.010967,-370.102971,-11473.192101,-766.095498
437.011289,-1332.370696,-11325.150913,-1072.533697
437.011611,-2812.782580,-9992.780217,-1455.581446
437.011934,-4959.379811,-7846.182985,-1915.238745
437.012256,-5921.647536,-6809.894666,-2604.724693
437.012578,-5477.523971,-7031.956449,-4443.353888
437.012901,-3923.091493,-7624.121203,-5056.230287
437.013223,-2960.823768,-7994.224174,-4290.134789
437.013545,-1776.494261,-8586.388927,-2757.943793
437.013868,-148.041188,-9178.553681,-1685.410096
437.014190,666.185348,-10214.842000,-2068.457845
437.014512,370.102971,-10584.944971,-2528.115143
437.014835,-592.164754,-10584.944971,-3140.991542
437.015157,-1554.432478,-10362.883188,-3370.820191
437.015480,-2146.597232,-10436.903782,-1072.533697
437.015802,-2960.823768,-10214.842000,-612.876398
437.016124,-2812.782580,-9252.574275,-689.485948
437.016447,-1924.535449,-7920.203579,-2068.457845
437.016769,592.164754,-8660.409521,-2298.286494
437.017091,1998.556043,-8734.430116,-766.095498
437.017414,2664.741391,-9178.553681,229.828649
437.017736,2812.782580,-8956.491898,536.266849
437.018058,3256.906145,-9252.574275,-459.657299
437.018381,2812.782580,-10584.944971,-995.924147
437.018703,1702.473667,-11473.192101,-689.485948
437.019025,0.000000,-11843.295072,-689.485948
437.019348,-1258.350101,-11917.315666,-1149.143247
437.019670,-1924.535449,-11103.089130,-842.705048
437.019992,-2590.720797,-9474.636058,-766.095498
437.020315,-2886.803174,-6883.915261,-1455.581446
437.020637,-3701.029710,-4885.359217,-3370.820191
437.020959,-2960.823768,-5699.585753,-3830.477490
437.021282,-2368.659014,-6957.935855,-3370.820191
437.021604,-1702.473667,-8364.327145,-2451.505594
437.021926,-962.267725,-9104.533087,-2528.115143
437.022249,-222.061783,-9548.656652,-2221.676944
437.022571,-518.144159,-10214.842000,-2298.286494
437.022893,-666.185348,-10881.027347,-2757.943793
437.023216,-814.226536,-11325.150913,-3294.210641
437.023538,-1184.329507,-10955.047942,-2451.505594
437.023860,-1480.411884,-9844.739029,-689.485948
437.024183,-1406.391290,-8438.347739,-383.047749
437.024505,-740.205942,-7031.956449,-1608.800546
437.024828,666.185348,-6809.894666,-2834.553343
437.025150,1924.535449,-7772.162391,-995.924147
437.025473,2590.720797,-8882.471304,919.314598
437.025795,3404.947333,-9252.574275,919.314598
437.026118,4515.256246,-9326.594869,-153.219100
437.026440,5477.523971,-10658.965565,-842.705048
437.026763,4589.276840,-11251.130318,153.219100
437.027085,2516.700203,-11251.130318,229.828649
437.027408,1554.432478,-11473.192101,-459.657299
437.027730,592.164754,-10807.006753,0.000000
437.028053,-370.102971,-10214.842000,0.000000
437.028375,-2072.576638,-8290.306550,-995.924147
437.028698,-3256.906145,-5699.585753,-2528.115143
437.029020,-2368.659014,-6957.935855,-4443.353888
437.029343,-888.247130,-8068.244768,-3983.696590
437.029665,-888.247130,-8512.368333,-2681.334243
437.029988,-888.247130,-9104.533087,-2374.896044
437.030310,-1036.288319,-9474.636058,-2298.286494
437.030633,-1332.370696,-10732.986159,-2834.553343
437.030955,-2368.659014,-11917.315666,-3064.381992
437.031278,-3330.926739,-12509.480420,-3830.477490
437.031600,-4367.215058,-11695.253884,-3294.210641
437.031923,-4145.153275,-10436.903782,-2298.286494
437.032245,-3404.947333,-9548.656652,-1225.752797
437.032568,-2220.617826,-7772.162391,-766.095498
437.032890,-1850.514855,-6735.874072,-1378.971896
437.033213,-666.185348,-6883.915261,-1608.800546
437.033535,814.226536,-8068.244768,-1149.143247
437.033858,2072.576638,-8882.471304,0.000000
437.034180,2442.679609,-9252.574275,612.876398
437.034503,2590.720797,-9770.718434,536.266849
437.034825,2146.597232,-10732.986159,689.485948
437.035148,1332.370696,-11325.150913,153.219100
437.035470,296.082377,-11473.192101,-383.047749
437.035793,-1480.411884,-10881.027347,-383.047749
437.036115,-2442.679609,-9918.759623,76.609550
437.036438,-3627.009116,-8068.244768,-306.438199
437.036760,-3923.091493,-6439.791695,-2604.724693
437.037083,-3034.844362,-6661.853478,-4213.525239
437.037405,-2590.720797,-6587.832884,-3677.258390
437.037728,-1702.473667,-7772.162391,-2681.334243
437.038050,-666.185348,-9030.512492,-2451.505594
437.038373,-222.061783,-10066.800811,-2604.724693
437.038695,-444.123565,-11103.089130,-2451.505594
437.039018,-962.267725,-11917.315666,-2451.505594
437.039340,-1036.288319,-12139.377449,-2834.553343
437.039663,-666.185348,-11029.068536,-3983.696590
437.039985,-592.164754,-10140.821405,-3140.991542
437.040308,-666.185348,-9104.533087,-995.924147
437.040630,-518.144159,-7920.203579,0.000000
437.040953,0.000000,-6513.812290,-1532.190996
437.041275,1406.391290,-7328.038826,-2528.115143
437.041598,2442.679609,-7772.162391,-1685.410096
437.041920,2886.803174,-8660.409521,-229.828649
437.042243,3775.050304,-9474.636058,153.219100
437.042565,4663.297435,-10214.842000,612.876398
437.042888,4737.318029,-10955.047942,612.876398
437.043210,3330.926739,-10362.883188,306.438199
437.043533,1924.535449,-10881.027347,-919.314598
437.043855,518.144159,-11991.336260,-1302.362347
437.044178,-814.226536,-11473.192101,-536.266849
437.044500,-1702.473667,-9844.739029,-1149.143247
437.044823,-2368.659014,-7994.224174,-1838.629195
437.045145,-2590.720797,-6809.894666,-3677.258390
437.045468,-1480.411884,-6809.894666,-3524.039291
437.045790,-444.123565,-7254.018232,-2834.553343
437.046113,296.082377,-7920.203579,-2298.286494
437.046435,518.144159,-8882.471304,-2451.505594
437.046758,222.061783,-10066.800811,-1455.581446
437.047080,-1406.391290,-10955.047942,-1838.629195
437.047403,-2590.720797,-11843.295072,-2757.943793
437.047725,-3330.926739,-11325.150913,-3753.867940
437.048048,-3997.112087,-10658.965565,-2834.553343
437.048370,-3849.070898,-9104.533087,-919.314598
437.048693,-3552.988522,-7328.038826,-995.924147
437.049015,-1998.556043,-7105.977043,-1915.238745
437.049338,-1184.329507,-6809.894666,-2145.067394
437.049660,-444.123565,-7254.018232,-1455.581446
437.049983,814.226536,-8438.347739,-459.657299
437.050305,2368.659014,-9326.594869,-1225.752797
437.050628,2368.659014,-9918.759623,0.000000
437.050950,2220.617826,-10436.903782,842.705048
437.051273,1628.453072,-11325.150913,383.047749
437.051595,740.205942,-11547.212695,-383.047749
437.051918,-592.164754,-11843.295072,-1149.143247
437.052240,-1480.411884,-11029.068536,-383.047749
437.052563,-2072.576638,-9474.636058,-536.266849
437.052885,-1924.535449,-7550.100608,-1532.190996
437.053208,-2368.659014,-6069.688724,-2681.334243
437.053530,-1406.391290,-6587.832884,-2834.553343
437.053853,-518.144159,-7328.038826,-2834.553343
437.054175,222.061783,-8512.368333,-3064.381992
437.054498,740.205942,-9474.636058,-2221.676944
437.054820,296.082377,-10584.944971,-2068.457845
437.055143,-666.185348,-11547.212695,-1608.800546
437.055466,-1554.432478,-12361.439231,-1991.848295
437.055788,-2368.659014,-11991.336260,-3217.601092
437.056111,-2664.741391,-11251.130318,-3677.258390
437.056433,-2516.700203,-9844.739029,-1991.848295
437.056756,-2664.741391,-8290.306550,-919.314598
437.057078,-2294.638420,-7105.977043,-1302.362347
437.057401,-1184.329507,-7105.977043,-2298.286494
437.057723,-296.082377,-8142.265362,-2451.505594
437.058046,444.123565,-8660.409521,-1455.581446
437.058368,1480.411884,-9326.594869,-459.657299
437.058691,2146.597232,-9252.574275,153.219100
437.059013,3404.947333,-10214.842000,-536.266849
437.059336,3256.906145,-11177.109724,0.000000
437.059658,2442.679609,-11769.274478,0.000000
437.059981,814.226536,-11695.253884,-612.876398
437.060303,-740.205942,-11251.130318,-612.876398
437.060626,-1776.494261,-10362.883188,0.000000
437.060948,-2294.638420,-8438.347739,-842.705048
437.061271,-2590.720797,-6291.750507,-1915.238745
437.061593,-1110.308913,-6143.709319,-2987.772442
437.061916,592.164754,-6217.729913,-2681.334243
437.062238,1628.453072,-7105.977043,-1838.629195
437.062561,1998.556043,-7994.224174,-1072.533697
437.062883,2072.576638,-9326.594869,-842.705048
437.063206,1258.350101,-11029.068536,-1302.362347
437.063528,0.000000,-11325.150913,-2221.676944
437.063851,-592.164754,-11177.109724,-2681.334243
437.064173,-1850.514855,-10955.047942,-2911.162892
437.064496,-2368.659014,-10584.944971,-2298.286494
437.064818,-3034.844362,-9252.574275,-1378.971896
437.065141,-3034.844362,-7179.997637,-1455.581446
437.065463,-2516.700203,-7179.997637,-2604.724693
437.065786,-888.247130,-7624.121203,-2757.943793
437.066108,-148.041188,-8882.471304,-1991.848295
437.066431,370.102971,-9252.574275,-766.095498
437.066753,1776.494261,-9030.512492,-306.438199
437.067076,2664.741391,-9474.636058,-153.219100
437.067398,3034.844362,-9844.739029,-306.438199
437.067721,2220.617826,-10510.924376,0.000000
437.068043,888.247130,-11695.253884,-842.705048
437.068366,-592.164754,-11843.295072,-536.266849
437.068688,-1480.411884,-11029.068536,0.000000
437.069011,-2294.638420,-8734.430116,-612.876398
437.069333,-1554.432478,-6883.915261,-2221.676944
437.069656,-1776.494261,-5329.482782,-3447.429741
437.069978,-1554.432478,-5773.606348,-3217.601092
437.070301,-518.144159,-7105.977043,-3064.381992
437.070623,-148.041188,-8808.450710,-2987.772442
437.070946,-888.247130,-10214.842000,-2604.724693
437.071268,-1110.308913,-11769.274478,-2834.553343
437.071591,-1332.370696,-12435.459826,-3140.991542
437.071913,-1036.288319,-13027.624579,-3830.477490
437.072236,-962.267725,-12435.459826,-3294.210641
437.072558,-1406.391290,-11103.089130,-1915.238745
437.072881,-1998.556043,-8586.388927,-766.095498
437.073203,-1924.535449,-7179.997637,-1149.143247
437.073526,-1406.391290,-6883.915261,-2604.724693
437.073848,-444.123565,-7772.162391,-2681.334243
437.074171,148.041188,-7772.162391,-1378.971896
437.074493,1184.329507,-7772.162391,0.000000
437.074816,2368.659014,-9030.512492,689.485948
437.075138,3775.050304,-9252.574275,229.828649
437.075461,3552.988522,-9400.615463,229.828649
437.075783,2072.576638,-9770.718434,0.000000
437.076106,74.020594,-10584.944971,76.609550
437.076428,-962.267725,-11991.336260,-459.657299
437.076751,-2664.741391,-11695.253884,-459.657299
437.077073,-3923.091493,-10140.821405,-689.485948
437.077396,-3849.070898,-7920.203579,-2145.067394
437.077718,-2442.679609,-7254.018232,-2834.553343
437.078041,-1702.473667,-6587.832884,-2681.334243
437.078363,-1332.370696,-6661.853478,-2604.724693
437.078686,-814.226536,-8290.306550,-2451.505594
437.079008,-222.061783,-9400.615463,-2298.286494
437.079331,-148.041188,-10584.944971,-2604.724693
437.079653,-740.205942,-11029.068536,-3140.991542
437.079976,-1110.308913,-11917.315666,-2528.115143
437.080298,-1036.288319,-11325.150913,-2451.505594
437.080621,-666.185348,-10732.986159,-2604.724693
437.080943,-592.164754,-9400.615463,-1225.752797
437.081266,-962.267725,-7994.224174,-459.657299
437.081588,0.000000,-6735.874072,-1302.362347
437.081911,222.061783,-6957.935855,-1762.019645
437.082233,444.123565,-7402.059420,-1072.533697
437.082556,740.205942,-8660.409521,-306.438199
437.082878,1480.411884,-9104.533087,995.924147
437.083201,2072.576638,-9622.677246,306.438199
437.083523,1184.329507,-10066.800811,459.657299
437.083846,666.185348,-10362.883188,0.000000
437.084168,0.000000,-11103.089130,-1302.362347
437.084491,-962.267725,-12139.377449,-1302.362347
437.084813,-2146.597232,-11769.274478,0.000000
437.085136,-3034.844362,-10436.903782,-766.095498
437.085458,-3404.947333,-8734.430116,-1685.410096
437.085781,-2442.679609,-7698.141797,-3140.991542
437.086103,-1850.514855,-6809.894666,-3753.867940
437.086426,-666.185348,-6661.853478,-3217.601092
437.086748,296.082377,-7179.997637,-2528.115143
437.087071,1332.370696,-8660.409521,-2068.457845
437.087393,1850.514855,-9622.677246,-1455.581446
437.087716,1628.453072,-10436.903782,-1225.752797
437.088039,814.226536,-11029.068536,-1762.019645
437.088361,-296.082377,-10658.965565,-2528.115143
437.088684,-1406.391290,-10066.800811,-2145.067394
437.089006,-2368.659014,-9696.697840,-1149.143247
437.089329,-2812.782580,-8956.491898,-689.485948
437.089651,-2072.576638,-7402.059420,-1302.362347
437.089974,-888.247130,-6587.832884,-2834.553343
437.090296,148.041188,-7920.203579,-3140.991542
437.090619,740.205942,-9252.574275,-766.095498
437.090941,1702.473667,-9474.636058,0.000000
437.091264,2442.679609,-9474.636058,-766.095498
437.091586,3182.885551,-10436.903782,-1225.752797
437.091909,2738.761985,-11103.089130,153.219100
437.092231,592.164754,-11473.192101,-536.266849
437.092554,-962.267725,-11917.315666,-1225.752797
437.092876,-1702.473667,-12361.439231,-2221.676944
437.093199,-1924.535449,-10807.006753,-1225.752797
437.093521,-2368.659014,-8216.285956,-766.095498
437.093844,-2368.659014,-5995.668130,-2298.286494
437.094166,-740.205942,-6143.709319,-3524.039291
437.094489,74.020594,-5921.647536,-2987.772442
437.094811,74.020594,-7105.977043,-2145.067394
437.095134,740.205942,-8512.368333,-1838.629195
437.095456,666.185348,-9252.574275,-2298.286494
437.095779,1110.308913,-10807.006753,-2987.772442
437.096101,444.123565,-11843.295072,-2221.676944
437.096424,-518.144159,-12509.480420,-1915.238745
437.096746,-1480.411884,-12213.398043,-2068.457845
437.097069,-1554.432478,-11325.150913,-2911.162892
437.097391,-3330.926739,-9844.739029,-1915.238745
437.097714,-3330.926739,-8364.327145,-1302.362347
437.098036,-3478.967927,-7179.997637,-2757.943793
437.098359,-2738.761985,-7624.121203,-3294.210641
437.098681,-1776.494261,-8142.265362,-2298.286494
437.099004,0.000000,-9326.594869,-612.876398
437.099326,1036.288319,-8808.450710,-306.438199
437.099649,2738.761985,-9474.636058,-383.047749
437.099971,2960.823768,-10140.821405,-383.047749
437.100294,2294.638420,-10214.842000,0.000000
437.100616,962.267725,-11325.150913,229.828649
437.100939,-740.205942,-11399.171507,229.828649
437.101261,-1850.514855,-9918.759623,306.438199
437.101584,-2812.782580,-8142.265362,-1149.143247
437.101906,-2812.782580,-6957.935855,-2451.505594
437.102229,-2220.617826,-6513.812290,-1991.848295
437.102551,-1332.370696,-6143.709319,-1838.629195
437.102874,-444.123565,-7402.059420,-1225.752797
437.103196,518.144159,-8660.409521,-1072.533697
437.103519,962.267725,-9548.656652,-1532.190996
437.103841,666.185348,-9474.636058,-1991.848295
437.104164,-1110.308913,-9992.780217,-1991.848295
437.104486,-2220.617826,-10807.006753,-2145.067394
437.104809,-2886.803174,-11251.130318,-3140.991542
437.105131,-2664.741391,-11399.171507,-3370.820191
437.105454,-2590.720797,-10807.006753,-2374.896044
437.105776,-2368.659014,-9178.553681,-1455.581446
437.106099,-1332.370696,-8216.285956,-1532.190996
437.106421,-296.082377,-7698.141797,-1991.848295
437.106744,740.205942,-7846.182985,-1991.848295
437.107066,1332.370696,-8290.306550,-1532.190996
437.107389,1850.514855,-8586.388927,-459.657299
437.107711,2960.823768,-9030.512492,-689.485948
437.108034,2516.700203,-9770.718434,0.000000
437.108356,1998.556043,-11695.253884,0.000000
437.108679,1036.288319,-11991.336260,76.609550
437.109001,0.000000,-11843.295072,153.219100
437.109324,-518.144159,-10584.944971,-612.876398
437.109646,-1406.391290,-8882.471304,-689.485948
437.109969,-1776.494261,-7105.977043,-1532.190996
437.110291,-1184.329507,-6809.894666,-2528.115143
437.110614,-1702.473667,-6513.812290,-2681.334243
437.110936,-1258.350101,-6809.894666,-2528.115143
437.111259,-370.102971,-8586.388927,-2451.505594
437.111581,296.082377,-9770.718434,-2681.334243
437.111904,1036.288319,-10510.924376,-2987.772442
437.112226,666.185348,-10807.006753,-2604.724693
437.112549,222.061783,-11473.192101,-1762.019645
437.112871,370.102971,-12361.439231,-3524.039291
437.113194,-222.061783,-12065.356855,-3370.820191
437.113516,-370.102971,-10658.965565,-2451.505594
437.113839,-888.247130,-9992.780217,-1762.019645
437.114161,-296.082377,-9104.533087,-919.314598
437.114484,814.226536,-7698.141797,-1378.971896
437.114806,1480.411884,-7105.977043,-1915.238745
437.115129,2368.659014,-7254.018232,-766.095498
437.115451,2960.823768,-7402.059420,0.000000
437.115774,3182.885551,-7476.080014,0.000000
437.116096,3182.885551,-8438.347739,0.000000
437.116419,2072.576638,-9844.739029,995.924147
437.116741,0.000000,-10955.047942,1149.143247
437.117064,-2072.576638,-11251.130318,-229.828649
437.117386,-3034.844362,-11769.274478,-1225.752797
437.117709,-2738.761985,-11621.233289,-842.705048
437.118031,-2442.679609,-9178.553681,-1302.362347
437.118354,-2960.823768,-6883.915261,-2145.067394
437.118676,-3034.844362,-6587.832884,-2374.896044
437.118999,-2516.700203,-7402.059420,-2528.115143
437.119321,-2368.659014,-8512.368333,-2911.162892
437.119644,-2294.638420,-9252.574275,-2911.162892
437.119966,-2442.679609,-9992.780217,-3294.210641
437.120289,-2368.659014,-10584.944971,-2987.772442
437.120612,-2072.576638,-11325.150913,-2298.286494
437.120934,-2294.638420,-11251.130318,-2451.505594
437.121257,-2146.597232,-11399.171507,-2681.334243
437.121579,-2368.659014,-10214.842000,-1608.800546
437.121902,-3182.885551,-9030.512492,-1762.019645
437.122224,-3627.009116,-7994.224174,-1915.238745
437.122547,-2368.659014,-8068.244768,-2221.676944
437.122869,-518.144159,-8142.265362,-2604.724693
437.123192,962.267725,-8068.244768,-1072.533697
437.123514,2812.782580,-8808.450710,0.000000
437.123837,3478.967927,-9030.512492,459.657299
437.124159,3701.029710,-9474.636058,306.438199
437.124482,2960.823768,-10288.862594,459.657299
437.124804,1184.329507,-10658.965565,995.924147
437.125127,-370.102971,-11251.130318,-1608.800546
437.125449,-1258.350101,-11621.233289,-2374.896044
437.125772,-1554.432478,-11103.089130,-1532.190996
437.126094,-1924.535449,-9104.533087,-383.047749
437.126416,-2368.659014,-6735.874072,-536.266849
437.126739,-814.226536,-6291.750507,-1762.019645
437.127061,296.082377,-5773.606348,-3907.087040
437.127384,888.247130,-7105.977043,-3907.087040
437.127706,296.082377,-8734.430116,-2757.943793
437.128029,-222.061783,-9474.636058,-1762.019645
437.128351,-518.144159,-9696.697840,-2681.334243
437.128674,-740.205942,-9548.656652,-2987.772442
437.128996,-1406.391290,-10658.965565,-3983.696590
437.129319,-1554.432478,-12287.418637,-4060.306139
437.129641,-1480.411884,-11843.295072,-3294.210641
437.129964,-1406.391290,-10584.944971,-2451.505594
437.130286,0.000000,-10140.821405,-766.095498
437.130609,740.205942,-8586.388927,-1455.581446
437.130931,1628.453072,-6513.812290,-2374.896044
437.131254,2220.617826,-6661.853478,-2528.115143
437.131576,3404.947333,-8882.471304,-1532.190996
437.131899,4663.297435,-9474.636058,383.047749
437.132221,5033.400406,-9326.594869,919.314598
437.132544,4441.235652,-9696.697840,1225.752797
437.132866,3478.967927,-10732.986159,1608.800546
437.133189,2220.617826,-11103.089130,919.314598
437.133511,148.041188,-11103.089130,-612.876398
437.133834,-1998.556043,-10362.883188,-1378.971896
437.134156,-3701.029710,-9548.656652,-536.266849
437.134479,-4663.297435,-7550.100608,-1149.143247
437.134801,-4737.318029,-7994.224174,-2451.505594
437.135124,-4219.173869,-8364.327145,-3447.429741
437.135446,-3256.906145,-9474.636058,-3830.477490
437.135769,-2664.741391,-9770.718434,-3140.991542
437.136091,-2146.597232,-9400.615463,-2681.334243
437.136413,-1776.494261,-9844.739029,-2834.553343
437.136736,-1702.473667,-9918.759623,-2834.553343
437.137058,-1850.514855,-10732.986159,-3294.210641
437.137381,-2590.720797,-11695.253884,-3447.429741
437.137703,-2812.782580,-11621.233289,-3140.991542
437.138026,-2516.700203,-10732.986159,-1762.019645
437.138348,-1924.535449,-9548.656652,0.000000
437.138671,-962.267725,-8512.368333,459.657299
437.138993,814.226536,-6661.853478,-995.924147
437.139316,1702.473667,-6143.709319,-1838.629195
437.139638,2146.597232,-7550.100608,-612.876398
437.139961,2368.659014,-8216.285956,1072.533697
437.140283,2294.638420,-8290.306550,1072.533697
437.140606,2072.576638,-9844.739029,459.657299
437.140928,1258.350101,-11251.130318,995.924147
437.141251,222.061783,-11621.233289,0.000000
437.141573,-666.185348,-11473.192101,-1532.190996
437.141896,-1036.288319,-11399.171507,-1532.190996
437.142218,-2294.638420,-10066.800811,-766.095498
437.142541,-2442.679609,-8364.327145,0.000000
437.142863,-2960.823768,-7031.956449,-1608.800546
437.143186,-2220.617826,-6883.915261,-3217.601092
437.143508,-888.247130,-6957.935855,-3983.696590
437.143831,370.102971,-7328.038826,-3524.039291
437.144153,592.164754,-8438.347739,-2528.115143
437.144476,222.061783,-9400.615463,-1608.800546
437.144798,-222.061783,-9400.615463,-1455.581446
437.145121,-592.164754,-9474.636058,-2681.334243
437.145443,-1110.308913,-10658.965565,-4673.182538
437.145766,-1110.308913,-11325.150913,-4443.353888
437.146088,-1702.473667,-10955.047942,-2987.772442
437.146410,-1554.432478,-10658.965565,-612.876398
437.146733,-740.205942,-9696.697840,153.219100
437.147055,592.164754,-8216.285956,-1991.848295
437.147378,1628.453072,-7105.977043,-3524.039291
437.147700,2368.659014,-8364.327145,-2911.162892
437.148023,2812.782580,-10066.800811,-612.876398
437.148345,3330.926739,-9844.739029,76.609550
437.148668,3775.050304,-9400.615463,0.000000
437.148990,3775.050304,-9770.718434,995.924147
437.149313,2368.659014,-10510.924376,76.609550
437.149635,814.226536,-10955.047942,-689.485948
437.149958,-962.267725,-11029.068536,-1608.800546
437.150280,-1776.494261,-10362.883188,-612.876398
437.150603,-1998.556043,-9104.533087,-383.047749
437.150925,-2738.761985,-7179.997637,-842.705048
437.151248,-2738.761985,-6587.832884,-2528.115143
437.151570,-2220.617826,-6439.791695,-3447.429741
437.151893,-888.247130,-7402.059420,-3600.648841
437.152215,-370.102971,-8586.388927,-3370.820191
437.152538,-740.205942,-9474.636058,-2757.943793
437.152860,-2146.597232,-9992.780217,-2221.676944
437.153183,-2442.679609,-11473.192101,-2221.676944
437.153505,-2812.782580,-11991.336260,-3600.648841
437.153828,-3108.864956,-11843.295072,-4903.011187
437.154150,-3552.988522,-11325.150913,-4060.306139
437.154473,-3256.906145,-10807.006753,-1149.143247
437.154795,-2664.741391,-9252.574275,536.266849
437.155118,-1554.432478,-7105.977043,-766.095498
437.155440,222.061783,-6809.894666,-2451.505594
437.155763,1702.473667,-7772.162391,-2374.896044
437.156085,1850.514855,-8216.285956,-306.438199
437.156407,2294.638420,-7994.224174,1685.410096
437.156730,2516.700203,-8956.491898,1149.143247
437.157052,2886.803174,-10214.842000,689.485948
437.157375,2368.659014,-10955.047942,842.705048
437.157697,1110.308913,-10732.986159,-383.047749
437.158020,0.000000,-10732.986159,-1608.800546
437.158342,-740.205942,-10881.027347,-919.314598
437.158665,-740.205942,-9992.780217,-383.047749
437.158987,-1924.535449,-8142.265362,-1072.533697
437.159310,-1924.535449,-8068.244768,-1608.800546
437.159632,-1258.350101,-7105.977043,-2911.162892
437.159955,-666.185348,-7624.121203,-3447.429741
437.160277,0.000000,-8216.285956,-3217.601092
437.160600,74.020594,-8512.368333,-2834.553343
437.160922,-148.041188,-9548.656652,-1991.848295
437.161245,-1184.329507,-10584.944971,-2298.286494
437.161567,-2294.638420,-11325.150913,-2451.505594
437.161890,-3627.009116,-11547.212695,-3983.696590
437.162212,-4589.276840,-10807.006753,-4136.915689
437.162535,-5107.421000,-10140.821405,-2681.334243
437.162857,-4441.235652,-9474.636058,-1149.143247
437.163180,-2072.576638,-8068.244768,-2604.724693
437.163502,-666.185348,-7402.059420,-3140.991542
437.163825,740.205942,-8734.430116,-2221.676944
437.164147,2368.659014,-9918.759623,-306.438199
437.164470,4071.132681,-10066.800811,-153.219100
437.164792,4885.359217,-9178.553681,-306.438199
437.165115,4959.379811,-9622.677246,306.438199
437.165437,3997.112087,-9918.759623,2145.067394
437.165760,2368.659014,-9030.512492,1762.019645
437.166082,962.267725,-9104.533087,-995.924147
437.166404,592.164754,-10288.862594,-1915.238745
437.166727,0.000000,-10288.862594,153.219100
437.167049,-518.144159,-9030.512492,1072.533697
437.167372,-1480.411884,-6957.935855,229.828649
437.167694,-1332.370696,-6883.915261,-1608.800546
437.168017,-296.082377,-6291.750507,-2987.772442
437.168339,-148.041188,-6365.771101,-4519.963438
437.168662,-1110.308913,-7476.080014,-4060.306139
437.168984,-1332.370696,-9696.697840,-3524.039291
437.169307,-1628.453072,-11843.295072,-2911.162892
437.169629,-2368.659014,-12805.562797,-2757.943793
437.169952,-3478.967927,-12583.501014,-2987.772442
437.170274,-4145.153275,-12139.377449,-4290.134789
437.170597,-4219.173869,-11251.130318,-3983.696590
437.170919,-4441.235652,-9548.656652,-2451.505594
437.171242,-3256.906145,-7846.182985,-1608.800546
437.171564,-1554.432478,-5773.606348,-2604.724693
437.171887,74.020594,-6439.791695,-2604.724693
437.172209,1554.432478,-8142.265362,-1302.362347
437.172532,3182.885551,-9548.656652,-536.266849
437.172854,4071.132681,-10066.800811,229.828649
437.173177,4885.359217,-10436.903782,1378.971896
437.173499,4219.173869,-9474.636058,2451.505594
437.173822,4219.173869,-8734.430116,1378.971896
437.174144,2812.782580,-9178.553681,-1072.533697
437.174467,1628.453072,-11251.130318,-1915.238745
437.174789,814.226536,-11621.233289,-229.828649
437.175112,-1110.308913,-9844.739029,612.876398
437.175434,-2516.700203,-8438.347739,842.705048
437.175757,-3404.947333,-7550.100608,-689.485948
437.176079,-2812.782580,-7476.080014,-3140.991542
437.176401,-1628.453072,-6957.935855,-4979.620737
437.176724,-1258.350101,-7994.224174,-4673.182538
437.177046,-1332.370696,-9696.697840,-3294.210641
437.177369,-1036.288319,-11547.212695,-1915.238745
437.177691,-2368.659014,-11177.109724,-689.485948
437.178014,-4219.173869,-11695.253884,-2681.334243
437.178336,-4737.318029,-12509.480420,-4673.182538
437.178659,-4663.297435,-11695.253884,-4290.134789
437.178981,-4515.256246,-9770.718434,-3677.258390
437.179304,-4071.132681,-8068.244768,-1378.971896
437.179626,-1776.494261,-7179.997637,-689.485948
437.179949,296.082377,-6365.771101,-1225.752797
437.180271,1628.453072,-7328.038826,-1149.143247
437.180594,2368.659014,-9104.533087,-459.657299
437.180916,2664.741391,-10214.842000,383.047749
437.181239,2590.720797,-9770.718434,1378.971896
437.181561,2664.741391,-8882.471304,1685.410096
437.181884,3182.885551,-9030.512492,919.314598
437.182206,3701.029710,-9770.718434,-1915.238745
437.182529,2812.782580,-11029.068536,-1762.019645
437.182851,1332.370696,-11325.150913,306.438199
437.183174,-740.205942,-9400.615463,2068.457845
437.183496,-2738.761985,-8660.409521,459.657299
437.183819,-4145.153275,-7994.224174,-1608.800546
437.184141,-3923.091493,-7550.100608,-4060.306139
437.184464,-3701.029710,-5699.585753,-5592.497135
437.184786,-2590.720797,-6661.853478,-4903.011187
437.185109,-1184.329507,-9178.553681,-3447.429741
437.185431,-740.205942,-10362.883188,-2374.896044
437.185754,-1850.514855,-10955.047942,-536.266849
437.186076,-3478.967927,-11473.192101,-1915.238745
437.186398,-4515.256246,-12879.583391,-4979.620737
437.186721,-4663.297435,-13027.624579,-5898.935335
437.187043,-5255.462188,-10658.965565,-3830.477490
437.187366,-5329.482782,-7994.224174,-1762.019645
437.187688,-4219.173869,-6513.812290,-383.047749
437.188011,-1480.411884,-6661.853478,-1455.581446
437.188333,0.000000,-7105.977043,-1991.848295
437.188656,0.000000,-8734.430116,-1225.752797
437.188978,370.102971,-10288.862594,0.000000
437.189301,1554.432478,-9548.656652,1685.410096
437.189623,3478.967927,-8882.471304,1072.533697
437.189946,4811.338623,-8956.491898,-1378.971896
437.190268,4293.194464,-10362.883188,-995.924147
437.190591,2442.679609,-10214.842000,536.266849
437.190913,222.061783,-9474.636058,229.828649
437.191236,-2294.638420,-11547.212695,-1915.238745
437.191558,-5033.400406,-11917.315666,-612.876398
437.191881,-6809.894666,-9622.677246,-1302.362347
437.192203,-8290.306550,-6661.853478,-4443.353888
437.192526,-7031.956449,-6365.771101,-4903.011187
437.192848,-4737.318029,-6735.874072,-4826.401637
437.193171,-2886.803174,-7550.100608,-4366.744339
437.193493,-2220.617826,-8512.368333,-2451.505594
437.193816,-2442.679609,-9992.780217,-1302.362347
437.194138,-2442.679609,-11621.233289,-1532.190996
437.194461,-2960.823768,-12805.562797,-2834.553343
437.194783,-3923.091493,-12139.377449,-4060.306139
437.195106,-4219.173869,-10066.800811,-3830.477490
437.195428,-3182.885551,-8438.347739,-2145.067394
437.195751,-2368.659014,-8142.265362,-306.438199
437.196073,-2294.638420,-7772.162391,689.485948
437.196395,-2886.803174,-7846.182985,-383.047749
437.196718,-2886.803174,-7994.224174,-995.924147
437.197040,-1924.535449,-9030.512492,-919.314598
437.197363,-296.082377,-9474.636058,-1608.800546
437.197685,1036.288319,-9178.553681,-1378.971896
437.198008,1628.453072,-8364.327145,0.000000
437.198330,2960.823768,-8808.450710,1302.362347
437.198653,3256.906145,-9178.553681,-153.219100
437.198975,2812.782580,-9992.780217,-1608.800546
437.199298,814.226536,-10807.006753,-2068.457845
437.199620,-1702.473667,-10881.027347,-1991.848295
437.199943,-4737.318029,-9992.780217,-2298.286494
437.200265,-7254.018232,-9992.780217,-2987.772442
437.200588,-9696.697840,-9918.759623,-3600.648841
437.200910,-10955.047942,-9400.615463,-4443.353888
437.201233,-11029.068536,-8882.471304,-3907.087040
437.201555,-9992.780217,-9622.677246,-2911.162892
437.201878,-8438.347739,-9252.574275,-1762.019645
437.202200,-7031.956449,-9030.512492,-1149.143247
437.202523,-5403.503377,-8068.244768,-842.705048
437.202845,-3034.844362,-6957.935855,-995.924147
437.203168,-296.082377,-5403.503377,-1915.238745
437.203490,2368.659014,-5403.503377,-4596.572988
437.203813,4367.215058,-9252.574275,-4290.134789
437.204135,5181.441594,-13101.645173,0.000000
437.204458,4589.276840,-13323.706956,2911.162892
437.204780,2368.659014,-11547.212695,2681.334243
437.205103,1406.391290,-11325.150913,0.000000
437.205425,-814.226536,-9548.656652,-1455.581446
437.205748,-4515.256246,-6809.894666,-3064.381992
437.206070,-7550.100608,-4959.379811,-2451.505594
437.206392,-6883.915261,-6883.915261,-1532.190996
437.206715,-5033.400406,-9474.636058,-2681.334243
437.207037,-3256.906145,-10955.047942,-1991.848295
437.207360,-3108.864956,-10807.006753,1149.143247
437.207682,-3478.967927,-10214.842000,2068.457845
437.208005,-2516.700203,-10584.944971,76.609550
437.208327,-444.123565,-8956.491898,-2451.505594
437.208650,0.000000,-6291.750507,-4903.011187
437.208972,148.041188,-5995.668130,-5362.668486
437.209295,370.102971,-7476.080014,-1225.752797
437.209617,666.185348,-8068.244768,1225.752797
437.209940,814.226536,-7846.182985,-1378.971896
437.210262,1110.308913,-11251.130318,-4366.744339
437.210585,592.164754,-15470.304188,-3830.477490
437.210907,-888.247130,-17024.736666,-1225.752797
437.211230,-3478.967927,-12731.542202,536.266849
437.211552,-4811.338623,-8216.285956,536.266849
437.211875,-4663.297435,-5403.503377,-995.924147
437.212197,-3627.009116,-3849.070898,-2068.457845
437.212520,-4441.235652,-3034.844362,-3370.820191
437.212842,-4885.359217,-5699.585753,-2451.505594
437.213165,-3478.967927,-9474.636058,-766.095498
437.213487,-1554.432478,-11325.150913,-153.219100
437.213810,-1110.308913,-10955.047942,-1455.581446
437.214132,-1480.411884,-10807.006753,-3217.601092
437.214455,-2146.597232,-11473.192101,-4213.525239
437.214777,-2886.803174,-11473.192101,-2604.724693
437.215100,-3923.091493,-10214.842000,-1532.190996
437.215422,-4737.318029,-9400.615463,-2451.505594
437.215745,-3923.091493,-10214.842000,-2451.505594
437.216067,-2368.659014,-10881.027347,-1225.752797
437.216389,-1110.308913,-10436.903782,-1072.533697
437.216712,-592.164754,-9474.636058,-1149.143247
437.217034,-370.102971,-7846.182985,1149.143247
437.217357,-518.144159,-6291.750507,1302.362347
437.217679,-2072.576638,-5625.565159,-459.657299
437.218002,-4367.215058,-6661.853478,-1225.752797
437.218324,-6069.688724,-7846.182985,-2604.724693
437.218647,-5995.668130,-9326.594869,-3983.696590
437.218969,-5477.523971,-11177.109724,-4060.306139
437.219292,-5033.400406,-12065.356855,-2451.505594
437.219614,-4367.215058,-11991.336260,-1532.190996
437.219937,-4293.194464,-11621.233289,-2374.896044
437.220259,-3849.070898,-10510.924376,-3753.867940
437.220582,-4219.173869,-10732.986159,-5362.668486
437.220904,-4145.153275,-10362.883188,-5286.058936
437.221227,-3997.112087,-10066.800811,-3907.087040
437.221549,-3478.967927,-9696.697840,-1149.143247
437.221872,-2442.679609,-8438.347739,842.705048
437.222194,-1480.411884,-7179.997637,0.000000
437.222517,-518.144159,-6513.812290,-1072.533697
437.222839,148.041188,-6143.709319,-1762.019645
437.223162,74.020594,-5995.668130,-1302.362347
437.223484,-518.144159,-6587.832884,-383.047749
437.223807,-296.082377,-8216.285956,76.609550
437.224129,-222.061783,-9992.780217,-459.657299
437.224452,74.020594,-10732.986159,-1685.410096
437.224774,296.082377,-11769.274478,-1991.848295
437.225097,74.020594,-12731.542202,-1302.362347
437.225419,0.000000,-12213.398043,689.485948
437.225741,-888.247130,-10807.006753,229.828649
437.226064,-962.267725,-9770.718434,-306.438199
437.226386,-1184.329507,-8882.471304,-1149.143247
437.226709,-1258.350101,-7920.203579,-1149.143247
437.227031,-2294.638420,-7105.977043,-1225.752797
437.227354,-2738.761985,-6735.874072,-383.047749
437.227676,-2886.803174,-7254.018232,-612.876398
437.227999,-2516.700203,-8364.327145,-1915.238745
437.228321,-2516.700203,-8586.388927,-2374.896044
437.228643,-2960.823768,-8364.327145,-3217.601092
437.228966,-3108.864956,-8882.471304,-3830.477490
437.229288,-3849.070898,-9770.718434,-3064.381992
437.229611,-5033.400406,-9696.697840,-2911.162892
437.229933,-5477.523971,-9992.780217,-4903.011187
437.230256,-5033.400406,-11399.171507,-5362.668486
437.230578,-4071.132681,-12879.583391,-3753.867940
437.230901,-3256.906145,-12139.377449,-1455.581446
437.231223,-2442.679609,-11177.109724,0.000000
437.231546,-1036.288319,-9918.759623,-459.657299
437.231868,222.061783,-8956.491898,-459.657299
437.232190,0.000000,-8068.244768,0.000000
437.232513,-1110.308913,-6587.832884,766.095498
437.232835,-2294.638420,-6069.688724,76.609550
437.233158,-2812.782580,-6069.688724,-612.876398
437.233480,-2960.823768,-7328.038826,-842.705048
437.233803,-3256.906145,-9030.512492,-536.266849
437.234125,-3552.988522,-9918.759623,-1378.971896
437.234448,-2960.823768,-9770.718434,-1838.629195
437.234770,-1628.453072,-10658.965565,-3370.820191
437.235093,-148.041188,-11991.336260,-3677.258390
437.235415,74.020594,-12583.501014,-2757.943793
437.235737,-814.226536,-11843.295072,-1991.848295
437.236060,-1184.329507,-12213.398043,-2298.286494
437.236382,-1332.370696,-12583.501014,-2528.115143
437.236705,-1628.453072,-12657.521608,-1991.848295
437.237027,-2368.659014,-10955.047942,-842.705048
437.237350,-2146.597232,-9252.574275,229.828649
437.237672,-518.144159,-7846.182985,306.438199
437.237995,666.185348,-6809.894666,842.705048
437.238317,1036.288319,-6069.688724,1838.629195
437.238640,1258.350101,-7402.059420,1762.019645
437.238962,1184.329507,-8290.306550,1532.190996
437.239284,1258.350101,-8512.368333,1378.971896
437.239607,1406.391290,-8660.409521,612.876398
437.239929,1628.453072,-10140.821405,0.000000
437.240252,1776.494261,-10955.047942,536.266849
437.240574,1776.494261,-11029.068536,1225.752797
437.240897,1628.453072,-10807.006753,919.314598
437.241219,1184.329507,-10807.006753,689.485948
437.241542,222.061783,-11325.150913,1302.362347
437.241864,-1036.288319,-9992.780217,1838.629195
437.242186,-1850.514855,-9030.512492,1455.581446
437.242509,-2220.617826,-8438.347739,995.924147
437.242831,-2072.576638,-7698.141797,1532.190996
437.243154,-2294.638420,-7179.997637,2451.505594
437.243476,-1998.556043,-7920.203579,3524.039291
437.243799,-1628.453072,-8216.285956,3830.477490
437.244121,-1258.350101,-8660.409521,3524.039291
437.244444,-814.226536,-8808.450710,3524.039291
437.244766,-740.205942,-8512.368333,3907.087040
437.245089,-370.102971,-8068.244768,3600.648841
437.245411,-444.123565,-8882.471304,3524.039291
437.245733,-1036.288319,-9992.780217,4213.525239
437.246056,-1850.514855,-11103.089130,4596.572988
437.246378,-2368.659014,-11251.130318,3524.039291
437.246701,-2812.782580,-11769.274478,2681.334243
437.247023,-2812.782580,-11843.295072,3064.381992
437.247346,-2220.617826,-10510.924376,3524.039291
437.247668,-1924.535449,-9400.615463,3830.477490
437.247991,-1998.556043,-8660.409521,4060.306139
437.248313,-1628.453072,-8364.327145,3064.381992
437.248636,-2072.576638,-8290.306550,2604.724693
437.248958,-2886.803174,-8956.491898,1685.410096
437.249280,-3256.906145,-9622.677246,1455.581446
437.249603,-2886.803174,-10436.903782,1072.533697
437.249925,-2960.823768,-9992.780217,919.314598
437.250248,-2368.659014,-9918.759623,689.485948
437.250570,-2442.679609,-9770.718434,383.047749
437.250893,-2516.700203,-9770.718434,0.000000
437.251215,-2368.659014,-9844.739029,-536.266849
437.251538,-2294.638420,-9622.677246,-459.657299
437.251860,-1258.350101,-9844.739029,459.657299
437.252183,-148.041188,-9474.636058,153.219100
437.252505,1702.473667,-9474.636058,689.485948
437.252827,3330.926739,-8586.388927,1149.143247
437.253150,4737.318029,-7179.997637,766.095498
437.253472,6735.874072,-6143.709319,0.000000
437.253795,7105.977043,-5847.626942,-1149.143247
437.254117,7328.038826,-6883.915261,-1149.143247
437.254440,6513.812290,-7254.018232,-1991.848295
437.254762,3923.091493,-8882.471304,-3140.991542
437.255085,592.164754,-10881.027347,-4213.525239
437.255407,-2960.823768,-12065.356855,-2374.896044
437.255729,-6809.894666,-11325.150913,-3370.820191
437.256052,-9178.553681,-10955.047942,-5975.544884
437.256374,-7772.162391,-12139.377449,-7124.688131
437.256697,-5477.523971,-11547.212695,-6052.154434
437.257019,-2886.803174,-12657.521608,-5515.887586
437.257342,222.061783,-12879.583391,-3140.991542
437.257664,3404.947333,-13619.789333,0.000000
437.257987,6143.709319,-12287.418637,0.000000
437.258309,6439.791695,-9474.636058,-306.438199
437.258632,5847.626942,-6809.894666,1378.971896
437.258954,5847.626942,-5403.503377,306.438199
437.259276,5403.503377,-4663.297435,-2604.724693
437.259599,2368.659014,-5107.421000,-919.314598
437.259921,-2072.576638,-5329.482782,459.657299
437.260244,-5181.441594,-7624.121203,-2298.286494
437.260566,-6809.894666,-11473.192101,-4596.572988
437.260889,-9178.553681,-13619.789333,-4673.182538
437.261211,-9770.718434,-14211.954086,-4673.182538
437.261534,-7920.203579,-13989.892304,-4979.620737
437.261856,-3775.050304,-14730.098246,-3447.429741
437.262179,-1628.453072,-13027.624579,-2374.896044
437.262501,0.000000,-11177.109724,-1685.410096
437.262823,-222.061783,-8882.471304,-995.924147
437.263146,-592.164754,-7105.977043,-1455.581446
437.263468,-1258.350101,-8438.347739,-995.924147
437.263791,-2072.576638,-9474.636058,1455.581446
437.264113,-3034.844362,-9474.636058,1532.190996
437.264436,-3182.885551,-9178.553681,2451.505594
437.264758,-1554.432478,-9400.615463,3907.087040
437.265081,-1332.370696,-8438.347739,4673.182538
437.265403,-1702.473667,-6957.935855,5132.839837
437.265725,-2072.576638,-5477.523971,4213.525239
437.266048,-1480.411884,-6661.853478,2757.943793
437.266370,0.000000,-7031.956449,1532.190996
437.266693,814.226536,-6217.729913,612.876398
437.267015,1554.432478,-7105.977043,842.705048
437.267338,3256.906145,-10066.800811,2604.724693
437.267660,4367.215058,-11621.233289,4290.134789
437.267983,4071.132681,-11621.233289,4366.744339
437.268305,3034.844362,-11029.068536,3524.039291
437.268628,2294.638420,-10658.965565,1838.629195
437.268950,740.205942,-9400.615463,2068.457845
437.269272,-1702.473667,-8512.368333,4826.401637
437.269595,-4293.194464,-7624.121203,6052.154434
437.269917,-5329.482782,-8142.265362,4903.011187
437.270240,-4737.318029,-10732.986159,3524.039291
437.270562,-2664.741391,-11547.212695,3217.601092
437.270885,-370.102971,-10436.903782,3447.429741
437.271207,2664.741391,-11325.150913,3907.087040
437.271530,6291.750507,-11251.130318,4749.792088
437.271852,8290.306550,-9474.636058,3524.039291
437.272175,8586.388927,-9474.636058,3447.429741
437.272497,7031.956449,-10214.842000,5592.497135
437.272819,5699.585753,-8956.491898,5669.106685
437.273142,4293.194464,-6661.853478,3447.429741
437.273464,3775.050304,-7624.121203,-306.438199
437.273787,3775.050304,-11843.295072,-1149.143247
437.274109,2072.576638,-12139.377449,1378.971896
437.274432,-3182.885551,-9474.636058,3677.258390
437.274754,-7698.141797,-10658.965565,3524.039291
437.275077,-10436.903782,-13249.686362,995.924147
437.275399,-13323.706956,-14211.954086,-3370.820191
437.275722,-17394.839637,-11029.068536,-1838.629195
437.276044,-19245.354492,-7550.100608,2681.334243
437.276366,-14804.118840,-4737.318029,-1225.752797
437.276689,-5625.565159,-4589.276840,-4596.572988
437.277011,2590.720797,-5477.523971,-3983.696590
437.277334,7254.018232,-5995.668130,-3524.039291
437.277656,9252.574275,-8364.327145,-1302.362347
437.277979,10881.027347,-10658.965565,3064.381992
437.278301,9252.574275,-8364.327145,1991.848295
437.278624,6735.874072,-6513.812290,-5515.887586
437.278946,6217.729913,-10140.821405,-8273.831378
437.279268,5107.421000,-12879.583391,-4749.792088
437.279591,888.247130,-11917.315666,-612.876398
437.279913,-5181.441594,-11917.315666,3140.991542
437.280236,-8660.409521,-12583.501014,4290.134789
437.280558,-10658.965565,-10955.047942,-1532.190996
437.280881,-10658.965565,-8512.368333,-7277.907231
437.281203,-8882.471304,-7476.080014,-8963.317327
437.281526,-5551.544565,-6883.915261,-5132.839837
437.281848,222.061783,-5995.668130,-1915.238745
437.282171,5921.647536,-5033.400406,-536.266849
437.282493,8660.409521,-6217.729913,-1225.752797
437.282815,10066.800811,-9992.780217,-3677.258390
437.283138,9104.533087,-11769.274478,-6971.469032
437.283460,5773.606348,-13915.871710,-7507.735880
437.283783,1776.494261,-14878.139434,-6665.030833
437.284105,-1924.535449,-14211.954086,-4979.620737
437.284428,-4959.379811,-13249.686362,-4826.401637
437.284750,-6957.935855,-13693.809927,-5592.497135
437.285073,-7550.100608,-14211.954086,-6971.469032
437.285395,-8216.285956,-12879.583391,-5286.058936
437.285718,-5995.668130,-8660.409521,-2221.676944
437.286040,-2368.659014,-5181.441594,-1608.800546
437.286362,2294.638420,-4737.318029,-2528.115143
437.286685,5329.482782,-4293.194464,-1762.019645
437.287007,6291.750507,-3404.947333,-1838.629195
437.287330,5847.626942,-5403.503377,-1302.362347
437.287652,5033.400406,-7698.141797,0.000000
437.287975,3701.029710,-10362.883188,1149.143247
437.288297,1776.494261,-8956.491898,0.000000
437.288620,1702.473667,-10436.903782,-2757.943793
437.288942,2886.803174,-13101.645173,-2298.286494
437.289265,888.247130,-12583.501014,-1455.581446
437.289587,-1850.514855,-10658.965565,612.876398
437.289909,-4293.194464,-7920.203579,2681.334243
437.290232,-4737.318029,-7846.182985,1762.019645
437.290554,-3330.926739,-7846.182985,-1455.581446
437.290877,-2442.679609,-8142.265362,-2987.772442
437.291199,-2220.617826,-8142.265362,-459.657299
437.291522,-1036.288319,-7846.182985,2911.162892
437.291844,444.123565,-8216.285956,5209.449386
437.292167,-666.185348,-7920.203579,4826.401637
437.292489,-2368.659014,-8142.265362,2145.067394
437.292811,-3404.947333,-8956.491898,-1072.533697
437.293134,-2442.679609,-8142.265362,-1915.238745
437.293456,-1776.494261,-7550.100608,-1149.143247
437.293779,-1258.350101,-8142.265362,1072.533697
437.294101,888.247130,-9992.780217,3140.991542
437.294424,2146.597232,-11399.171507,2374.896044
437.294746,1850.514855,-11473.192101,383.047749
437.295069,814.226536,-12287.418637,-1149.143247
437.295391,222.061783,-12657.521608,-1378.971896
437.295714,-444.123565,-11325.150913,153.219100
437.296036,-666.185348,-9474.636058,1302.362347
437.296358,-666.185348,-8956.491898,1455.581446
437.296681,-370.102971,-9178.553681,612.876398
437.297003,-1258.350101,-9770.718434,0.000000
437.297326,-2812.782580,-9918.759623,76.609550
437.297648,-3552.988522,-10436.903782,766.095498
437.297971,-2294.638420,-10140.821405,919.314598
437.298293,-222.061783,-9400.615463,0.000000
437.298616,1110.308913,-7105.977043,-842.705048
437.298938,2146.597232,-5699.585753,-842.705048
437.299261,2368.659014,-5625.565159,-1225.752797
437.299583,2368.659014,-7846.182985,-1685.410096
437.299905,1850.514855,-10658.965565,-1608.800546
437.300228,740.205942,-13323.706956,-2221.676944
437.300550,-1850.514855,-13397.727550,-2221.676944
437.300873,-2960.823768,-13175.665768,-1915.238745
437.301195,-3627.009116,-11769.274478,-1991.848295
437.301518,-3552.988522,-9400.615463,-1685.410096
437.301840,-1258.350101,-7031.956449,-2221.676944
437.302163,592.164754,-4663.297435,-2374.896044
437.302485,2960.823768,-5773.606348,-2221.676944
437.302808,4367.215058,-6217.729913,-1838.629195
437.303130,4441.235652,-6735.874072,-1991.848295
437.303452,3478.967927,-7254.018232,-1838.629195
437.303775,2886.803174,-7698.141797,-2221.676944
437.304097,2294.638420,-9474.636058,-3600.648841
437.304420,518.144159,-11325.150913,-4443.353888
437.304742,-2146.597232,-12361.439231,-3217.601092
437.305065,-4219.173869,-12583.501014,-2374.896044
437.305387,-4885.359217,-11843.295072,-3140.991542
437.305710,-2886.803174,-11547.212695,-4060.306139
437.306032,-1776.494261,-9696.697840,-5056.230287
437.306354,-518.144159,-8142.265362,-4749.792088
437.306677,1258.350101,-7179.997637,-3217.601092
437.306999,2146.597232,-7105.977043,-2757.943793
437.307322,2146.597232,-6957.935855,-3294.210641
437.307644,2442.679609,-8068.244768,-4060.306139
437.307967,1998.556043,-9992.780217,-4136.915689
437.308289,1184.329507,-12213.398043,-3753.867940
437.308612,-592.164754,-12583.501014,-2298.286494
437.308934,-2368.659014,-11547.212695,-919.314598
437.309257,-3923.091493,-9918.759623,-2068.457845
437.309579,-4219.173869,-9622.677246,-3140.991542
437.309901,-4367.215058,-8660.409521,-4213.525239
437.310224,-3701.029710,-8512.368333,-4903.011187
437.310546,-1850.514855,-9400.615463,-4596.572988
437.310869,296.082377,-9992.780217,-1991.848295
437.311191,1332.370696,-10288.862594,-1302.362347
437.311514,2146.597232,-9400.615463,-1838.629195
437.311836,1776.494261,-8512.368333,-2068.457845
437.312159,1036.288319,-8438.347739,-2681.334243
437.312481,-888.247130,-8882.471304,-2528.115143
437.312804,-3478.967927,-9178.553681,-1378.971896
437.313126,-5995.668130,-9252.574275,-536.266849
437.313448,-6291.750507,-9622.677246,-383.047749
437.313771,-5255.462188,-10436.903782,-1302.362347
437.314093,-3627.009116,-11695.253884,-919.314598
437.314416,-2294.638420,-9770.718434,153.219100
437.314738,0.000000,-7476.080014,1072.533697
437.315061,1850.514855,-4663.297435,689.485948
437.315383,3108.864956,-3997.112087,-459.657299
437.315706,3404.947333,-4515.256246,-383.047749
437.316028,2664.741391,-5995.668130,-1072.533697
437.316351,1332.370696,-9400.615463,-689.485948
437.316673,74.020594,-13101.645173,383.047749
437.316995,-1258.350101,-14508.036463,1915.238745
437.317318,-2368.659014,-13693.809927,1532.190996
437.317640,-666.185348,-11325.150913,-459.657299
437.317963,-370.102971,-8216.285956,-1762.019645
437.318285,2146.597232,-7105.977043,-1532.190996
437.318608,2664.741391,-6069.688724,-229.828649
437.318930,2812.782580,-6587.832884,842.705048
437.319253,2590.720797,-8216.285956,536.266849
437.319575,2146.597232,-9622.677246,-536.266849
437.319897,2072.576638,-11325.150913,-2374.896044
437.320220,1258.350101,-11621.233289,-1915.238745
437.320542,740.205942,-11843.295072,0.000000
437.320865,-592.164754,-11547.212695,1072.533697
437.321187,-2442.679609,-11325.150913,919.314598
437.321510,-3849.070898,-9992.780217,-919.314598
437.321832,-4737.318029,-9252.574275,-3983.696590
437.322155,-3478.967927,-9696.697840,-4673.182538
437.322477,-1628.453072,-10214.842000,-3370.820191
437.322800,444.123565,-10288.862594,-689.485948
437.323122,1258.350101,-10140.821405,919.314598
437.323444,1554.432478,-10140.821405,995.924147
437.323767,1110.308913,-9326.594869,-459.657299
437.324089,592.164754,-7698.141797,-2298.286494
437.324412,444.123565,-6809.894666,-2757.943793
437.324734,592.164754,-7476.080014,-2145.067394
437.325057,0.000000,-8882.471304,-536.266849
437.325379,-888.247130,-10140.821405,842.705048
437.325702,-1406.391290,-10807.006753,766.095498
437.326024,-2220.617826,-10732.986159,-459.657299
437.326347,-1184.329507,-9474.636058,-1915.238745
437.326669,-74.020594,-7772.162391,-2604.724693
437.326992,1554.432478,-5625.565159,-1915.238745
437.327314,2516.700203,-4293.194464,-1225.752797
437.327637,3034.844362,-4737.318029,-1455.581446
437.327959,2220.617826,-5995.668130,-1991.848295
437.328282,518.144159,-8068.244768,-2911.162892
437.328604,-1702.473667,-11251.130318,-4060.306139
437.328927,-3552.988522,-13101.645173,-3447.429741
437.329249,-4737.318029,-13397.727550,-2757.943793
437.329572,-5033.400406,-11769.274478,-2374.896044
437.329894,-5329.482782,-9326.594869,-3983.696590
437.330217,-4219.173869,-8808.450710,-4596.572988
437.330539,-2664.741391,-8586.388927,-4673.182538
437.330862,-1850.514855,-8586.388927,-3753.867940
437.331184,-740.205942,-9178.553681,-2757.943793
437.331506,518.144159,-9844.739029,-3447.429741
437.331829,1554.432478,-9918.759623,-3294.210641
437.332151,1924.535449,-9844.739029,-2834.553343
437.332474,1850.514855,-10658.965565,-2757.943793
437.332796,740.205942,-11473.192101,-3140.991542
437.333119,-1480.411884,-11695.253884,-2298.286494
437.333441,-3997.112087,-11177.109724,-2221.676944
437.333764,-4885.359217,-11103.089130,-2834.553343
437.334086,-4293.194464,-10658.965565,-4213.525239
437.334409,-1776.494261,-10658.965565,-3830.477490
437.334731,1110.308913,-9030.512492,-2987.772442
437.335054,3404.947333,-8290.306550,-1225.752797
437.335376,4367.215058,-7772.162391,0.000000
437.335699,4737.318029,-7550.100608,-459.657299
437.336021,3923.091493,-7698.141797,-2298.286494
437.336344,2294.638420,-7698.141797,-3753.867940
437.336666,518.144159,-8808.450710,-3140.991542
437.336989,0.000000,-10658.965565,-1838.629195
437.337311,-1258.350101,-11473.192101,153.219100
437.337634,-2516.700203,-11251.130318,1072.533697
437.337956,-3108.864956,-10066.800811,0.000000
437.338279,-2590.720797,-8364.327145,-1838.629195
437.338601,-1850.514855,-7254.018232,-1762.019645
437.338924,-1924.535449,-6069.688724,-612.876398
437.339246,-1184.329507,-5625.565159,306.438199
437.339569,-148.041188,-5699.585753,0.000000
437.339891,666.185348,-6883.915261,-842.705048
437.340214,1406.391290,-7698.141797,-1302.362347
437.340536,1110.308913,-9474.636058,-1762.019645
437.340859,888.247130,-10584.944971,-1378.971896
437.341181,296.082377,-11769.274478,-995.924147
437.341504,-888.247130,-12583.501014,-689.485948
437.341826,-2220.617826,-12583.501014,-689.485948
437.342149,-2886.803174,-12065.356855,-1378.971896
437.342471,-2368.659014,-9696.697840,-2145.067394
437.342793,-518.144159,-8438.347739,-2374.896044
437.343116,1406.391290,-7179.997637,-2145.067394
437.343438,3034.844362,-7105.977043,-612.876398
437.343761,3701.029710,-7624.121203,0.000000
437.344083,3256.906145,-9178.553681,-766.095498
437.344406,2220.617826,-10881.027347,-1225.752797
437.344728,444.123565,-11621.233289,-1762.019645
