#time,accel_x,accel_y,accel_z
380.507484,-592.164754,-9104.533087,-2068.457845
380.507806,-518.144159,-9252.574275,-1762.019645
380.508129,-444.123565,-9326.594869,-1991.848295
380.508451,-444.123565,-9696.697840,-1685.410096
380.508773,-444.123565,-9104.533087,-1608.800546
380.509096,-444.123565,-9326.594869,-2221.676944
380.509418,-370.102971,-9400.615463,-2068.457845
380.509741,-444.123565,-9696.697840,-1991.848295
380.510063,-370.102971,-9622.677246,-1838.629195
380.510386,0.000000,-9400.615463,-2298.286494
380.510708,0.000000,-9474.636058,-2221.676944
380.511030,-148.041188,-9474.636058,-2145.067394
380.511353,-370.102971,-9178.553681,-1685.410096
380.511675,-518.144159,-9474.636058,-1838.629195
380.511998,-518.144159,-9474.636058,-1915.238745
380.512320,0.000000,-9770.718434,-2145.067394
380.512643,-370.102971,-9400.615463,-1685.410096
380.512965,-518.144159,-9474.636058,-1608.800546
380.513287,-370.102971,-9474.636058,-1762.019645
380.513610,0.000000,-9474.636058,-1838.629195
380.513932,0.000000,-9030.512492,-1762.019645
380.514255,-222.061783,-9400.615463,-1608.800546
380.514577,-518.144159,-9474.636058,-1532.190996
380.514899,-592.164754,-9474.636058,-1532.190996
380.515222,-666.185348,-9548.656652,-1608.800546
380.515544,-296.082377,-9474.636058,-1455.581446
380.515867,-518.144159,-8660.409521,-1225.752797
380.516189,-518.144159,-9400.615463,-1532.190996
380.516512,-222.061783,-9326.594869,-1302.362347
380.516834,-296.082377,-9400.615463,-1149.143247
380.517156,-370.102971,-9474.636058,-1762.019645
380.517479,-148.041188,-9326.594869,-1072.533697
380.517801,-148.041188,-9474.636058,-1378.971896
380.518124,-518.144159,-9326.594869,-1302.362347
380.518446,-518.144159,-9400.615463,-1072.533697
380.518769,-518.144159,-9252.574275,-1072.533697
380.519091,-444.123565,-8734.430116,-1149.143247
380.519413,-222.061783,-8882.471304,-1378.971896
380.519736,-444.123565,-9326.594869,-995.924147
380.520058,-518.144159,-9548.656652,-1149.143247
380.520381,-444.123565,-9548.656652,-1302.362347
380.520703,-444.123565,-9178.553681,-1072.533697
380.521026,-370.102971,-9252.574275,-1685.410096
380.521348,-296.082377,-9178.553681,-1378.971896
380.521670,-296.082377,-9178.553681,-1378.971896
380.521993,-222.061783,-9030.512492,-1149.143247
380.522315,-148.041188,-9104.533087,-1072.533697
380.522638,-740.205942,-9030.512492,-1225.752797
380.522960,-444.123565,-9178.553681,-1225.752797
380.523282,-592.164754,-9474.636058,-1302.362347
380.523605,-740.205942,-9474.636058,-1455.581446
380.523927,-666.185348,-9252.574275,-1532.190996
380.524250,-592.164754,-8660.409521,-1302.362347
380.524572,0.000000,-8734.430116,-1762.019645
380.524895,0.000000,-9252.574275,-1762.019645
380.525217,-296.082377,-9400.615463,-1532.190996
380.525539,-444.123565,-9622.677246,-1378.971896
380.525862,-222.061783,-9844.739029,-1455.581446
380.526184,814.226536,-9474.636058,-2068.457845
380.526507,2146.597232,-9992.780217,-2374.896044
380.526829,2738.761985,-9474.636058,-1302.362347
380.527152,2442.679609,-8660.409521,-306.438199
380.527474,1702.473667,-8216.285956,-919.314598
380.527796,592.164754,-8660.409521,-2068.457845
380.528119,-1406.391290,-9030.512492,-2528.115143
380.528441,-3256.906145,-9548.656652,-2221.676944
380.528764,-4737.318029,-10066.800811,-2298.286494
380.529086,-4293.194464,-9770.718434,-3217.601092
380.529408,-1702.473667,-10362.883188,-3753.867940
380.529731,1554.432478,-11029.068536,-3140.991542
380.530053,3478.967927,-10955.047942,-1072.533697
380.530376,3478.967927,-9770.718434,153.219100
380.530698,2738.761985,-8734.430116,-153.219100
380.531021,2886.803174,-9252.574275,-1378.971896
380.531343,3182.885551,-9770.718434,-2451.505594
380.531665,2368.659014,-9622.677246,-2221.676944
380.531988,0.000000,-7698.141797,-383.047749
380.532310,-296.082377,-7105.977043,-383.047749
380.532633,1332.370696,-8660.409521,-2221.676944
380.532955,2220.617826,-9696.697840,-2757.943793
380.533278,74.020594,-9770.718434,-612.876398
380.533600,-1850.514855,-8808.450710,-229.828649
380.533922,-1332.370696,-9030.512492,-2911.162892
380.534245,0.000000,-9548.656652,-4519.963438
380.534567,592.164754,-10140.821405,-2221.676944
380.534890,814.226536,-10881.027347,-995.924147
380.535212,1702.473667,-10214.842000,-2068.457845
380.535535,3404.947333,-9696.697840,-2221.676944
380.535857,4811.338623,-10881.027347,-766.095498
380.536179,4737.318029,-11843.295072,153.219100
380.536502,3552.988522,-10362.883188,-536.266849
380.536824,2220.617826,-8216.285956,-919.314598
380.537147,2368.659014,-7772.162391,-995.924147
380.537469,2368.659014,-8290.306550,-766.095498
380.537791,1702.473667,-7254.018232,-842.705048
380.538114,666.185348,-6217.729913,-383.047749
380.538436,1184.329507,-8290.306550,459.657299
380.538759,2368.659014,-10732.986159,76.609550
380.539081,2590.720797,-10510.924376,-842.705048
380.539404,1776.494261,-9918.759623,-1838.629195
380.539726,2294.638420,-10214.842000,-995.924147
380.540048,3108.864956,-9622.677246,-919.314598
380.540371,3404.947333,-9622.677246,-2374.896044
380.540693,2886.803174,-9326.594869,-2068.457845
380.541016,2886.803174,-10066.800811,-1072.533697
380.541338,3330.926739,-9622.677246,-383.047749
380.541661,3478.967927,-9474.636058,-1455.581446
380.541983,2516.700203,-9696.697840,-1378.971896
380.542305,2072.576638,-9104.533087,-536.266849
380.542628,1480.411884,-8142.265362,0.000000
380.542950,370.102971,-7179.997637,-919.314598
380.543273,-296.082377,-7328.038826,-1378.971896
380.543595,-888.247130,-8586.388927,-1378.971896
380.543917,-592.164754,-10066.800811,-919.314598
380.544240,-296.082377,-11029.068536,-459.657299
380.544562,74.020594,-12139.377449,-1302.362347
380.544885,1110.308913,-12065.356855,-766.095498
380.545207,1628.453072,-10881.027347,0.000000
380.545530,2220.617826,-9992.780217,-612.876398
380.545852,2220.617826,-8956.491898,-1608.800546
380.546174,2072.576638,-8068.244768,-1838.629195
380.546497,1554.432478,-7846.182985,-1149.143247
380.546819,1258.350101,-8068.244768,-1378.971896
380.547142,962.267725,-8364.327145,-1991.848295
380.547464,1036.288319,-8586.388927,-1991.848295
380.547787,888.247130,-8512.368333,-1532.190996
380.548109,1554.432478,-7994.224174,-1991.848295
380.548431,1998.556043,-7698.141797,-2757.943793
380.548754,2294.638420,-8142.265362,-2298.286494
380.549076,1924.535449,-9030.512492,-1838.629195
380.549399,1628.453072,-9474.636058,-2145.067394
380.549721,1554.432478,-10658.965565,-2681.334243
380.550043,1110.308913,-11621.233289,-2528.115143
380.550366,1332.370696,-11917.315666,-995.924147
380.550688,1480.411884,-11769.274478,-919.314598
380.551011,1480.411884,-10436.903782,-1149.143247
380.551333,1850.514855,-9548.656652,-1225.752797
380.551656,2368.659014,-9104.533087,-919.314598
380.551978,2960.823768,-8660.409521,-1302.362347
380.552300,2960.823768,-7698.141797,-1072.533697
380.552623,3923.091493,-7994.224174,-1915.238745
380.552945,4959.379811,-8586.388927,-1991.848295
380.553268,5551.544565,-8734.430116,-1762.019645
380.553590,5329.482782,-9474.636058,-1608.800546
380.553913,4663.297435,-9400.615463,-995.924147
380.554235,4145.153275,-10510.924376,-2451.505594
380.554557,3478.967927,-11547.212695,-3140.991542
380.554880,2146.597232,-12139.377449,-2298.286494
380.555202,1036.288319,-11917.315666,-995.924147
380.555525,370.102971,-10807.006753,-612.876398
380.555847,592.164754,-9770.718434,-919.314598
380.556170,74.020594,-8216.285956,0.000000
380.556492,-444.123565,-7105.977043,306.438199
380.556814,-592.164754,-6217.729913,229.828649
380.557137,0.000000,-5477.523971,-153.219100
380.557459,666.185348,-5773.606348,-995.924147
380.557782,814.226536,-6661.853478,-1149.143247
380.558104,592.164754,-7920.203579,-1072.533697
380.558426,222.061783,-9178.553681,-1225.752797
380.558749,148.041188,-10658.965565,-2068.457845
380.559071,74.020594,-11177.109724,-2834.553343
380.559394,-222.061783,-11695.253884,-3064.381992
380.559716,-1776.494261,-11177.109724,-2374.896044
380.560039,-2294.638420,-11325.150913,-2298.286494
380.560361,-2960.823768,-11695.253884,-2604.724693
380.560683,-3404.947333,-11991.336260,-2451.505594
380.561006,-4071.132681,-11769.274478,-1608.800546
380.561328,-4219.173869,-11399.171507,-689.485948
380.561651,-3552.988522,-10510.924376,153.219100
380.561973,-2294.638420,-9104.533087,306.438199
380.562296,-962.267725,-7179.997637,153.219100
380.562618,592.164754,-7179.997637,459.657299
380.562940,2072.576638,-5773.606348,229.828649
380.563263,3256.906145,-5403.503377,-689.485948
380.563585,4145.153275,-5255.462188,-919.314598
380.563908,5625.565159,-6365.771101,-1915.238745
380.564230,6365.771101,-8290.306550,-3524.039291
380.564552,5995.668130,-10881.027347,-4213.525239
380.564875,4885.359217,-12509.480420,-2221.676944
380.565197,2886.803174,-13101.645173,-1838.629195
380.565520,74.020594,-12953.603985,-1762.019645
380.565842,-3034.844362,-11621.233289,-1608.800546
380.566165,-4515.256246,-9474.636058,-2145.067394
380.566487,-5551.544565,-9252.574275,-4213.525239
380.566809,-6809.894666,-9030.512492,-2834.553343
380.567132,-7476.080014,-7550.100608,459.657299
380.567454,-7254.018232,-5329.482782,-612.876398
380.567777,-4959.379811,-7105.977043,-2757.943793
380.568099,-888.247130,-10436.903782,-3140.991542
380.568422,1776.494261,-10658.965565,-3370.820191
380.568744,4219.173869,-10955.047942,-3140.991542
380.569066,7105.977043,-11325.150913,-1225.752797
380.569389,10510.924376,-10732.986159,-766.095498
380.569711,12583.501014,-9474.636058,-2528.115143
380.570034,10955.047942,-7624.121203,-1378.971896
380.570356,9252.574275,-6439.791695,-612.876398
380.570679,7254.018232,-9400.615463,-3677.258390
380.571001,5625.565159,-13249.686362,-2911.162892
380.571323,2886.803174,-13471.748144,459.657299
380.571646,-1776.494261,-10584.944971,1915.238745
380.571968,-4811.338623,-8808.450710,1762.019645
380.572291,-5699.585753,-7179.997637,919.314598
380.572613,-6587.832884,-5773.606348,-1225.752797
380.572935,-9030.512492,-4589.276840,-2145.067394
380.573258,-11547.212695,-5995.668130,306.438199
380.573580,-12139.377449,-6291.750507,-229.828649
380.573903,-9918.759623,-9030.512492,-4213.525239
380.574225,-6143.709319,-12065.356855,-5745.716235
380.574548,-2072.576638,-13249.686362,-5592.497135
380.574870,74.020594,-13175.665768,-4903.011187
380.575193,3256.906145,-13989.892304,-2834.553343
380.575515,5181.441594,-11991.336260,-1072.533697
380.575838,6661.853478,-8512.368333,-3217.601092
380.576161,7105.977043,-6661.853478,-5975.544884
380.576483,7105.977043,-7624.121203,-4903.011187
380.576806,6735.874072,-10510.924376,-1608.800546
380.577128,3849.070898,-9992.780217,2987.772442
380.577451,-444.123565,-9918.759623,5975.544884
380.577773,-3108.864956,-9474.636058,5209.449386
380.578096,-4145.153275,-7772.162391,2528.115143
380.578418,-5329.482782,-6883.915261,-1378.971896
380.578741,-6809.894666,-7328.038826,-1991.848295
380.579064,-7328.038826,-7105.977043,1532.190996
380.579386,-5847.626942,-4589.276840,1455.581446
380.579709,-4145.153275,-7105.977043,-383.047749
380.580031,-962.267725,-11251.130318,-4673.182538
380.580354,1480.411884,-13989.892304,-7048.078582
380.580676,3256.906145,-15396.283594,-6665.030833
380.580999,3627.009116,-14508.036463,-3677.258390
380.581321,3404.947333,-12435.459826,-1838.629195
380.581644,4071.132681,-8216.285956,-3447.429741
380.581967,4219.173869,-6365.771101,-6205.373534
380.582289,3182.885551,-8290.306550,-5209.449386
380.582612,888.247130,-10140.821405,-2221.676944
380.582934,-3034.844362,-9474.636058,1991.848295
380.583257,-5995.668130,-7994.224174,5056.230287
380.583579,-6883.915261,-8438.347739,4519.963438
380.583902,-6587.832884,-7772.162391,1685.410096
380.584224,-7105.977043,-6217.729913,-612.876398
380.584547,-7698.141797,-5181.441594,766.095498
380.584870,-7105.977043,-3923.091493,1532.190996
380.585192,-3997.112087,-5921.647536,0.000000
380.585515,222.061783,-9548.656652,-2068.457845
380.585837,3627.009116,-12065.356855,-3830.477490
380.586160,6291.750507,-13841.851115,-5669.106685
380.586482,8956.491898,-15248.242405,-4673.182538
380.586805,10066.800811,-13027.624579,-1685.410096
380.587128,9178.553681,-10066.800811,-3294.210641
380.587450,7402.059420,-8956.491898,-5056.230287
380.587773,5921.647536,-9400.615463,-4673.182538
380.588095,3034.844362,-9326.594869,-4366.744339
380.588418,-962.267725,-9548.656652,-2911.162892
380.588740,-4663.297435,-9548.656652,2221.676944
380.589063,-6661.853478,-8290.306550,3217.601092
380.589385,-7105.977043,-8438.347739,229.828649
380.589708,-8734.430116,-8216.285956,-306.438199
380.590031,-9252.574275,-6661.853478,766.095498
380.590353,-8956.491898,-3256.906145,-1072.533697
380.590676,-5107.421000,-5181.441594,-2604.724693
380.590998,-444.123565,-8364.327145,-2451.505594
380.591321,3034.844362,-11103.089130,-3753.867940
380.591643,5255.462188,-14508.036463,-3830.477490
380.591966,7031.956449,-15470.304188,-1915.238745
380.592288,9400.615463,-13323.706956,-1149.143247
380.592611,10288.862594,-9844.739029,-5209.449386
380.592934,8586.388927,-8882.471304,-6358.592633
380.593256,6217.729913,-9400.615463,-4136.915689
380.593579,3552.988522,-9400.615463,-2757.943793
380.593901,0.000000,-10140.821405,-612.876398
380.594224,-4071.132681,-11029.068536,1838.629195
380.594546,-7698.141797,-8808.450710,2374.896044
380.594869,-8882.471304,-6809.894666,842.705048
380.595192,-8882.471304,-7254.018232,-536.266849
380.595514,-9696.697840,-8438.347739,-612.876398
380.595837,-9326.594869,-6735.874072,2298.286494
380.596159,-8068.244768,-3775.050304,919.314598
380.596482,-6365.771101,-4293.194464,-1072.533697
380.596804,-3108.864956,-10807.006753,-3294.210641
380.597127,740.205942,-13841.851115,-4903.011187
380.597449,2368.659014,-14359.995275,-5132.839837
380.597772,3849.070898,-13175.665768,-1762.019645
380.598095,6957.935855,-10807.006753,0.000000
380.598417,9992.780217,-8586.388927,-4826.401637
380.598740,9992.780217,-8438.347739,-6205.373534
380.599062,7254.018232,-7105.977043,-2145.067394
380.599385,2146.597232,-7402.059420,-689.485948
380.599707,-1184.329507,-11029.068536,1302.362347
380.600030,-3404.947333,-10955.047942,3830.477490
380.600352,-6661.853478,-8216.285956,1225.752797
380.600675,-7105.977043,-6069.688724,306.438199
380.600998,-6439.791695,-6513.812290,0.000000
380.601320,-6513.812290,-8882.471304,-842.705048
380.601643,-6217.729913,-6143.709319,1685.410096
380.601965,-4959.379811,-4737.318029,1455.581446
380.602288,-4071.132681,-6143.709319,-2911.162892
380.602610,148.041188,-13175.665768,-5975.544884
380.602933,2886.803174,-15988.448347,-6818.249932
380.603255,4959.379811,-16062.468941,-6128.763984
380.603578,7105.977043,-15544.324782,-3217.601092
380.603901,9474.636058,-13915.871710,-459.657299
380.604223,9992.780217,-9548.656652,-1455.581446
380.604546,9326.594869,-4663.297435,-3983.696590
380.604868,7105.977043,-5551.544565,-5592.497135
380.605191,4959.379811,-10807.006753,-3907.087040
380.605513,1702.473667,-12213.398043,2068.457845
380.605836,-3923.091493,-8364.327145,6281.983084
380.606159,-7772.162391,-7846.182985,4903.011187
380.606481,-8068.244768,-7846.182985,2681.334243
380.606804,-6291.750507,-4811.338623,1072.533697
380.607126,-8216.285956,-2368.659014,-2068.457845
380.607449,-9622.677246,-4589.276840,-1072.533697
380.607771,-9326.594869,-6661.853478,1378.971896
380.608094,-6143.709319,-8956.491898,0.000000
380.608416,-4219.173869,-10214.842000,-4596.572988
380.608739,-1480.411884,-13619.789333,-9039.926876
380.609062,1998.556043,-15100.201217,-9269.755526
380.609384,4071.132681,-15470.304188,-5822.325785
380.609707,5033.400406,-13915.871710,-1072.533697
380.610029,5551.544565,-11251.130318,-1838.629195
380.610352,7254.018232,-8512.368333,-6281.983084
380.610674,8364.327145,-7772.162391,-5362.668486
380.610997,6957.935855,-8438.347739,-1915.238745
380.611319,3034.844362,-9548.656652,306.438199
380.611642,-666.185348,-10807.006753,4366.744339
380.611965,-2960.823768,-8660.409521,7354.516781
380.612287,-4293.194464,-7031.956449,4290.134789
380.612610,-4589.276840,-5625.565159,-766.095498
380.612932,-5107.421000,-5107.421000,-1532.190996
380.613255,-5995.668130,-4145.153275,1685.410096
380.613577,-5551.544565,-4367.215058,2528.115143
380.613900,-3627.009116,-7105.977043,-459.657299
380.614223,-1702.473667,-10510.924376,-4136.915689
380.614545,1110.308913,-13323.706956,-6435.202183
380.614868,2516.700203,-15618.345376,-7814.174080
380.615190,3034.844362,-16062.468941,-5898.935335
380.615513,3034.844362,-13323.706956,-2987.772442
380.615835,3034.844362,-10436.903782,-4136.915689
380.616158,3108.864956,-9696.697840,-5592.497135
380.616480,3627.009116,-11177.109724,-5898.935335
380.616803,740.205942,-10881.027347,-4290.134789
380.617126,-3478.967927,-10214.842000,919.314598
380.617448,-6587.832884,-8882.471304,5056.230287
380.617771,-7920.203579,-6957.935855,4060.306139
380.618093,-7402.059420,-5477.523971,1685.410096
380.618416,-7031.956449,-5625.565159,-306.438199
380.618738,-6291.750507,-6365.771101,689.485948
380.619061,-5255.462188,-5477.523971,2298.286494
380.619383,-3034.844362,-4589.276840,1762.019645
380.619706,-370.102971,-7402.059420,0.000000
380.620029,3182.885551,-11251.130318,-2374.896044
380.620351,4663.297435,-12731.542202,-4749.792088
380.620674,5921.647536,-12213.398043,-4749.792088
380.620996,7328.038826,-11991.336260,-3753.867940
380.621319,7920.203579,-11917.315666,-5132.839837
380.621641,7550.100608,-12287.418637,-4596.572988
380.621964,5551.544565,-11251.130318,-3217.601092
380.622286,1776.494261,-10288.862594,-2757.943793
380.622609,-2294.638420,-11103.089130,-2145.067394
380.622932,-5033.400406,-10214.842000,153.219100
380.623254,-7772.162391,-6809.894666,1532.190996
380.623577,-8142.265362,-4441.235652,766.095498
380.623899,-8808.450710,-5773.606348,-842.705048
380.624222,-7994.224174,-6809.894666,0.000000
380.624544,-6661.853478,-4959.379811,766.095498
380.624867,-5255.462188,-2590.720797,153.219100
380.625190,-2368.659014,-7772.162391,-1532.190996
380.625512,1998.556043,-11769.274478,-3064.381992
380.625835,4885.359217,-12731.542202,-4673.182538
380.626157,6439.791695,-14952.160028,-4903.011187
380.626480,8290.306550,-15692.365970,-1915.238745
380.626802,11325.150913,-12287.418637,-1225.752797
380.627125,11473.192101,-8290.306550,-4826.401637
380.627447,9326.594869,-8956.491898,-4903.011187
380.627770,6957.935855,-11843.295072,-2757.943793
380.628093,3552.988522,-12583.501014,-1302.362347
380.628415,-1702.473667,-11473.192101,2145.067394
380.628738,-6069.688724,-8956.491898,2757.943793
380.629060,-9326.594869,-5995.668130,689.485948
380.629383,-7550.100608,-4441.235652,0.000000
380.629705,-8956.491898,-5329.482782,-689.485948
380.630028,-9696.697840,-7254.018232,766.095498
380.630350,-9770.718434,-6809.894666,1532.190996
380.630673,-6735.874072,-5847.626942,-383.047749
380.630996,-4219.173869,-7698.141797,-2681.334243
380.631318,-1480.411884,-12583.501014,-5209.449386
380.631641,888.247130,-13767.830521,-6665.030833
380.631963,1628.453072,-13027.624579,-5669.106685
380.632286,3182.885551,-11695.253884,-1838.629195
380.632608,6143.709319,-10140.821405,-2604.724693
380.632931,8660.409521,-10214.842000,-7048.078582
380.633254,8660.409521,-11473.192101,-5439.278036
380.633576,6735.874072,-9844.739029,-536.266849
380.633899,2442.679609,-9918.759623,766.095498
380.634221,0.000000,-10732.986159,3983.696590
380.634544,-2886.803174,-7105.977043,4903.011187
380.634866,-6143.709319,-4367.215058,76.609550
380.635189,-6291.750507,-4737.318029,-919.314598
380.635511,-6143.709319,-7254.018232,76.609550
380.635834,-5773.606348,-7698.141797,0.000000
380.636157,-4071.132681,-7105.977043,2145.067394
380.636479,-2960.823768,-5551.544565,1149.143247
380.636802,-1480.411884,-10140.821405,-2221.676944
380.637124,1480.411884,-14211.954086,-4903.011187
380.637447,2738.761985,-14434.015869,-7201.297681
380.637769,3256.906145,-14359.995275,-7048.078582
380.638092,3775.050304,-13175.665768,-2681.334243
380.638414,5773.606348,-9992.780217,0.000000
380.638737,6217.729913,-7920.203579,-3907.087040
380.639060,6661.853478,-9918.759623,-7201.297681
380.639382,4663.297435,-12139.377449,-2834.553343
380.639705,1036.288319,-11177.109724,1532.190996
380.640027,-4071.132681,-8808.450710,3677.258390
380.640350,-8068.244768,-7254.018232,3830.477490
380.640672,-9622.677246,-5181.441594,1685.410096
380.640995,-8734.430116,-4071.132681,-459.657299
380.641317,-9474.636058,-2738.761985,-383.047749
380.641640,-9252.574275,-5921.647536,-842.705048
380.641963,-6883.915261,-8068.244768,-383.047749
380.642285,-3034.844362,-9918.759623,766.095498
380.642608,-962.267725,-9030.512492,-536.266849
380.642930,222.061783,-12805.562797,-5822.325785
380.643253,2886.803174,-14730.098246,-7967.393179
380.643575,4515.256246,-13101.645173,-5669.106685
380.643898,5403.503377,-11547.212695,-2604.724693
380.644221,6439.791695,-10510.924376,-3217.601092
380.644543,7846.182985,-11843.295072,-4903.011187
380.644866,9030.512492,-11843.295072,-3524.039291
380.645188,6365.771101,-8734.430116,-919.314598
380.645511,1332.370696,-8586.388927,919.314598
380.645833,-2368.659014,-8808.450710,3294.210641
380.646156,-4811.338623,-5625.565159,4060.306139
380.646478,-7105.977043,-3701.029710,612.876398
380.646801,-8068.244768,-5033.400406,-2451.505594
380.647124,-7698.141797,-6439.791695,-1608.800546
380.647446,-5847.626942,-5847.626942,612.876398
380.647769,-4071.132681,-6069.688724,1149.143247
380.648091,-2072.576638,-8586.388927,-383.047749
380.648414,666.185348,-12805.562797,-3524.039291
380.648736,3404.947333,-14137.933492,-5898.935335
380.649059,3997.112087,-14582.057057,-7660.954980
380.649381,4589.276840,-14063.912898,-5898.935335
380.649704,5773.606348,-11251.130318,-2528.115143
380.650027,7179.997637,-9400.615463,-3983.696590
380.650349,7105.977043,-10510.924376,-3983.696590
380.650672,6291.750507,-11843.295072,-2681.334243
380.650994,3256.906145,-11251.130318,-1225.752797
380.651317,-592.164754,-10214.842000,1532.190996
380.651639,-4515.256246,-7846.182985,4673.182538
380.651962,-7105.977043,-4811.338623,2298.286494
380.652285,-7254.018232,-3182.885551,-536.266849
380.652607,-6957.935855,-3701.029710,0.000000
380.652930,-7698.141797,-6217.729913,612.876398
380.653252,-6069.688724,-7550.100608,1072.533697
380.653575,-4293.194464,-7846.182985,-306.438199
380.653897,-2516.700203,-10658.965565,-1225.752797
380.654220,0.000000,-13693.809927,-2911.162892
380.654542,2146.597232,-13693.809927,-5592.497135
380.654865,2516.700203,-11843.295072,-5898.935335
380.655188,4145.153275,-10732.986159,-3294.210641
380.655510,6217.729913,-9844.739029,-3677.258390
380.655833,7105.977043,-11177.109724,-5209.449386
380.656155,6587.832884,-11473.192101,-3064.381992
380.656478,2886.803174,-9918.759623,-459.657299
380.656800,148.041188,-10807.006753,0.000000
380.657123,-1998.556043,-10436.903782,2374.896044
380.657445,-4885.359217,-6365.771101,3140.991542
380.657768,-7846.182985,-2960.823768,229.828649
380.658091,-8142.265362,-3552.988522,0.000000
380.658413,-7254.018232,-5699.585753,-1149.143247
380.658736,-5995.668130,-7328.038826,-1608.800546
380.659058,-4441.235652,-8142.265362,766.095498
380.659381,-2812.782580,-8586.388927,0.000000
380.659703,-1036.288319,-11621.233289,-1685.410096
380.660026,2812.782580,-15026.180623,-3600.648841
380.660348,3849.070898,-13767.830521,-5822.325785
380.660671,4663.297435,-13397.727550,-5822.325785
380.660994,6957.935855,-10732.986159,-2528.115143
380.661316,8068.244768,-9474.636058,-3294.210641
380.661639,9178.553681,-10362.883188,-5209.449386
380.661961,7994.224174,-11695.253884,-2604.724693
380.662284,4737.318029,-10658.965565,459.657299
380.662606,0.000000,-10288.862594,1149.143247
380.662929,-4219.173869,-8956.491898,2221.676944
380.663252,-7402.059420,-5403.503377,1302.362347
380.663574,-9548.656652,-3182.885551,-1225.752797
380.663897,-10214.842000,-4293.194464,-689.485948
380.664219,-9696.697840,-7624.121203,0.000000
380.664542,-8364.327145,-8068.244768,-536.266849
380.664864,-5403.503377,-8512.368333,-383.047749
380.665187,-3478.967927,-8438.347739,-1225.752797
380.665509,-1480.411884,-11843.295072,-2911.162892
380.665832,1406.391290,-13471.748144,-5132.839837
380.666155,2368.659014,-11991.336260,-6588.421283
380.666477,3923.091493,-10807.006753,-4673.182538
380.666800,6735.874072,-9992.780217,-2757.943793
380.667122,8586.388927,-9992.780217,-4826.401637
380.667445,9326.594869,-11621.233289,-4213.525239
380.667767,8216.285956,-11103.089130,-689.485948
380.668090,5033.400406,-10140.821405,995.924147
380.668412,1184.329507,-9696.697840,1762.019645
380.668735,-2516.700203,-6957.935855,3064.381992
380.669058,-5847.626942,-3701.029710,919.314598
380.669380,-8142.265362,-3552.988522,-1838.629195
380.669703,-7846.182985,-5921.647536,-842.705048
380.670025,-8216.285956,-7328.038826,-459.657299
380.670348,-6143.709319,-8364.327145,0.000000
380.670670,-4663.297435,-8586.388927,306.438199
380.670993,-2294.638420,-10288.862594,-1762.019645
380.671316,0.000000,-13545.768739,-3677.258390
380.671638,3034.844362,-14137.933492,-5822.325785
380.671961,3775.050304,-13619.789333,-7431.126331
380.672283,4885.359217,-12805.562797,-3830.477490
380.672606,6439.791695,-9548.656652,-612.876398
380.672928,7994.224174,-8734.430116,-4060.306139
380.673251,8586.388927,-10732.986159,-5286.058936
380.673573,7624.121203,-11917.315666,-2145.067394
380.673896,4071.132681,-10214.842000,1608.800546
380.674219,-592.164754,-9622.677246,3370.820191
380.674533,-4885.359217,-7031.956449,4749.792088
380.674855,-7328.038826,-4367.215058,1225.752797
380.675177,-8512.368333,-3552.988522,-2221.676944
380.675500,-8364.327145,-5255.462188,0.000000
380.675822,-8808.450710,-7994.224174,-306.438199
380.676145,-6365.771101,-9696.697840,-153.219100
380.676467,-3552.988522,-9992.780217,1762.019645
380.676789,-1702.473667,-9252.574275,0.000000
380.677112,-592.164754,-11843.295072,-3524.039291
380.677434,1776.494261,-13249.686362,-6358.592633
380.677757,2220.617826,-10881.027347,-6511.811733
380.678079,2738.761985,-9696.697840,-3983.696590
380.678401,3997.112087,-9400.615463,-2451.505594
380.678724,5551.544565,-10584.944971,-3600.648841
380.679046,7624.121203,-12287.418637,-3983.696590
380.679368,7031.956449,-11917.315666,-1532.190996
380.679691,3701.029710,-10807.006753,1915.238745
380.680013,-148.041188,-9474.636058,3370.820191
380.680336,-3701.029710,-6069.688724,4519.963438
380.680658,-7105.977043,-2590.720797,1608.800546
380.680980,-8290.306550,-3108.864956,-2221.676944
380.681303,-8216.285956,-5107.421000,-2757.943793
380.681625,-7624.121203,-7402.059420,-1532.190996
380.681948,-5921.647536,-9178.553681,995.924147
380.682270,-2886.803174,-9474.636058,1991.848295
380.682592,-1258.350101,-10510.924376,-1149.143247
380.682915,1480.411884,-13323.706956,-4749.792088
380.683237,3627.009116,-12879.583391,-6971.469032
380.683559,3627.009116,-11991.336260,-7737.564530
380.683882,4293.194464,-11473.192101,-4596.572988
380.684204,4885.359217,-9770.718434,-1915.238745
380.684527,5847.626942,-9844.739029,-4060.306139
380.684849,6143.709319,-11399.171507,-4979.620737
380.685171,5181.441594,-12953.603985,-2834.553343
380.685494,2368.659014,-11917.315666,0.000000
380.685816,-1258.350101,-9474.636058,2604.724693
380.686138,-4441.235652,-6587.832884,3447.429741
380.686461,-6957.935855,-4515.256246,1838.629195
380.686783,-7031.956449,-4959.379811,-536.266849
380.687106,-7476.080014,-5773.606348,-1149.143247
380.687428,-7698.141797,-6661.853478,229.828649
380.687750,-6069.688724,-6809.894666,0.000000
380.688073,-2590.720797,-9474.636058,-612.876398
380.688395,1110.308913,-11991.336260,-842.705048
380.688718,4293.194464,-11621.233289,-3907.087040
380.689040,4885.359217,-11621.233289,-6741.640382
380.689362,5329.482782,-11399.171507,-4903.011187
380.689685,6365.771101,-10214.842000,-1991.848295
380.690007,6957.935855,-9326.594869,-4903.011187
380.690329,6735.874072,-11029.068536,-5439.278036
380.690652,6217.729913,-12213.398043,-2451.505594
380.690974,4737.318029,-11621.233289,-1072.533697
380.691297,1332.370696,-10066.800811,1225.752797
380.691619,-2368.659014,-8290.306550,3370.820191
380.691941,-4737.318029,-5625.565159,2528.115143
380.692264,-6365.771101,-4737.318029,-1149.143247
380.692586,-7846.182985,-6069.688724,-2068.457845
380.692908,-8068.244768,-7105.977043,766.095498
380.693231,-7031.956449,-4959.379811,536.266849
380.693553,-4219.173869,-6291.750507,-919.314598
380.693876,-370.102971,-10584.944971,-1225.752797
380.694198,2294.638420,-12361.439231,-3064.381992
380.694520,3478.967927,-13619.789333,-5132.839837
380.694843,4219.173869,-15026.180623,-3600.648841
380.695165,5995.668130,-12805.562797,-1532.190996
380.695488,6957.935855,-8956.491898,-3447.429741
380.695810,6587.832884,-8068.244768,-5898.935335
380.696132,5699.585753,-11399.171507,-3983.696590
380.696455,3997.112087,-11843.295072,-1838.629195
380.696777,222.061783,-10288.862594,0.000000
380.697099,-4293.194464,-9474.636058,2451.505594
380.697422,-7402.059420,-7846.182985,2374.896044
380.697744,-9030.512492,-5551.544565,-383.047749
380.698067,-11843.295072,-4515.256246,-153.219100
380.698389,-12731.542202,-6143.709319,995.924147
380.698711,-12731.542202,-7402.059420,-306.438199
380.699034,-9770.718434,-8586.388927,-2451.505594
380.699356,-6661.853478,-8512.368333,-842.705048
380.699679,-4367.215058,-8438.347739,-1532.190996
380.700001,-814.226536,-12213.398043,-4749.792088
380.700323,2664.741391,-13693.809927,-4366.744339
380.700646,4589.276840,-10510.924376,-3677.258390
380.700968,5995.668130,-9474.636058,-4290.134789
380.701290,7698.141797,-10732.986159,-4826.401637
380.701613,9548.656652,-13175.665768,-3830.477490
380.701935,9178.553681,-11399.171507,-1991.848295
380.702258,6291.750507,-9400.615463,0.000000
380.702580,3108.864956,-10140.821405,2145.067394
380.702902,518.144159,-9252.574275,3677.258390
380.703225,-2664.741391,-5477.523971,1991.848295
380.703547,-6513.812290,-3701.029710,459.657299
380.703869,-7772.162391,-5181.441594,-1838.629195
380.704192,-6957.935855,-8142.265362,-1762.019645
380.704514,-6143.709319,-7476.080014,1455.581446
380.704837,-4737.318029,-5551.544565,1762.019645
380.705159,-3701.029710,-7105.977043,-2145.067394
380.705481,740.205942,-12583.501014,-4749.792088
380.705804,4441.235652,-13767.830521,-5439.278036
380.706126,4959.379811,-13693.809927,-7354.516781
380.706449,5477.523971,-13841.851115,-5592.497135
380.706771,7105.977043,-13545.768739,-1685.410096
380.707093,8586.388927,-9622.677246,-459.657299
380.707416,8216.285956,-7402.059420,-3677.258390
380.707738,6587.832884,-9252.574275,-5132.839837
380.708060,5551.544565,-13841.851115,-2451.505594
380.708383,3404.947333,-11029.068536,2911.162892
380.708705,-1850.514855,-6809.894666,5286.058936
380.709028,-6143.709319,-5847.626942,3140.991542
380.709350,-6883.915261,-4737.318029,1762.019645
380.709672,-6661.853478,-3034.844362,459.657299
380.709995,-9400.615463,-3627.009116,-536.266849
380.710317,-10584.944971,-7328.038826,-995.924147
380.710640,-8512.368333,-10436.903782,-766.095498
380.710962,-4737.318029,-11103.089130,-995.924147
380.711284,-2294.638420,-10658.965565,-2757.943793
380.711607,0.000000,-13471.748144,-6971.469032
380.711929,2960.823768,-13397.727550,-8120.612279
380.712251,3849.070898,-11991.336260,-5286.058936
380.712574,4071.132681,-11251.130318,-2068.457845
380.712896,4589.276840,-10288.862594,-4443.353888
380.713219,6513.812290,-12065.356855,-7048.078582
380.713541,7476.080014,-11917.315666,-3753.867940
380.713863,4959.379811,-9770.718434,1149.143247
380.714186,-444.123565,-9992.780217,3140.991542
380.714508,-4219.173869,-8882.471304,5669.106685
380.714830,-6143.709319,-4811.338623,4596.572988
380.715153,-7920.203579,-2812.782580,-1378.971896
380.715475,-8364.327145,-4441.235652,-3140.991542
380.715798,-9030.512492,-5107.421000,-919.314598
380.716120,-7920.203579,-7772.162391,995.924147
380.716442,-5181.441594,-8438.347739,1991.848295
380.716765,-2664.741391,-9030.512492,-229.828649
380.717087,-666.185348,-10658.965565,-4060.306139
380.717410,1924.535449,-13989.892304,-5669.106685
380.717732,3849.070898,-14285.974681,-6665.030833
380.718054,4145.153275,-11621.233289,-5822.325785
380.718377,4885.359217,-9770.718434,-3524.039291
380.718699,6217.729913,-10140.821405,-3370.820191
380.719021,7476.080014,-13323.706956,-3830.477490
380.719344,6365.771101,-12509.480420,-3370.820191
380.719666,2812.782580,-10584.944971,-612.876398
380.719989,-1184.329507,-10140.821405,2451.505594
380.720311,-4367.215058,-8364.327145,4290.134789
380.720633,-7179.997637,-4071.132681,3370.820191
380.720956,-8660.409521,-2368.659014,-383.047749
380.721278,-8734.430116,-4589.276840,-612.876398
380.721601,-7846.182985,-7031.956449,-536.266849
380.721923,-6439.791695,-7772.162391,919.314598
380.722245,-4663.297435,-7105.977043,1532.190996
380.722568,-1036.288319,-9400.615463,-842.705048
380.722890,2516.700203,-12805.562797,-3830.477490
380.723212,5477.523971,-12509.480420,-6511.811733
380.723535,5107.421000,-11103.089130,-7124.688131
380.723857,5625.565159,-11473.192101,-3217.601092
380.724180,7105.977043,-10584.944971,-1991.848295
380.724502,7550.100608,-10510.924376,-5669.106685
380.724824,7698.141797,-12139.377449,-5669.106685
380.725147,6513.812290,-11991.336260,-2451.505594
380.725469,3108.864956,-11991.336260,76.609550
380.725791,-592.164754,-11177.109724,3677.258390
380.726114,-4293.194464,-6809.894666,5362.668486
380.726436,-5773.606348,-3701.029710,842.705048
380.726759,-6439.791695,-5255.462188,-3830.477490
380.727081,-7105.977043,-6809.894666,-459.657299
380.727403,-7772.162391,-5699.585753,3140.991542
380.727726,-5921.647536,-4071.132681,1455.581446
380.728048,-2812.782580,-7846.182985,-842.705048
380.728371,1924.535449,-12139.377449,-2681.334243
380.728693,4367.215058,-12879.583391,-5132.839837
380.729015,5181.441594,-13767.830521,-6435.202183
380.729338,5625.565159,-14656.077652,-3600.648841
380.729660,7105.977043,-11769.274478,-842.705048
380.729982,7179.997637,-8216.285956,-4060.306139
380.730305,6069.688724,-9178.553681,-6588.421283
380.730627,5033.400406,-13619.789333,-4596.572988
380.730950,3182.885551,-14285.974681,-1608.800546
380.731272,-1628.453072,-11177.109724,2451.505594
380.731594,-6365.771101,-8882.471304,5209.449386
380.731917,-9326.594869,-5255.462188,2987.772442
380.732239,-9474.636058,-3182.885551,-459.657299
380.732562,-11029.068536,-2368.659014,-383.047749
380.732884,-11843.295072,-5181.441594,919.314598
380.733206,-11473.192101,-7328.038826,-1608.800546
380.733529,-7402.059420,-9474.636058,383.047749
380.733851,-4219.173869,-8808.450710,1532.190996
380.734173,-2072.576638,-10066.800811,-2451.505594
380.734496,1110.308913,-12657.521608,-6281.983084
380.734818,4071.132681,-11843.295072,-5515.887586
380.735141,5699.585753,-8586.388927,-4903.011187
380.735463,6735.874072,-9844.739029,-6205.373534
380.735785,7698.141797,-13101.645173,-4903.011187
380.736108,8068.244768,-13989.892304,-3294.210641
380.736430,6143.709319,-11251.130318,-2221.676944
380.736752,2220.617826,-11843.295072,-689.485948
380.737075,-888.247130,-12435.459826,2068.457845
380.737397,-3478.967927,-8808.450710,2987.772442
380.737720,-6957.935855,-3775.050304,1455.581446
380.738042,-8586.388927,-3552.988522,-306.438199
380.738364,-8216.285956,-5699.585753,-1225.752797
380.738687,-6735.874072,-5995.668130,-1532.190996
380.739009,-4959.379811,-6143.709319,1455.581446
380.739332,-3701.029710,-5847.626942,383.047749
380.739654,-1110.308913,-9178.553681,-1991.848295
380.739976,2960.823768,-13693.809927,-3217.601092
380.740299,5551.544565,-13323.706956,-5362.668486
380.740621,5625.565159,-13101.645173,-7584.345430
380.740943,6587.832884,-12509.480420,-4903.011187
380.741266,8068.244768,-10140.821405,-1608.800546
380.741588,8438.347739,-8956.491898,-4060.306139
380.741911,6883.915261,-11251.130318,-5669.106685
380.742233,4885.359217,-14211.954086,-3064.381992
380.742555,1850.514855,-13249.686362,383.047749
380.742878,-2220.617826,-9622.677246,3370.820191
380.743200,-5699.585753,-6291.750507,2987.772442
380.743523,-7328.038826,-4367.215058,612.876398
380.743845,-7254.018232,-4071.132681,0.000000
380.744167,-8808.450710,-4293.194464,1455.581446
380.744490,-9474.636058,-5551.544565,2298.286494
380.744812,-7846.182985,-5477.523971,76.609550
380.745134,-3552.988522,-7624.121203,-2374.896044
380.745457,296.082377,-10807.006753,-2145.067394
380.745779,3182.885551,-12509.480420,-3677.258390
380.746102,4737.318029,-13175.665768,-5975.544884
380.746424,6513.812290,-12657.521608,-4136.915689
380.746746,8068.244768,-11695.253884,-2987.772442
380.747069,8364.327145,-10510.924376,-5286.058936
380.747391,6513.812290,-10881.027347,-5898.935335
380.747713,5033.400406,-11991.336260,-2528.115143
380.748036,3034.844362,-11621.233289,-536.266849
380.748358,74.020594,-11029.068536,766.095498
380.748681,-3627.009116,-8512.368333,3370.820191
380.749003,-6883.915261,-5847.626942,2987.772442
380.749325,-8216.285956,-4959.379811,306.438199
380.749648,-8808.450710,-5551.544565,-229.828649
380.749970,-9548.656652,-4885.359217,1378.971896
380.750293,-8660.409521,-4219.173869,229.828649
380.750615,-5921.647536,-6439.791695,-766.095498
380.750937,-1776.494261,-9992.780217,-1838.629195
380.751260,1258.350101,-12435.459826,-3830.477490
380.751582,3182.885551,-14434.015869,-5209.449386
380.751904,5847.626942,-15396.283594,-4749.792088
380.752227,7179.997637,-14137.933492,-4290.134789
380.752549,8068.244768,-11399.171507,-4443.353888
380.752872,7179.997637,-10436.903782,-4366.744339
380.753194,5477.523971,-10732.986159,-3753.867940
380.753516,3182.885551,-11843.295072,-2374.896044
380.753839,814.226536,-11325.150913,-153.219100
380.754161,-2960.823768,-9104.533087,2374.896044
380.754484,-6069.688724,-7179.997637,2681.334243
380.754806,-7476.080014,-5995.668130,2374.896044
380.755128,-8142.265362,-5033.400406,2451.505594
380.755451,-9548.656652,-3108.864956,2374.896044
380.755773,-10362.883188,-3478.967927,1762.019645
380.756095,-9770.718434,-4663.297435,-766.095498
380.756418,-7105.977043,-7624.121203,-3294.210641
380.756740,-3182.885551,-10436.903782,-4673.182538
380.757063,74.020594,-12805.562797,-4673.182538
380.757385,2516.700203,-14137.933492,-6052.154434
380.757707,5625.565159,-14508.036463,-5592.497135
380.758030,7624.121203,-13767.830521,-4673.182538
380.758352,7994.224174,-12657.521608,-4673.182538
380.758674,7254.018232,-11399.171507,-4213.525239
380.758997,5033.400406,-9992.780217,-3983.696590
380.759319,4071.132681,-9400.615463,-2451.505594
380.759642,2442.679609,-9548.656652,383.047749
380.759964,666.185348,-8290.306550,3370.820191
380.760286,-1554.432478,-6883.915261,3983.696590
380.760609,-3775.050304,-6069.688724,3447.429741
380.760931,-5033.400406,-4959.379811,2834.553343
380.761254,-5921.647536,-3849.070898,1455.581446
380.761576,-6291.750507,-3997.112087,-459.657299
380.761898,-4885.359217,-6217.729913,-1608.800546
380.762221,-2294.638420,-8512.368333,-2757.943793
380.762543,518.144159,-10955.047942,-4826.401637
380.762865,3182.885551,-14063.912898,-4903.011187
380.763188,5921.647536,-16284.530724,-4979.620737
380.763510,7698.141797,-16136.489536,-5515.887586
380.763833,7698.141797,-13915.871710,-5362.668486
380.764155,6143.709319,-12065.356855,-4213.525239
380.764477,4219.173869,-10807.006753,-4596.572988
380.764800,2220.617826,-9696.697840,-3830.477490
380.765122,-222.061783,-8364.327145,-1532.190996
380.765445,-2590.720797,-7254.018232,842.705048
380.765767,-4293.194464,-7254.018232,2068.457845
380.766089,-6291.750507,-7254.018232,3524.039291
380.766412,-7772.162391,-6217.729913,4136.915689
380.766734,-9252.574275,-4293.194464,3140.991542
380.767056,-8882.471304,-3849.070898,919.314598
380.767379,-7624.121203,-4737.318029,-1378.971896
380.767701,-5921.647536,-6143.709319,-2987.772442
380.768024,-3256.906145,-8882.471304,-3983.696590
380.768346,0.000000,-12287.418637,-4519.963438
380.768668,3108.864956,-15470.304188,-4903.011187
380.768991,5699.585753,-16876.695478,-5132.839837
380.769313,7402.059420,-15766.386565,-4443.353888
380.769635,8216.285956,-13175.665768,-3830.477490
380.769958,7624.121203,-10362.883188,-3983.696590
380.770280,6217.729913,-9548.656652,-3600.648841
380.770603,4441.235652,-8734.430116,-1532.190996
380.770925,1184.329507,-6513.812290,1149.143247
380.771247,-1850.514855,-6809.894666,2145.067394
380.771570,-4219.173869,-7550.100608,2987.772442
380.771892,-5181.441594,-7476.080014,2757.943793
380.772215,-6809.894666,-6291.750507,1915.238745
380.772537,-8438.347739,-4737.318029,2911.162892
380.772859,-8142.265362,-4959.379811,1838.629195
380.773182,-7254.018232,-4515.256246,-1532.190996
380.773504,-4885.359217,-6809.894666,-4826.401637
380.773826,-2960.823768,-9918.759623,-5669.106685
380.774149,-296.082377,-13841.851115,-5362.668486
380.774471,3108.864956,-17320.819043,-5209.449386
380.774794,5625.565159,-17690.922014,-4443.353888
380.775116,7550.100608,-16358.551318,-4749.792088
380.775438,8512.368333,-12879.583391,-3907.087040
380.775761,8290.306550,-9474.636058,-3677.258390
380.776083,6735.874072,-7254.018232,-3600.648841
380.776406,4959.379811,-7254.018232,-2145.067394
380.776728,2590.720797,-7402.059420,1455.581446
380.777050,-888.247130,-7772.162391,3753.867940
380.777373,-4071.132681,-7698.141797,4596.572988
380.777695,-5625.565159,-6883.915261,3907.087040
380.778018,-7105.977043,-5699.585753,2068.457845
380.778340,-8438.347739,-4515.256246,1838.629195
380.778662,-8216.285956,-4885.359217,766.095498
380.778985,-7624.121203,-4811.338623,-1838.629195
380.779307,-5403.503377,-7179.997637,-4213.525239
380.779630,-2664.741391,-10658.965565,-5362.668486
380.779952,444.123565,-14211.954086,-6894.859482
380.780275,2590.720797,-17690.922014,-6281.983084
380.780597,4219.173869,-17246.798449,-4443.353888
380.780920,5699.585753,-14952.160028,-3294.210641
380.781242,6957.935855,-11621.233289,-4060.306139
380.781564,7179.997637,-9030.512492,-5286.058936
380.781887,5477.523971,-7402.059420,-3830.477490
380.782209,3775.050304,-6439.791695,-1149.143247
380.782532,592.164754,-6587.832884,2145.067394
380.782854,-1776.494261,-7031.956449,4290.134789
380.783177,-3478.967927,-7402.059420,3983.696590
380.783499,-4663.297435,-6735.874072,1991.848295
380.783822,-5699.585753,-5995.668130,842.705048
380.784144,-6883.915261,-5255.462188,1991.848295
380.784467,-6957.935855,-4885.359217,1302.362347
380.784789,-5329.482782,-4737.318029,-1685.410096
380.785111,-2664.741391,-7476.080014,-4903.011187
380.785434,148.041188,-11177.109724,-6894.859482
380.785756,2812.782580,-16062.468941,-7048.078582
380.786079,5403.503377,-19615.457463,-5056.230287
380.786401,6809.894666,-18283.086767,-2911.162892
380.786724,7179.997637,-14804.118840,-2374.896044
380.787046,7328.038826,-10510.924376,-2987.772442
380.787369,6143.709319,-7698.141797,-4060.306139
380.787691,3775.050304,-7624.121203,-3830.477490
380.788013,1036.288319,-7772.162391,-1608.800546
380.788336,-2072.576638,-6291.750507,2451.505594
380.788658,-5181.441594,-6587.832884,4749.792088
380.788981,-6735.874072,-6883.915261,4366.744339
380.789303,-7476.080014,-5699.585753,2681.334243
380.789626,-8068.244768,-4589.276840,536.266849
380.789948,-9326.594869,-4071.132681,536.266849
380.790271,-9400.615463,-5477.523971,919.314598
380.790593,-8734.430116,-6143.709319,-2374.896044
380.790915,-6217.729913,-8364.327145,-5286.058936
380.791238,-2738.761985,-12287.418637,-6894.859482
380.791560,814.226536,-15396.283594,-6971.469032
380.791883,3552.988522,-17468.860231,-6205.373534
380.792205,5181.441594,-16432.571912,-4290.134789
380.792528,7105.977043,-14137.933492,-2757.943793
380.792850,8142.265362,-11251.130318,-3983.696590
380.793173,7550.100608,-9622.677246,-4673.182538
380.793495,5403.503377,-8068.244768,-3064.381992
380.793818,3034.844362,-7031.956449,-306.438199
380.794140,666.185348,-7105.977043,3140.991542
380.794462,-666.185348,-7772.162391,5132.839837
380.794785,-2220.617826,-6735.874072,4519.963438
380.795107,-3627.009116,-5403.503377,2145.067394
380.795430,-5033.400406,-4441.235652,2068.457845
380.795752,-6143.709319,-5033.400406,2068.457845
380.796075,-6217.729913,-4885.359217,0.000000
380.796397,-4737.318029,-6439.791695,-2834.553343
380.796720,-1702.473667,-9252.574275,-5745.716235
380.797042,1702.473667,-13249.686362,-6205.373534
380.797364,3849.070898,-17246.798449,-5592.497135
380.797687,5477.523971,-17987.004391,-4213.525239
380.798009,6069.688724,-15914.427753,-3524.039291
380.798332,6439.791695,-12657.521608,-3753.867940
380.798654,5403.503377,-9918.759623,-3830.477490
380.798977,2812.782580,-8438.347739,-4443.353888
380.799299,592.164754,-8216.285956,-3370.820191
380.799622,-1110.308913,-7476.080014,536.266849
380.799944,-2590.720797,-7031.956449,3524.039291
380.800266,-4219.173869,-7031.956449,4060.306139
380.800589,-5699.585753,-6439.791695,3830.477490
380.800911,-6661.853478,-5773.606348,2911.162892
380.801234,-6809.894666,-4737.318029,2604.724693
380.801556,-6957.935855,-3997.112087,1225.752797
380.801879,-6439.791695,-4811.338623,-1838.629195
380.802201,-4885.359217,-7105.977043,-3753.867940
380.802524,-1628.453072,-10066.800811,-3983.696590
380.802846,1406.391290,-13915.871710,-5056.230287
380.803169,3923.091493,-16580.613101,-5286.058936
380.803491,5921.647536,-16580.613101,-4290.134789
380.803813,7179.997637,-14582.057057,-2987.772442
380.804136,6883.915261,-11917.315666,-3983.696590
380.804458,5551.544565,-9696.697840,-4060.306139
380.804781,3997.112087,-8586.388927,-4366.744339
380.805103,2368.659014,-7105.977043,-2834.553343
380.805426,0.000000,-6809.894666,0.000000
380.805748,-2442.679609,-8290.306550,3064.381992
380.806071,-4219.173869,-8438.347739,3370.820191
380.806393,-5773.606348,-8438.347739,2145.067394
380.806715,-6957.935855,-7179.997637,1608.800546
380.807038,-7179.997637,-5847.626942,1149.143247
380.807360,-6587.832884,-3997.112087,-1225.752797
380.807683,-4663.297435,-5033.400406,-3524.039291
380.808005,-1480.411884,-7179.997637,-3907.087040
380.808328,1332.370696,-10807.006753,-4596.572988
380.808650,3775.050304,-14952.160028,-4903.011187
380.808973,6143.709319,-16876.695478,-4366.744339
380.809295,7031.956449,-17172.777854,-3600.648841
380.809617,7772.162391,-14211.954086,-3524.039291
380.809940,7328.038826,-11251.130318,-3677.258390
380.810262,5477.523971,-9030.512492,-3677.258390
380.810585,3404.947333,-7920.203579,-2528.115143
380.810907,1110.308913,-6735.874072,153.219100
380.811230,-1184.329507,-6809.894666,1302.362347
380.811552,-4589.276840,-7254.018232,2298.286494
380.811875,-6587.832884,-7772.162391,3064.381992
380.812197,-7624.121203,-6957.935855,1915.238745
380.812520,-8734.430116,-6217.729913,1149.143247
380.812842,-10288.862594,-4885.359217,1072.533697
380.813164,-9992.780217,-4885.359217,-536.266849
380.813487,-8438.347739,-5625.565159,-3677.258390
380.813809,-5329.482782,-8586.388927,-5056.230287
380.814132,-2220.617826,-11769.274478,-5745.716235
380.814454,1332.370696,-15100.201217,-5439.278036
380.814777,3627.009116,-16580.613101,-4826.401637
380.815099,5551.544565,-15692.365970,-3217.601092
380.815422,7254.018232,-13249.686362,-3370.820191
380.815744,7402.059420,-9992.780217,-4519.963438
380.816066,6661.853478,-8734.430116,-3830.477490
380.816389,4515.256246,-7698.141797,-2221.676944
380.816711,1998.556043,-7476.080014,306.438199
380.817034,-666.185348,-7994.224174,2911.162892
380.817356,-2368.659014,-8734.430116,4290.134789
380.817679,-3849.070898,-8512.368333,3370.820191
380.818001,-4737.318029,-6809.894666,1149.143247
380.818324,-5847.626942,-5995.668130,1455.581446
380.818646,-7179.997637,-4663.297435,1991.848295
380.818968,-6513.812290,-4145.153275,-229.828649
380.819291,-4959.379811,-5403.503377,-3677.258390
380.819613,-2220.617826,-8882.471304,-5286.058936
380.819936,740.205942,-13323.706956,-6052.154434
380.820258,3404.947333,-16580.613101,-5515.887586
380.820581,5551.544565,-17912.983796,-3983.696590
380.820903,7031.956449,-15988.448347,-3447.429741
380.821226,7846.182985,-12435.459826,-3524.039291
380.821548,7105.977043,-9400.615463,-3524.039291
380.821871,5329.482782,-7624.121203,-4060.306139
380.822193,2664.741391,-7254.018232,-2834.553343
380.822515,1110.308913,-7846.182985,306.438199
380.822838,-666.185348,-7994.224174,3753.867940
380.823160,-3330.926739,-7846.182985,4060.306139
380.823483,-4811.338623,-7179.997637,3983.696590
380.823805,-5995.668130,-6069.688724,3064.381992
380.824128,-6809.894666,-4589.276840,1532.190996
380.824450,-7105.977043,-3923.091493,842.705048
380.824773,-7846.182985,-3478.967927,-1225.752797
380.825095,-6439.791695,-6957.935855,-3294.210641
380.825417,-3552.988522,-10214.842000,-4673.182538
380.825740,-222.061783,-13693.809927,-6128.763984
380.826062,2368.659014,-16136.489536,-5822.325785
380.826385,4737.318029,-16432.571912,-4903.011187
380.826707,6069.688724,-14434.015869,-3217.601092
380.827030,5847.626942,-11695.253884,-3447.429741
380.827352,5033.400406,-9548.656652,-4290.134789
380.827675,3923.091493,-9030.512492,-4519.963438
380.827997,1998.556043,-7920.203579,-2757.943793
380.828319,-592.164754,-7550.100608,689.485948
380.828642,-2590.720797,-8068.244768,3524.039291
380.828964,-3256.906145,-8216.285956,3907.087040
380.829287,-4145.153275,-7772.162391,2451.505594
380.829609,-5329.482782,-6217.729913,1762.019645
380.829932,-6661.853478,-4589.276840,1149.143247
380.830254,-6809.894666,-4441.235652,0.000000
380.830577,-5625.565159,-5551.544565,-2451.505594
380.830899,-3775.050304,-7698.141797,-4136.915689
380.831221,-1258.350101,-10881.027347,-5362.668486
380.831544,1924.535449,-14211.954086,-6281.983084
380.831866,4959.379811,-17024.736666,-4826.401637
380.832189,7624.121203,-16728.654289,-4060.306139
380.832511,8512.368333,-14730.098246,-3907.087040
380.832834,7772.162391,-11917.315666,-2757.943793
380.833156,5699.585753,-9548.656652,-2834.553343
380.833479,3478.967927,-7698.141797,-3140.991542
380.833801,518.144159,-7624.121203,-1838.629195
380.834124,-2368.659014,-7846.182985,612.876398
380.834446,-4663.297435,-7846.182985,2451.505594
380.834768,-6217.729913,-7846.182985,3370.820191
380.835091,-6957.935855,-6883.915261,3677.258390
380.835413,-7698.141797,-4737.318029,3064.381992
380.835736,-7698.141797,-3478.967927,612.876398
380.836058,-6957.935855,-4441.235652,-1455.581446
380.836381,-5403.503377,-6513.812290,-2987.772442
380.836703,-3182.885551,-8734.430116,-3447.429741
380.837026,-148.041188,-11917.315666,-4290.134789
380.837348,2664.741391,-14508.036463,-4826.401637
380.837670,5699.585753,-15988.448347,-4979.620737
380.837993,7476.080014,-14508.036463,-4443.353888
380.838315,7624.121203,-12731.542202,-3447.429741
380.838638,6365.771101,-10436.903782,-3294.210641
380.838960,4737.318029,-8882.471304,-3524.039291
380.839283,2812.782580,-8216.285956,-2451.505594
380.839605,296.082377,-7105.977043,-766.095498
380.839928,-1850.514855,-7920.203579,919.314598
380.840250,-3552.988522,-9030.512492,2911.162892
380.840572,-5181.441594,-8216.285956,3753.867940
380.840895,-6735.874072,-6883.915261,3753.867940
380.841217,-7772.162391,-5181.441594,1685.410096
380.841540,-7031.956449,-5033.400406,-1072.533697
380.841862,-5033.400406,-5625.565159,-2987.772442
380.842185,-2368.659014,-7105.977043,-3983.696590
380.842507,148.041188,-10436.903782,-4903.011187
380.842830,2812.782580,-14285.974681,-4366.744339
380.843152,6217.729913,-16950.716072,-3294.210641
380.843475,8512.368333,-16506.592507,-4060.306139
380.843797,9400.615463,-14878.139434,-4366.744339
380.844119,8142.265362,-11621.233289,-2757.943793
380.844442,5773.606348,-9178.553681,-3140.991542
380.844764,3034.844362,-7698.141797,-2451.505594
380.845087,444.123565,-7328.038826,-1225.752797
380.845409,-2220.617826,-7254.018232,0.000000
380.845732,-4885.359217,-7328.038826,1915.238745
380.846054,-7105.977043,-7698.141797,2528.115143
380.846377,-8808.450710,-7550.100608,2834.553343
380.846699,-10288.862594,-5921.647536,3064.381992
380.847021,-10436.903782,-4811.338623,1838.629195
380.847344,-9474.636058,-4663.297435,-1685.410096
380.847666,-6957.935855,-6291.750507,-3907.087040
380.847989,-4663.297435,-8290.306550,-4903.011187
380.848311,-1480.411884,-11473.192101,-4903.011187
380.848634,1702.473667,-14804.118840,-4366.744339
380.848956,5181.441594,-15618.345376,-4136.915689
380.849279,8216.285956,-15100.201217,-4366.744339
380.849601,9474.636058,-12805.562797,-3983.696590
380.849923,8660.409521,-10214.842000,-3064.381992
380.850246,5699.585753,-8512.368333,-2528.115143
380.850568,3330.926739,-7846.182985,-2298.286494
380.850891,1332.370696,-7550.100608,-612.876398
380.851213,-1036.288319,-7550.100608,919.314598
380.851536,-3034.844362,-7772.162391,2451.505594
380.851858,-4737.318029,-7846.182985,3294.210641
380.852181,-6069.688724,-7402.059420,2911.162892
380.852503,-7402.059420,-5551.544565,2451.505594
380.852826,-8068.244768,-4663.297435,229.828649
380.853148,-8586.388927,-5033.400406,-2987.772442
380.853470,-6513.812290,-7254.018232,-5669.106685
380.853793,-3997.112087,-9474.636058,-7354.516781
380.854115,-666.185348,-13397.727550,-7354.516781
380.854438,2442.679609,-16876.695478,-4519.963438
380.854760,6217.729913,-17172.777854,-3983.696590
380.855083,9622.677246,-15988.448347,-4826.401637
380.855405,10955.047942,-13693.809927,-4060.306139
380.855728,9770.718434,-10140.821405,-2451.505594
380.856050,6883.915261,-7476.080014,-1838.629195
380.856372,4145.153275,-6069.688724,-919.314598
380.856695,1406.391290,-6587.832884,612.876398
380.857017,-740.205942,-7105.977043,2068.457845
380.857340,-3256.906145,-7254.018232,3140.991542
380.857662,-5181.441594,-7254.018232,4136.915689
380.857985,-6587.832884,-6661.853478,3830.477490
380.858307,-7402.059420,-5995.668130,3217.601092
380.858630,-8290.306550,-4293.194464,766.095498
380.858952,-7920.203579,-5255.462188,-2451.505594
380.859274,-6069.688724,-6661.853478,-5362.668486
380.859597,-3182.885551,-9474.636058,-5745.716235
380.859919,-666.185348,-13915.871710,-6128.763984
380.860242,2146.597232,-17394.839637,-5209.449386
380.860564,4959.379811,-18061.024985,-4826.401637
380.860887,7105.977043,-15248.242405,-4290.134789
380.861209,7772.162391,-12287.418637,-3677.258390
380.861532,6883.915261,-9178.553681,-3294.210641
380.861854,5107.421000,-7105.977043,-2911.162892
380.862177,3182.885551,-5921.647536,-536.266849
380.862499,0.000000,-5477.523971,2451.505594
380.862821,-2294.638420,-6513.812290,3907.087040
380.863144,-2664.741391,-7698.141797,3524.039291
380.863466,-4293.194464,-7994.224174,2757.943793
380.863789,-5921.647536,-6587.832884,3294.210641
380.864111,-7328.038826,-5329.482782,3753.867940
380.864434,-7328.038826,-4885.359217,459.657299
380.864756,-6513.812290,-5107.421000,-3064.381992
380.865079,-4737.318029,-6957.935855,-6205.373534
380.865401,-2220.617826,-10436.903782,-7277.907231
380.865723,592.164754,-15470.304188,-6665.030833
380.866046,4367.215058,-18801.230927,-4443.353888
380.866368,7698.141797,-18653.189738,-3983.696590
380.866691,10140.821405,-15692.365970,-3447.429741
380.867013,10362.883188,-12509.480420,-2681.334243
380.867336,7846.182985,-8586.388927,-2451.505594
380.867658,3923.091493,-6587.832884,-2374.896044
380.867981,518.144159,-5699.585753,-1225.752797
380.868303,-2368.659014,-5847.626942,1302.362347
380.868625,-5033.400406,-6587.832884,2681.334243
380.868948,-6883.915261,-7105.977043,3447.429741
380.869270,-7846.182985,-6883.915261,3370.820191
380.869593,-8438.347739,-6143.709319,3907.087040
380.869915,-8660.409521,-4515.256246,2221.676944
380.870238,-9252.574275,-4219.173869,-153.219100
380.870560,-8956.491898,-5255.462188,-3677.258390
380.870883,-7031.956449,-7105.977043,-6435.202183
380.871205,-3849.070898,-10955.047942,-8350.440928
380.871528,74.020594,-15322.262999,-7354.516781
380.871850,4145.153275,-18209.066173,-5592.497135
380.872172,7772.162391,-17468.860231,-3907.087040
380.872495,10066.800811,-14211.954086,-3524.039291
380.872817,9992.780217,-11473.192101,-2987.772442
380.873140,8216.285956,-10066.800811,-3064.381992
380.873462,4737.318029,-7772.162391,-1532.190996
380.873785,1184.329507,-5329.482782,-383.047749
380.874107,-1628.453072,-5551.544565,1762.019645
380.874430,-2368.659014,-6809.894666,3677.258390
380.874752,-3034.844362,-6735.874072,3524.039291
380.875074,-4737.318029,-6365.771101,3064.381992
380.875397,-5773.606348,-6069.688724,4060.306139
380.875719,-7105.977043,-5773.606348,2145.067394
380.876042,-6735.874072,-5403.503377,-1991.848295
380.876364,-6143.709319,-6439.791695,-5056.230287
380.876687,-3627.009116,-8808.450710,-7124.688131
380.877009,-1110.308913,-12731.542202,-7584.345430
380.877332,3108.864956,-17172.777854,-6128.763984
380.877654,6883.915261,-18949.272115,-4903.011187
380.877977,9474.636058,-17172.777854,-4443.353888
380.878299,9696.697840,-14285.974681,-3370.820191
380.878622,7698.141797,-10955.047942,-2681.334243
380.878944,4441.235652,-9326.594869,-2451.505594
380.879267,1406.391290,-7402.059420,-2451.505594
380.879589,-1332.370696,-5625.565159,-459.657299
380.879912,-3552.988522,-5699.585753,2451.505594
380.880234,-4959.379811,-6143.709319,4366.744339
380.880557,-5847.626942,-6735.874072,4903.011187
380.880879,-6365.771101,-5995.668130,4136.915689
380.881202,-6365.771101,-5551.544565,2987.772442
380.881524,-6439.791695,-4515.256246,612.876398
380.881847,-5699.585753,-5625.565159,-1762.019645
380.882169,-4071.132681,-6809.894666,-3217.601092
380.882492,-2442.679609,-9104.533087,-5515.887586
380.882815,592.164754,-13397.727550,-6435.202183
380.883137,4071.132681,-16876.695478,-5975.544884
380.883460,6957.935855,-16876.695478,-5286.058936
380.883782,9400.615463,-15100.201217,-3983.696590
380.884105,9548.656652,-12435.459826,-2374.896044
380.884427,7328.038826,-10732.986159,-1762.019645
380.884750,4515.256246,-9030.512492,-1685.410096
380.885072,1184.329507,-6439.791695,-1685.410096
380.885395,-2072.576638,-5255.462188,-153.219100
380.885717,-3478.967927,-5773.606348,1685.410096
380.886040,-4811.338623,-6439.791695,3524.039291
380.886362,-6365.771101,-6439.791695,3294.210641
380.886685,-6735.874072,-6365.771101,4060.306139
380.887007,-7846.182985,-6069.688724,2681.334243
380.887330,-7328.038826,-5921.647536,-306.438199
380.887652,-6809.894666,-6069.688724,-3830.477490
380.887975,-4737.318029,-7846.182985,-6128.763984
380.888297,-2146.597232,-11547.212695,-7277.907231
380.888620,888.247130,-15396.283594,-6435.202183
380.888943,4737.318029,-17616.901420,-4596.572988
380.889265,8290.306550,-17172.777854,-5209.449386
380.889588,11029.068536,-15396.283594,-4443.353888
380.889910,10362.883188,-12879.583391,-2757.943793
380.890233,7476.080014,-9844.739029,-1608.800546
380.890555,4293.194464,-8364.327145,-1225.752797
380.890878,740.205942,-6291.750507,76.609550
380.891200,-2146.597232,-5403.503377,689.485948
380.891523,-4737.318029,-5773.606348,2068.457845
380.891845,-6957.935855,-6365.771101,3907.087040
380.892168,-7550.100608,-6809.894666,3830.477490
380.892490,-7772.162391,-6439.791695,3600.648841
380.892813,-7994.224174,-5403.503377,2068.457845
380.893135,-8290.306550,-5033.400406,-1225.752797
380.893458,-7105.977043,-6217.729913,-4136.915689
380.893780,-4663.297435,-7476.080014,-5975.544884
380.894103,-2664.741391,-11473.192101,-7277.907231
380.894425,740.205942,-15396.283594,-6665.030833
380.894748,3923.091493,-16580.613101,-5286.058936
380.895071,7328.038826,-15692.365970,-4903.011187
380.895393,9548.656652,-13989.892304,-4596.572988
380.895716,9474.636058,-12065.356855,-3217.601092
380.896038,7550.100608,-10288.862594,-995.924147
380.896361,4589.276840,-7254.018232,0.000000
380.896683,1628.453072,-5403.503377,689.485948
380.897006,-814.226536,-5403.503377,1762.019645
380.897328,-2294.638420,-6217.729913,3064.381992
380.897651,-3552.988522,-6291.750507,3064.381992
380.897973,-5551.544565,-6513.812290,3294.210641
380.898296,-6587.832884,-6069.688724,4443.353888
380.898618,-7179.997637,-5255.462188,1532.190996
380.898941,-6587.832884,-5551.544565,-2451.505594
380.899263,-4441.235652,-6735.874072,-5515.887586
380.899586,-1776.494261,-9104.533087,-7431.126331
380.899908,814.226536,-13989.892304,-7660.954980
380.900231,4367.215058,-18283.086767,-4903.011187
380.900553,7402.059420,-18949.272115,-3830.477490
380.900876,9104.533087,-17320.819043,-5056.230287
380.901199,9474.636058,-14063.912898,-3830.477490
380.901521,6883.915261,-10881.027347,-1762.019645
380.901844,3775.050304,-7920.203579,-2528.115143
380.902166,666.185348,-7179.997637,-2068.457845
380.902489,-1850.514855,-6143.709319,1302.362347
380.902811,-4663.297435,-5107.421000,2451.505594
380.903134,-6883.915261,-5477.523971,3447.429741
380.903456,-7402.059420,-6735.874072,3600.648841
380.903779,-7105.977043,-6217.729913,3753.867940
380.904101,-7105.977043,-4441.235652,3294.210641
380.904424,-7402.059420,-4219.173869,1685.410096
380.904746,-7476.080014,-5255.462188,-1149.143247
380.905069,-5699.585753,-7254.018232,-4673.182538
380.905391,-3256.906145,-9770.718434,-7354.516781
380.905714,-370.102971,-13989.892304,-7814.174080
380.906036,2590.720797,-17394.839637,-5898.935335
380.906359,5921.647536,-17024.736666,-3983.696590
380.906681,7772.162391,-14730.098246,-4213.525239
380.907004,7920.203579,-12657.521608,-3064.381992
380.907326,6513.812290,-10436.903782,-2681.334243
380.907649,3997.112087,-7846.182985,-2681.334243
380.907972,1702.473667,-5625.565159,-1378.971896
380.908294,-148.041188,-5181.441594,1532.190996
380.908617,-1406.391290,-6291.750507,2911.162892
380.908939,-2590.720797,-7254.018232,4290.134789
380.909262,-3923.091493,-6661.853478,4979.620737
380.909584,-5033.400406,-5699.585753,3753.867940
380.909907,-5477.523971,-5255.462188,2145.067394
380.910229,-5181.441594,-6217.729913,-1072.533697
380.910552,-4145.153275,-6439.791695,-3447.429741
380.910874,-2368.659014,-8142.265362,-5669.106685
380.911197,148.041188,-11843.295072,-6128.763984
380.911519,2960.823768,-15544.324782,-5439.278036
380.911842,5921.647536,-17024.736666,-5362.668486
380.912164,8290.306550,-17172.777854,-4979.620737
380.912487,8734.430116,-15840.407159,-4366.744339
380.912809,7179.997637,-13323.706956,-3140.991542
380.913132,4145.153275,-10362.883188,-2528.115143
380.913454,1258.350101,-7328.038826,-1608.800546
380.913777,-962.267725,-5773.606348,-1532.190996
380.914100,-2960.823768,-5921.647536,-383.047749
380.914422,-4885.359217,-6883.915261,1915.238745
380.914745,-7105.977043,-7105.977043,4136.915689
380.915067,-7920.203579,-6143.709319,4060.306139
380.915390,-7772.162391,-5403.503377,1608.800546
380.915712,-7550.100608,-5107.421000,-842.705048
380.916035,-7105.977043,-6217.729913,-2145.067394
380.916357,-6587.832884,-7402.059420,-3524.039291
380.916680,-4737.318029,-8882.471304,-4826.401637
380.917002,-1110.308913,-13175.665768,-5669.106685
380.917325,2146.597232,-15100.201217,-5592.497135
380.917647,5477.523971,-15914.427753,-5669.106685
380.917970,7994.224174,-14434.015869,-4136.915689
380.918292,8512.368333,-12361.439231,-2528.115143
380.918615,7105.977043,-9918.759623,-1685.410096
380.918937,4885.359217,-8660.409521,-1838.629195
380.919260,2738.761985,-7402.059420,-1072.533697
380.919582,-148.041188,-6439.791695,-459.657299
380.919905,-2516.700203,-7105.977043,1685.410096
380.920228,-2960.823768,-8068.244768,3753.867940
380.920550,-3552.988522,-7920.203579,3447.429741
380.920873,-4737.318029,-6883.915261,3370.820191
380.921195,-6587.832884,-4811.338623,3524.039291
380.921518,-7698.141797,-4071.132681,0.000000
380.921840,-7698.141797,-4737.318029,-4443.353888
380.922163,-5773.606348,-7105.977043,-6588.421283
380.922485,-3034.844362,-10288.862594,-8120.612279
380.922808,592.164754,-14878.139434,-7354.516781
380.923130,4589.276840,-19245.354492,-3907.087040
380.923453,7550.100608,-19171.333898,-2068.457845
380.923775,9918.759623,-16062.468941,-3753.867940
380.924098,9696.697840,-12213.398043,-3064.381992
380.924420,7772.162391,-8734.430116,-2068.457845
380.924743,4663.297435,-6513.812290,-2451.505594
380.925065,1924.535449,-5403.503377,-612.876398
380.925388,296.082377,-6217.729913,1838.629195
380.925710,-1406.391290,-6587.832884,3753.867940
380.926033,-2812.782580,-7254.018232,3983.696590
380.926356,-4145.153275,-7920.203579,3677.258390
380.926678,-4959.379811,-7402.059420,3600.648841
380.927001,-6291.750507,-5107.421000,3370.820191
380.927323,-7402.059420,-3478.967927,995.924147
380.927646,-8512.368333,-4219.173869,-3294.210641
380.927968,-7105.977043,-7328.038826,-6205.373534
380.928291,-4589.276840,-10658.965565,-8044.002729
380.928613,-1776.494261,-14656.077652,-8120.612279
380.928936,2220.617826,-18431.127956,-5898.935335
380.929258,5773.606348,-18801.230927,-4290.134789
380.929581,8364.327145,-15988.448347,-3600.648841
380.929903,8438.347739,-11843.295072,-2298.286494
380.930226,6661.853478,-8364.327145,-2145.067394
380.930548,4071.132681,-6587.832884,-2604.724693
380.930871,2442.679609,-5329.482782,-1838.629195
380.931193,-222.061783,-4737.318029,1072.533697
380.931516,-2220.617826,-6291.750507,3370.820191
380.931838,-3108.864956,-7772.162391,5209.449386
380.932161,-3627.009116,-8068.244768,4213.525239
380.932484,-5107.421000,-7105.977043,2604.724693
380.932806,-7031.956449,-6439.791695,2145.067394
380.933129,-7846.182985,-6143.709319,0.000000
380.933451,-8290.306550,-5403.503377,-3677.258390
380.933774,-6365.771101,-7328.038826,-6281.983084
380.934096,-3627.009116,-9844.739029,-7354.516781
380.934419,296.082377,-13989.892304,-7507.735880
380.934741,4441.235652,-17394.839637,-5898.935335
380.935064,7328.038826,-17468.860231,-3447.429741
380.935386,8956.491898,-15618.345376,-3294.210641
380.935709,7328.038826,-13101.645173,-3064.381992
380.936031,4219.173869,-10436.903782,-1991.848295
380.936354,1110.308913,-8882.471304,-2451.505594
380.936676,-1332.370696,-6883.915261,-1762.019645
380.936999,-3627.009116,-5403.503377,459.657299
380.937321,-4589.276840,-5477.523971,2911.162892
380.937644,-5181.441594,-6365.771101,4213.525239
380.937966,-5329.482782,-6217.729913,3524.039291
380.938289,-5699.585753,-6365.771101,2528.115143
380.938612,-6217.729913,-5921.647536,612.876398
380.938934,-6883.915261,-6587.832884,-1378.971896
380.939257,-6291.750507,-7254.018232,-3064.381992
380.939579,-4737.318029,-8512.368333,-5209.449386
380.939902,-2072.576638,-11621.233289,-6818.249932
380.940224,1850.514855,-14656.077652,-6588.421283
380.940547,5847.626942,-15544.324782,-4903.011187
380.940869,9104.533087,-14211.954086,-3830.477490
380.941192,10362.883188,-12583.501014,-2451.505594
380.941514,8956.491898,-11177.109724,-2068.457845
380.941837,6291.750507,-10436.903782,-1455.581446
380.942159,3330.926739,-8142.265362,-1455.581446
380.942482,222.061783,-6365.771101,-1685.410096
380.942804,-1554.432478,-7105.977043,-766.095498
380.943127,-3108.864956,-7179.997637,2834.553343
380.943449,-3997.112087,-6957.935855,4136.915689
380.943772,-4663.297435,-6069.688724,3447.429741
380.944094,-4663.297435,-6143.709319,1455.581446
380.944417,-4811.338623,-6291.750507,-689.485948
380.944740,-4589.276840,-6809.894666,-2451.505594
380.945062,-3478.967927,-7254.018232,-4443.353888
380.945385,-962.267725,-9770.718434,-6128.763984
380.945707,2072.576638,-13841.851115,-5515.887586
380.946030,5329.482782,-15914.427753,-3830.477490
380.946352,7698.141797,-15396.283594,-3677.258390
380.946675,9178.553681,-13767.830521,-2987.772442
380.946997,9030.512492,-11991.336260,-1991.848295
380.947320,6587.832884,-9474.636058,-2068.457845
380.947642,3478.967927,-8586.388927,-1685.410096
380.947965,1110.308913,-8216.285956,-689.485948
380.948287,-2368.659014,-7402.059420,229.828649
380.948610,-4737.318029,-7179.997637,1378.971896
380.948932,-6735.874072,-7328.038826,3600.648841
380.949255,-7328.038826,-7624.121203,3140.991542
380.949577,-6883.915261,-7624.121203,2068.457845
380.949900,-7476.080014,-5625.565159,1225.752797
380.950222,-8808.450710,-5995.668130,536.266849
380.950545,-9104.533087,-5847.626942,-2451.505594
380.950867,-7994.224174,-6809.894666,-5056.230287
380.951190,-5773.606348,-10140.821405,-6358.592633
380.951513,-2072.576638,-13471.748144,-6588.421283
380.951835,666.185348,-15248.242405,-6435.202183
380.952158,3775.050304,-14952.160028,-4136.915689
380.952480,6883.915261,-13471.748144,-2451.505594
380.952803,8364.327145,-11695.253884,-3064.381992
380.953125,7994.224174,-9992.780217,-2528.115143
380.953448,6217.729913,-8364.327145,-1608.800546
380.953770,2590.720797,-7179.997637,-536.266849
380.954093,-370.102971,-7994.224174,842.705048
380.954415,-2368.659014,-8660.409521,3830.477490
380.954738,-3478.967927,-7254.018232,3140.991542
380.955060,-3478.967927,-6217.729913,766.095498
380.955383,-4145.153275,-7031.956449,995.924147
380.955705,-5625.565159,-7031.956449,1991.848295
380.956028,-6217.729913,-6365.771101,1302.362347
380.956350,-6365.771101,-5107.421000,-2221.676944
380.956673,-5181.441594,-6809.894666,-6205.373534
380.956995,-2442.679609,-10658.965565,-7354.516781
380.957318,814.226536,-13989.892304,-7124.688131
380.957641,3701.029710,-15914.427753,-5362.668486
380.957963,6365.771101,-15840.407159,-3600.648841
380.958286,8290.306550,-14285.974681,-2604.724693
380.958608,7920.203579,-11917.315666,-2834.553343
380.958931,5699.585753,-9548.656652,-3524.039291
380.959253,2590.720797,-9104.533087,-3140.991542
380.959576,222.061783,-9030.512492,-1762.019645
380.959898,-2146.597232,-8068.244768,919.314598
380.960221,-3552.988522,-7031.956449,3064.381992
380.960543,-4589.276840,-6365.771101,3064.381992
380.960866,-4293.194464,-6439.791695,2145.067394
380.961188,-4145.153275,-5995.668130,2298.286494
380.961511,-5329.482782,-5107.421000,1685.410096
380.961833,-6217.729913,-4811.338623,229.828649
380.962156,-5107.421000,-7105.977043,-2221.676944
380.962478,-2516.700203,-8956.491898,-3753.867940
380.962801,0.000000,-10732.986159,-5822.325785
380.963123,2664.741391,-13175.665768,-6665.030833
380.963446,5477.523971,-14952.160028,-4443.353888
380.963769,7846.182985,-13397.727550,-1608.800546
380.964091,8216.285956,-11917.315666,-2145.067394
380.964414,6809.894666,-10510.924376,-3140.991542
380.964736,4145.153275,-10510.924376,-3600.648841
380.965059,1628.453072,-9918.759623,-2757.943793
380.965381,-1184.329507,-7994.224174,-1149.143247
380.965704,-3923.091493,-7772.162391,995.924147
380.966026,-5033.400406,-7550.100608,2451.505594
380.966349,-4885.359217,-7105.977043,2604.724693
380.966671,-4885.359217,-7105.977043,1608.800546
380.966994,-5477.523971,-6661.853478,1225.752797
380.967316,-6143.709319,-6069.688724,459.657299
380.967639,-6513.812290,-5255.462188,-2068.457845
380.967961,-4885.359217,-7031.956449,-3294.210641
380.968284,-2738.761985,-9770.718434,-5056.230287
380.968606,0.000000,-11695.253884,-6281.983084
380.968929,3256.906145,-14656.077652,-5822.325785
380.969251,5921.647536,-15322.262999,-3677.258390
380.969574,8364.327145,-14359.995275,-2221.676944
380.969897,8660.409521,-12435.459826,-2911.162892
380.970219,7402.059420,-11399.171507,-2987.772442
380.970542,5403.503377,-11325.150913,-2604.724693
380.970864,2368.659014,-9548.656652,-1685.410096
380.971187,-1332.370696,-7476.080014,0.000000
380.971509,-4071.132681,-7328.038826,1685.410096
380.971832,-5329.482782,-7179.997637,2604.724693
380.972154,-4663.297435,-7031.956449,2451.505594
380.972477,-5255.462188,-6143.709319,1685.410096
380.972799,-6217.729913,-6957.935855,1762.019645
380.973122,-6883.915261,-6069.688724,1762.019645
380.973444,-7402.059420,-5181.441594,-842.705048
380.973767,-7476.080014,-6883.915261,-2681.334243
380.974089,-5255.462188,-9548.656652,-4443.353888
380.974412,-2294.638420,-11325.150913,-7354.516781
380.974734,1332.370696,-12805.562797,-7431.126331
380.975057,4441.235652,-13619.789333,-4673.182538
380.975380,6735.874072,-12953.603985,-2374.896044
380.975702,7550.100608,-10807.006753,-2451.505594
380.976025,5773.606348,-9474.636058,-2451.505594
380.976347,3923.091493,-9474.636058,-2911.162892
380.976670,1850.514855,-10140.821405,-2681.334243
380.976992,-296.082377,-9326.594869,0.000000
380.977315,-1258.350101,-7920.203579,2681.334243
380.977638,-2072.576638,-7624.121203,3140.991542
380.977960,-2368.659014,-7624.121203,3524.039291
380.978283,-2146.597232,-6439.791695,2834.553343
380.978605,-3256.906145,-4959.379811,459.657299
380.978928,-4071.132681,-5847.626942,-766.095498
380.979250,-2960.823768,-7846.182985,-2221.676944
380.979573,-1184.329507,-9474.636058,-4519.963438
380.979896,1554.432478,-11917.315666,-5286.058936
380.980218,3627.009116,-14730.098246,-4443.353888
380.980541,6587.832884,-15544.324782,-3830.477490
380.980863,8068.244768,-14285.974681,-4136.915689
380.981186,7031.956449,-12583.501014,-3217.601092
380.981508,4663.297435,-11177.109724,-3217.601092
380.981831,1850.514855,-9030.512492,-3447.429741
380.982154,0.000000,-7994.224174,-3294.210641
380.982476,-1702.473667,-8364.327145,-1991.848295
380.982799,-3256.906145,-7105.977043,1072.533697
380.983121,-4737.318029,-7476.080014,2911.162892
380.983444,-5477.523971,-8364.327145,3753.867940
380.983766,-6069.688724,-8512.368333,3524.039291
380.984089,-6809.894666,-6217.729913,2374.896044
380.984411,-7920.203579,-3627.009116,76.609550
380.984734,-7402.059420,-4737.318029,-2221.676944
380.985057,-5699.585753,-7402.059420,-3217.601092
380.985379,-3330.926739,-9178.553681,-4519.963438
380.985702,0.000000,-11473.192101,-4443.353888
380.986024,3627.009116,-13915.871710,-4136.915689
380.986347,7179.997637,-15248.242405,-2911.162892
380.986669,9252.574275,-13101.645173,-2834.553343
380.986992,8808.450710,-9992.780217,-2451.505594
380.987315,6587.832884,-8364.327145,-2987.772442
380.987637,4367.215058,-8586.388927,-2987.772442
380.987960,2442.679609,-8512.368333,-2451.505594
380.988282,-1184.329507,-8068.244768,-536.266849
380.988605,-3997.112087,-9178.553681,1225.752797
380.988927,-5033.400406,-9474.636058,3370.820191
380.989250,-4367.215058,-8438.347739,2451.505594
380.989573,-4367.215058,-7476.080014,153.219100
380.989895,-6217.729913,-7031.956449,1455.581446
380.990218,-8290.306550,-4737.318029,1991.848295
380.990540,-9474.636058,-3923.091493,-2298.286494
380.990863,-8216.285956,-6661.853478,-5592.497135
380.991185,-4663.297435,-10140.821405,-7431.126331
380.991508,-592.164754,-12583.501014,-7354.516781
380.991830,3552.988522,-15396.283594,-6435.202183
380.992153,6587.832884,-16728.654289,-2757.943793
380.992476,8956.491898,-15914.427753,-1532.190996
380.992798,9178.553681,-12953.603985,-3217.601092
380.993121,7105.977043,-9696.697840,-3600.648841
380.993443,3997.112087,-8364.327145,-3907.087040
380.993766,1332.370696,-8216.285956,-3600.648841
380.994088,-370.102971,-8660.409521,76.609550
380.994411,-2294.638420,-8290.306550,3524.039291
380.994734,-3182.885551,-8660.409521,4213.525239
380.995056,-2812.782580,-8438.347739,3524.039291
380.995379,-3108.864956,-7402.059420,2451.505594
380.995701,-4737.318029,-5847.626942,2145.067394
380.996024,-6439.791695,-4219.173869,1532.190996
380.996346,-7402.059420,-4515.256246,-995.924147
380.996669,-5625.565159,-7254.018232,-3753.867940
380.996992,-2368.659014,-9326.594869,-5515.887586
380.997314,1110.308913,-12139.377449,-7431.126331
380.997637,4589.276840,-14952.160028,-5209.449386
380.997959,6957.935855,-15026.180623,-2451.505594
380.998282,8216.285956,-12879.583391,-1532.190996
380.998604,6957.935855,-10066.800811,-2757.943793
380.998927,5033.400406,-9104.533087,-4060.306139
380.999249,2516.700203,-8882.471304,-4596.572988
380.999572,296.082377,-8216.285956,-2987.772442
380.999895,-1998.556043,-7624.121203,536.266849
381.000217,-3108.864956,-8438.347739,3294.210641
381.000540,-2886.803174,-9548.656652,4519.963438
381.000862,-3256.906145,-8808.450710,3830.477490
381.001185,-3997.112087,-6883.915261,2757.943793
381.001507,-5329.482782,-4589.276840,459.657299
381.001830,-5477.523971,-3552.988522,-1455.581446
381.002153,-4293.194464,-5625.565159,-3064.381992
381.002475,-1702.473667,-7624.121203,-4443.353888
381.002798,1036.288319,-10881.027347,-6358.592633
381.003120,4293.194464,-15396.283594,-5209.449386
381.003443,7402.059420,-17542.880825,-2681.334243
381.003765,8586.388927,-16728.654289,-2374.896044
381.004088,7624.121203,-13249.686362,-2528.115143
381.004411,5181.441594,-10362.883188,-3370.820191
381.004733,2664.741391,-9030.512492,-4596.572988
381.005056,888.247130,-8586.388927,-4366.744339
381.005378,-1924.535449,-7772.162391,-2145.067394
381.005701,-4441.235652,-8068.244768,459.657299
381.006023,-6439.791695,-8660.409521,3907.087040
381.006346,-6809.894666,-8808.450710,4673.182538
381.006668,-6587.832884,-8216.285956,1838.629195
381.006991,-6513.812290,-7031.956449,306.438199
381.007314,-7476.080014,-4737.318029,842.705048
381.007636,-8364.327145,-2368.659014,0.000000
381.007959,-8142.265362,-3478.967927,-2221.676944
381.008281,-6069.688724,-7105.977043,-4519.963438
381.008604,-2442.679609,-10881.027347,-6128.763984
381.008926,1850.514855,-13249.686362,-7584.345430
381.009249,5921.647536,-16506.592507,-5592.497135
381.009572,8512.368333,-16210.510130,-1532.190996
381.009894,9696.697840,-12879.583391,-689.485948
381.010217,8290.306550,-8956.491898,-2298.286494
381.010539,6439.791695,-7476.080014,-3447.429741
381.010862,4293.194464,-8068.244768,-3600.648841
381.011184,296.082377,-8364.327145,-2374.896044
381.011507,-2812.782580,-9474.636058,2068.457845
381.011830,-4441.235652,-9474.636058,5286.058936
381.012152,-3775.050304,-8882.471304,3677.258390
381.012475,-3627.009116,-8364.327145,842.705048
381.012797,-4737.318029,-7624.121203,1455.581446
381.013120,-7254.018232,-4219.173869,1838.629195
381.013442,-8216.285956,-2368.659014,-689.485948
381.013765,-7105.977043,-3404.947333,-4136.915689
381.014087,-3701.029710,-7179.997637,-6205.373534
381.014410,-814.226536,-11547.212695,-8503.660028
381.014733,3108.864956,-15840.407159,-7431.126331
381.015055,5699.585753,-18431.127956,-3600.648841
381.015378,7105.977043,-17172.777854,-919.314598
381.015700,7105.977043,-13323.706956,-3217.601092
381.016023,5403.503377,-10658.965565,-4903.011187
381.016345,3404.947333,-9918.759623,-6052.154434
381.016668,1628.453072,-9622.677246,-4826.401637
381.016991,-740.205942,-8290.306550,-383.047749
381.017313,-3034.844362,-7698.141797,4060.306139
381.017636,-3330.926739,-7624.121203,4749.792088
381.017958,-3108.864956,-8660.409521,3447.429741
381.018281,-3256.906145,-7846.182985,2451.505594
381.018603,-4737.318029,-5995.668130,1608.800546
381.018926,-6069.688724,-4219.173869,1455.581446
381.019249,-5255.462188,-3552.988522,76.609550
381.019571,-3627.009116,-5033.400406,-1915.238745
381.019894,-740.205942,-8512.368333,-4673.182538
381.020216,1924.535449,-12139.377449,-6281.983084
381.020539,4811.338623,-14878.139434,-5362.668486
381.020861,7105.977043,-14804.118840,-2298.286494
381.021184,7624.121203,-12805.562797,-1302.362347
381.021506,6291.750507,-10288.862594,-3064.381992
381.021829,4367.215058,-10510.924376,-5056.230287
381.022152,2442.679609,-10658.965565,-4519.963438
381.022474,-296.082377,-9474.636058,-2757.943793
381.022797,-3256.906145,-8438.347739,306.438199
381.023119,-4811.338623,-8660.409521,3370.820191
381.023442,-4663.297435,-8438.347739,3753.867940
381.023764,-3775.050304,-8364.327145,2145.067394
381.024087,-4515.256246,-7328.038826,1532.190996
381.024410,-5107.421000,-5403.503377,2221.676944
381.024732,-5551.544565,-2294.638420,153.219100
381.025055,-4367.215058,-3330.926739,-1608.800546
381.025377,-1554.432478,-7179.997637,-3140.991542
381.025700,1702.473667,-10362.883188,-5822.325785
381.026022,4959.379811,-13767.830521,-6818.249932
381.026345,7476.080014,-16654.633695,-3983.696590
381.026668,8808.450710,-16580.613101,-1149.143247
381.026990,8216.285956,-13249.686362,-1302.362347
381.027313,5699.585753,-10436.903782,-4213.525239
381.027635,3108.864956,-10955.047942,-5056.230287
381.027958,962.267725,-10436.903782,-4673.182538
381.028280,-2294.638420,-8956.491898,-2145.067394
381.028603,-5847.626942,-8068.244768,1378.971896
381.028926,-7476.080014,-8438.347739,3600.648841
381.029248,-6883.915261,-8660.409521,2911.162892
381.029571,-5995.668130,-7402.059420,995.924147
381.029893,-7402.059420,-6143.709319,-306.438199
381.030216,-8290.306550,-4885.359217,229.828649
381.030538,-8586.388927,-3627.009116,306.438199
381.030861,-7179.997637,-3552.988522,-1072.533697
381.031183,-5477.523971,-6661.853478,-4213.525239
381.031506,-1776.494261,-10732.986159,-6971.469032
381.031829,2664.741391,-13915.871710,-7277.907231
381.032151,5995.668130,-14359.995275,-4673.182538
381.032474,8438.347739,-13989.892304,-2068.457845
381.032796,9622.677246,-12879.583391,-2374.896044
381.033119,9770.718434,-12139.377449,-3677.258390
381.033441,7550.100608,-10510.924376,-3830.477490
381.033764,3775.050304,-9252.574275,-2604.724693
381.034087,-518.144159,-9252.574275,-842.705048
381.034409,-3108.864956,-9474.636058,2451.505594
381.034732,-4145.153275,-8586.388927,3217.601092
381.035054,-3849.070898,-7772.162391,1225.752797
381.035377,-4145.153275,-8142.265362,1532.190996
381.035699,-5033.400406,-6069.688724,2298.286494
381.036022,-6069.688724,-3108.864956,1838.629195
381.036345,-5847.626942,-1554.432478,-306.438199
381.036667,-3775.050304,-4959.379811,-3524.039291
381.036990,-296.082377,-9178.553681,-5898.935335
381.037312,2072.576638,-12213.398043,-6971.469032
381.037635,3997.112087,-16210.510130,-5209.449386
381.037957,5625.565159,-17912.983796,-2374.896044
381.038280,6957.935855,-15174.221811,-1532.190996
381.038602,5625.565159,-10807.006753,-3983.696590
381.038925,3775.050304,-9474.636058,-5286.058936
381.039248,2072.576638,-10658.965565,-5439.278036
381.039570,518.144159,-10658.965565,-3524.039291
381.039893,-1628.453072,-9400.615463,306.438199
381.040215,-4515.256246,-8512.368333,3907.087040
381.040538,-5847.626942,-7920.203579,4213.525239
381.040860,-5625.565159,-7476.080014,2604.724693
381.041183,-5625.565159,-6735.874072,995.924147
381.041506,-5995.668130,-5995.668130,229.828649
381.041828,-6217.729913,-4071.132681,1302.362347
381.042151,-5181.441594,-3701.029710,766.095498
381.042473,-3404.947333,-4885.359217,-1608.800546
381.042796,-1406.391290,-9326.594869,-4596.572988
381.043118,1776.494261,-12805.562797,-6588.421283
381.043441,4811.338623,-14434.015869,-6741.640382
381.043764,7624.121203,-15322.262999,-3524.039291
381.044086,8512.368333,-14582.057057,-995.924147
381.044409,8142.265362,-11769.274478,-1685.410096
381.044731,5773.606348,-9326.594869,-3140.991542
381.045054,3404.947333,-9252.574275,-3370.820191
381.045376,296.082377,-9400.615463,-3600.648841
381.045699,-3404.947333,-9030.512492,-1225.752797
381.046021,-6217.729913,-8586.388927,2834.553343
381.046344,-6661.853478,-8586.388927,4136.915689
381.046667,-5699.585753,-9030.512492,1149.143247
381.046989,-5255.462188,-8068.244768,383.047749
381.047312,-6661.853478,-4515.256246,1225.752797
381.047634,-6957.935855,-2072.576638,-153.219100
381.047957,-4959.379811,-3478.967927,-2451.505594
381.048279,-1628.453072,-7031.956449,-3677.258390
381.048602,1332.370696,-9622.677246,-5669.106685
381.048925,3552.988522,-13693.809927,-6358.592633
381.049247,5847.626942,-16284.530724,-3907.087040
381.049570,7920.203579,-15988.448347,-2145.067394
381.049892,8216.285956,-12805.562797,-3140.991542
381.050215,6291.750507,-11103.089130,-3064.381992
381.050537,3552.988522,-10436.903782,-2451.505594
381.050860,592.164754,-10214.842000,-3370.820191
381.051183,-1776.494261,-9474.636058,-1378.971896
381.051505,-3775.050304,-7920.203579,919.314598
381.051828,-5033.400406,-7031.956449,766.095498
381.052150,-5477.523971,-8512.368333,1225.752797
381.052473,-6291.750507,-8660.409521,3753.867940
381.052795,-7031.956449,-7031.956449,3140.991542
381.053118,-7624.121203,-3997.112087,-306.438199
381.053440,-6957.935855,-4737.318029,-2681.334243
381.053763,-4515.256246,-7031.956449,-3217.601092
381.054086,-2146.597232,-8734.430116,-4290.134789
381.054408,962.267725,-11991.336260,-5056.230287
381.054731,4589.276840,-14211.954086,-3677.258390
381.055053,7846.182985,-14285.974681,-2757.943793
381.055376,9104.533087,-12139.377449,-2834.553343
381.055698,7476.080014,-9918.759623,-1762.019645
381.056021,4737.318029,-8882.471304,-3753.867940
381.056344,3330.926739,-10066.800811,-4213.525239
381.056666,2146.597232,-9992.780217,-2068.457845
381.056989,-592.164754,-8364.327145,383.047749
381.057311,-3849.070898,-8142.265362,2068.457845
381.057634,-4071.132681,-9474.636058,4903.011187
381.057956,-4293.194464,-8956.491898,2681.334243
381.058279,-5107.421000,-7402.059420,-153.219100
381.058602,-5847.626942,-6957.935855,459.657299
381.058924,-6291.750507,-4145.153275,229.828649
381.059247,-5329.482782,-4441.235652,-2221.676944
381.059569,-2146.597232,-7031.956449,-3907.087040
381.059892,1184.329507,-10214.842000,-4826.401637
381.060214,4071.132681,-13323.706956,-6128.763984
381.060537,6513.812290,-15914.427753,-3600.648841
381.060859,7920.203579,-15766.386565,-766.095498
381.061182,8068.244768,-13027.624579,-2298.286494
381.061505,7105.977043,-10584.944971,-3600.648841
381.061827,4737.318029,-8586.388927,-2451.505594
381.062150,1850.514855,-7476.080014,-3064.381992
381.062472,-592.164754,-8586.388927,-1532.190996
381.062795,-2960.823768,-8956.491898,1532.190996
381.063117,-5699.585753,-8512.368333,2681.334243
381.063440,-6587.832884,-9104.533087,2298.286494
381.063763,-6587.832884,-8290.306550,2451.505594
381.064085,-6513.812290,-7328.038826,153.219100
381.064408,-6661.853478,-5107.421000,-842.705048
381.064730,-7179.997637,-3923.091493,-383.047749
381.065053,-7105.977043,-4737.318029,-1838.629195
381.065375,-5107.421000,-7772.162391,-4749.792088
381.065698,-2220.617826,-11399.171507,-6435.202183
381.066021,1036.288319,-13619.789333,-6665.030833
381.066343,4145.153275,-15248.242405,-5286.058936
381.066666,6735.874072,-15026.180623,-2221.676944
381.066988,7920.203579,-12731.542202,-1072.533697
381.067311,6957.935855,-9696.697840,-2757.943793
381.067633,4959.379811,-8438.347739,-3677.258390
381.067956,2960.823768,-7920.203579,-3370.820191
381.068278,370.102971,-8290.306550,-2298.286494
381.068601,-2886.803174,-8068.244768,459.657299
381.068924,-5107.421000,-9326.594869,3370.820191
381.069246,-5403.503377,-9030.512492,4060.306139
381.069569,-5033.400406,-8364.327145,842.705048
381.069891,-5181.441594,-6809.894666,-536.266849
381.070214,-5921.647536,-6217.729913,153.219100
381.070536,-6587.832884,-4293.194464,-536.266849
381.070859,-4663.297435,-5551.544565,-3294.210641
381.071182,-1702.473667,-8068.244768,-4366.744339
381.071504,1480.411884,-10955.047942,-6894.859482
381.071827,4589.276840,-14656.077652,-5898.935335
381.072149,6587.832884,-16432.571912,-3140.991542
381.072472,7624.121203,-15396.283594,-1838.629195
381.072794,7402.059420,-12213.398043,-2298.286494
381.073117,5477.523971,-9474.636058,-3524.039291
381.073440,3108.864956,-7994.224174,-3830.477490
381.073762,740.205942,-8660.409521,-3753.867940
381.074085,-1110.308913,-9326.594869,-1072.533697
381.074407,-3256.906145,-8660.409521,2068.457845
381.074730,-5033.400406,-7772.162391,3524.039291
381.075052,-5921.647536,-7624.121203,3677.258390
381.075375,-5477.523971,-7846.182985,1455.581446
381.075697,-5033.400406,-6809.894666,-153.219100
381.076020,-5403.503377,-4589.276840,306.438199
381.076343,-5551.544565,-3701.029710,-306.438199
381.076665,-3775.050304,-5773.606348,-1685.410096
381.076988,-1776.494261,-9474.636058,-3524.039291
381.077310,962.267725,-11991.336260,-5209.449386
381.077633,3552.988522,-14063.912898,-6205.373534
381.077955,5625.565159,-14952.160028,-3677.258390
381.078278,6957.935855,-13323.706956,-1302.362347
381.078600,6809.894666,-10214.842000,-1685.410096
381.078923,5477.523971,-8438.347739,-2987.772442
381.079245,4145.153275,-8512.368333,-3753.867940
381.079567,2516.700203,-9548.656652,-3294.210641
381.079890,-148.041188,-9474.636058,-153.219100
381.080212,-3108.864956,-9178.553681,2298.286494
381.080535,-4515.256246,-9770.718434,3907.087040
381.080857,-4293.194464,-9104.533087,2374.896044
381.081180,-3775.050304,-8364.327145,-919.314598
381.081502,-4589.276840,-7254.018232,-995.924147
381.081825,-5551.544565,-4589.276840,229.828649
381.082147,-5107.421000,-3775.050304,-842.705048
381.082469,-2960.823768,-6143.709319,-3140.991542
381.082792,-148.041188,-9770.718434,-4443.353888
381.083114,2220.617826,-13175.665768,-5592.497135
381.083437,3997.112087,-15766.386565,-4366.744339
381.083759,5403.503377,-16728.654289,-2068.457845
381.084082,5921.647536,-14211.954086,-1149.143247
381.084404,5477.523971,-10066.800811,-2757.943793
381.084727,4145.153275,-7105.977043,-3907.087040
381.085049,1850.514855,-7105.977043,-4136.915689
381.085372,74.020594,-8808.450710,-2145.067394
381.085694,-3108.864956,-8882.471304,306.438199
381.086016,-5773.606348,-9326.594869,2451.505594
381.086339,-6957.935855,-10214.842000,3294.210641
381.086661,-6365.771101,-9992.780217,2298.286494
381.086984,-5255.462188,-7550.100608,0.000000
381.087306,-5625.565159,-4811.338623,-1532.190996
381.087629,-5181.441594,-4071.132681,0.000000
381.087951,-4589.276840,-4293.194464,229.828649
381.088274,-3552.988522,-5699.585753,-1915.238745
381.088596,-2220.617826,-9252.574275,-4903.011187
381.088918,962.267725,-13027.624579,-6435.202183
381.089241,4071.132681,-15322.262999,-5822.325785
381.089563,5921.647536,-14285.974681,-2911.162892
381.089886,6883.915261,-11621.233289,-842.705048
381.090208,7105.977043,-9400.615463,-1685.410096
381.090531,6735.874072,-8216.285956,-3677.258390
381.090853,4589.276840,-7624.121203,-3217.601092
381.091176,1406.391290,-8216.285956,-2834.553343
381.091498,-1776.494261,-9844.739029,-612.876398
381.091820,-3849.070898,-11177.109724,2221.676944
381.092143,-4589.276840,-11473.192101,2528.115143
381.092465,-5255.462188,-9474.636058,1991.848295
381.092788,-4811.338623,-7698.141797,1072.533697
381.093110,-5477.523971,-4515.256246,-383.047749
381.093433,-4071.132681,-3775.050304,-1991.848295
381.093755,-1924.535449,-5107.421000,-2987.772442
381.094078,444.123565,-7994.224174,-3907.087040
381.094400,2886.803174,-11621.233289,-4673.182538
381.094723,4959.379811,-15100.201217,-3600.648841
381.095045,6661.853478,-16284.530724,-2221.676944
381.095367,7105.977043,-14137.933492,-2451.505594
381.095690,5773.606348,-10732.986159,-2221.676944
381.096012,4515.256246,-8734.430116,-3600.648841
381.096335,2738.761985,-8956.491898,-4903.011187
381.096657,1480.411884,-9844.739029,-3370.820191
381.096980,-1110.308913,-9030.512492,-383.047749
381.097302,-4293.194464,-8364.327145,1685.410096
381.097625,-5921.647536,-9400.615463,1685.410096
381.097947,-6587.832884,-9326.594869,2068.457845
381.098269,-7476.080014,-8586.388927,-306.438199
381.098592,-8364.327145,-7105.977043,-689.485948
381.098914,-8512.368333,-5625.565159,76.609550
381.099237,-7328.038826,-4071.132681,-842.705048
381.099559,-4367.215058,-5625.565159,-2911.162892
381.099882,-1036.288319,-9178.553681,-3753.867940
381.100204,1776.494261,-11843.295072,-4519.963438
381.100527,4737.318029,-13619.789333,-3753.867940
381.100849,6809.894666,-13175.665768,-2374.896044
381.101171,7624.121203,-11325.150913,-383.047749
381.101494,7698.141797,-9474.636058,-2451.505594
381.101816,6143.709319,-8142.265362,-3983.696590
381.102139,4219.173869,-8956.491898,-2757.943793
381.102461,1480.411884,-9548.656652,-1225.752797
381.102784,-1480.411884,-9770.718434,306.438199
381.103106,-3849.070898,-10362.883188,1838.629195
381.103429,-5181.441594,-10214.842000,2528.115143
381.103751,-5107.421000,-8512.368333,842.705048
381.104073,-5477.523971,-7994.224174,-1149.143247
381.104396,-6957.935855,-7105.977043,-1378.971896
381.104718,-7031.956449,-6513.812290,536.266849
381.105041,-5699.585753,-4293.194464,-1991.848295
381.105363,-3256.906145,-6439.791695,-4213.525239
381.105686,0.000000,-10510.924376,-5515.887586
381.106008,3404.947333,-13841.851115,-4903.011187
381.106331,5107.421000,-14730.098246,-3217.601092
381.106653,6439.791695,-14582.057057,-1532.190996
381.106976,7476.080014,-12805.562797,-536.266849
381.107298,7105.977043,-9622.677246,-2681.334243
381.107620,5329.482782,-7698.141797,-4596.572988
381.107943,3404.947333,-8438.347739,-3524.039291
381.108265,1406.391290,-9770.718434,-1302.362347
381.108588,-1850.514855,-9622.677246,1762.019645
381.108910,-4663.297435,-9104.533087,3524.039291
381.109233,-6143.709319,-8734.430116,2451.505594
381.109555,-5847.626942,-7550.100608,766.095498
381.109878,-5995.668130,-7105.977043,-1685.410096
381.110200,-7031.956449,-6069.688724,-306.438199
381.110522,-7179.997637,-5477.523971,536.266849
381.110845,-5477.523971,-4737.318029,-1149.143247
381.111167,-2442.679609,-7402.059420,-3677.258390
381.111490,0.000000,-11695.253884,-5056.230287
381.111812,2516.700203,-13915.871710,-5745.716235
381.112135,4737.318029,-14582.057057,-4290.134789
381.112457,6291.750507,-12879.583391,-1532.190996
381.112780,7402.059420,-10362.883188,-1225.752797
381.113102,7402.059420,-8216.285956,-4519.963438
381.113424,5403.503377,-8068.244768,-4903.011187
381.113747,3108.864956,-9178.553681,-3140.991542
381.114069,-222.061783,-9770.718434,-1225.752797
381.114392,-3034.844362,-10510.924376,1608.800546
381.114714,-4737.318029,-10807.006753,3140.991542
381.115037,-5181.441594,-9400.615463,1532.190996
381.115359,-4811.338623,-8734.430116,-153.219100
381.115682,-5847.626942,-7105.977043,-536.266849
381.116004,-5921.647536,-5921.647536,689.485948
381.116327,-5181.441594,-3997.112087,-1225.752797
381.116649,-3034.844362,-4885.359217,-2604.724693
381.116971,370.102971,-8586.388927,-3830.477490
381.117294,2960.823768,-12361.439231,-5286.058936
381.117616,5329.482782,-14656.077652,-5056.230287
381.117939,7550.100608,-15544.324782,-2451.505594
381.118261,8660.409521,-14211.954086,0.000000
381.118584,8660.409521,-10362.883188,-689.485948
381.118906,6587.832884,-8068.244768,-2528.115143
381.119229,3775.050304,-8142.265362,-3830.477490
381.119551,1110.308913,-10732.986159,-3370.820191
381.119873,-1998.556043,-10658.965565,459.657299
381.120196,-5625.565159,-8882.471304,2068.457845
381.120518,-7920.203579,-8808.450710,1838.629195
381.120841,-7179.997637,-9400.615463,1685.410096
381.121163,-7179.997637,-7772.162391,459.657299
381.121486,-7994.224174,-5995.668130,0.000000
381.121808,-8586.388927,-3997.112087,-919.314598
381.122131,-7105.977043,-4959.379811,-1532.190996
381.122453,-4885.359217,-6957.935855,-2451.505594
381.122775,-2146.597232,-8808.450710,-4903.011187
381.123098,0.000000,-12435.459826,-6052.154434
381.123420,2886.803174,-14211.954086,-4290.134789
381.123743,6069.688724,-13619.789333,-2451.505594
381.124065,7254.018232,-10955.047942,-2451.505594
381.124388,6809.894666,-8734.430116,-2451.505594
381.124710,5181.441594,-8660.409521,-2451.505594
381.125033,3775.050304,-9474.636058,-2834.553343
381.125355,1924.535449,-9400.615463,-1991.848295
381.125677,-1924.535449,-8882.471304,76.609550
381.126000,-3923.091493,-9400.615463,2068.457845
381.126322,-3997.112087,-10066.800811,2987.772442
381.126645,-4071.132681,-9400.615463,1532.190996
381.126967,-4441.235652,-7772.162391,76.609550
381.127290,-4885.359217,-6291.750507,0.000000
381.127612,-5255.462188,-4515.256246,-1225.752797
381.127935,-3849.070898,-6069.688724,-2987.772442
381.128257,-1110.308913,-8438.347739,-4596.572988
381.128580,962.267725,-10881.027347,-6281.983084
381.128902,3552.988522,-14359.995275,-4519.963438
381.129224,6809.894666,-15840.407159,-2068.457845
381.129547,8216.285956,-14211.954086,-1915.238745
381.129869,7772.162391,-11917.315666,-2451.505594
381.130192,5995.668130,-9474.636058,-1762.019645
381.130514,3849.070898,-7698.141797,-2451.505594
381.130837,1406.391290,-8290.306550,-3753.867940
381.131159,-1036.288319,-9030.512492,-612.876398
381.131482,-3849.070898,-7846.182985,2221.676944
381.131804,-6143.709319,-7772.162391,2145.067394
381.132126,-6661.853478,-8586.388927,2528.115143
381.132449,-7402.059420,-8142.265362,1608.800546
381.132771,-7328.038826,-7105.977043,0.000000
381.133094,-7254.018232,-5107.421000,0.000000
381.133416,-6957.935855,-4589.276840,-1072.533697
381.133739,-5699.585753,-5773.606348,-2604.724693
381.134061,-3182.885551,-8956.491898,-4060.306139
381.134384,-370.102971,-11325.150913,-5132.839837
381.134706,2590.720797,-13545.768739,-6128.763984
381.135028,5625.565159,-14730.098246,-3830.477490
381.135351,8068.244768,-13397.727550,-1225.752797
381.135673,9252.574275,-10881.027347,-1532.190996
381.135996,7328.038826,-9178.553681,-2834.553343
381.136318,4589.276840,-8660.409521,-2221.676944
381.136641,1998.556043,-8882.471304,-1685.410096
381.136963,-814.226536,-8512.368333,-612.876398
381.137286,-3478.967927,-9104.533087,689.485948
381.137608,-5403.503377,-9844.739029,1838.629195
381.137931,-5995.668130,-9770.718434,2068.457845
381.138253,-5773.606348,-7920.203579,995.924147
381.138575,-5995.668130,-6439.791695,-383.047749
381.138898,-5995.668130,-5181.441594,-1915.238745
381.139220,-5107.421000,-5921.647536,-3753.867940
381.139543,-3182.885551,-7105.977043,-4136.915689
381.139865,-814.226536,-9918.759623,-5515.887586
381.140188,1776.494261,-13841.851115,-6741.640382
381.140510,4663.297435,-16432.571912,-4979.620737
381.140833,7254.018232,-15322.262999,-2528.115143
381.141155,9326.594869,-13619.789333,-2068.457845
381.141477,9030.512492,-10955.047942,-2145.067394
381.141800,7698.141797,-8734.430116,-1915.238745
381.142122,4959.379811,-7031.956449,-2145.067394
381.142445,2368.659014,-7105.977043,-919.314598
381.142767,-740.205942,-7772.162391,1532.190996
381.143090,-3923.091493,-8290.306550,2068.457845
381.143412,-6661.853478,-8808.450710,2145.067394
381.143735,-7698.141797,-8956.491898,2528.115143
381.144057,-7624.121203,-7698.141797,1762.019645
381.144379,-6439.791695,-6587.832884,0.000000
381.144702,-6143.709319,-3923.091493,-1915.238745
381.145024,-4367.215058,-5699.585753,-2451.505594
381.145347,-2442.679609,-8438.347739,-3677.258390
381.145669,0.000000,-11251.130318,-4903.011187
381.145992,1702.473667,-14359.995275,-4749.792088
381.146314,4367.215058,-14656.077652,-4443.353888
381.146637,6661.853478,-13101.645173,-3907.087040
381.146959,8068.244768,-10584.944971,-2374.896044
381.147281,7846.182985,-8882.471304,-2068.457845
381.147604,5995.668130,-8808.450710,-1915.238745
381.147926,3478.967927,-7772.162391,-383.047749
381.148249,518.144159,-7328.038826,153.219100
381.148571,-3256.906145,-8216.285956,689.485948
381.148894,-5995.668130,-9548.656652,1838.629195
381.149216,-7698.141797,-9400.615463,2221.676944
381.149539,-8586.388927,-7179.997637,1378.971896
381.149861,-8290.306550,-7105.977043,0.000000
381.150184,-7920.203579,-6809.894666,-459.657299
381.150506,-7254.018232,-5699.585753,-2451.505594
381.150828,-5181.441594,-6217.729913,-4366.744339
381.151151,-1702.473667,-9178.553681,-4903.011187
381.151473,1110.308913,-13101.645173,-5898.935335
381.151796,4071.132681,-16136.489536,-4903.011187
381.152118,5921.647536,-16062.468941,-2757.943793
381.152441,7550.100608,-14285.974681,-1455.581446
381.152763,8438.347739,-11843.295072,-1608.800546
381.153086,7254.018232,-8290.306550,-2451.505594
381.153408,4367.215058,-6587.832884,-2757.943793
381.153730,1258.350101,-7402.059420,-1378.971896
381.154053,-1702.473667,-8586.388927,1378.971896
381.154375,-5329.482782,-8660.409521,2681.334243
381.154698,-7402.059420,-8364.327145,2145.067394
381.155020,-8290.306550,-8512.368333,995.924147
381.155343,-8586.388927,-8142.265362,766.095498
381.155665,-8808.450710,-6143.709319,1378.971896
381.155988,-9474.636058,-3775.050304,0.000000
381.156310,-8068.244768,-4811.338623,-2911.162892
381.156632,-4515.256246,-7772.162391,-4673.182538
381.156955,-1554.432478,-10140.821405,-6435.202183
381.157277,1332.370696,-13989.892304,-6281.983084
381.157600,4589.276840,-15766.386565,-3907.087040
381.157922,8290.306550,-14730.098246,-2298.286494
381.158245,10658.965565,-11769.274478,-2528.115143
381.158567,10732.986159,-10066.800811,-2068.457845
381.158890,8068.244768,-7994.224174,-1072.533697
381.159212,4885.359217,-6291.750507,-1991.848295
381.159535,2442.679609,-6439.791695,-1455.581446
381.159857,518.144159,-7698.141797,1072.533697
381.160179,-2220.617826,-8364.327145,2834.553343
381.160502,-4515.256246,-8808.450710,2604.724693
381.160824,-5477.523971,-8216.285956,2451.505594
381.161147,-5477.523971,-7624.121203,1072.533697
381.161469,-3849.070898,-7179.997637,-1378.971896
381.161792,-3034.844362,-6513.812290,-2911.162892
381.162114,-2220.617826,-7920.203579,-3983.696590
381.162437,0.000000,-10066.800811,-4366.744339
381.162759,2368.659014,-13249.686362,-4673.182538
381.163081,4589.276840,-15766.386565,-4213.525239
381.163404,6587.832884,-15396.283594,-3830.477490
381.163726,7846.182985,-14211.954086,-3753.867940
381.164049,7846.182985,-11769.274478,-2757.943793
381.164371,6217.729913,-9252.574275,-1838.629195
381.164694,3182.885551,-6735.874072,-1685.410096
381.165016,296.082377,-4959.379811,-1378.971896
381.165339,-2368.659014,-5995.668130,0.000000
381.165661,-4367.215058,-8068.244768,612.876398
381.165983,-7328.038826,-9104.533087,1608.800546
381.166306,-9548.656652,-9326.594869,2834.553343
381.166628,-10214.842000,-7994.224174,2604.724693
381.166951,-8808.450710,-7105.977043,0.000000
381.167273,-7105.977043,-6069.688724,-2681.334243
381.167596,-5921.647536,-6513.812290,-3830.477490
381.167918,-4515.256246,-7772.162391,-3907.087040
381.168241,-2072.576638,-10584.944971,-3753.867940
381.168563,740.205942,-13915.871710,-3217.601092
381.168885,3627.009116,-14952.160028,-4366.744339
381.169208,5995.668130,-14434.015869,-4213.525239
381.169530,7179.997637,-12287.418637,-2374.896044
381.169853,6809.894666,-9474.636058,-612.876398
381.170175,5033.400406,-6661.853478,-766.095498
381.170498,2294.638420,-5403.503377,-689.485948
381.170820,814.226536,-6587.832884,-459.657299
381.171143,-1480.411884,-7105.977043,0.000000
381.171465,-3997.112087,-8216.285956,1149.143247
381.171788,-5551.544565,-9696.697840,2604.724693
381.172110,-6069.688724,-10140.821405,3140.991542
381.172432,-5921.647536,-8956.491898,2068.457845
381.172755,-7105.977043,-6661.853478,383.047749
381.173077,-9104.533087,-4959.379811,-2221.676944
381.173400,-8882.471304,-5847.626942,-5286.058936
381.173722,-5921.647536,-7624.121203,-6818.249932
381.174045,-1850.514855,-10658.965565,-7507.735880
381.174367,1628.453072,-14508.036463,-7048.078582
381.174690,5477.523971,-17098.757260,-4290.134789
381.175012,8734.430116,-17320.819043,-1302.362347
381.175334,11251.130318,-14285.974681,-1915.238745
381.175657,11917.315666,-10140.821405,-3140.991542
381.175979,9918.759623,-6883.915261,-2374.896044
381.176302,6513.812290,-4885.359217,-1532.190996
381.176624,3404.947333,-5255.462188,-229.828649
381.176947,370.102971,-7179.997637,2834.553343
381.177269,-2368.659014,-8660.409521,3830.477490
381.177592,-4885.359217,-8660.409521,1685.410096
381.177914,-6439.791695,-8512.368333,1149.143247
381.178236,-7031.956449,-7846.182985,1762.019645
381.178559,-5551.544565,-7031.956449,153.219100
381.178881,-4737.318029,-5699.585753,-1762.019645
381.179203,-3997.112087,-5403.503377,-3217.601092
381.179526,-2368.659014,-8290.306550,-5439.278036
381.179848,0.000000,-12805.562797,-6128.763984
381.180171,1850.514855,-16506.592507,-5515.887586
381.180493,3627.009116,-16580.613101,-4366.744339
381.180815,5773.606348,-14730.098246,-4060.306139
381.181138,7402.059420,-12213.398043,-3370.820191
381.181460,7105.977043,-9548.656652,-1685.410096
381.181783,4219.173869,-6661.853478,-1762.019645
381.182105,1406.391290,-4589.276840,-1685.410096
381.182427,-592.164754,-5181.441594,-306.438199
381.182750,-2442.679609,-7179.997637,842.705048
381.183072,-4589.276840,-9178.553681,1378.971896
381.183394,-7105.977043,-10140.821405,2451.505594
381.183717,-7476.080014,-9548.656652,3064.381992
381.184039,-7031.956449,-7698.141797,1455.581446
381.184362,-6661.853478,-5921.647536,-2145.067394
381.184684,-5255.462188,-5847.626942,-3294.210641
381.185006,-3701.029710,-6883.915261,-4519.963438
381.185329,-1258.350101,-9252.574275,-4979.620737
381.185651,1406.391290,-12879.583391,-4673.182538
381.185974,4515.256246,-16062.468941,-3064.381992
381.186296,6365.771101,-16580.613101,-2145.067394
381.186618,7846.182985,-14434.015869,-1991.848295
381.186941,7328.038826,-11251.130318,-766.095498
381.187263,5181.441594,-8142.265362,-1225.752797
381.187585,2442.679609,-5699.585753,-1991.848295
381.187908,0.000000,-4293.194464,-995.924147
381.188230,-2960.823768,-5329.482782,842.705048
381.188553,-5551.544565,-7105.977043,1378.971896
381.188875,-7105.977043,-8586.388927,1838.629195
381.189197,-7994.224174,-10288.862594,1685.410096
381.189520,-8660.409521,-9770.718434,1455.581446
381.189842,-7772.162391,-7772.162391,306.438199
381.190165,-8290.306550,-5107.421000,-1072.533697
381.190487,-7698.141797,-5107.421000,-3907.087040
381.190809,-5477.523971,-6957.935855,-5592.497135
381.191132,-2368.659014,-9548.656652,-6052.154434
381.191454,666.185348,-13175.665768,-6588.421283
381.191776,3404.947333,-15470.304188,-4290.134789
381.192099,6143.709319,-16432.571912,-2298.286494
381.192421,8882.471304,-14508.036463,-1838.629195
381.192744,9548.656652,-11103.089130,-1915.238745
381.193066,8438.347739,-7031.956449,-1149.143247
381.193388,5995.668130,-4737.318029,-1302.362347
381.193711,3849.070898,-4367.215058,-995.924147
381.194033,1332.370696,-6217.729913,995.924147
381.194356,-1036.288319,-8216.285956,2528.115143
381.194678,-3256.906145,-9548.656652,2221.676944
381.195000,-4293.194464,-9992.780217,1149.143247
381.195323,-4663.297435,-8808.450710,1302.362347
381.195645,-4663.297435,-7402.059420,153.219100
381.195967,-4737.318029,-6143.709319,-1762.019645
381.196290,-3701.029710,-6513.812290,-4213.525239
381.196612,-2516.700203,-8290.306550,-6971.469032
381.196935,0.000000,-11177.109724,-6894.859482
381.197257,1776.494261,-15026.180623,-5286.058936
381.197579,4071.132681,-16876.695478,-4213.525239
381.197902,6069.688724,-15692.365970,-4136.915689
381.198224,7624.121203,-13693.809927,-2911.162892
381.198547,7550.100608,-10955.047942,-2221.676944
381.198869,5181.441594,-7772.162391,-1838.629195
381.199191,2442.679609,-5181.441594,-1608.800546
381.199514,148.041188,-4663.297435,-612.876398
381.199836,-1776.494261,-6513.812290,76.609550
381.200158,-3775.050304,-8364.327145,2298.286494
381.200481,-6439.791695,-9400.615463,2604.724693
381.200803,-7105.977043,-9252.574275,2298.286494
381.201126,-6587.832884,-8216.285956,919.314598
381.201448,-5477.523971,-7476.080014,-306.438199
381.201770,-5181.441594,-5995.668130,-1915.238745
381.202093,-4145.153275,-6439.791695,-3753.867940
381.202415,-2590.720797,-8808.450710,-4366.744339
381.202738,0.000000,-11621.233289,-4979.620737
381.203060,2294.638420,-14434.015869,-4826.401637
381.203382,4293.194464,-15026.180623,-3753.867940
381.203705,6365.771101,-13545.768739,-2911.162892
381.204027,6957.935855,-11547.212695,-1455.581446
381.204350,6069.688724,-8808.450710,-1378.971896
381.204672,3849.070898,-7179.997637,-1378.971896
381.204994,1554.432478,-6365.771101,-842.705048
381.205317,-370.102971,-6365.771101,-306.438199
381.205639,-3182.885551,-7624.121203,1149.143247
381.205961,-4737.318029,-9178.553681,2374.896044
381.206284,-6439.791695,-10066.800811,2221.676944
381.206606,-7031.956449,-9178.553681,1838.629195
381.206929,-7476.080014,-7328.038826,1838.629195
381.207251,-7550.100608,-5477.523971,-919.314598
381.207573,-7179.997637,-5477.523971,-3447.429741
381.207896,-5033.400406,-7105.977043,-4903.011187
381.208218,-2368.659014,-8882.471304,-5439.278036
381.208541,888.247130,-12139.377449,-5439.278036
381.208863,4145.153275,-16062.468941,-4366.744339
381.209185,6661.853478,-16728.654289,-1915.238745
381.209508,8364.327145,-14508.036463,-1915.238745
381.209830,8290.306550,-11177.109724,-1685.410096
381.210152,6883.915261,-8216.285956,-1149.143247
381.210475,4515.256246,-5699.585753,-2068.457845
381.210797,2368.659014,-5773.606348,-1762.019645
381.211120,-222.061783,-6587.832884,1149.143247
381.211442,-3034.844362,-7698.141797,2528.115143
381.211764,-4959.379811,-9030.512492,1991.848295
381.212087,-5773.606348,-10510.924376,919.314598
381.212409,-5921.647536,-10214.842000,1455.581446
381.212732,-7031.956449,-7920.203579,995.924147
381.213054,-7624.121203,-5329.482782,-612.876398
381.213376,-7254.018232,-4737.318029,-3140.991542
381.213699,-5329.482782,-6217.729913,-5209.449386
381.214021,-2516.700203,-9030.512492,-6741.640382
381.214343,444.123565,-13101.645173,-6741.640382
381.214666,2368.659014,-16062.468941,-4443.353888
381.214988,4885.359217,-16358.551318,-2451.505594
381.215311,7254.018232,-14211.954086,-1915.238745
381.215633,8068.244768,-10436.903782,-1762.019645
381.215955,6809.894666,-7920.203579,-1532.190996
381.216278,4441.235652,-5403.503377,-2145.067394
381.216600,2516.700203,-4589.276840,-1685.410096
381.216923,592.164754,-6069.688724,612.876398
381.217245,-1258.350101,-7772.162391,3140.991542
381.217567,-3108.864956,-9400.615463,2604.724693
381.217890,-4145.153275,-9918.759623,1378.971896
381.218212,-4367.215058,-8660.409521,1225.752797
381.218534,-4515.256246,-6957.935855,-153.219100
381.218857,-4145.153275,-6587.832884,-1915.238745
381.219179,-2812.782580,-6143.709319,-2987.772442
381.219502,-1924.535449,-7179.997637,-4903.011187
381.219824,296.082377,-10584.944971,-6281.983084
381.220146,2516.700203,-14137.933492,-5056.230287
381.220469,4737.318029,-16506.592507,-3677.258390
381.220791,6809.894666,-16136.489536,-2911.162892
381.221114,7328.038826,-13767.830521,-1915.238745
381.221436,6439.791695,-11103.089130,-995.924147
381.221758,3775.050304,-7920.203579,-1915.238745
381.222081,1258.350101,-5921.647536,-2374.896044
381.222403,-1036.288319,-5403.503377,-1225.752797
381.222725,-2960.823768,-6587.832884,153.219100
381.223048,-5329.482782,-7920.203579,1378.971896
381.223370,-7031.956449,-9474.636058,2068.457845
381.223693,-7624.121203,-10584.944971,1378.971896
381.224015,-7328.038826,-9548.656652,1225.752797
381.224337,-7105.977043,-6957.935855,0.000000
381.224660,-6809.894666,-5255.462188,-2528.115143
381.224982,-6069.688724,-6069.688724,-4290.134789
381.225305,-3701.029710,-7698.141797,-4213.525239
381.225627,-1184.329507,-10140.821405,-4903.011187
381.225949,1702.473667,-13323.706956,-5592.497135
381.226272,4219.173869,-15174.221811,-4366.744339
381.226594,6217.729913,-15174.221811,-1915.238745
381.226916,7105.977043,-12805.562797,-995.924147
381.227239,6439.791695,-9548.656652,-612.876398
381.227561,4663.297435,-6735.874072,-1378.971896
381.227884,2368.659014,-5625.565159,-1838.629195
381.228206,740.205942,-5773.606348,-612.876398
381.228528,-2220.617826,-6735.874072,1455.581446
381.228851,-4515.256246,-8512.368333,2374.896044
381.229173,-5329.482782,-10214.842000,1915.238745
381.229496,-4737.318029,-10436.903782,1378.971896
381.229818,-4885.359217,-8956.491898,689.485948
381.230140,-5921.647536,-6069.688724,0.000000
381.230463,-5477.523971,-5477.523971,-1838.629195
381.230785,-3701.029710,-6661.853478,-4519.963438
381.231107,-1258.350101,-8216.285956,-5898.935335
381.231430,888.247130,-11251.130318,-7048.078582
381.231752,3034.844362,-14730.098246,-4979.620737
381.232075,5699.585753,-16432.571912,-2604.724693
381.232397,7179.997637,-14582.057057,-2528.115143
381.232719,7920.203579,-12361.439231,-2451.505594
381.233042,6809.894666,-9696.697840,-2451.505594
381.233364,4515.256246,-7179.997637,-2298.286494
381.233687,1702.473667,-4885.359217,-1991.848295
381.234009,-444.123565,-5625.565159,-612.876398
381.234331,-2738.761985,-7698.141797,229.828649
381.234654,-4811.338623,-9400.615463,1532.190996
381.234976,-6661.853478,-9548.656652,2145.067394
381.235298,-6661.853478,-9548.656652,2221.676944
381.235621,-6069.688724,-8290.306550,229.828649
381.235943,-4367.215058,-7031.956449,-1762.019645
381.236266,-2812.782580,-5995.668130,-3370.820191
381.236588,-888.247130,-7105.977043,-3370.820191
381.236910,888.247130,-9992.780217,-3294.210641
381.237233,2590.720797,-12879.583391,-3064.381992
381.237555,4293.194464,-14137.933492,-3370.820191
381.237878,5625.565159,-14211.954086,-3753.867940
381.238200,6143.709319,-12731.542202,-2604.724693
381.238522,5847.626942,-10510.924376,-306.438199
381.238845,3997.112087,-7031.956449,-995.924147
381.239167,2368.659014,-5477.523971,-1915.238745
381.239490,1480.411884,-6069.688724,-1302.362347
381.239812,-666.185348,-6883.915261,76.609550
381.240134,-3997.112087,-7846.182985,2145.067394
381.240457,-5773.606348,-10881.027347,2068.457845
381.240779,-6587.832884,-11843.295072,1532.190996
381.241101,-7328.038826,-9844.739029,995.924147
381.241424,-8956.491898,-5995.668130,-689.485948
381.241746,-8586.388927,-5477.523971,-2374.896044
381.242069,-6217.729913,-6809.894666,-4979.620737
381.242391,-2294.638420,-7994.224174,-6128.763984
381.242713,518.144159,-10066.800811,-5822.325785
381.243036,3256.906145,-13693.809927,-3524.039291
381.243358,5921.647536,-16654.633695,-766.095498
381.243681,7994.224174,-15692.365970,-842.705048
381.244003,8438.347739,-12361.439231,-2451.505594
381.244325,6439.791695,-8808.450710,-1762.019645
381.244648,4367.215058,-6143.709319,-1838.629195
381.244970,2368.659014,-4737.318029,-1915.238745
381.245292,518.144159,-5107.421000,76.609550
381.245615,-1702.473667,-7105.977043,1991.848295
381.245937,-3997.112087,-9400.615463,1685.410096
381.246260,-5329.482782,-10658.965565,1225.752797
381.246582,-6661.853478,-11843.295072,1685.410096
381.246904,-7994.224174,-10584.944971,1149.143247
381.247227,-8882.471304,-7105.977043,0.000000
381.247549,-8438.347739,-4515.256246,-2451.505594
381.247872,-6291.750507,-5181.441594,-4903.011187
381.248194,-3627.009116,-8142.265362,-6281.983084
381.248516,-1110.308913,-10658.965565,-5362.668486
381.248839,888.247130,-13397.727550,-4596.572988
381.249161,3701.029710,-16210.510130,-2604.724693
381.249483,6661.853478,-16062.468941,-1685.410096
381.249806,7624.121203,-12583.501014,-2374.896044
381.250128,6439.791695,-8216.285956,-2757.943793
381.250451,4367.215058,-5033.400406,-2298.286494
381.250773,3627.009116,-4663.297435,-2528.115143
381.251095,1924.535449,-5329.482782,-1302.362347
381.251418,-666.185348,-7179.997637,919.314598
381.251740,-3108.864956,-9770.718434,1532.190996
381.252063,-4367.215058,-11621.233289,1608.800546
381.252385,-4885.359217,-11103.089130,1378.971896
381.252707,-5033.400406,-8216.285956,306.438199
381.253030,-6069.688724,-5255.462188,-1991.848295
381.253352,-5181.441594,-5477.523971,-3217.601092
381.253674,-3256.906145,-6365.771101,-4443.353888
381.253997,-592.164754,-8364.327145,-5209.449386
381.254319,2072.576638,-12731.542202,-5822.325785
381.254642,4663.297435,-16358.551318,-2911.162892
381.254964,6809.894666,-16506.592507,-1455.581446
381.255286,7624.121203,-13989.892304,-1455.581446
381.255609,7179.997637,-11177.109724,-1225.752797
381.255931,5033.400406,-7476.080014,-1302.362347
381.256254,2960.823768,-4737.318029,-3524.039291
381.256576,296.082377,-4071.132681,-2911.162892
381.256898,-1480.411884,-6365.771101,-536.266849
381.257221,-3997.112087,-8068.244768,1072.533697
381.257543,-5107.421000,-10510.924376,1225.752797
381.257865,-5921.647536,-13323.706956,1762.019645
381.258188,-6143.709319,-13471.748144,1762.019645
381.258510,-7402.059420,-9844.739029,1378.971896
381.258833,-8586.388927,-4737.318029,-459.657299
381.259155,-8364.327145,-3256.906145,-3753.867940
381.259477,-4885.359217,-5477.523971,-6052.154434
381.259800,-1480.411884,-7920.203579,-6435.202183
381.260122,1184.329507,-10807.006753,-5362.668486
381.260445,3997.112087,-14434.015869,-2757.943793
381.260767,6809.894666,-17172.777854,76.609550
381.261089,8586.388927,-15026.180623,842.705048
381.261412,7105.977043,-10362.883188,-689.485948
381.261734,4737.318029,-6439.791695,-2145.067394
381.262056,3775.050304,-5625.565159,-2834.553343
381.262379,3182.885551,-4737.318029,-2298.286494
381.262701,1480.411884,-4885.359217,842.705048
381.263024,-740.205942,-7254.018232,2221.676944
381.263346,-1480.411884,-11029.068536,2681.334243
381.263668,-2294.638420,-13101.645173,1762.019645
381.263991,-3997.112087,-11325.150913,919.314598
381.264313,-6365.771101,-7698.141797,689.485948
381.264636,-7550.100608,-4885.359217,-1225.752797
381.264958,-5921.647536,-4737.318029,-3524.039291
381.265280,-3108.864956,-5477.523971,-5209.449386
381.265603,-518.144159,-8142.265362,-6741.640382
381.265925,2886.803174,-13101.645173,-6435.202183
381.266247,5551.544565,-16802.674883,-2374.896044
381.266570,7772.162391,-17468.860231,153.219100
381.266892,8142.265362,-14508.036463,-1685.410096
381.267215,6365.771101,-11251.130318,-2757.943793
381.267537,3849.070898,-7550.100608,-2528.115143
381.267859,1258.350101,-4811.338623,-2911.162892
381.268182,-814.226536,-3701.029710,-2221.676944
381.268504,-2886.803174,-5847.626942,-306.438199
381.268827,-4737.318029,-8438.347739,1378.971896
381.269149,-5625.565159,-11177.109724,1838.629195
381.269471,-6735.874072,-13397.727550,2068.457845
381.269794,-6661.853478,-13397.727550,1225.752797
381.270116,-6957.935855,-8882.471304,229.828649
381.270438,-7179.997637,-3997.112087,-2145.067394
381.270761,-6587.832884,-2664.741391,-3294.210641
381.271083,-4663.297435,-5625.565159,-4366.744339
381.271406,-2516.700203,-8068.244768,-6205.373534
381.271728,296.082377,-11843.295072,-6665.030833
381.272050,3552.988522,-15470.304188,-4290.134789
381.272373,6069.688724,-17246.798449,-1302.362347
381.272695,7105.977043,-15248.242405,0.000000
381.273018,6217.729913,-10658.965565,-995.924147
381.273340,3923.091493,-6809.894666,-2528.115143
381.273662,2442.679609,-5255.462188,-3447.429741
381.273985,666.185348,-4589.276840,-2528.115143
381.274307,-2442.679609,-5107.421000,-306.438199
381.274630,-5107.421000,-7920.203579,1378.971896
381.274952,-6069.688724,-11103.089130,2604.724693
381.275274,-5255.462188,-13027.624579,1608.800546
381.275597,-4737.318029,-11029.068536,1455.581446
381.275919,-5773.606348,-6513.812290,-766.095498
381.276241,-5403.503377,-3849.070898,-1915.238745
381.276564,-2664.741391,-4145.153275,-2834.553343
381.276886,148.041188,-4959.379811,-4673.182538
381.277209,2294.638420,-8364.327145,-6358.592633
381.277531,4515.256246,-13175.665768,-4979.620737
381.277853,6735.874072,-16876.695478,-2145.067394
381.278176,8364.327145,-17690.922014,-612.876398
381.278498,7994.224174,-14878.139434,-995.924147
381.278820,6217.729913,-11251.130318,-1532.190996
381.279143,4071.132681,-7772.162391,-2757.943793
381.279465,1702.473667,-5181.441594,-2681.334243
381.279787,-592.164754,-4515.256246,-1455.581446
381.280110,-2664.741391,-5995.668130,-153.219100
381.280432,-5033.400406,-8660.409521,306.438199
381.280755,-5847.626942,-11843.295072,1762.019645
381.281077,-7328.038826,-12731.542202,3294.210641
381.281399,-7476.080014,-10436.903782,766.095498
381.281722,-7031.956449,-7179.997637,-1685.410096
381.282044,-5033.400406,-5625.565159,-3753.867940
381.282366,-2516.700203,-5255.462188,-4596.572988
381.282689,0.000000,-7105.977043,-5056.230287
381.283011,1776.494261,-10288.862594,-3753.867940
381.283333,4737.318029,-13767.830521,-2604.724693
381.283656,7105.977043,-14804.118840,-3217.601092
381.283978,7920.203579,-14582.057057,-1685.410096
381.284300,6587.832884,-11399.171507,-153.219100
381.284623,4959.379811,-8660.409521,-1455.581446
381.284945,4145.153275,-7328.038826,-1915.238745
381.285267,2738.761985,-5625.565159,-459.657299
381.285590,0.000000,-5699.585753,76.609550
381.285912,-3182.885551,-7105.977043,1072.533697
381.286235,-5255.462188,-9992.780217,2681.334243
381.286557,-5329.482782,-11547.212695,2451.505594
381.286879,-5329.482782,-11103.089130,0.000000
381.287202,-7031.956449,-8364.327145,306.438199
381.287524,-7624.121203,-5403.503377,383.047749
381.287846,-6883.915261,-3849.070898,-2298.286494
381.288169,-4589.276840,-5255.462188,-5362.668486
381.288491,-1184.329507,-8068.244768,-7124.688131
381.288813,1184.329507,-11103.089130,-7277.907231
381.289136,4367.215058,-15248.242405,-5209.449386
381.289458,6143.709319,-17320.819043,0.000000
381.289780,7105.977043,-15988.448347,306.438199
381.290103,6513.812290,-11769.274478,-2987.772442
381.290425,4515.256246,-7476.080014,-3140.991542
381.290748,2146.597232,-5847.626942,-2604.724693
381.291070,74.020594,-5551.544565,-2528.115143
381.291392,-2516.700203,-6661.853478,0.000000
381.291715,-4811.338623,-8512.368333,2528.115143
381.292037,-6661.853478,-10066.800811,2298.286494
381.292359,-6217.729913,-11325.150913,919.314598
381.292682,-6217.729913,-11177.109724,766.095498
381.293004,-6439.791695,-8512.368333,-153.219100
381.293326,-5995.668130,-5329.482782,0.000000
