#time,accel_x,accel_y,accel_z
253.151786,-518.144159,-9474.636058,-1378.971896
253.152108,-814.226536,-9252.574275,-1225.752797
253.152429,-666.185348,-9400.615463,-1225.752797
253.152751,-814.226536,-9548.656652,-919.314598
253.153073,-444.123565,-9400.615463,-1225.752797
253.153394,-444.123565,-9400.615463,-1225.752797
253.153716,-296.082377,-9400.615463,-1225.752797
253.154038,-444.123565,-9474.636058,-1455.581446
253.154359,-222.061783,-9326.594869,-919.314598
253.154681,0.000000,-10066.800811,-1685.410096
253.155003,-296.082377,-9400.615463,-1685.410096
253.155324,-296.082377,-9400.615463,-1302.362347
253.155646,-222.061783,-9400.615463,-1378.971896
253.155968,0.000000,-9326.594869,-1455.581446
253.156289,0.000000,-9252.574275,-1455.581446
253.156611,-222.061783,-9252.574275,-1838.629195
253.156933,-370.102971,-9474.636058,-1608.800546
253.157254,-370.102971,-9474.636058,-1608.800546
253.157576,-222.061783,-9548.656652,-1532.190996
253.157898,-148.041188,-9474.636058,-1149.143247
253.158219,0.000000,-9326.594869,-1608.800546
253.158541,0.000000,-9252.574275,-1685.410096
253.158863,0.000000,-9252.574275,-1838.629195
253.159184,-296.082377,-9326.594869,-1762.019645
253.159506,-222.061783,-9400.615463,-1685.410096
253.159827,-370.102971,-9326.594869,-1225.752797
253.160149,-518.144159,-9474.636058,-1532.190996
253.160471,-444.123565,-9474.636058,-1532.190996
253.160792,-148.041188,-9474.636058,-1532.190996
253.161114,-370.102971,-9400.615463,-1685.410096
253.161436,0.000000,-9474.636058,-1685.410096
253.161757,-296.082377,-9030.512492,-1838.629195
253.162079,-296.082377,-9400.615463,-1762.019645
253.162401,-444.123565,-9252.574275,-1685.410096
253.162722,-296.082377,-9474.636058,-1532.190996
253.163044,-370.102971,-9252.574275,-2068.457845
253.163366,-222.061783,-9030.512492,-1378.971896
253.163687,0.000000,-9400.615463,-1378.971896
253.164009,-444.123565,-9474.636058,-1378.971896
253.164331,-370.102971,-9400.615463,-1532.190996
253.164652,-444.123565,-9326.594869,-1225.752797
253.164974,0.000000,-9400.615463,-1532.190996
253.165296,-888.247130,-9104.533087,-1378.971896
253.165617,-592.164754,-9400.615463,-1532.190996
253.165939,-444.123565,-9474.636058,-1532.190996
253.166261,-444.123565,-9400.615463,-1378.971896
253.166582,-370.102971,-9400.615463,-1915.238745
253.166904,-518.144159,-9400.615463,-1455.581446
253.167226,-592.164754,-9474.636058,-1455.581446
253.167547,-592.164754,-9474.636058,-1225.752797
253.167869,-444.123565,-9252.574275,-1302.362347
253.168191,-444.123565,-9252.574275,-1302.362347
253.168512,-592.164754,-9104.533087,-1608.800546
253.168834,-518.144159,-9326.594869,-1149.143247
253.169156,-592.164754,-9326.594869,-1532.190996
253.169477,-444.123565,-9474.636058,-1149.143247
253.169799,-592.164754,-9474.636058,-1225.752797
253.170121,-666.185348,-9030.512492,-1149.143247
253.170442,222.061783,-9474.636058,-1378.971896
253.170764,-222.061783,-9178.553681,-1378.971896
253.171086,-296.082377,-9178.553681,-1378.971896
253.171407,-370.102971,-9326.594869,-1455.581446
253.171729,-296.082377,-9474.636058,-995.924147
253.172051,-518.144159,-9326.594869,-1685.410096
253.172372,0.000000,-9474.636058,-1532.190996
253.172694,-518.144159,-9474.636058,-1225.752797
253.173015,-222.061783,-9400.615463,-1378.971896
253.173337,-296.082377,-9326.594869,-1608.800546
253.173659,0.000000,-9252.574275,-1072.533697
253.173980,0.000000,-9252.574275,-1685.410096
253.174302,-222.061783,-9252.574275,-1302.362347
253.174624,-370.102971,-9400.615463,-1378.971896
253.174945,-222.061783,-9474.636058,-1225.752797
253.175267,-592.164754,-8882.471304,-1685.410096
253.175589,0.000000,-9548.656652,-1532.190996
253.175910,-370.102971,-9252.574275,-1455.581446
253.176232,-296.082377,-9178.553681,-1532.190996
253.176554,-444.123565,-9178.553681,-1455.581446
253.176875,-222.061783,-9400.615463,-1225.752797
253.177197,-592.164754,-9400.615463,-1225.752797
253.177519,-222.061783,-9474.636058,-1455.581446
253.177840,-148.041188,-9548.656652,-1608.800546
253.178162,-296.082377,-9474.636058,-1378.971896
253.178484,-296.082377,-9400.615463,-1532.190996
253.178805,-296.082377,-9030.512492,-1455.581446
253.179127,0.000000,-9178.553681,-2374.896044
253.179449,-370.102971,-9252.574275,-1838.629195
253.179770,-222.061783,-9252.574275,-1532.190996
253.180092,-222.061783,-9474.636058,-1532.190996
253.180414,-370.102971,-9474.636058,-1532.190996
253.180735,-518.144159,-9104.533087,-1762.019645
253.181057,0.000000,-9400.615463,-1991.848295
253.181379,888.247130,-9844.739029,-1762.019645
253.181700,1110.308913,-9992.780217,-1532.190996
253.182022,1036.288319,-9770.718434,-766.095498
253.182344,666.185348,-9252.574275,76.609550
253.182665,444.123565,-9104.533087,-1608.800546
253.182987,-296.082377,-9252.574275,-2068.457845
253.183309,-1332.370696,-8956.491898,-1991.848295
253.183630,-1554.432478,-8956.491898,-1915.238745
253.183952,-1184.329507,-9178.553681,-1915.238745
253.184274,74.020594,-10140.821405,-1915.238745
253.184595,-148.041188,-10288.862594,-1225.752797
253.184917,-296.082377,-9844.739029,-766.095498
253.185239,148.041188,-9326.594869,-1608.800546
253.185560,1554.432478,-9918.759623,-2298.286494
253.185882,2146.597232,-10658.965565,-1915.238745
253.186203,1406.391290,-9622.677246,-612.876398
253.186525,1480.411884,-8660.409521,-536.266849
253.186847,2886.803174,-9474.636058,-1149.143247
253.187168,3701.029710,-9770.718434,-1072.533697
253.187490,3182.885551,-9178.553681,229.828649
253.187812,2516.700203,-8290.306550,459.657299
253.188133,2960.823768,-8438.347739,-536.266849
253.188455,3182.885551,-9104.533087,-995.924147
253.188777,2664.741391,-9252.574275,-766.095498
253.189098,2220.617826,-8586.388927,-995.924147
253.189420,3108.864956,-7994.224174,-1532.190996
253.189742,3478.967927,-9474.636058,-2145.067394
253.190063,4293.194464,-10658.965565,-1302.362347
253.190385,3997.112087,-10362.883188,-1072.533697
253.190707,4145.153275,-9770.718434,-1072.533697
253.191028,4145.153275,-10066.800811,-995.924147
253.191350,4219.173869,-10066.800811,-1455.581446
253.191672,3552.988522,-9474.636058,-2298.286494
253.191993,2812.782580,-8956.491898,-1915.238745
253.192315,2886.803174,-8956.491898,-1072.533697
253.192637,3478.967927,-8364.327145,-766.095498
253.192958,4663.297435,-8142.265362,-1762.019645
253.193280,5255.462188,-8808.450710,-1149.143247
253.193602,5847.626942,-9252.574275,-1149.143247
253.193923,5847.626942,-8882.471304,-919.314598
253.194245,5625.565159,-9030.512492,-1072.533697
253.194567,5107.421000,-9326.594869,-689.485948
253.194888,3997.112087,-9622.677246,-2298.286494
253.195210,2664.741391,-10362.883188,-2374.896044
253.195532,1554.432478,-11843.295072,-1838.629195
253.195853,814.226536,-12879.583391,-995.924147
253.196175,740.205942,-13323.706956,306.438199
253.196497,814.226536,-12731.542202,919.314598
253.196818,1554.432478,-11621.233289,1149.143247
253.197140,2368.659014,-9918.759623,995.924147
253.197462,2146.597232,-7994.224174,1378.971896
253.197783,1258.350101,-6661.853478,1455.581446
253.198105,74.020594,-4885.359217,842.705048
253.198427,-962.267725,-4441.235652,-995.924147
253.198748,-518.144159,-5107.421000,-2145.067394
253.199070,518.144159,-5773.606348,-3064.381992
253.199391,2146.597232,-6143.709319,-4060.306139
253.199713,4441.235652,-7328.038826,-4903.011187
253.200035,5773.606348,-9252.574275,-4749.792088
253.200356,5625.565159,-11991.336260,-4366.744339
253.200678,4219.173869,-14211.954086,-3983.696590
253.201000,3034.844362,-15544.324782,-3217.601092
253.201321,2590.720797,-15396.283594,-2604.724693
253.201643,1924.535449,-14656.077652,-1532.190996
253.201965,0.000000,-12657.521608,1149.143247
253.202286,-1184.329507,-9548.656652,2681.334243
253.202608,-814.226536,-6809.894666,2528.115143
253.202930,0.000000,-5625.565159,2221.676944
253.203251,-296.082377,-4589.276840,2374.896044
253.203573,-1850.514855,-3775.050304,2451.505594
253.203895,-3108.864956,-3701.029710,2374.896044
253.204216,-2368.659014,-5773.606348,0.000000
253.204538,-1554.432478,-7920.203579,-4213.525239
253.204860,-1184.329507,-8660.409521,-6281.983084
253.205181,-518.144159,-10807.006753,-6435.202183
253.205503,740.205942,-15470.304188,-4979.620737
253.205825,1184.329507,-18727.210333,-3600.648841
253.206146,296.082377,-18727.210333,-3753.867940
253.206468,-444.123565,-16210.510130,-4060.306139
253.206790,148.041188,-12435.459826,-4673.182538
253.207111,-148.041188,-9474.636058,-3447.429741
253.207433,-1110.308913,-6217.729913,-1838.629195
253.207755,-1332.370696,-4071.132681,459.657299
253.208076,-888.247130,-4367.215058,2221.676944
253.208398,0.000000,-5995.668130,4519.963438
253.208720,370.102971,-6883.915261,3524.039291
253.209041,1036.288319,-4959.379811,2451.505594
253.209363,2812.782580,-4219.173869,306.438199
253.209685,3923.091493,-5995.668130,0.000000
253.210006,2442.679609,-7179.997637,1302.362347
253.210328,962.267725,-7846.182985,766.095498
253.210650,74.020594,-9992.780217,-4136.915689
253.210971,592.164754,-11843.295072,-6588.421283
253.211293,222.061783,-11843.295072,-6281.983084
253.211614,-1036.288319,-13397.727550,-4979.620737
253.211936,-1332.370696,-15914.427753,-2604.724693
253.212258,-518.144159,-15840.407159,-1991.848295
253.212579,-666.185348,-11917.315666,-3830.477490
253.212901,-1554.432478,-10436.903782,-3064.381992
253.213223,-2442.679609,-9400.615463,-383.047749
253.213544,-3330.926739,-6439.791695,-153.219100
253.213866,-2368.659014,-3108.864956,-1225.752797
253.214188,-370.102971,-3627.009116,153.219100
253.214509,1258.350101,-5921.647536,842.705048
253.214831,2146.597232,-7624.121203,229.828649
253.215153,3330.926739,-8882.471304,229.828649
253.215474,5699.585753,-11251.130318,76.609550
253.215796,6587.832884,-11251.130318,-766.095498
253.216118,5477.523971,-11251.130318,-1149.143247
253.216439,2664.741391,-10584.944971,76.609550
253.216761,296.082377,-10658.965565,-153.219100
253.217083,-1924.535449,-9104.533087,-2298.286494
253.217404,-4071.132681,-8364.327145,-3907.087040
253.217726,-6439.791695,-8364.327145,-3983.696590
253.218048,-7328.038826,-8808.450710,-3600.648841
253.218369,-6809.894666,-10436.903782,-2911.162892
253.218691,-5995.668130,-11843.295072,-2068.457845
253.219013,-6661.853478,-11473.192101,-536.266849
253.219334,-7624.121203,-10288.862594,-842.705048
253.219656,-7105.977043,-9622.677246,-2374.896044
253.219978,-4737.318029,-8586.388927,-3753.867940
253.220299,-2516.700203,-7402.059420,-3600.648841
253.220621,-370.102971,-6883.915261,-1378.971896
253.220943,2294.638420,-7402.059420,0.000000
253.221264,5255.462188,-9474.636058,-1225.752797
253.221586,7920.203579,-12509.480420,-2298.286494
253.221908,8512.368333,-13323.706956,-612.876398
253.222229,7772.162391,-10807.006753,1762.019645
253.222551,7105.977043,-8142.265362,1302.362347
253.222873,6069.688724,-7328.038826,383.047749
253.223194,4145.153275,-6587.832884,-612.876398
253.223516,1110.308913,-5699.585753,-995.924147
253.223838,-2442.679609,-5847.626942,0.000000
253.224159,-5107.421000,-7328.038826,76.609550
253.224481,-6143.709319,-8364.327145,-995.924147
253.224802,-6365.771101,-10658.965565,-3140.991542
253.225124,-6069.688724,-12435.459826,-2757.943793
253.225446,-4959.379811,-13323.706956,-2834.553343
253.225767,-4293.194464,-14285.974681,-3447.429741
253.226089,-3997.112087,-13545.768739,-2068.457845
253.226411,-3034.844362,-11029.068536,-689.485948
253.226732,-1850.514855,-8734.430116,-3217.601092
253.227054,592.164754,-8438.347739,-4826.401637
253.227376,2886.803174,-7031.956449,-3677.258390
253.227697,3330.926739,-4959.379811,-2298.286494
253.228019,4737.318029,-7031.956449,-766.095498
253.228341,6735.874072,-10066.800811,766.095498
253.228662,8512.368333,-11029.068536,153.219100
253.228984,9178.553681,-10436.903782,-536.266849
253.229306,7846.182985,-9992.780217,153.219100
253.229627,5329.482782,-9474.636058,1685.410096
253.229949,2368.659014,-7476.080014,2604.724693
253.230271,444.123565,-5107.421000,919.314598
253.230592,-814.226536,-5773.606348,-1608.800546
253.230914,-2664.741391,-8586.388927,-2145.067394
253.231236,-5625.565159,-10807.006753,-1455.581446
253.231558,-7105.977043,-11547.212695,-995.924147
253.231879,-6439.791695,-11621.233289,-1149.143247
253.232201,-5921.647536,-12509.480420,-2068.457845
253.232523,-6439.791695,-13397.727550,-3753.867940
253.232845,-7105.977043,-11843.295072,-3447.429741
253.233166,-6809.894666,-9696.697840,-3294.210641
253.233488,-4293.194464,-7920.203579,-3064.381992
253.233810,-1184.329507,-6513.812290,-3677.258390
253.234132,518.144159,-6069.688724,-4366.744339
253.234453,2442.679609,-7846.182985,-4213.525239
253.234775,4515.256246,-10066.800811,-2374.896044
253.235097,4737.318029,-11029.068536,-766.095498
253.235419,4441.235652,-9622.677246,383.047749
253.235740,3849.070898,-8290.306550,612.876398
253.236062,2960.823768,-8586.388927,-919.314598
253.236384,2294.638420,-8142.265362,-1455.581446
253.236705,222.061783,-6661.853478,0.000000
253.237027,-962.267725,-5625.565159,459.657299
253.237349,-1850.514855,-5699.585753,842.705048
253.237671,-3404.947333,-8068.244768,306.438199
253.237992,-4737.318029,-11251.130318,-919.314598
253.238314,-5329.482782,-13027.624579,-3064.381992
253.238636,-4441.235652,-13619.789333,-2911.162892
253.238958,-3478.967927,-13915.871710,-3064.381992
253.239279,-2220.617826,-14137.933492,-2298.286494
253.239601,-1924.535449,-12657.521608,-1915.238745
253.239923,-1554.432478,-11177.109724,-1991.848295
253.240245,-888.247130,-9178.553681,-2834.553343
253.240566,592.164754,-6661.853478,-4060.306139
253.240888,1850.514855,-5107.421000,-4903.011187
253.241210,3182.885551,-7031.956449,-3524.039291
253.241532,4589.276840,-9918.759623,-612.876398
253.241853,6809.894666,-10214.842000,919.314598
253.242175,7254.018232,-8660.409521,1072.533697
253.242497,6143.709319,-7550.100608,1225.752797
253.242819,3701.029710,-7402.059420,919.314598
253.243140,592.164754,-7105.977043,536.266849
253.243462,-1776.494261,-7105.977043,-919.314598
253.243784,-3330.926739,-6957.935855,-306.438199
253.244106,-4959.379811,-7179.997637,459.657299
253.244427,-6439.791695,-8808.450710,229.828649
253.244749,-6957.935855,-10658.965565,-1532.190996
253.245071,-5921.647536,-12509.480420,-2757.943793
253.245393,-4589.276840,-13841.851115,-3064.381992
253.245714,-4367.215058,-14434.015869,-2451.505594
253.246036,-4219.173869,-13101.645173,-2068.457845
253.246358,-3330.926739,-10658.965565,-2374.896044
253.246680,-1628.453072,-9548.656652,-2374.896044
253.247001,-444.123565,-7846.182985,-2681.334243
253.247323,666.185348,-5773.606348,-2911.162892
253.247645,2812.782580,-5181.441594,-2911.162892
253.247967,5773.606348,-8438.347739,-2757.943793
253.248288,7550.100608,-11917.315666,-842.705048
253.248610,7254.018232,-10510.924376,1378.971896
253.248932,5699.585753,-8216.285956,2681.334243
253.249254,4441.235652,-7031.956449,1762.019645
253.249575,2664.741391,-7550.100608,-612.876398
253.249897,296.082377,-7698.141797,-1991.848295
253.250219,-2368.659014,-7031.956449,-842.705048
253.250540,-4367.215058,-7105.977043,612.876398
253.250862,-4737.318029,-8364.327145,1072.533697
253.251184,-5329.482782,-9474.636058,-1455.581446
253.251506,-5699.585753,-11695.253884,-4136.915689
253.251827,-5329.482782,-13767.830521,-3983.696590
253.252149,-5033.400406,-15174.221811,-3140.991542
253.252471,-4737.318029,-14137.933492,-2451.505594
253.252793,-3552.988522,-11991.336260,-2374.896044
253.253114,-2368.659014,-10214.842000,-3064.381992
253.253436,-888.247130,-9474.636058,-3907.087040
253.253758,296.082377,-7328.038826,-2834.553343
253.254080,1554.432478,-5033.400406,-2451.505594
253.254401,3997.112087,-5773.606348,-2757.943793
253.254723,6587.832884,-9622.677246,-2298.286494
253.255045,7772.162391,-11621.233289,-383.047749
253.255367,7179.997637,-9252.574275,995.924147
253.255688,5995.668130,-7031.956449,2451.505594
253.256010,4663.297435,-7179.997637,1455.581446
253.256332,2368.659014,-8660.409521,-229.828649
253.256654,-740.205942,-8142.265362,-1302.362347
253.256975,-3923.091493,-7624.121203,-229.828649
253.257297,-5329.482782,-7772.162391,612.876398
253.257619,-6587.832884,-7105.977043,536.266849
253.257941,-7254.018232,-7550.100608,-2604.724693
253.258262,-7772.162391,-10732.986159,-4443.353888
253.258584,-7550.100608,-14063.912898,-2834.553343
253.258906,-6735.874072,-14434.015869,-1838.629195
253.259228,-6513.812290,-12361.439231,-2757.943793
253.259549,-3997.112087,-11621.233289,-2987.772442
253.259871,-1776.494261,-10362.883188,-2834.553343
253.260193,-1110.308913,-8512.368333,-3064.381992
253.260515,0.000000,-5477.523971,-1915.238745
253.260836,2886.803174,-4885.359217,-2451.505594
253.261158,6365.771101,-6957.935855,-3983.696590
253.261480,7994.224174,-10436.903782,-2757.943793
253.261802,6957.935855,-11325.150913,1685.410096
253.262123,5773.606348,-9326.594869,4290.134789
253.262445,5477.523971,-7846.182985,2145.067394
253.262767,4737.318029,-8216.285956,-766.095498
253.263089,2516.700203,-8142.265362,-2068.457845
253.263410,-370.102971,-7402.059420,-766.095498
253.263732,-2294.638420,-7179.997637,766.095498
253.264054,-2072.576638,-7179.997637,2145.067394
253.264375,-2368.659014,-8216.285956,0.000000
253.264697,-3997.112087,-11325.150913,-3753.867940
253.265019,-5551.544565,-12879.583391,-3983.696590
253.265341,-5551.544565,-14359.995275,-3907.087040
253.265662,-4367.215058,-15692.365970,-4826.401637
253.265984,-2368.659014,-14878.139434,-3447.429741
253.266306,-2368.659014,-11029.068536,-995.924147
253.266628,-2072.576638,-9474.636058,-2221.676944
253.266949,444.123565,-8734.430116,-3064.381992
253.267271,2368.659014,-6587.832884,-4443.353888
253.267593,3182.885551,-5181.441594,-4366.744339
253.267915,4367.215058,-6809.894666,0.000000
253.268236,5477.523971,-9548.656652,2068.457845
253.268558,7105.977043,-10658.965565,229.828649
253.268880,9104.533087,-10436.903782,-536.266849
253.269202,7624.121203,-8956.491898,919.314598
253.269523,3923.091493,-7772.162391,2528.115143
253.269845,814.226536,-8216.285956,2528.115143
253.270167,-740.205942,-7105.977043,1225.752797
253.270489,-1850.514855,-5847.626942,-1455.581446
253.270810,-4885.359217,-6957.935855,-1991.848295
253.271132,-7846.182985,-9844.739029,-995.924147
253.271454,-9400.615463,-9178.553681,-536.266849
253.271776,-8586.388927,-10510.924376,-3064.381992
253.272097,-6513.812290,-13767.830521,-3677.258390
253.272419,-5995.668130,-14434.015869,-2298.286494
253.272741,-6735.874072,-10807.006753,-2221.676944
253.273063,-5773.606348,-9104.533087,-3064.381992
253.273384,-2738.761985,-8808.450710,-2681.334243
253.273706,-888.247130,-7328.038826,-4136.915689
253.274028,0.000000,-6513.812290,-4290.134789
253.274350,1554.432478,-7254.018232,-2451.505594
253.274671,4589.276840,-9030.512492,-1838.629195
253.274993,6291.750507,-10362.883188,-1532.190996
253.275315,6365.771101,-10362.883188,1149.143247
253.275637,4737.318029,-8438.347739,2145.067394
253.275958,3775.050304,-7846.182985,842.705048
253.276280,2590.720797,-7624.121203,-459.657299
253.276602,1110.308913,-7105.977043,-919.314598
253.276924,-740.205942,-7031.956449,-536.266849
253.277245,-2294.638420,-6513.812290,689.485948
253.277567,-3775.050304,-8142.265362,1149.143247
253.277889,-5033.400406,-10066.800811,-1455.581446
253.278211,-5181.441594,-12287.418637,-4060.306139
253.278532,-4811.338623,-12953.603985,-4673.182538
253.278854,-3775.050304,-13323.706956,-5132.839837
253.279176,-2516.700203,-14434.015869,-4443.353888
253.279497,-1406.391290,-13989.892304,-2528.115143
253.279819,-1776.494261,-11103.089130,-1991.848295
253.280141,-666.185348,-10140.821405,-1991.848295
253.280463,222.061783,-8364.327145,-2987.772442
253.280784,1628.453072,-5625.565159,-4596.572988
253.281106,3182.885551,-5107.421000,-4290.134789
253.281428,5255.462188,-8660.409521,-1302.362347
253.281750,7105.977043,-11103.089130,842.705048
253.282071,7846.182985,-9474.636058,1685.410096
253.282393,7179.997637,-7994.224174,1685.410096
253.282715,5033.400406,-7994.224174,1302.362347
253.283037,2590.720797,-8586.388927,76.609550
253.283358,-444.123565,-8068.244768,-766.095498
253.283680,-2072.576638,-7476.080014,-612.876398
253.284002,-4293.194464,-7105.977043,76.609550
253.284324,-5403.503377,-9474.636058,383.047749
253.284645,-6365.771101,-10140.821405,-1225.752797
253.284967,-6291.750507,-11103.089130,-3140.991542
253.285289,-5699.585753,-12953.603985,-3217.601092
253.285611,-5403.503377,-14359.995275,-2374.896044
253.285932,-5181.441594,-13841.851115,-2451.505594
253.286254,-4589.276840,-11103.089130,-2451.505594
253.286576,-2442.679609,-9030.512492,-2528.115143
253.286898,-814.226536,-7550.100608,-2911.162892
253.287219,444.123565,-5699.585753,-2681.334243
253.287541,2294.638420,-4589.276840,-2834.553343
253.287863,4663.297435,-6587.832884,-3140.991542
253.288185,6883.915261,-10510.924376,-1149.143247
253.288506,6069.688724,-11843.295072,995.924147
253.288828,3775.050304,-8882.471304,3370.820191
253.289150,3182.885551,-7031.956449,2068.457845
253.289472,3182.885551,-8364.327145,-383.047749
253.289793,1036.288319,-8438.347739,-1762.019645
253.290115,-1258.350101,-6809.894666,-459.657299
253.290437,-3034.844362,-5699.585753,766.095498
253.290759,-3034.844362,-6587.832884,1762.019645
253.291080,-3701.029710,-8142.265362,-766.095498
253.291402,-5107.421000,-10658.965565,-3907.087040
253.291724,-5773.606348,-14656.077652,-3907.087040
253.292046,-5921.647536,-14359.995275,-2604.724693
253.292367,-5699.585753,-12657.521608,-2757.943793
253.292689,-3775.050304,-12583.501014,-3447.429741
253.293011,-1036.288319,-12287.418637,-3140.991542
253.293332,-666.185348,-10584.944971,-3217.601092
253.293654,222.061783,-8290.306550,-3064.381992
253.293976,1554.432478,-6217.729913,-2451.505594
253.294298,3923.091493,-5477.523971,-3370.820191
253.294619,5699.585753,-7402.059420,-3983.696590
253.294941,6143.709319,-11325.150913,-1225.752797
253.295263,4959.379811,-10436.903782,2757.943793
253.295585,3849.070898,-8290.306550,2528.115143
253.295906,2590.720797,-7846.182985,995.924147
253.296228,2146.597232,-8956.491898,-383.047749
253.296550,444.123565,-9030.512492,-1532.190996
253.296872,-1332.370696,-7550.100608,-153.219100
253.297193,-2368.659014,-7179.997637,1685.410096
253.297515,-3034.844362,-6365.771101,1532.190996
253.297837,-4293.194464,-7179.997637,-1378.971896
253.298159,-5773.606348,-10881.027347,-4903.011187
253.298480,-6883.915261,-14211.954086,-4366.744339
253.298802,-6587.832884,-14804.118840,-2528.115143
253.299124,-6143.709319,-13249.686362,-2451.505594
253.299446,-3701.029710,-11991.336260,-3217.601092
253.299767,-1184.329507,-10288.862594,-2987.772442
253.300089,-148.041188,-8882.471304,-3140.991542
253.300411,814.226536,-6809.894666,-2374.896044
253.300733,2368.659014,-4737.318029,-2451.505594
253.301054,4737.318029,-5625.565159,-3753.867940
253.301376,5699.585753,-8216.285956,-2911.162892
253.301698,4515.256246,-9918.759623,229.828649
253.302020,3404.947333,-9326.594869,2451.505594
253.302341,3627.009116,-8586.388927,1608.800546
253.302663,3404.947333,-9622.677246,-766.095498
253.302985,2442.679609,-8956.491898,-1532.190996
253.303307,592.164754,-7402.059420,-153.219100
253.303628,-518.144159,-6957.935855,766.095498
253.303950,-444.123565,-6439.791695,842.705048
253.304272,-1184.329507,-6735.874072,-1608.800546
253.304594,-3849.070898,-9696.697840,-4136.915689
253.304915,-5329.482782,-12953.603985,-4673.182538
253.305237,-5255.462188,-14285.974681,-4673.182538
253.305559,-3478.967927,-15174.221811,-4290.134789
253.305881,-1184.329507,-15914.427753,-3217.601092
253.306202,-444.123565,-13101.645173,-2221.676944
253.306524,-370.102971,-10658.965565,-2145.067394
253.306846,74.020594,-8956.491898,-1608.800546
253.307167,1406.391290,-5255.462188,-1915.238745
253.307489,3404.947333,-2220.617826,-3753.867940
253.307811,4811.338623,-5625.565159,-3983.696590
253.308133,5477.523971,-11325.150913,-536.266849
253.308454,4811.338623,-11473.192101,2374.896044
253.308776,4811.338623,-9474.636058,2757.943793
253.309098,4885.359217,-8882.471304,3447.429741
253.309420,3775.050304,-8956.491898,-383.047749
253.309741,814.226536,-8142.265362,-1838.629195
253.310063,-1702.473667,-6809.894666,-766.095498
253.310385,-3404.947333,-6587.832884,842.705048
253.310707,-4293.194464,-7476.080014,153.219100
253.311028,-6661.853478,-7698.141797,-383.047749
253.311350,-7402.059420,-9696.697840,-3140.991542
253.311672,-7476.080014,-13767.830521,-3907.087040
253.311994,-7105.977043,-15988.448347,-2834.553343
253.312315,-6883.915261,-13397.727550,-1991.848295
253.312637,-6513.812290,-10732.986159,-1608.800546
253.312959,-3478.967927,-9844.739029,-2528.115143
253.313281,-2368.659014,-9104.533087,-3140.991542
253.313602,-1628.453072,-7624.121203,-3217.601092
253.313924,222.061783,-6069.688724,-1991.848295
253.314246,2442.679609,-6217.729913,-1838.629195
253.314568,4811.338623,-8216.285956,-1838.629195
253.314889,4737.318029,-9844.739029,-383.047749
253.315211,4145.153275,-9178.553681,2221.676944
253.315533,4293.194464,-8364.327145,1378.971896
253.315855,4219.173869,-9104.533087,0.000000
253.316176,2516.700203,-8512.368333,-383.047749
253.316498,0.000000,-7402.059420,0.000000
253.316820,-1332.370696,-7328.038826,306.438199
253.317142,-1702.473667,-6513.812290,153.219100
253.317463,-3034.844362,-6069.688724,-995.924147
253.317785,-4885.359217,-8142.265362,-3064.381992
253.318107,-6365.771101,-11917.315666,-3294.210641
253.318429,-6735.874072,-14285.974681,-3064.381992
253.318750,-6069.688724,-12805.562797,-3600.648841
253.319072,-4441.235652,-12805.562797,-3830.477490
253.319394,-2294.638420,-13915.871710,-4290.134789
253.319716,-666.185348,-12213.398043,-3447.429741
253.320037,-370.102971,-9548.656652,-2145.067394
253.320359,1184.329507,-7476.080014,-1838.629195
253.320681,3034.844362,-6069.688724,-2374.896044
253.321002,4737.318029,-5403.503377,-3064.381992
253.321324,6291.750507,-7698.141797,-2987.772442
253.321646,7476.080014,-10955.047942,-229.828649
253.321968,7698.141797,-11769.274478,2068.457845
253.322289,6365.771101,-9844.739029,2604.724693
253.322611,5255.462188,-7846.182985,1915.238745
253.322933,4145.153275,-7698.141797,-383.047749
253.323255,2516.700203,-8882.471304,-1838.629195
253.323576,0.000000,-8142.265362,-1608.800546
253.323898,-2738.761985,-6957.935855,459.657299
253.324220,-4145.153275,-7698.141797,1149.143247
253.324542,-5107.421000,-9252.574275,-1302.362347
253.324863,-5995.668130,-11621.233289,-4903.011187
253.325185,-6439.791695,-12731.542202,-4826.401637
253.325507,-6143.709319,-13767.830521,-3447.429741
253.325829,-5181.441594,-13841.851115,-2757.943793
253.326150,-4367.215058,-11843.295072,-2221.676944
253.326472,-3627.009116,-9474.636058,-2298.286494
253.326794,-2516.700203,-8290.306550,-2757.943793
253.327116,-1332.370696,-6883.915261,-3677.258390
253.327437,0.000000,-4515.256246,-3907.087040
253.327759,2072.576638,-4885.359217,-3983.696590
253.328081,4515.256246,-8808.450710,-1532.190996
253.328403,4959.379811,-11325.150913,689.485948
253.328724,4663.297435,-11769.274478,2145.067394
253.329046,4367.215058,-9474.636058,2451.505594
253.329368,4145.153275,-9252.574275,0.000000
253.329690,3256.906145,-9178.553681,-1149.143247
253.330011,1628.453072,-7624.121203,-459.657299
253.330333,-740.205942,-5403.503377,995.924147
253.330655,-1628.453072,-6439.791695,459.657299
253.330977,-3182.885551,-7846.182985,0.000000
253.331299,-5477.523971,-9474.636058,-1915.238745
253.331621,-6365.771101,-12065.356855,-4519.963438
253.331942,-5551.544565,-15248.242405,-3140.991542
253.332264,-5033.400406,-13841.851115,-1762.019645
253.332586,-4293.194464,-11547.212695,-2374.896044
253.332908,-2368.659014,-11399.171507,-2987.772442
253.333230,-740.205942,-10510.924376,-3064.381992
253.333552,-222.061783,-8216.285956,-3447.429741
253.333874,0.000000,-6587.832884,-3140.991542
253.334196,1480.411884,-6365.771101,-1915.238745
253.334517,3775.050304,-7105.977043,-1838.629195
253.334839,5181.441594,-9030.512492,-2451.505594
253.335161,6587.832884,-11103.089130,-229.828649
253.335483,6513.812290,-11029.068536,1225.752797
253.335805,4663.297435,-8586.388927,1915.238745
253.336127,2738.761985,-7254.018232,1455.581446
253.336449,1850.514855,-7476.080014,229.828649
253.336771,592.164754,-7920.203579,-1532.190996
253.337092,-444.123565,-8142.265362,-1149.143247
253.337414,-2886.803174,-7254.018232,1302.362347
253.337736,-4071.132681,-7402.059420,1685.410096
253.338058,-4293.194464,-9400.615463,-1149.143247
253.338380,-4885.359217,-11991.336260,-3447.429741
253.338702,-6069.688724,-12657.521608,-2987.772442
253.339024,-6883.915261,-12287.418637,-2451.505594
253.339346,-6957.935855,-12213.398043,-2834.553343
253.339667,-4959.379811,-11177.109724,-3217.601092
253.339989,-2220.617826,-9622.677246,-3447.429741
253.340311,-74.020594,-8586.388927,-2834.553343
253.340633,1258.350101,-7254.018232,-1915.238745
253.340955,3182.885551,-6365.771101,-2298.286494
253.341277,5477.523971,-7402.059420,-3064.381992
253.341599,6439.791695,-10066.800811,-2451.505594
253.341920,4959.379811,-11325.150913,229.828649
253.342242,2664.741391,-9030.512492,1762.019645
253.342564,2072.576638,-7772.162391,1072.533697
253.342886,2516.700203,-9030.512492,-1302.362347
253.343208,2146.597232,-9474.636058,-1838.629195
253.343530,740.205942,-7476.080014,-229.828649
253.343852,-1480.411884,-5699.585753,1532.190996
253.344174,-1406.391290,-6661.853478,1455.581446
253.344495,-2368.659014,-7846.182985,-995.924147
253.344817,-4589.276840,-10807.006753,-4979.620737
253.345139,-6883.915261,-12731.542202,-4826.401637
253.345461,-7254.018232,-13693.809927,-2987.772442
253.345783,-6365.771101,-14137.933492,-3753.867940
253.346105,-3256.906145,-14137.933492,-4136.915689
253.346427,-518.144159,-12213.398043,-3907.087040
253.346749,666.185348,-10955.047942,-2834.553343
253.347070,1184.329507,-8882.471304,-919.314598
253.347392,2146.597232,-5551.544565,-1225.752797
253.347714,3701.029710,-4071.132681,-4136.915689
253.348036,5477.523971,-7698.141797,-4443.353888
253.348358,5551.544565,-11103.089130,-689.485948
253.348680,3701.029710,-9622.677246,1685.410096
253.349002,3478.967927,-7846.182985,3217.601092
253.349324,3923.091493,-8290.306550,1685.410096
253.349645,3478.967927,-9548.656652,-459.657299
253.349967,1184.329507,-9030.512492,-1302.362347
253.350289,-2220.617826,-7105.977043,689.485948
253.350611,-4219.173869,-6439.791695,1915.238745
253.350933,-4737.318029,-6365.771101,1225.752797
253.351255,-6365.771101,-7550.100608,-2757.943793
253.351577,-7920.203579,-11399.171507,-4060.306139
253.351899,-9030.512492,-13767.830521,-2911.162892
253.352220,-8586.388927,-14730.098246,-1455.581446
253.352542,-6809.894666,-13175.665768,-1915.238745
253.352864,-3997.112087,-11399.171507,-1762.019645
253.353186,-1924.535449,-9548.656652,-2451.505594
253.353508,-666.185348,-7846.182985,-2681.334243
253.353830,666.185348,-5699.585753,-1915.238745
253.354152,2664.741391,-4811.338623,-2298.286494
253.354474,5107.421000,-6291.750507,-3294.210641
253.354795,5773.606348,-9474.636058,-1608.800546
253.355117,4589.276840,-10584.944971,1455.581446
253.355439,3330.926739,-9474.636058,2451.505594
253.355761,3923.091493,-8586.388927,1532.190996
253.356083,4071.132681,-9252.574275,-689.485948
253.356405,2442.679609,-8660.409521,-1378.971896
253.356727,-370.102971,-6883.915261,383.047749
253.357048,-1924.535449,-5699.585753,1762.019645
253.357370,-1628.453072,-5847.626942,1149.143247
253.357692,-2368.659014,-7179.997637,-1762.019645
253.358014,-4885.359217,-10658.965565,-4060.306139
253.358336,-6957.935855,-12805.562797,-3217.601092
253.358658,-7105.977043,-13619.789333,-2374.896044
253.358980,-5181.441594,-14878.139434,-4519.963438
253.359302,-2146.597232,-16210.510130,-4979.620737
253.359623,-814.226536,-14211.954086,-3753.867940
253.359945,-1184.329507,-11473.192101,-1762.019645
253.360267,592.164754,-9178.553681,-383.047749
253.360589,2590.720797,-4367.215058,-2068.457845
253.360911,4811.338623,-1406.391290,-4826.401637
253.361233,6809.894666,-5329.482782,-4060.306139
253.361555,7105.977043,-10658.965565,-995.924147
253.361877,6587.832884,-12657.521608,2068.457845
253.362198,6587.832884,-11399.171507,3064.381992
253.362520,5773.606348,-10066.800811,2604.724693
253.362842,3627.009116,-8216.285956,536.266849
253.363164,222.061783,-7402.059420,-919.314598
253.363486,-1998.556043,-7031.956449,-1378.971896
253.363808,-2812.782580,-6291.750507,-919.314598
253.364130,-3478.967927,-7105.977043,-919.314598
253.364452,-4737.318029,-8808.450710,-1685.410096
253.364773,-6365.771101,-10214.842000,-1532.190996
253.365095,-6957.935855,-10955.047942,-2681.334243
253.365417,-6809.894666,-13915.871710,-4290.134789
253.365739,-6143.709319,-16284.530724,-4290.134789
253.366061,-6513.812290,-13619.789333,-2834.553343
253.366383,-6439.791695,-10584.944971,-2374.896044
253.366705,-3034.844362,-8734.430116,-1378.971896
253.367027,592.164754,-6069.688724,-2145.067394
253.367348,2960.823768,-3034.844362,-4290.134789
253.367670,4811.338623,-4589.276840,-4290.134789
253.367992,6143.709319,-9400.615463,-1378.971896
253.368314,5625.565159,-11843.295072,1532.190996
253.368636,3182.885551,-10436.903782,2068.457845
253.368958,2146.597232,-8438.347739,1991.848295
253.369280,2368.659014,-8216.285956,-612.876398
253.369602,1554.432478,-9252.574275,-1991.848295
253.369923,0.000000,-7402.059420,-536.266849
253.370245,-1628.453072,-5773.606348,1762.019645
253.370567,-1628.453072,-5699.585753,1991.848295
253.370889,-2072.576638,-7328.038826,306.438199
253.371211,-3923.091493,-9326.594869,-3447.429741
253.371533,-5625.565159,-12731.542202,-4903.011187
253.371855,-7105.977043,-14063.912898,-3524.039291
253.372176,-6587.832884,-13619.789333,-3140.991542
253.372498,-4811.338623,-12879.583391,-3983.696590
253.372820,-1776.494261,-13545.768739,-3294.210641
253.373142,-592.164754,-11843.295072,-3140.991542
253.373464,74.020594,-10140.821405,-2451.505594
253.373786,1776.494261,-7031.956449,-766.095498
253.374108,3775.050304,-4071.132681,-1685.410096
253.374430,5181.441594,-4441.235652,-3217.601092
253.374751,6143.709319,-9104.533087,-1838.629195
253.375073,6069.688724,-10807.006753,995.924147
253.375395,5625.565159,-9474.636058,1302.362347
253.375717,5551.544565,-8512.368333,1532.190996
253.376039,4515.256246,-8290.306550,1455.581446
253.376361,2072.576638,-8142.265362,306.438199
253.376683,0.000000,-8216.285956,-995.924147
253.377005,-1110.308913,-8142.265362,0.000000
253.377326,-2146.597232,-7031.956449,995.924147
253.377648,-3627.009116,-7254.018232,0.000000
253.377970,-5477.523971,-9326.594869,-2451.505594
253.378292,-6809.894666,-11769.274478,-3600.648841
253.378614,-7550.100608,-13471.748144,-3217.601092
253.378936,-7846.182985,-14804.118840,-3064.381992
253.379258,-7476.080014,-14434.015869,-3447.429741
253.379580,-5625.565159,-12435.459826,-2987.772442
253.379901,-3404.947333,-10955.047942,-2528.115143
253.380223,-1480.411884,-8734.430116,-1532.190996
253.380545,592.164754,-4737.318029,-1225.752797
253.380867,2886.803174,-2590.720797,-3370.820191
253.381189,5107.421000,-5625.565159,-3524.039291
253.381511,5921.647536,-10066.800811,-1302.362347
253.381833,4663.297435,-11473.192101,1225.752797
253.382155,2664.741391,-9844.739029,2451.505594
253.382476,3108.864956,-8734.430116,1915.238745
253.382798,3404.947333,-8956.491898,-1225.752797
253.383120,2146.597232,-9400.615463,-2451.505594
253.383442,148.041188,-7402.059420,-306.438199
253.383764,-1184.329507,-5403.503377,1225.752797
253.384086,-1628.453072,-6217.729913,1225.752797
253.384408,-2590.720797,-8068.244768,-459.657299
253.384730,-4811.338623,-10881.027347,-4290.134789
253.385051,-6587.832884,-13323.706956,-4826.401637
253.385373,-6957.935855,-13915.871710,-3370.820191
253.385695,-6217.729913,-13323.706956,-2757.943793
253.386017,-3701.029710,-13619.789333,-3830.477490
253.386339,-1480.411884,-12361.439231,-3600.648841
253.386661,-814.226536,-11029.068536,-2757.943793
253.386983,370.102971,-9030.512492,-1455.581446
253.387305,2072.576638,-4885.359217,-1378.971896
253.387626,3923.091493,-2220.617826,-2757.943793
253.387948,6143.709319,-5847.626942,-3294.210641
253.388270,6957.935855,-11473.192101,-1302.362347
253.388592,6365.771101,-12213.398043,995.924147
253.388914,6217.729913,-10288.862594,2221.676944
253.389236,5181.441594,-8808.450710,2298.286494
253.389558,3478.967927,-8364.327145,536.266849
253.389879,370.102971,-8216.285956,-995.924147
253.390201,-1702.473667,-7846.182985,-1149.143247
253.390523,-2812.782580,-6883.915261,-383.047749
253.390845,-3330.926739,-7254.018232,153.219100
253.391167,-4145.153275,-9400.615463,-612.876398
253.391489,-5995.668130,-10807.006753,-1991.848295
253.391811,-6809.894666,-10807.006753,-3064.381992
253.392133,-6439.791695,-12953.603985,-3370.820191
253.392454,-5699.585753,-15100.201217,-3140.991542
253.392776,-5921.647536,-13101.645173,-3447.429741
253.393098,-5625.565159,-10140.821405,-2374.896044
253.393420,-3034.844362,-9104.533087,-1149.143247
253.393742,-370.102971,-7179.997637,-1532.190996
253.394064,1702.473667,-3330.926739,-3524.039291
253.394386,4367.215058,-3775.050304,-4903.011187
253.394708,6069.688724,-8586.388927,-2987.772442
253.395029,5625.565159,-11399.171507,766.095498
253.395351,3256.906145,-10436.903782,3294.210641
253.395673,2220.617826,-8216.285956,2528.115143
253.395995,2664.741391,-8438.347739,-459.657299
253.396317,2072.576638,-9548.656652,-2757.943793
253.396639,0.000000,-8290.306550,-1608.800546
253.396961,-1554.432478,-6513.812290,1762.019645
253.397283,-1628.453072,-5847.626942,2604.724693
253.397604,-1258.350101,-7254.018232,536.266849
253.397926,-2590.720797,-10066.800811,-3447.429741
253.398248,-4885.359217,-12879.583391,-4749.792088
253.398570,-6365.771101,-13545.768739,-3140.991542
253.398892,-6291.750507,-14137.933492,-2221.676944
253.399214,-4441.235652,-14878.139434,-3447.429741
253.399536,-1850.514855,-12953.603985,-3064.381992
253.399858,-370.102971,-10955.047942,-3600.648841
253.400179,518.144159,-9622.677246,-1991.848295
253.400501,2368.659014,-5477.523971,-1225.752797
253.400823,3552.988522,-1628.453072,-2834.553343
253.401145,5255.462188,-3256.906145,-3370.820191
253.401467,6735.874072,-9474.636058,-2451.505594
253.401789,6069.688724,-12361.439231,-153.219100
253.402111,5033.400406,-10881.027347,1302.362347
253.402433,4663.297435,-9696.697840,2757.943793
253.402754,3108.864956,-9178.553681,1302.362347
253.403076,1406.391290,-8882.471304,-766.095498
253.403398,-1110.308913,-7550.100608,-1072.533697
253.403720,-2146.597232,-6217.729913,-612.876398
253.404042,-2368.659014,-5921.647536,-536.266849
253.404364,-3478.967927,-7994.224174,-766.095498
253.404686,-5477.523971,-9770.718434,-1838.629195
253.405007,-6069.688724,-11103.089130,-2298.286494
253.405329,-5329.482782,-13915.871710,-3294.210641
253.405651,-4145.153275,-16580.613101,-3753.867940
253.405973,-3849.070898,-14730.098246,-3294.210641
253.406295,-3775.050304,-11399.171507,-1762.019645
253.406617,-2220.617826,-9770.718434,-383.047749
253.406939,0.000000,-7105.977043,-1225.752797
253.407261,1110.308913,-3627.009116,-4290.134789
253.407582,2368.659014,-2886.803174,-5209.449386
253.407904,4145.153275,-7402.059420,-2298.286494
253.408226,4737.318029,-11325.150913,-76.609550
253.408548,5033.400406,-12509.480420,383.047749
253.408870,5773.606348,-11769.274478,1302.362347
253.409192,5033.400406,-9918.759623,536.266849
253.409514,2516.700203,-9030.512492,-383.047749
253.409836,0.000000,-7254.018232,0.000000
253.410157,-1258.350101,-6069.688724,-1149.143247
253.410479,-1480.411884,-6439.791695,-1991.848295
253.410801,-3330.926739,-8216.285956,-383.047749
253.411123,-5477.523971,-9178.553681,842.705048
253.411445,-6513.812290,-10066.800811,-1455.581446
253.411767,-5181.441594,-12435.459826,-3294.210641
253.412089,-4737.318029,-13249.686362,-3447.429741
253.412411,-6217.729913,-12657.521608,-3600.648841
253.412732,-6735.874072,-11473.192101,-2757.943793
253.413054,-4959.379811,-10436.903782,-2298.286494
253.413376,-2812.782580,-9474.636058,-2757.943793
253.413698,-296.082377,-8660.409521,-3983.696590
253.414020,888.247130,-6661.853478,-3370.820191
253.414342,2368.659014,-5921.647536,-2451.505594
253.414664,4441.235652,-7328.038826,-1532.190996
253.414986,6439.791695,-9474.636058,-689.485948
253.415307,7328.038826,-10140.821405,-459.657299
253.415629,6587.832884,-9770.718434,-459.657299
253.415951,5329.482782,-9622.677246,766.095498
253.416273,3478.967927,-9400.615463,1149.143247
253.416595,1776.494261,-8808.450710,766.095498
253.416917,666.185348,-7328.038826,919.314598
253.417239,-666.185348,-7105.977043,153.219100
253.417561,-2590.720797,-7698.141797,536.266849
253.417882,-4441.235652,-8660.409521,0.000000
253.418204,-5699.585753,-10436.903782,-1149.143247
253.418526,-6513.812290,-11547.212695,-1455.581446
253.418848,-7105.977043,-11843.295072,-1455.581446
253.419170,-7031.956449,-12213.398043,-2604.724693
253.419492,-6069.688724,-11695.253884,-3677.258390
253.419814,-4145.153275,-10436.903782,-2834.553343
253.420135,-1998.556043,-8660.409521,-1762.019645
253.420457,0.000000,-6143.709319,-2068.457845
253.420779,1776.494261,-5033.400406,-3524.039291
253.421101,3404.947333,-6883.915261,-4060.306139
253.421423,4811.338623,-9326.594869,-3217.601092
253.421745,5181.441594,-11029.068536,-1608.800546
253.422067,4737.318029,-11399.171507,229.828649
253.422389,4441.235652,-10955.047942,1225.752797
253.422710,2886.803174,-9844.739029,0.000000
253.423032,1776.494261,-9030.512492,-842.705048
253.423354,1258.350101,-7846.182985,-459.657299
253.423676,888.247130,-5921.647536,383.047749
253.423998,518.144159,-5921.647536,1072.533697
253.424320,-666.185348,-7105.977043,229.828649
253.424642,-2738.761985,-9844.739029,-766.095498
253.424964,-4885.359217,-11251.130318,-1762.019645
253.425285,-5403.503377,-13101.645173,-2451.505594
253.425607,-4737.318029,-15618.345376,-3753.867940
253.425929,-4367.215058,-15692.365970,-2834.553343
253.426251,-3775.050304,-13545.768739,-1685.410096
253.426573,-1184.329507,-10510.924376,-1149.143247
253.426895,1480.411884,-7846.182985,-2604.724693
253.427217,2960.823768,-4959.379811,-4060.306139
253.427539,3404.947333,-3108.864956,-4290.134789
253.427860,3478.967927,-6291.750507,-3140.991542
253.428182,3552.988522,-10436.903782,-1838.629195
253.428504,4071.132681,-12805.562797,-383.047749
253.428826,4293.194464,-11843.295072,229.828649
253.429148,3404.947333,-9992.780217,0.000000
253.429470,1184.329507,-8660.409521,995.924147
253.429792,-370.102971,-7772.162391,1149.143247
253.430114,-1184.329507,-5921.647536,0.000000
253.430435,-1628.453072,-5625.565159,-766.095498
253.430757,-2590.720797,-6735.874072,0.000000
253.431079,-3627.009116,-8216.285956,153.219100
253.431401,-4737.318029,-9104.533087,-536.266849
253.431723,-4885.359217,-10732.986159,-1532.190996
253.432045,-5329.482782,-11917.315666,-1532.190996
253.432366,-6809.894666,-13027.624579,-2528.115143
253.432688,-7550.100608,-12287.418637,-3217.601092
253.433010,-5551.544565,-11473.192101,-3064.381992
253.433332,-2146.597232,-10140.821405,-3753.867940
253.433654,814.226536,-9326.594869,-3294.210641
253.433976,2812.782580,-6513.812290,-2221.676944
253.434298,4441.235652,-4959.379811,-2451.505594
253.434619,6513.812290,-6365.771101,-2987.772442
253.434941,7105.977043,-9474.636058,-1991.848295
253.435263,5847.626942,-10436.903782,-1455.581446
253.435585,3404.947333,-10066.800811,-612.876398
253.435907,1406.391290,-9770.718434,995.924147
253.436229,222.061783,-8956.491898,995.924147
253.436551,-740.205942,-8068.244768,0.000000
253.436872,-1406.391290,-6809.894666,-459.657299
253.437194,-1702.473667,-6513.812290,0.000000
253.437516,-2220.617826,-7328.038826,-229.828649
253.437838,-3108.864956,-8808.450710,-536.266849
253.438160,-4885.359217,-10214.842000,-1608.800546
253.438482,-6069.688724,-11547.212695,-3140.991542
253.438803,-6365.771101,-14211.954086,-3907.087040
253.439125,-5921.647536,-15988.448347,-4366.744339
253.439447,-4589.276840,-14434.015869,-3983.696590
253.439769,-1924.535449,-12805.562797,-3677.258390
253.440091,1406.391290,-10510.924376,-1991.848295
253.440413,3923.091493,-7550.100608,-1762.019645
253.440735,5255.462188,-4071.132681,-3064.381992
253.441056,6291.750507,-4441.235652,-3370.820191
253.441378,7031.956449,-7772.162391,-1991.848295
253.441700,6143.709319,-10066.800811,-995.924147
253.442022,5255.462188,-10658.965565,0.000000
253.442344,5033.400406,-10732.986159,842.705048
253.442666,4293.194464,-10436.903782,1149.143247
253.442988,2072.576638,-8364.327145,1378.971896
253.443309,-296.082377,-6957.935855,459.657299
253.443631,-1924.535449,-6365.771101,0.000000
253.443953,-3404.947333,-6661.853478,-612.876398
253.444275,-5921.647536,-7550.100608,-1072.533697
253.444597,-7772.162391,-8808.450710,-1149.143247
253.444919,-7402.059420,-11695.253884,-2374.896044
253.445240,-7031.956449,-14063.912898,-2068.457845
253.445562,-5551.544565,-15026.180623,-1838.629195
253.445884,-5181.441594,-13915.871710,-1915.238745
253.446206,-4441.235652,-11843.295072,-1762.019645
253.446528,-2442.679609,-9474.636058,-1149.143247
253.446850,-592.164754,-5625.565159,-2451.505594
253.447172,1776.494261,-3108.864956,-4136.915689
253.447493,3775.050304,-4367.215058,-4136.915689
253.447815,4811.338623,-7624.121203,-2221.676944
253.448137,5329.482782,-9474.636058,-306.438199
253.448459,4959.379811,-12065.356855,459.657299
253.448781,4441.235652,-11843.295072,1608.800546
253.449103,3034.844362,-10288.862594,229.828649
253.449425,1036.288319,-8808.450710,-842.705048
253.449746,-296.082377,-7550.100608,-612.876398
253.450068,-1110.308913,-6587.832884,-612.876398
253.450390,-814.226536,-6439.791695,-153.219100
253.450712,-2072.576638,-7105.977043,459.657299
253.451034,-3182.885551,-8956.491898,306.438199
253.451356,-4589.276840,-11177.109724,-2374.896044
253.451677,-5107.421000,-13101.645173,-3140.991542
253.451999,-5699.585753,-13693.809927,-2757.943793
253.452321,-6217.729913,-14063.912898,-2987.772442
253.452643,-5107.421000,-13249.686362,-3524.039291
253.452965,-3330.926739,-11325.150913,-3600.648841
253.453287,-1184.329507,-10140.821405,-3370.820191
253.453609,1480.411884,-7994.224174,-2145.067394
253.453930,2886.803174,-4737.318029,-2451.505594
253.454252,3997.112087,-3923.091493,-2681.334243
253.454574,5033.400406,-7550.100608,-2528.115143
253.454896,5699.585753,-10881.027347,-1915.238745
253.455218,5107.421000,-10584.944971,-459.657299
253.455540,4663.297435,-10584.944971,229.828649
253.455862,3997.112087,-9622.677246,919.314598
253.456183,2590.720797,-8882.471304,536.266849
253.456505,444.123565,-8586.388927,536.266849
253.456827,-962.267725,-7476.080014,383.047749
253.457149,-2220.617826,-6883.915261,612.876398
253.457471,-3552.988522,-6809.894666,0.000000
253.457793,-4441.235652,-7550.100608,-766.095498
253.458114,-5033.400406,-9622.677246,-2681.334243
253.458436,-5551.544565,-11695.253884,-2911.162892
253.458758,-5699.585753,-12435.459826,-1838.629195
253.459080,-6069.688724,-13101.645173,-1915.238745
253.459402,-5625.565159,-13027.624579,-3677.258390
253.459724,-3923.091493,-11843.295072,-3753.867940
253.460046,-1850.514855,-9770.718434,-2834.553343
253.460367,370.102971,-7402.059420,-2145.067394
253.460689,2368.659014,-4219.173869,-2374.896044
253.461011,4293.194464,-4367.215058,-3140.991542
253.461333,5921.647536,-7476.080014,-3294.210641
253.461655,6439.791695,-10214.842000,-1608.800546
253.461977,5477.523971,-11325.150913,-383.047749
253.462299,4589.276840,-11843.295072,0.000000
253.462620,2590.720797,-10658.965565,1378.971896
253.462942,1110.308913,-8808.450710,383.047749
253.463264,0.000000,-7698.141797,-612.876398
253.463586,-148.041188,-7105.977043,-536.266849
253.463908,-1332.370696,-6365.771101,76.609550
253.464230,-2220.617826,-6661.853478,536.266849
253.464551,-3330.926739,-8808.450710,-383.047749
253.464873,-3997.112087,-11473.192101,-2298.286494
253.465195,-5033.400406,-12953.603985,-2987.772442
253.465517,-5921.647536,-13915.871710,-3064.381992
253.465839,-6291.750507,-13989.892304,-3140.991542
253.466161,-5181.441594,-13471.748144,-3830.477490
253.466483,-2442.679609,-11843.295072,-3524.039291
253.466804,74.020594,-9474.636058,-2987.772442
253.467126,2590.720797,-6513.812290,-2604.724693
253.467448,4293.194464,-4811.338623,-2911.162892
253.467770,5477.523971,-5403.503377,-2681.334243
253.468092,5921.647536,-8882.471304,-1915.238745
253.468414,5255.462188,-11177.109724,-612.876398
253.468736,4441.235652,-11843.295072,76.609550
253.469057,3775.050304,-11103.089130,536.266849
253.469379,3182.885551,-10140.821405,842.705048
253.469701,1480.411884,-7920.203579,1302.362347
253.470023,0.000000,-6291.750507,1225.752797
253.470345,-1258.350101,-5477.523971,919.314598
253.470667,-2294.638420,-5625.565159,612.876398
253.470988,-3997.112087,-7031.956449,-306.438199
253.471310,-5921.647536,-9474.636058,-1685.410096
253.471632,-6365.771101,-11917.315666,-1455.581446
253.471954,-6513.812290,-13027.624579,-1532.190996
253.472276,-5921.647536,-13619.789333,-2221.676944
253.472598,-5255.462188,-13693.809927,-2451.505594
253.472920,-4515.256246,-11991.336260,-3140.991542
253.473241,-2812.782580,-9622.677246,-2451.505594
253.473563,-296.082377,-6587.832884,-2757.943793
253.473885,2294.638420,-4515.256246,-3217.601092
253.474207,3701.029710,-5033.400406,-3677.258390
253.474529,4441.235652,-7254.018232,-2681.334243
253.474851,4145.153275,-9400.615463,-766.095498
253.475173,3330.926739,-10732.986159,0.000000
253.475494,2960.823768,-11251.130318,0.000000
253.475816,2368.659014,-10288.862594,-383.047749
253.476138,666.185348,-8660.409521,-612.876398
253.476460,296.082377,-7994.224174,0.000000
253.476782,222.061783,-6735.874072,229.828649
253.477104,74.020594,-6291.750507,-229.828649
253.477425,-1036.288319,-7105.977043,-612.876398
253.477747,-2738.761985,-9252.574275,-995.924147
253.478069,-4071.132681,-10362.883188,-2604.724693
253.478391,-5033.400406,-11621.233289,-3907.087040
253.478713,-4219.173869,-13989.892304,-4060.306139
253.479035,-3552.988522,-15322.262999,-4136.915689
253.479357,-3627.009116,-14211.954086,-3217.601092
253.479678,-2146.597232,-12065.356855,-2068.457845
253.480000,296.082377,-9918.759623,-2221.676944
253.480322,2294.638420,-7402.059420,-3294.210641
253.480644,3034.844362,-4589.276840,-3753.867940
253.480966,3478.967927,-4071.132681,-2604.724693
253.481288,3923.091493,-6883.915261,-1991.848295
253.481609,4071.132681,-10140.821405,-1991.848295
253.481931,4515.256246,-11325.150913,-612.876398
253.482253,3478.967927,-10658.965565,-229.828649
253.482575,1850.514855,-10066.800811,459.657299
253.482897,148.041188,-9474.636058,842.705048
253.483219,-814.226536,-8438.347739,536.266849
253.483541,-1184.329507,-6957.935855,-995.924147
253.483862,-2368.659014,-6587.832884,-919.314598
253.484184,-3701.029710,-7772.162391,76.609550
253.484506,-5181.441594,-8734.430116,0.000000
253.484828,-5329.482782,-9844.739029,-2221.676944
253.485150,-5921.647536,-11103.089130,-2068.457845
253.485472,-5403.503377,-13619.789333,-2145.067394
253.485794,-5773.606348,-13915.871710,-2834.553343
253.486115,-5477.523971,-12361.439231,-3064.381992
253.486437,-3182.885551,-10584.944971,-1915.238745
253.486759,-592.164754,-8734.430116,-1608.800546
253.487081,1332.370696,-6291.750507,-2374.896044
253.487403,2294.638420,-3849.070898,-2757.943793
253.487725,3552.988522,-5699.585753,-2987.772442
253.488046,5181.441594,-9400.615463,-2298.286494
253.488368,5551.544565,-11103.089130,-1302.362347
253.488690,3923.091493,-11547.212695,76.609550
253.489012,2812.782580,-10214.842000,1838.629195
253.489334,2072.576638,-9474.636058,1225.752797
253.489656,1036.288319,-8734.430116,-306.438199
253.489978,74.020594,-7105.977043,-306.438199
253.490299,-1036.288319,-5773.606348,0.000000
253.490621,-2442.679609,-5699.585753,919.314598
253.490943,-3108.864956,-6957.935855,689.485948
253.491265,-3997.112087,-8808.450710,-1225.752797
253.491587,-4293.194464,-10955.047942,-2451.505594
253.491909,-5181.441594,-13323.706956,-2911.162892
253.492231,-6217.729913,-14508.036463,-2451.505594
253.492552,-6291.750507,-14952.160028,-3064.381992
253.492874,-4885.359217,-13397.727550,-3217.601092
253.493196,-2146.597232,-10510.924376,-3140.991542
253.493518,814.226536,-8364.327145,-3447.429741
253.493840,2960.823768,-6513.812290,-3907.087040
253.494162,4663.297435,-5403.503377,-3294.210641
253.494483,5033.400406,-6735.874072,-2145.067394
253.494805,4737.318029,-9178.553681,-459.657299
253.495127,4145.153275,-10658.965565,383.047749
253.495449,4367.215058,-11103.089130,-689.485948
253.495771,4219.173869,-10881.027347,-842.705048
253.496093,3997.112087,-10066.800811,229.828649
253.496415,3182.885551,-9030.512492,1838.629195
253.496736,2220.617826,-7179.997637,2298.286494
253.497058,1406.391290,-5403.503377,1838.629195
253.497380,-296.082377,-4367.215058,153.219100
253.497702,-2664.741391,-5995.668130,-2145.067394
253.498024,-4959.379811,-9104.533087,-2834.553343
253.498346,-6365.771101,-11769.274478,-2451.505594
253.498668,-6217.729913,-13619.789333,-1149.143247
253.498989,-5625.565159,-13767.830521,-1072.533697
253.499311,-4959.379811,-13101.645173,-2987.772442
253.499633,-4145.153275,-11547.212695,-3753.867940
253.499955,-2960.823768,-9326.594869,-3140.991542
253.500277,-1480.411884,-6587.832884,-3217.601092
253.500599,74.020594,-5255.462188,-4749.792088
253.500920,1628.453072,-6143.709319,-3830.477490
253.501242,2590.720797,-7328.038826,-2145.067394
253.501564,3256.906145,-8364.327145,-1455.581446
253.501886,4219.173869,-10214.842000,-1072.533697
253.502208,5033.400406,-11251.130318,-612.876398
253.502530,5625.565159,-11473.192101,-919.314598
253.502852,4145.153275,-10436.903782,229.828649
253.503173,2516.700203,-9104.533087,1225.752797
253.503495,1702.473667,-7105.977043,842.705048
253.503817,1036.288319,-5551.544565,-995.924147
253.504139,-740.205942,-5921.647536,-2298.286494
253.504461,-3478.967927,-8290.306550,-1991.848295
253.504783,-5107.421000,-11325.150913,-1608.800546
253.505105,-5329.482782,-13693.809927,-1378.971896
253.505426,-4589.276840,-14211.954086,-1532.190996
253.505748,-4367.215058,-14211.954086,-2528.115143
253.506070,-4219.173869,-13545.768739,-3753.867940
253.506392,-3997.112087,-10807.006753,-3064.381992
253.506714,-2220.617826,-8216.285956,-2757.943793
253.507036,0.000000,-6661.853478,-3983.696590
253.507357,1850.514855,-6291.750507,-4290.134789
253.507679,2146.597232,-6735.874072,-2681.334243
253.508001,2664.741391,-8438.347739,-1838.629195
253.508323,3478.967927,-10510.924376,-1608.800546
253.508645,4441.235652,-11621.233289,-919.314598
253.508967,4737.318029,-11029.068536,-1455.581446
253.509289,2960.823768,-10288.862594,-383.047749
253.509610,1628.453072,-9030.512492,995.924147
253.509932,148.041188,-7920.203579,1608.800546
253.510254,-1110.308913,-6365.771101,306.438199
253.510576,-2590.720797,-5773.606348,-459.657299
253.510898,-4367.215058,-6439.791695,0.000000
253.511220,-5847.626942,-8586.388927,-536.266849
253.511542,-6069.688724,-10658.965565,-1072.533697
253.511863,-5107.421000,-11843.295072,-612.876398
253.512185,-4293.194464,-11991.336260,-689.485948
253.512507,-3923.091493,-12139.377449,-1378.971896
253.512829,-3849.070898,-11843.295072,-2068.457845
253.513151,-2738.761985,-10214.842000,-1762.019645
253.513473,-814.226536,-7550.100608,-2145.067394
253.513794,1480.411884,-5551.544565,-3064.381992
253.514116,3182.885551,-5181.441594,-2834.553343
253.514438,4145.153275,-6365.771101,-2374.896044
253.514760,4293.194464,-8956.491898,-1762.019645
253.515082,4737.318029,-11177.109724,-612.876398
253.515404,4367.215058,-11843.295072,-153.219100
253.515726,3478.967927,-11325.150913,-229.828649
253.516047,2368.659014,-9844.739029,-612.876398
253.516369,1332.370696,-8290.306550,0.000000
253.516691,222.061783,-6883.915261,-229.828649
253.517013,0.000000,-5921.647536,-919.314598
253.517335,-1480.411884,-5995.668130,-1302.362347
253.517657,-3330.926739,-7328.038826,-1378.971896
253.517979,-4811.338623,-9992.780217,-2145.067394
253.518300,-5329.482782,-13027.624579,-2528.115143
253.518622,-4737.318029,-14582.057057,-3064.381992
253.518944,-4737.318029,-14878.139434,-2834.553343
253.519266,-4515.256246,-13323.706956,-2451.505594
253.519588,-3256.906145,-11029.068536,-1915.238745
253.519910,-1110.308913,-8808.450710,-2987.772442
253.520231,2072.576638,-7402.059420,-4749.792088
253.520553,3627.009116,-6883.915261,-4673.182538
253.520875,3701.029710,-6883.915261,-2221.676944
253.521197,3256.906145,-7328.038826,76.609550
253.521519,4071.132681,-9474.636058,-689.485948
253.521841,4811.338623,-11399.171507,-1991.848295
253.522163,5403.503377,-11843.295072,-2451.505594
253.522484,4367.215058,-11325.150913,-1072.533697
253.522806,2590.720797,-9918.759623,1225.752797
253.523128,962.267725,-7846.182985,2681.334243
253.523450,-148.041188,-6809.894666,1915.238745
253.523772,-1554.432478,-5551.544565,-842.705048
253.524094,-3330.926739,-6217.729913,-1915.238745
253.524416,-5477.523971,-8290.306550,-1838.629195
253.524737,-6661.853478,-9918.759623,-1915.238745
253.525059,-6587.832884,-11325.150913,-612.876398
253.525381,-5329.482782,-11843.295072,-995.924147
253.525703,-4737.318029,-12657.521608,-2221.676944
253.526025,-5255.462188,-12805.562797,-3064.381992
253.526347,-4885.359217,-10807.006753,-2604.724693
253.526668,-2516.700203,-8660.409521,-1915.238745
253.526990,-370.102971,-6809.894666,-2298.286494
253.527312,962.267725,-5477.523971,-2987.772442
253.527634,2220.617826,-5329.482782,-2528.115143
253.527956,3330.926739,-7105.977043,-2604.724693
253.528278,5107.421000,-9696.697840,-2068.457845
253.528600,5181.441594,-11029.068536,-842.705048
253.528921,4885.359217,-11695.253884,76.609550
253.529243,3627.009116,-11251.130318,919.314598
253.529565,2294.638420,-9252.574275,1149.143247
253.529887,1480.411884,-7624.121203,306.438199
253.530203,740.205942,-6291.750507,-766.095498
253.530525,-666.185348,-5995.668130,-842.705048
253.530847,-2664.741391,-7031.956449,-459.657299
253.531169,-3997.112087,-9252.574275,-1149.143247
253.531491,-4515.256246,-11473.192101,-766.095498
253.531812,-4219.173869,-13323.706956,-1991.848295
253.532134,-3627.009116,-14804.118840,-2987.772442
253.532456,-4219.173869,-15692.365970,-3140.991542
253.532778,-4071.132681,-13175.665768,-1608.800546
253.533100,-2516.700203,-9326.594869,-1532.190996
253.533421,370.102971,-7105.977043,-3600.648841
253.533743,3478.967927,-6439.791695,-5286.058936
253.534065,4145.153275,-6587.832884,-4366.744339
253.534387,3552.988522,-7772.162391,-1455.581446
253.534709,3775.050304,-9474.636058,306.438199
253.535031,4293.194464,-11325.150913,0.000000
253.535352,5477.523971,-12213.398043,-2374.896044
253.535674,4811.338623,-10881.027347,-2068.457845
253.535996,2960.823768,-9326.594869,-153.219100
253.536318,962.267725,-8512.368333,1991.848295
253.536640,-518.144159,-7105.977043,2528.115143
253.536961,-1258.350101,-4663.297435,919.314598
253.537283,-3034.844362,-5033.400406,-1455.581446
253.537605,-4811.338623,-8216.285956,-1532.190996
253.537927,-6661.853478,-9844.739029,-1072.533697
253.538249,-6883.915261,-10510.924376,-1225.752797
253.538571,-5181.441594,-12139.377449,-153.219100
253.538892,-4293.194464,-12657.521608,-919.314598
253.539214,-4959.379811,-12213.398043,-2528.115143
253.539536,-4811.338623,-10362.883188,-3217.601092
253.539858,-3182.885551,-9030.512492,-2757.943793
253.540180,-296.082377,-7328.038826,-3370.820191
253.540501,1406.391290,-5625.565159,-2911.162892
253.540823,2368.659014,-5847.626942,-2451.505594
253.541145,3256.906145,-7105.977043,-1915.238745
253.541467,4219.173869,-9030.512492,-2145.067394
253.541789,4737.318029,-10881.027347,-2145.067394
253.542110,4441.235652,-10955.047942,-842.705048
253.542432,3256.906145,-10955.047942,-536.266849
253.542754,2146.597232,-10066.800811,153.219100
253.543076,1258.350101,-8956.491898,459.657299
253.543398,962.267725,-7698.141797,-153.219100
253.543720,0.000000,-6735.874072,-766.095498
253.544041,-1850.514855,-6365.771101,-842.705048
253.544363,-2960.823768,-8512.368333,-1455.581446
253.544685,-3923.091493,-10807.006753,-2068.457845
253.545007,-4145.153275,-12435.459826,-2221.676944
253.545329,-4737.318029,-13619.789333,-2451.505594
253.545650,-5255.462188,-14211.954086,-2604.724693
253.545972,-4737.318029,-13397.727550,-3140.991542
253.546294,-3701.029710,-11473.192101,-3524.039291
253.546616,-814.226536,-9474.636058,-3677.258390
253.546938,1924.535449,-7698.141797,-3600.648841
253.547260,3552.988522,-6513.812290,-3294.210641
253.547581,3997.112087,-5921.647536,-2068.457845
253.547903,4219.173869,-7550.100608,-1149.143247
253.548225,4145.153275,-10214.842000,-1685.410096
253.548547,3627.009116,-11325.150913,-1915.238745
253.548869,3256.906145,-11251.130318,-1225.752797
253.549190,2442.679609,-10140.821405,-76.609550
253.549512,1628.453072,-9326.594869,842.705048
253.549834,1110.308913,-8438.347739,1915.238745
253.550156,0.000000,-6513.812290,1225.752797
253.550478,-1184.329507,-5551.544565,0.000000
253.550800,-3034.844362,-6957.935855,-842.705048
253.551121,-5255.462188,-8660.409521,-536.266849
253.551443,-5921.647536,-10214.842000,-1532.190996
253.551765,-5773.606348,-11917.315666,-1072.533697
253.552087,-5403.503377,-13027.624579,-383.047749
253.552409,-4737.318029,-13027.624579,-919.314598
253.552730,-5181.441594,-11769.274478,-2451.505594
253.553052,-3404.947333,-9992.780217,-2298.286494
253.553374,-1258.350101,-8142.265362,-2451.505594
253.553696,370.102971,-6143.709319,-2528.115143
253.554018,1702.473667,-4737.318029,-2374.896044
253.554339,3182.885551,-4811.338623,-2298.286494
253.554661,4145.153275,-8068.244768,-2451.505594
253.554983,4663.297435,-10732.986159,-1762.019645
253.555305,3997.112087,-11769.274478,-459.657299
253.555627,3108.864956,-12139.377449,229.828649
253.555949,2368.659014,-10584.944971,995.924147
253.556270,1554.432478,-8660.409521,536.266849
253.556592,962.267725,-6883.915261,-229.828649
253.556914,0.000000,-5995.668130,-766.095498
253.557236,-1776.494261,-5625.565159,-459.657299
253.557558,-3552.988522,-6587.832884,0.000000
253.557879,-4293.194464,-9326.594869,-1685.410096
253.558201,-4589.276840,-11695.253884,-2528.115143
253.558523,-4737.318029,-13397.727550,-2298.286494
253.558845,-4959.379811,-14137.933492,-1608.800546
253.559167,-5255.462188,-13693.809927,-2145.067394
253.559489,-3552.988522,-12509.480420,-3217.601092
253.559810,-1036.288319,-10362.883188,-3830.477490
253.560132,962.267725,-8586.388927,-4136.915689
253.560454,2664.741391,-7179.997637,-3983.696590
253.560776,3775.050304,-6513.812290,-3064.381992
253.561098,4885.359217,-6957.935855,-1838.629195
253.561419,5551.544565,-8882.471304,-2528.115143
253.561741,5181.441594,-11769.274478,-1685.410096
253.562063,4811.338623,-12287.418637,-1225.752797
253.562385,3997.112087,-11029.068536,-536.266849
253.562707,2738.761985,-9474.636058,306.438199
253.563029,1332.370696,-7772.162391,1608.800546
253.563350,296.082377,-6957.935855,766.095498
253.563672,-1184.329507,-5625.565159,0.000000
253.563994,-3330.926739,-5477.523971,-919.314598
253.564316,-4737.318029,-7179.997637,-1072.533697
253.564638,-5699.585753,-9548.656652,-2145.067394
253.564959,-6439.791695,-11769.274478,-2145.067394
253.565281,-6957.935855,-12805.562797,-689.485948
253.565603,-6735.874072,-13027.624579,-919.314598
253.565925,-5921.647536,-12065.356855,-2451.505594
253.566247,-4219.173869,-10436.903782,-3907.087040
253.566568,-1924.535449,-8290.306550,-2911.162892
253.566890,666.185348,-7698.141797,-2451.505594
253.567212,2368.659014,-6439.791695,-1762.019645
253.567534,3256.906145,-5847.626942,-1532.190996
253.567856,4441.235652,-7031.956449,-2451.505594
253.568178,5107.421000,-8956.491898,-2451.505594
253.568499,4737.318029,-10510.924376,-1455.581446
253.568821,3849.070898,-10881.027347,-995.924147
253.569143,3404.947333,-10807.006753,-306.438199
253.569465,2220.617826,-10510.924376,689.485948
253.569787,1110.308913,-9178.553681,689.485948
253.570108,0.000000,-7179.997637,383.047749
253.570430,-1184.329507,-6069.688724,-842.705048
253.570752,-2368.659014,-6439.791695,-1302.362347
253.571074,-3701.029710,-8068.244768,-1991.848295
253.571396,-4811.338623,-10288.862594,-1991.848295
253.571718,-4811.338623,-12435.459826,-2298.286494
253.572039,-4737.318029,-14582.057057,-1762.019645
253.572361,-4589.276840,-14730.098246,-2068.457845
253.572683,-3923.091493,-13101.645173,-2757.943793
253.573005,-2368.659014,-10658.965565,-3217.601092
253.573327,888.247130,-8808.450710,-3447.429741
253.573648,3256.906145,-7031.956449,-3447.429741
253.573970,4367.215058,-5699.585753,-3677.258390
253.574292,4589.276840,-6809.894666,-1838.629195
253.574614,3923.091493,-8216.285956,76.609550
253.574936,3182.885551,-9252.574275,0.000000
253.575258,3330.926739,-10584.944971,-2221.676944
253.575579,2960.823768,-11547.212695,-1532.190996
253.575901,2516.700203,-11103.089130,-229.828649
253.576223,1480.411884,-9252.574275,1455.581446
253.576545,740.205942,-7772.162391,2681.334243
253.576867,222.061783,-5847.626942,2374.896044
253.577188,-1702.473667,-4737.318029,0.000000
253.577510,-4219.173869,-6143.709319,-1455.581446
253.577832,-6513.812290,-8808.450710,-1302.362347
253.578154,-7105.977043,-11029.068536,-1302.362347
253.578476,-6957.935855,-12435.459826,-766.095498
253.578797,-5921.647536,-12435.459826,-842.705048
253.579119,-5403.503377,-12213.398043,-1532.190996
253.579441,-4663.297435,-11177.109724,-2451.505594
253.579763,-3552.988522,-9178.553681,-2757.943793
253.580085,-1036.288319,-7476.080014,-3447.429741
253.580407,1258.350101,-6291.750507,-4443.353888
253.580728,2590.720797,-6661.853478,-4060.306139
253.581050,2738.761985,-7402.059420,-2221.676944
253.581372,3256.906145,-8364.327145,-1225.752797
253.581694,3701.029710,-9770.718434,-1378.971896
253.582016,4071.132681,-10658.965565,-2068.457845
253.582337,3775.050304,-11695.253884,-1762.019645
253.582659,2886.803174,-10881.027347,-842.705048
253.582981,2220.617826,-9622.677246,306.438199
253.583303,2368.659014,-8142.265362,842.705048
253.583625,2072.576638,-6365.771101,-153.219100
253.583947,0.000000,-5477.523971,-995.924147
253.584268,-2590.720797,-7031.956449,-1225.752797
253.584590,-4293.194464,-10066.800811,-1685.410096
253.584912,-4589.276840,-13175.665768,-2681.334243
253.585234,-4515.256246,-14508.036463,-1685.410096
253.585556,-4367.215058,-13841.851115,-689.485948
253.585877,-4663.297435,-11843.295072,-2451.505594
253.586199,-3182.885551,-10807.006753,-3524.039291
253.586521,-1110.308913,-9474.636058,-4213.525239
253.586843,1258.350101,-8438.347739,-4903.011187
253.587165,3034.844362,-7254.018232,-4826.401637
253.587487,3923.091493,-8586.388927,-2911.162892
253.587808,4145.153275,-9474.636058,-995.924147
253.588130,4145.153275,-9400.615463,-766.095498
253.588452,3775.050304,-9918.759623,-1608.800546
253.588774,3775.050304,-11177.109724,-1685.410096
253.589096,3552.988522,-10881.027347,-766.095498
253.589417,1924.535449,-9030.512492,153.219100
253.589739,1036.288319,-8364.327145,1915.238745
253.590061,814.226536,-7328.038826,2757.943793
253.590383,-592.164754,-5403.503377,1302.362347
253.590705,-3478.967927,-4441.235652,153.219100
253.591027,-5329.482782,-7328.038826,-842.705048
253.591348,-6957.935855,-9844.739029,-1378.971896
253.591670,-7105.977043,-11917.315666,-1608.800546
253.591992,-6883.915261,-12657.521608,0.000000
253.592314,-5995.668130,-11843.295072,-229.828649
253.592636,-5625.565159,-11399.171507,-1455.581446
253.592957,-4145.153275,-10584.944971,-2757.943793
253.593279,-2368.659014,-8956.491898,-3294.210641
253.593601,-592.164754,-7402.059420,-3447.429741
253.593923,1110.308913,-6661.853478,-2681.334243
253.594245,2146.597232,-5847.626942,-1762.019645
253.594566,3404.947333,-6735.874072,-2451.505594
253.594888,4219.173869,-8586.388927,-2145.067394
253.595210,4367.215058,-10140.821405,-995.924147
253.595532,4145.153275,-10658.965565,-689.485948
253.595854,3923.091493,-10955.047942,-689.485948
253.596176,3256.906145,-10436.903782,919.314598
253.596497,2368.659014,-9326.594869,1838.629195
253.596819,1258.350101,-6809.894666,919.314598
253.597141,-148.041188,-5181.441594,-842.705048
253.597463,-1628.453072,-6143.709319,-1225.752797
253.597785,-3034.844362,-9104.533087,-2451.505594
253.598106,-4441.235652,-11843.295072,-2757.943793
253.598428,-5033.400406,-14063.912898,-1762.019645
253.598750,-4885.359217,-14434.015869,-919.314598
253.599072,-4293.194464,-14211.954086,-2604.724693
253.599394,-3478.967927,-12435.459826,-3830.477490
253.599716,-1332.370696,-9844.739029,-3983.696590
253.600037,1258.350101,-8882.471304,-4903.011187
253.600359,3627.009116,-7698.141797,-4903.011187
253.600681,5329.482782,-7105.977043,-3370.820191
253.601003,6217.729913,-7550.100608,-2451.505594
253.601325,6217.729913,-9474.636058,-1838.629195
253.601646,5329.482782,-10510.924376,-1149.143247
253.601968,4071.132681,-11399.171507,-1072.533697
253.602290,2960.823768,-10510.924376,-689.485948
253.602612,2294.638420,-9030.512492,0.000000
253.602934,1628.453072,-7920.203579,766.095498
253.603256,370.102971,-7254.018232,1532.190996
253.603577,-592.164754,-5699.585753,1532.190996
253.603899,-2812.782580,-4663.297435,536.266849
253.604221,-4737.318029,-5995.668130,-919.314598
253.604543,-5921.647536,-9474.636058,-2068.457845
253.604865,-7328.038826,-11843.295072,-2451.505594
253.605186,-7994.224174,-13027.624579,-1455.581446
253.605508,-7179.997637,-13101.645173,-766.095498
253.605830,-5995.668130,-12657.521608,-1915.238745
253.606152,-4219.173869,-10955.047942,-2757.943793
253.606474,-1924.535449,-8882.471304,-2834.553343
253.606795,0.000000,-7105.977043,-3753.867940
253.607117,1776.494261,-6439.791695,-3294.210641
253.607439,2886.803174,-5847.626942,-2221.676944
253.607761,3256.906145,-6365.771101,-2145.067394
253.608083,3552.988522,-8660.409521,-1378.971896
253.608405,3775.050304,-10807.006753,-1302.362347
253.608726,3775.050304,-11473.192101,-1149.143247
253.609048,3701.029710,-11177.109724,-919.314598
253.609370,3404.947333,-10584.944971,76.609550
253.609692,2368.659014,-9326.594869,1378.971896
253.610014,1036.288319,-7254.018232,1455.581446
253.610335,-222.061783,-5847.626942,0.000000
253.610657,-1998.556043,-5773.606348,-1072.533697
253.610979,-3775.050304,-7624.121203,-2145.067394
253.611301,-5477.523971,-10214.842000,-2681.334243
253.611623,-5995.668130,-13101.645173,-2374.896044
253.611945,-5181.441594,-14730.098246,-689.485948
253.612266,-5255.462188,-14434.015869,-1072.533697
253.612588,-5329.482782,-12657.521608,-2298.286494
253.612910,-3997.112087,-9992.780217,-3217.601092
253.613232,-1702.473667,-7920.203579,-4290.134789
253.613554,592.164754,-6957.935855,-4979.620737
253.613875,2590.720797,-6957.935855,-3830.477490
253.614197,3478.967927,-6883.915261,-2145.067394
253.614519,3997.112087,-7846.182985,-689.485948
253.614841,4663.297435,-10066.800811,-612.876398
253.615163,4737.318029,-11769.274478,-1608.800546
253.615485,4737.318029,-11843.295072,-1762.019645
253.615806,3552.988522,-10807.006753,0.000000
253.616128,2368.659014,-9252.574275,1149.143247
253.616450,1406.391290,-8068.244768,1915.238745
253.616772,888.247130,-6661.853478,1608.800546
253.617094,-1184.329507,-5329.482782,-153.219100
253.617415,-3256.906145,-6143.709319,-536.266849
253.617737,-5181.441594,-8068.244768,-689.485948
253.618059,-6291.750507,-10584.944971,-1608.800546
253.618381,-6069.688724,-12287.418637,-842.705048
253.618703,-5329.482782,-12213.398043,-689.485948
253.619024,-5181.441594,-12139.377449,-1532.190996
253.619346,-5033.400406,-10732.986159,-2604.724693
253.619668,-4293.194464,-8808.450710,-2911.162892
253.619990,-2368.659014,-7772.162391,-3524.039291
253.620312,0.000000,-7254.018232,-4290.134789
253.620634,1480.411884,-7105.977043,-3447.429741
253.620955,2516.700203,-7105.977043,-2298.286494
253.621277,3923.091493,-7698.141797,-1991.848295
253.621599,4737.318029,-9548.656652,-2145.067394
253.621921,4737.318029,-11177.109724,-1455.581446
253.622243,4515.256246,-10807.006753,-459.657299
253.622564,3478.967927,-10140.821405,-306.438199
253.622886,2516.700203,-9474.636058,306.438199
253.623208,2294.638420,-8882.471304,1149.143247
253.623530,1258.350101,-6661.853478,383.047749
253.623852,-962.267725,-5181.441594,-383.047749
253.624174,-2442.679609,-6069.688724,-536.266849
253.624495,-3478.967927,-9178.553681,-1762.019645
253.624817,-4071.132681,-11769.274478,-3217.601092
253.625139,-4071.132681,-13841.851115,-2451.505594
253.625461,-4663.297435,-14359.995275,-612.876398
253.625783,-4737.318029,-13619.789333,-995.924147
253.626104,-4145.153275,-11695.253884,-3447.429741
253.626426,-2072.576638,-10066.800811,-4903.011187
253.626748,148.041188,-9104.533087,-4979.620737
253.627070,2220.617826,-8068.244768,-4290.134789
253.627392,3404.947333,-7846.182985,-2604.724693
253.627714,4071.132681,-7846.182985,-1685.410096
253.628035,4885.359217,-9104.533087,-995.924147
253.628357,4737.318029,-10288.862594,-1532.190996
253.628679,4145.153275,-11177.109724,-1991.848295
253.629001,3256.906145,-10955.047942,-919.314598
253.629323,1924.535449,-9474.636058,919.314598
253.629644,962.267725,-8364.327145,1532.190996
253.629966,222.061783,-7402.059420,1762.019645
253.630288,-296.082377,-6291.750507,842.705048
253.630610,-1628.453072,-5255.462188,-153.219100
253.630932,-3923.091493,-6587.832884,-995.924147
253.631254,-5255.462188,-8956.491898,-766.095498
253.631575,-6069.688724,-11029.068536,-1225.752797
253.631897,-6365.771101,-12287.418637,-919.314598
253.632219,-6365.771101,-12805.562797,-689.485948
253.632541,-5329.482782,-12361.439231,-1762.019645
253.632863,-4959.379811,-11103.089130,-2757.943793
253.633185,-3404.947333,-9622.677246,-2604.724693
253.633507,-1258.350101,-7624.121203,-2068.457845
253.633829,592.164754,-6069.688724,-1532.190996
253.634150,2146.597232,-5033.400406,-1532.190996
253.634472,3997.112087,-5995.668130,-3217.601092
253.634794,4367.215058,-8142.265362,-2451.505594
253.635116,3701.029710,-9918.759623,-766.095498
253.635438,2812.782580,-10584.944971,0.000000
253.635760,2886.803174,-11473.192101,-229.828649
253.636082,3108.864956,-11621.233289,0.000000
253.636404,2294.638420,-10584.944971,229.828649
253.636726,1036.288319,-8290.306550,842.705048
253.637048,222.061783,-6217.729913,766.095498
253.637370,-370.102971,-5033.400406,-612.876398
253.637692,-1406.391290,-6365.771101,-2451.505594
253.638014,-2368.659014,-9474.636058,-3370.820191
253.638336,-3849.070898,-12805.562797,-2451.505594
253.638658,-4589.276840,-14434.015869,-766.095498
253.638980,-4811.338623,-14434.015869,-612.876398
253.639302,-4367.215058,-12805.562797,-1838.629195
253.639624,-2146.597232,-11177.109724,-4060.306139
253.639946,-444.123565,-9252.574275,-5209.449386
253.640268,1702.473667,-7402.059420,-4596.572988
253.640590,3552.988522,-6143.709319,-3370.820191
253.640912,4367.215058,-6809.894666,-2451.505594
253.641234,4737.318029,-8956.491898,-2451.505594
253.641556,3775.050304,-10436.903782,-1532.190996
253.641878,3256.906145,-11547.212695,-1762.019645
253.642200,2960.823768,-12435.459826,-2528.115143
253.642522,2738.761985,-11621.233289,-995.924147
253.642844,1924.535449,-9252.574275,1378.971896
253.643166,1110.308913,-7994.224174,1378.971896
253.643488,592.164754,-6883.915261,1072.533697
253.643810,-222.061783,-5773.606348,0.000000
253.644132,-2368.659014,-5551.544565,-1225.752797
253.644454,-4811.338623,-7846.182985,-1149.143247
253.644776,-5847.626942,-10214.842000,-612.876398
253.645098,-5847.626942,-11843.295072,-689.485948
253.645420,-5625.565159,-11843.295072,-995.924147
253.645742,-5403.503377,-11769.274478,-1532.190996
253.646064,-4737.318029,-11029.068536,-2604.724693
253.646386,-4071.132681,-10066.800811,-2604.724693
253.646707,-2368.659014,-8586.388927,-3064.381992
253.647029,-222.061783,-7105.977043,-2451.505594
253.647351,1184.329507,-6291.750507,-2681.334243
253.647673,2294.638420,-6587.832884,-2987.772442
253.647995,2812.782580,-8364.327145,-3064.381992
253.648317,2960.823768,-9992.780217,-1915.238745
253.648639,2664.741391,-11325.150913,-383.047749
253.648961,2294.638420,-12213.398043,-306.438199
253.649283,1850.514855,-11621.233289,0.000000
253.649605,888.247130,-9548.656652,153.219100
253.649927,222.061783,-7698.141797,1225.752797
253.650249,74.020594,-6291.750507,536.266849
253.650571,-1332.370696,-5033.400406,-306.438199
253.650893,-3108.864956,-5699.585753,-766.095498
253.651215,-4367.215058,-8438.347739,-1608.800546
253.651537,-4811.338623,-12065.356855,-1991.848295
253.651859,-4441.235652,-14508.036463,-2068.457845
253.652181,-4145.153275,-14804.118840,-842.705048
253.652503,-4071.132681,-13693.809927,-1532.190996
253.652825,-3108.864956,-12435.459826,-2374.896044
253.653147,-1406.391290,-9770.718434,-2604.724693
253.653469,888.247130,-7254.018232,-3983.696590
253.653791,2368.659014,-5921.647536,-4443.353888
253.654113,3627.009116,-5847.626942,-2757.943793
253.654435,4219.173869,-7402.059420,-1455.581446
253.654757,4293.194464,-9400.615463,-1378.971896
253.655079,4441.235652,-11695.253884,-995.924147
253.655401,4885.359217,-12583.501014,0.000000
253.655723,4219.173869,-11621.233289,-229.828649
253.656045,2886.803174,-9474.636058,689.485948
253.656367,1776.494261,-7772.162391,1991.848295
253.656689,740.205942,-6217.729913,1225.752797
253.657011,-296.082377,-4737.318029,0.000000
253.657333,-1998.556043,-4737.318029,-1225.752797
253.657655,-3849.070898,-6735.874072,-1455.581446
253.657977,-5107.421000,-9548.656652,-1838.629195
253.658299,-5699.585753,-11843.295072,-1378.971896
253.658621,-5329.482782,-13619.789333,-1149.143247
253.658943,-4885.359217,-13619.789333,-1072.533697
253.659264,-4959.379811,-11917.315666,-2221.676944
253.659586,-4441.235652,-10066.800811,-3447.429741
253.659908,-1924.535449,-9030.512492,-3600.648841
253.660230,1036.288319,-8512.368333,-3294.210641
253.660552,2220.617826,-7476.080014,-2987.772442
253.660874,2738.761985,-6735.874072,-1532.190996
253.661196,3775.050304,-6957.935855,-229.828649
253.661518,4219.173869,-7846.182985,-1991.848295
253.661840,4441.235652,-9400.615463,-2451.505594
253.662162,4219.173869,-10510.924376,-1608.800546
253.662484,3256.906145,-10584.944971,-766.095498
253.662806,2294.638420,-10362.883188,0.000000
253.663128,1480.411884,-9622.677246,1685.410096
253.663450,370.102971,-7698.141797,1302.362347
253.663772,-888.247130,-6143.709319,-919.314598
253.664094,-3034.844362,-6661.853478,-2068.457845
253.664416,-4663.297435,-8438.347739,-2451.505594
253.664738,-5477.523971,-10362.883188,-2374.896044
253.665060,-4737.318029,-12583.501014,-2681.334243
253.665382,-3849.070898,-14211.954086,-2681.334243
253.665704,-3627.009116,-14211.954086,-2528.115143
253.666026,-4071.132681,-12657.521608,-2681.334243
253.666348,-3552.988522,-10584.944971,-3524.039291
253.666670,-1628.453072,-9030.512492,-4290.134789
253.666992,1554.432478,-8068.244768,-4903.011187
253.667314,3108.864956,-7846.182985,-4519.963438
253.667636,3849.070898,-8290.306550,-2374.896044
253.667958,4811.338623,-9326.594869,-383.047749
253.668280,4885.359217,-10214.842000,0.000000
253.668602,4737.318029,-10436.903782,0.000000
253.668924,3923.091493,-9844.739029,-689.485948
253.669246,2812.782580,-10066.800811,-995.924147
253.669568,1702.473667,-9622.677246,0.000000
253.669890,1480.411884,-8290.306550,1302.362347
253.670212,1332.370696,-6143.709319,1455.581446
253.670534,148.041188,-5181.441594,689.485948
253.670856,-1776.494261,-6217.729913,383.047749
253.671178,-4367.215058,-7920.203579,-1149.143247
253.671500,-5477.523971,-10066.800811,-1378.971896
253.671821,-5625.565159,-12435.459826,-919.314598
253.672143,-5477.523971,-13249.686362,-766.095498
253.672465,-5033.400406,-11695.253884,-842.705048
253.672787,-3997.112087,-9770.718434,-1378.971896
253.673109,-2664.741391,-9474.636058,-2068.457845
253.673431,-1776.494261,-7846.182985,-2451.505594
253.673753,-962.267725,-5773.606348,-2834.553343
253.674075,-518.144159,-5181.441594,-2298.286494
253.674397,814.226536,-6291.750507,-1915.238745
253.674719,1554.432478,-7920.203579,-2221.676944
253.675041,2146.597232,-9104.533087,-1915.238745
253.675363,2590.720797,-10658.965565,-1149.143247
253.675685,3182.885551,-11769.274478,-842.705048
253.676007,2886.803174,-11177.109724,229.828649
253.676329,2812.782580,-10658.965565,766.095498
253.676651,1998.556043,-9474.636058,1149.143247
253.676973,888.247130,-7254.018232,0.000000
253.677295,-666.185348,-5921.647536,-1532.190996
253.677617,-2442.679609,-6365.771101,-2757.943793
253.677939,-3627.009116,-8734.430116,-3064.381992
253.678261,-4293.194464,-12213.398043,-2451.505594
253.678583,-4071.132681,-14359.995275,-1455.581446
253.678905,-3701.029710,-14582.057057,-995.924147
253.679227,-3701.029710,-13397.727550,-1378.971896
253.679549,-3330.926739,-10807.006753,-1915.238745
253.679871,-1924.535449,-8512.368333,-3677.258390
253.680193,-148.041188,-7254.018232,-5056.230287
253.680515,1406.391290,-6587.832884,-4903.011187
253.680837,2294.638420,-7179.997637,-3370.820191
253.681159,2368.659014,-8364.327145,-919.314598
253.681481,2812.782580,-9918.759623,-1378.971896
253.681803,3330.926739,-11177.109724,-2451.505594
253.682125,3997.112087,-12435.459826,-2911.162892
253.682447,3404.947333,-11991.336260,-1991.848295
253.682769,2072.576638,-10214.842000,0.000000
253.683091,740.205942,-8068.244768,1838.629195
253.683413,222.061783,-6587.832884,1915.238745
253.683735,-1036.288319,-4811.338623,-153.219100
253.684057,-2960.823768,-5033.400406,-1991.848295
253.684378,-4885.359217,-7105.977043,-1838.629195
253.684700,-5773.606348,-9474.636058,-1455.581446
253.685022,-5107.421000,-11991.336260,-995.924147
253.685344,-3997.112087,-12879.583391,0.000000
253.685666,-3330.926739,-12583.501014,0.000000
253.685988,-3478.967927,-11399.171507,-1991.848295
253.686310,-3478.967927,-9770.718434,-2911.162892
253.686632,-2516.700203,-7698.141797,-2451.505594
253.686954,-814.226536,-6809.894666,-3064.381992
253.687276,222.061783,-6217.729913,-3217.601092
253.687598,1554.432478,-6587.832884,-2145.067394
253.687920,2812.782580,-7772.162391,-2298.286494
253.688242,3775.050304,-9844.739029,-1915.238745
253.688564,3997.112087,-11177.109724,-842.705048
253.688886,3849.070898,-11251.130318,-689.485948
253.689208,3404.947333,-10807.006753,-536.266849
253.689530,2812.782580,-10214.842000,229.828649
253.689852,2146.597232,-8882.471304,1072.533697
253.690174,370.102971,-6587.832884,153.219100
253.690496,-888.247130,-5773.606348,-229.828649
253.690818,-2146.597232,-5921.647536,-995.924147
253.691140,-3330.926739,-7476.080014,-1915.238745
253.691462,-3701.029710,-10510.924376,-2145.067394
253.691784,-3034.844362,-13619.789333,-2298.286494
253.692106,-3330.926739,-14730.098246,-1532.190996
253.692428,-3627.009116,-14730.098246,-1455.581446
253.692750,-3849.070898,-13397.727550,-1762.019645
253.693072,-2664.741391,-10510.924376,-2451.505594
253.693394,-296.082377,-8660.409521,-3753.867940
253.693716,2368.659014,-7254.018232,-4443.353888
253.694038,4145.153275,-6587.832884,-3524.039291
253.694360,4515.256246,-7328.038826,-1685.410096
253.694682,4441.235652,-8660.409521,229.828649
253.695004,4145.153275,-9400.615463,459.657299
253.695326,4367.215058,-11325.150913,-2298.286494
253.695648,4367.215058,-11991.336260,-2451.505594
253.695970,3330.926739,-11177.109724,-536.266849
253.696292,1628.453072,-9252.574275,1685.410096
253.696614,666.185348,-7550.100608,2681.334243
253.696935,296.082377,-6069.688724,2068.457845
253.697257,-1924.535449,-3923.091493,-536.266849
253.697579,-4145.153275,-5329.482782,-2681.334243
253.697901,-6217.729913,-8290.306550,-2834.553343
253.698223,-6735.874072,-11473.192101,-2374.896044
253.698545,-6143.709319,-13471.748144,-612.876398
253.698867,-5033.400406,-13619.789333,0.000000
253.699189,-4737.318029,-12805.562797,-995.924147
253.699511,-4367.215058,-11621.233289,-2374.896044
253.699833,-3627.009116,-9474.636058,-2757.943793
253.700155,-2442.679609,-7031.956449,-2451.505594
253.700477,-592.164754,-5181.441594,-2604.724693
253.700799,1036.288319,-5625.565159,-2451.505594
253.701121,2442.679609,-6217.729913,-2068.457845
253.701443,3701.029710,-7254.018232,-1991.848295
253.701765,4737.318029,-9326.594869,-1378.971896
253.702087,5477.523971,-11251.130318,-1455.581446
253.702409,4441.235652,-11843.295072,-995.924147
253.702731,2590.720797,-11103.089130,536.266849
253.703053,518.144159,-9400.615463,995.924147
253.703375,0.000000,-8068.244768,-229.828649
253.703697,-962.267725,-5995.668130,-2298.286494
253.704019,-2294.638420,-5403.503377,-2987.772442
253.704341,-4145.153275,-6809.894666,-1838.629195
253.704663,-4293.194464,-9770.718434,-2451.505594
253.704985,-3034.844362,-13397.727550,-3600.648841
253.705307,-2294.638420,-16136.489536,-2987.772442
253.705629,-2590.720797,-15988.448347,-1532.190996
253.705951,-4145.153275,-13767.830521,-536.266849
253.706273,-4071.132681,-10436.903782,-1915.238745
253.706595,-1628.453072,-8512.368333,-4443.353888
253.706917,1702.473667,-7031.956449,-6128.763984
253.707239,3997.112087,-6291.750507,-4979.620737
253.707561,4367.215058,-7476.080014,-1915.238745
253.707883,4737.318029,-9104.533087,1072.533697
253.708205,4589.276840,-9474.636058,1378.971896
253.708527,4145.153275,-10288.862594,-842.705048
253.708849,3627.009116,-11177.109724,-3064.381992
253.709171,2664.741391,-11325.150913,-3217.601092
253.709493,2294.638420,-10510.924376,-1072.533697
253.709814,1184.329507,-9844.739029,2451.505594
253.710136,666.185348,-7994.224174,4136.915689
253.710458,-592.164754,-5477.523971,1762.019645
253.710780,-2368.659014,-4959.379811,-1685.410096
253.711102,-4663.297435,-6513.812290,-2757.943793
253.711424,-5625.565159,-8956.491898,-3370.820191
253.711746,-5625.565159,-11621.233289,-1838.629195
253.712068,-4515.256246,-13619.789333,1225.752797
253.712390,-4589.276840,-12509.480420,1685.410096
253.712712,-4219.173869,-10658.965565,-229.828649
253.713034,-4219.173869,-10066.800811,-2604.724693
253.713356,-2960.823768,-8068.244768,-3140.991542
253.713678,-1406.391290,-5847.626942,-3600.648841
253.714000,-148.041188,-5625.565159,-2298.286494
253.714322,1332.370696,-5995.668130,383.047749
253.714644,2664.741391,-6735.874072,-766.095498
253.714966,2590.720797,-8364.327145,-2298.286494
253.715288,2960.823768,-10362.883188,-1685.410096
253.715610,2886.803174,-12361.439231,-1532.190996
253.715932,2442.679609,-12953.603985,-1455.581446
253.716254,1406.391290,-11621.233289,919.314598
253.716576,888.247130,-9474.636058,2681.334243
253.716898,296.082377,-6957.935855,842.705048
253.717220,-1184.329507,-4885.359217,-1762.019645
253.717542,-3404.947333,-4515.256246,-2298.286494
253.717864,-5625.565159,-6513.812290,-2681.334243
253.718186,-5551.544565,-9992.780217,-2145.067394
253.718508,-4145.153275,-14063.912898,-1762.019645
253.718830,-2886.803174,-15248.242405,-1302.362347
253.719152,-2516.700203,-14285.974681,-1455.581446
253.719474,-2960.823768,-13175.665768,-1608.800546
253.719796,-2960.823768,-10066.800811,-2221.676944
253.720118,-1332.370696,-7550.100608,-3524.039291
253.720440,666.185348,-5625.565159,-5362.668486
253.720762,2442.679609,-6735.874072,-5209.449386
253.721084,3775.050304,-8290.306550,-1991.848295
253.721406,4885.359217,-9178.553681,-842.705048
253.721728,5107.421000,-10362.883188,-919.314598
253.722050,5921.647536,-12139.377449,-536.266849
253.722371,5551.544565,-12583.501014,-1455.581446
253.722693,3849.070898,-10881.027347,-1685.410096
253.723015,2146.597232,-8956.491898,0.000000
253.723337,1110.308913,-7772.162391,1608.800546
253.723659,148.041188,-5625.565159,766.095498
253.723981,-1554.432478,-4515.256246,-766.095498
253.724303,-3404.947333,-5773.606348,-1455.581446
253.724625,-4663.297435,-8216.285956,-1991.848295
253.724947,-5255.462188,-11843.295072,-2221.676944
253.725269,-5033.400406,-13175.665768,-459.657299
253.725591,-4737.318029,-13175.665768,459.657299
253.725913,-4811.338623,-12435.459826,-842.705048
253.726235,-5033.400406,-10955.047942,-1991.848295
253.726557,-4367.215058,-8512.368333,-2374.896044
253.726879,-1998.556043,-7179.997637,-3600.648841
253.727201,0.000000,-6661.853478,-2911.162892
253.727523,1406.391290,-6143.709319,-1455.581446
253.727845,2664.741391,-5921.647536,-1225.752797
253.728167,4293.194464,-7698.141797,-1685.410096
253.728489,5403.503377,-10436.903782,-2451.505594
253.728811,5033.400406,-11621.233289,-2451.505594
253.729133,3997.112087,-11473.192101,-1762.019645
253.729455,2368.659014,-10807.006753,459.657299
253.729777,1332.370696,-10362.883188,1991.848295
253.730099,296.082377,-8216.285956,689.485948
253.730421,-592.164754,-5921.647536,-1532.190996
253.730743,-1702.473667,-5625.565159,-2221.676944
253.731065,-3330.926739,-6957.935855,-1991.848295
253.731387,-4441.235652,-9548.656652,-1991.848295
253.731709,-4071.132681,-11843.295072,-1915.238745
253.732031,-3182.885551,-14285.974681,-1455.581446
253.732353,-3404.947333,-15100.201217,-1915.238745
253.732675,-4441.235652,-13915.871710,-1225.752797
253.732997,-4219.173869,-10881.027347,-1608.800546
253.733319,-2368.659014,-8808.450710,-3830.477490
253.733641,592.164754,-7698.141797,-4519.963438
253.733963,2516.700203,-6883.915261,-3830.477490
253.734285,3330.926739,-6291.750507,-1608.800546
253.734607,3775.050304,-6883.915261,-306.438199
253.734928,4515.256246,-8660.409521,-689.485948
253.735250,4811.338623,-10881.027347,-1838.629195
253.735572,3923.091493,-13027.624579,-2604.724693
253.735894,1850.514855,-12509.480420,-766.095498
253.736216,-370.102971,-11103.089130,2068.457845
253.736538,-1184.329507,-8882.471304,2604.724693
253.736860,-592.164754,-5847.626942,919.314598
253.737182,-814.226536,-3552.988522,-1762.019645
253.737504,-2368.659014,-4663.297435,-1532.190996
253.737826,-4367.215058,-6809.894666,-995.924147
253.738148,-5033.400406,-8956.491898,-995.924147
253.738470,-3775.050304,-11843.295072,-612.876398
253.738792,-3034.844362,-13841.851115,-1302.362347
253.739114,-3923.091493,-14508.036463,-1225.752797
253.739436,-4959.379811,-12213.398043,-306.438199
253.739758,-3849.070898,-9474.636058,-1608.800546
253.740080,-740.205942,-7550.100608,-3830.477490
253.740402,1998.556043,-6883.915261,-4826.401637
253.740724,2812.782580,-6143.709319,-2528.115143
253.741046,2664.741391,-5403.503377,-306.438199
253.741368,4071.132681,-6513.812290,0.000000
253.741690,5255.462188,-9178.553681,-1685.410096
253.742012,5551.544565,-11547.212695,-2911.162892
253.742334,3849.070898,-11843.295072,-2298.286494
253.742656,1628.453072,-11473.192101,0.000000
253.742978,74.020594,-10436.903782,1762.019645
253.743300,-518.144159,-7772.162391,1455.581446
253.743622,-592.164754,-5773.606348,-995.924147
253.743944,-1850.514855,-5255.462188,-2911.162892
253.744266,-4145.153275,-7105.977043,-2221.676944
253.744588,-5107.421000,-8734.430116,-1991.848295
253.744910,-4811.338623,-11399.171507,-2757.943793
253.745232,-2664.741391,-14656.077652,-3140.991542
253.745554,-2812.782580,-16654.633695,-2068.457845
253.745876,-4663.297435,-15100.201217,-919.314598
253.746198,-5255.462188,-11547.212695,-1225.752797
253.746520,-2368.659014,-8808.450710,-3370.820191
253.746842,1628.453072,-7105.977043,-5975.544884
253.747164,4515.256246,-6513.812290,-5745.716235
253.747486,4811.338623,-7402.059420,-2834.553343
253.747807,4589.276840,-8956.491898,689.485948
253.748129,4515.256246,-9326.594869,1762.019645
253.748451,3997.112087,-9918.759623,-383.047749
253.748773,2738.761985,-10288.862594,-2834.553343
253.749095,1998.556043,-11177.109724,-3217.601092
253.749417,1036.288319,-11325.150913,-1378.971896
253.749739,370.102971,-9696.697840,1378.971896
253.750061,370.102971,-6883.915261,3294.210641
253.750383,-296.082377,-4959.379811,2298.286494
253.750705,-2294.638420,-5477.523971,-383.047749
253.751027,-4515.256246,-7031.956449,-2298.286494
253.751349,-6365.771101,-8142.265362,-2911.162892
253.751671,-6217.729913,-11399.171507,-2298.286494
253.751993,-5107.421000,-14285.974681,-229.828649
253.752315,-4737.318029,-13619.789333,1149.143247
253.752637,-4441.235652,-10658.965565,-459.657299
253.752959,-3849.070898,-10140.821405,-1838.629195
253.753281,-2812.782580,-8956.491898,-2757.943793
253.753603,-1628.453072,-6587.832884,-3140.991542
253.753925,-592.164754,-5181.441594,-2987.772442
253.754247,296.082377,-5995.668130,-995.924147
253.754569,2960.823768,-7254.018232,-229.828649
253.754891,3627.009116,-7476.080014,-1378.971896
253.755213,3627.009116,-8882.471304,-1915.238745
253.755535,3701.029710,-10881.027347,-842.705048
253.755857,3478.967927,-11177.109724,-536.266849
253.756179,2516.700203,-11103.089130,0.000000
253.756501,2146.597232,-11103.089130,689.485948
253.756823,1332.370696,-9030.512492,1072.533697
253.757145,74.020594,-6439.791695,-306.438199
253.757467,-1628.453072,-5625.565159,-1915.238745
253.757789,-3108.864956,-7105.977043,-1762.019645
253.758111,-4145.153275,-9474.636058,-3064.381992
253.758433,-3849.070898,-12435.459826,-2911.162892
253.758755,-3034.844362,-14804.118840,-1149.143247
253.759077,-2960.823768,-14359.995275,-689.485948
253.759399,-3256.906145,-12657.521608,-1685.410096
253.759721,-2960.823768,-10807.006753,-1762.019645
253.760043,-1998.556043,-8438.347739,-2757.943793
253.760364,148.041188,-6661.853478,-4136.915689
253.760686,2664.741391,-6217.729913,-4443.353888
253.761008,4145.153275,-6957.935855,-2528.115143
253.761330,4367.215058,-7846.182985,-383.047749
253.761652,4589.276840,-8734.430116,-536.266849
253.761974,4293.194464,-10288.862594,-1149.143247
253.762296,3775.050304,-11103.089130,-2757.943793
253.762618,2590.720797,-11621.233289,-2757.943793
253.762940,1036.288319,-11473.192101,-536.266849
253.763262,0.000000,-10362.883188,1225.752797
253.763584,-296.082377,-7772.162391,1685.410096
253.763906,-666.185348,-5625.565159,-383.047749
253.764228,-1998.556043,-4959.379811,-2145.067394
253.764550,-3330.926739,-7179.997637,-2451.505594
253.764872,-4589.276840,-9474.636058,-2374.896044
253.765194,-4367.215058,-12139.377449,-1149.143247
253.765516,-3923.091493,-13397.727550,229.828649
253.765838,-3701.029710,-12879.583391,-536.266849
253.766160,-4145.153275,-11473.192101,-1762.019645
253.766482,-3552.988522,-9770.718434,-2374.896044
253.766804,-2220.617826,-7476.080014,-2987.772442
253.767126,-222.061783,-6143.709319,-3447.429741
253.767448,1480.411884,-6069.688724,-2528.115143
253.767770,2812.782580,-6217.729913,-1302.362347
253.768092,3552.988522,-7179.997637,-1378.971896
253.768414,4071.132681,-8734.430116,-1455.581446
253.768736,4219.173869,-11177.109724,-2451.505594
253.769058,3923.091493,-12065.356855,-2757.943793
253.769380,2368.659014,-12213.398043,-1378.971896
253.769702,740.205942,-11399.171507,1455.581446
253.770024,-370.102971,-9474.636058,2528.115143
253.770346,-1036.288319,-6883.915261,0.000000
253.770668,-1554.432478,-4737.318029,-2145.067394
253.770990,-2960.823768,-5107.421000,-2987.772442
253.771312,-4145.153275,-7328.038826,-2451.505594
253.771634,-3997.112087,-10732.986159,-2221.676944
253.771956,-2590.720797,-13545.768739,-689.485948
253.772278,-1776.494261,-15470.304188,-459.657299
253.772600,-2812.782580,-14508.036463,-612.876398
253.772922,-3849.070898,-11843.295072,-1378.971896
253.773243,-2442.679609,-8586.388927,-2604.724693
253.773565,74.020594,-6439.791695,-4443.353888
253.773887,2812.782580,-6291.750507,-5439.278036
253.774209,4219.173869,-7476.080014,-2911.162892
253.774531,3923.091493,-8512.368333,306.438199
253.774853,3330.926739,-9400.615463,995.924147
253.775175,3182.885551,-10436.903782,-842.705048
253.775497,3775.050304,-11621.233289,-2987.772442
253.775819,3256.906145,-12139.377449,-4136.915689
253.776141,1776.494261,-11399.171507,-1455.581446
253.776463,222.061783,-9844.739029,2451.505594
253.776785,0.000000,-7476.080014,4136.915689
253.777107,-1776.494261,-5033.400406,1838.629195
253.777429,-3108.864956,-5107.421000,-1455.581446
253.777751,-5329.482782,-6661.853478,-2987.772442
253.778073,-6883.915261,-8882.471304,-2451.505594
253.778395,-6439.791695,-11473.192101,-842.705048
253.778717,-4367.215058,-12953.603985,76.609550
253.779039,-3627.009116,-12435.459826,153.219100
253.779361,-3330.926739,-11621.233289,-766.095498
253.779683,-3997.112087,-10140.821405,-1991.848295
253.780005,-3108.864956,-8216.285956,-2451.505594
253.780327,-888.247130,-6217.729913,-3294.210641
253.780649,592.164754,-5033.400406,-3370.820191
253.780971,2294.638420,-5995.668130,-1532.190996
253.781293,3552.988522,-7105.977043,-842.705048
253.781615,4515.256246,-8142.265362,-1608.800546
253.781937,4811.338623,-10288.862594,-1915.238745
253.782259,4219.173869,-12583.501014,-1608.800546
253.782581,1924.535449,-12287.418637,-689.485948
253.782903,-148.041188,-11029.068536,536.266849
253.783225,-666.185348,-8808.450710,1072.533697
253.783547,-148.041188,-6735.874072,-766.095498
253.783869,-370.102971,-4959.379811,-2374.896044
253.784191,-2442.679609,-5921.647536,-2374.896044
253.784513,-3849.070898,-8290.306550,-1455.581446
253.784835,-3849.070898,-11251.130318,-1991.848295
253.785157,-2590.720797,-14582.057057,-2451.505594
253.785479,-2072.576638,-15766.386565,-1838.629195
253.785800,-2960.823768,-15026.180623,-1149.143247
253.786122,-3923.091493,-11621.233289,-1149.143247
253.786444,-2664.741391,-8660.409521,-2681.334243
253.786766,0.000000,-7179.997637,-4903.011187
253.787088,2960.823768,-6291.750507,-6205.373534
253.787410,4145.153275,-7698.141797,-4213.525239
253.787732,3775.050304,-8808.450710,76.609550
253.788054,4219.173869,-8808.450710,1915.238745
253.788376,4367.215058,-9474.636058,-536.266849
253.788698,4737.318029,-11029.068536,-3294.210641
253.789020,3627.009116,-11621.233289,-3294.210641
253.789342,1776.494261,-11325.150913,-1532.190996
253.789664,0.000000,-10288.862594,1225.752797
253.789986,-296.082377,-8808.450710,3370.820191
253.790308,-814.226536,-6069.688724,1685.410096
253.790630,-2442.679609,-4959.379811,-1225.752797
253.790952,-3923.091493,-6143.709319,-1608.800546
253.791274,-5329.482782,-8216.285956,-2834.553343
253.791596,-5699.585753,-10362.883188,-2681.334243
253.791918,-4293.194464,-12805.562797,-612.876398
253.792240,-3775.050304,-13397.727550,919.314598
253.792562,-3775.050304,-11843.295072,0.000000
253.792884,-3923.091493,-11103.089130,-1838.629195
253.793206,-3330.926739,-9474.636058,-2298.286494
253.793528,-1628.453072,-7624.121203,-2451.505594
253.793850,-148.041188,-5921.647536,-2221.676944
253.794172,1110.308913,-5773.606348,-1072.533697
253.794494,3034.844362,-5921.647536,-306.438199
253.794816,4145.153275,-6513.812290,-1991.848295
253.795138,4737.318029,-8364.327145,-2221.676944
253.795460,4441.235652,-10881.027347,-1838.629195
253.795782,3182.885551,-11695.253884,-1838.629195
253.796104,1924.535449,-11843.295072,612.876398
253.796426,444.123565,-10732.986159,1838.629195
253.796748,-148.041188,-8734.430116,306.438199
253.797070,-888.247130,-6735.874072,-1838.629195
253.797392,-2294.638420,-5403.503377,-2221.676944
253.797714,-3849.070898,-6217.729913,-2221.676944
253.798036,-3701.029710,-8142.265362,-2145.067394
253.798358,-2960.823768,-11473.192101,-2757.943793
253.798679,-2294.638420,-14285.974681,-2068.457845
253.799001,-2368.659014,-14804.118840,-1149.143247
253.799323,-3478.967927,-14211.954086,-919.314598
253.799645,-3849.070898,-11843.295072,-1378.971896
253.799967,-2294.638420,-8734.430116,-2451.505594
253.800289,518.144159,-6365.771101,-4903.011187
253.800611,2664.741391,-5995.668130,-4903.011187
253.800933,4367.215058,-7254.018232,-2145.067394
253.801255,4811.338623,-7550.100608,0.000000
253.801577,4959.379811,-8438.347739,-306.438199
253.801899,4663.297435,-11325.150913,-995.924147
253.802221,3997.112087,-13027.624579,-2145.067394
253.802543,2738.761985,-12287.418637,-2451.505594
253.802865,888.247130,-11177.109724,-995.924147
253.803187,222.061783,-9770.718434,1378.971896
253.803509,0.000000,-7772.162391,1838.629195
253.803831,-1184.329507,-5107.421000,0.000000
253.804153,-2590.720797,-4959.379811,-1762.019645
253.804475,-3330.926739,-6439.791695,-2298.286494
253.804797,-3923.091493,-9400.615463,-3140.991542
253.805119,-4441.235652,-11621.233289,-1838.629195
253.805441,-3849.070898,-13101.645173,536.266849
253.805763,-3627.009116,-12805.562797,306.438199
253.806085,-3775.050304,-11695.253884,-1685.410096
253.806407,-3627.009116,-9548.656652,-3064.381992
253.806729,-2664.741391,-7550.100608,-3447.429741
253.807051,-444.123565,-6587.832884,-3447.429741
253.807373,814.226536,-5921.647536,-2451.505594
253.807695,1924.535449,-6217.729913,-1149.143247
253.808017,2960.823768,-6809.894666,-995.924147
253.808339,3552.988522,-8660.409521,-2298.286494
253.808661,3478.967927,-10732.986159,-2451.505594
253.808983,2960.823768,-11843.295072,-2298.286494
253.809305,2368.659014,-12287.418637,-1762.019645
253.809627,1480.411884,-11621.233289,0.000000
253.809949,888.247130,-9474.636058,2068.457845
253.810271,370.102971,-7476.080014,306.438199
253.810593,-740.205942,-5699.585753,-995.924147
253.810915,-2294.638420,-5625.565159,-2068.457845
253.811237,-3923.091493,-7698.141797,-2451.505594
253.811558,-4515.256246,-9844.739029,-2221.676944
253.811880,-3701.029710,-12509.480420,-1838.629195
253.812202,-3182.885551,-14582.057057,-1532.190996
253.812524,-2738.761985,-13989.892304,-1302.362347
253.812846,-3256.906145,-12435.459826,-1762.019645
253.813168,-2516.700203,-9918.759623,-2068.457845
253.813490,-444.123565,-7328.038826,-2681.334243
253.813812,1702.473667,-5699.585753,-4060.306139
253.814134,2664.741391,-5773.606348,-3600.648841
253.814456,3108.864956,-7328.038826,-1608.800546
253.814778,3182.885551,-9104.533087,-919.314598
253.815100,3404.947333,-10658.965565,-1225.752797
253.815422,3775.050304,-12805.562797,-1915.238745
253.815744,3256.906145,-13397.727550,-1838.629195
253.816066,1110.308913,-11399.171507,-536.266849
253.816388,-370.102971,-9326.594869,1302.362347
253.816710,-1110.308913,-7402.059420,1225.752797
253.817032,-1480.411884,-5551.544565,0.000000
253.817354,-2886.803174,-4589.276840,-1532.190996
253.817676,-4885.359217,-6291.750507,-1608.800546
253.817998,-5625.565159,-8808.450710,-1149.143247
253.818320,-5625.565159,-10658.965565,-689.485948
253.818642,-4737.318029,-12361.439231,-1072.533697
253.818964,-3256.906145,-13471.748144,-689.485948
253.819286,-3256.906145,-12509.480420,-612.876398
253.819608,-3478.967927,-10214.842000,-1149.143247
253.819930,-2516.700203,-8512.368333,-1915.238745
253.820252,0.000000,-7179.997637,-2451.505594
253.820574,1332.370696,-5625.565159,-2834.553343
253.820896,2442.679609,-5699.585753,-2298.286494
253.821218,3478.967927,-7105.977043,-842.705048
253.821540,4737.318029,-8808.450710,-1072.533697
253.821862,5107.421000,-10066.800811,-1762.019645
253.822184,4219.173869,-10807.006753,-536.266849
253.822506,2442.679609,-10807.006753,-459.657299
253.822828,666.185348,-9918.759623,0.000000
253.823150,-296.082377,-9030.512492,459.657299
253.823472,-1110.308913,-7846.182985,-306.438199
253.823794,-1480.411884,-6143.709319,-1915.238745
253.824115,-2664.741391,-7105.977043,-2834.553343
253.824437,-4071.132681,-8586.388927,-2374.896044
253.824759,-4737.318029,-9696.697840,-2298.286494
253.825081,-4071.132681,-11695.253884,-3140.991542
253.825403,-3552.988522,-14359.995275,-3217.601092
253.825725,-3034.844362,-15618.345376,-2221.676944
253.826047,-3997.112087,-13249.686362,-1378.971896
253.826369,-3182.885551,-10214.842000,-1991.848295
253.826691,0.000000,-8882.471304,-3064.381992
253.827013,3701.029710,-7624.121203,-4443.353888
253.827335,4589.276840,-6661.853478,-4290.134789
253.827657,4737.318029,-7328.038826,-842.705048
253.827979,5107.421000,-8290.306550,1302.362347
253.828301,5921.647536,-9178.553681,0.000000
253.828623,5847.626942,-10362.883188,-2757.943793
253.828945,4737.318029,-11399.171507,-3140.991542
253.829267,2146.597232,-10881.027347,-842.705048
253.829589,-222.061783,-10436.903782,1302.362347
253.829911,-1480.411884,-8956.491898,2298.286494
253.830233,-1406.391290,-6513.812290,459.657299
253.830555,-1702.473667,-5033.400406,-1991.848295
253.830877,-3552.988522,-6809.894666,-2681.334243
253.831199,-5033.400406,-8216.285956,-1532.190996
253.831521,-5995.668130,-8956.491898,-1685.410096
253.831843,-5329.482782,-11103.089130,-2068.457845
253.832165,-4737.318029,-13545.768739,-1838.629195
253.832487,-5477.523971,-13175.665768,-1991.848295
253.832809,-6661.853478,-11399.171507,-1149.143247
253.833131,-5773.606348,-9104.533087,-1532.190996
253.833453,-2294.638420,-7328.038826,-2911.162892
253.833774,1184.329507,-6365.771101,-3600.648841
253.834096,2960.823768,-5921.647536,-2757.943793
253.834418,3627.009116,-7031.956449,-153.219100
253.834740,4737.318029,-7920.203579,1302.362347
253.835062,5403.503377,-8142.265362,919.314598
253.835384,5477.523971,-8956.491898,-919.314598
253.835706,4959.379811,-10510.924376,-2145.067394
253.836028,4219.173869,-11473.192101,-919.314598
253.836350,2960.823768,-11251.130318,766.095498
253.836672,1998.556043,-9696.697840,1991.848295
253.836994,1406.391290,-7772.162391,1762.019645
253.837315,0.000000,-6143.709319,0.000000
253.837637,-1850.514855,-6883.915261,-2681.334243
253.837959,-3997.112087,-8438.347739,-4060.306139
253.838281,-4441.235652,-11177.109724,-3217.601092
253.838603,-4219.173869,-13397.727550,-1991.848295
253.838925,-4219.173869,-14434.015869,-1378.971896
253.839247,-4737.318029,-12953.603985,-1455.581446
253.839569,-4515.256246,-11177.109724,-1225.752797
253.839891,-3849.070898,-9918.759623,-3677.258390
253.840213,-1480.411884,-7994.224174,-5209.449386
253.840535,1406.391290,-6661.853478,-5362.668486
253.840856,3330.926739,-7476.080014,-3830.477490
253.841178,4441.235652,-9400.615463,-1225.752797
253.841500,4293.194464,-10214.842000,766.095498
253.841822,4441.235652,-9474.636058,766.095498
253.842144,4589.276840,-9918.759623,-1532.190996
253.842466,3997.112087,-11547.212695,-2987.772442
253.842788,2368.659014,-11473.192101,-2221.676944
253.843110,888.247130,-9770.718434,995.924147
253.843432,296.082377,-8216.285956,1991.848295
253.843754,0.000000,-6809.894666,919.314598
253.844076,-1332.370696,-5625.565159,-306.438199
253.844397,-3849.070898,-6217.729913,-2298.286494
253.844719,-6661.853478,-8290.306550,-2604.724693
253.845041,-6661.853478,-11547.212695,-1149.143247
253.845363,-6661.853478,-12287.418637,229.828649
253.845685,-5921.647536,-11325.150913,-536.266849
253.846007,-4959.379811,-9992.780217,-1991.848295
253.846329,-4219.173869,-10066.800811,-2145.067394
253.846651,-3627.009116,-9252.574275,-2604.724693
253.846973,-2960.823768,-7105.977043,-2451.505594
253.847295,-666.185348,-5477.523971,-2451.505594
253.847617,1776.494261,-6217.729913,-3064.381992
253.847938,2812.782580,-7846.182985,-2145.067394
253.848260,2960.823768,-8512.368333,-1149.143247
253.848582,3627.009116,-9474.636058,-766.095498
253.848904,3627.009116,-11177.109724,-689.485948
253.849226,2812.782580,-11473.192101,-689.485948
253.849548,1036.288319,-10510.924376,-536.266849
253.849870,74.020594,-9178.553681,-383.047749
253.850192,370.102971,-8512.368333,-612.876398
253.850514,0.000000,-7031.956449,-1608.800546
253.850836,-1036.288319,-6291.750507,-1991.848295
253.851158,-2664.741391,-7476.080014,-1838.629195
253.851479,-3849.070898,-10658.965565,-2145.067394
253.851801,-3108.864956,-13249.686362,-2451.505594
253.852123,-2590.720797,-15100.201217,-2757.943793
253.852445,-2664.741391,-14730.098246,-1685.410096
253.852767,-2812.782580,-12287.418637,-306.438199
253.853089,-1998.556043,-9548.656652,-995.924147
253.853411,0.000000,-8216.285956,-2911.162892
253.853733,3108.864956,-6957.935855,-4213.525239
253.854055,4515.256246,-6809.894666,-4673.182538
253.854377,4367.215058,-7846.182985,-2221.676944
253.854699,3923.091493,-8882.471304,1532.190996
253.855020,3701.029710,-9104.533087,1149.143247
253.855342,3701.029710,-9770.718434,-1608.800546
253.855664,3701.029710,-11473.192101,-2911.162892
253.855986,2146.597232,-11547.212695,-1762.019645
253.856308,0.000000,-9992.780217,229.828649
253.856630,-1036.288319,-8512.368333,2604.724693
253.856952,-1184.329507,-6883.915261,2145.067394
253.857274,-1628.453072,-5255.462188,-1149.143247
253.857596,-3256.906145,-5773.606348,-3600.648841
253.857918,-4885.359217,-8808.450710,-3064.381992
253.858240,-5625.565159,-11103.089130,-1685.410096
253.858561,-5033.400406,-11843.295072,-612.876398
253.858883,-3701.029710,-12879.583391,306.438199
253.859205,-2960.823768,-12361.439231,-459.657299
253.859527,-3256.906145,-11029.068536,-1149.143247
253.859849,-3182.885551,-8290.306550,-1149.143247
253.860171,-1258.350101,-6365.771101,-1838.629195
253.860493,888.247130,-5699.585753,-2604.724693
253.860815,2072.576638,-6809.894666,-1532.190996
253.861137,2738.761985,-7105.977043,536.266849
253.861459,3627.009116,-6883.915261,459.657299
253.861781,4959.379811,-8660.409521,-1149.143247
253.862102,5995.668130,-10732.986159,-3294.210641
253.862424,4885.359217,-10955.047942,-2145.067394
253.862746,2072.576638,-10066.800811,-459.657299
253.863068,370.102971,-9844.739029,1225.752797
253.863390,-296.082377,-9474.636058,995.924147
253.863712,-1332.370696,-6809.894666,-1455.581446
253.864034,-1628.453072,-6143.709319,-4366.744339
253.864356,-3701.029710,-8364.327145,-3447.429741
253.864678,-5033.400406,-9992.780217,-1991.848295
253.865000,-5699.585753,-10214.842000,-1838.629195
253.865322,-4293.194464,-11547.212695,-2221.676944
253.865643,-2664.741391,-13693.809927,-3294.210641
253.865965,-3701.029710,-14656.077652,-3907.087040
253.866287,-5033.400406,-12435.459826,-2145.067394
253.866609,-3478.967927,-9474.636058,-766.095498
253.866931,222.061783,-7328.038826,-2834.553343
253.867253,3552.988522,-6735.874072,-5362.668486
253.867575,4737.318029,-7254.018232,-3830.477490
253.867897,5181.441594,-8512.368333,-1072.533697
253.868219,5255.462188,-9474.636058,536.266849
253.868541,5403.503377,-11029.068536,153.219100
253.868862,5921.647536,-11843.295072,-1685.410096
253.869184,5181.441594,-11621.233289,-3370.820191
253.869506,2960.823768,-11103.089130,-1838.629195
253.869828,222.061783,-9918.759623,995.924147
253.870150,-1628.453072,-7920.203579,1762.019645
253.870472,-2664.741391,-5625.565159,0.000000
253.870794,-4071.132681,-5255.462188,-2604.724693
253.871116,-5625.565159,-8512.368333,-3447.429741
253.871438,-7179.997637,-10362.883188,-2221.676944
253.871760,-7772.162391,-10732.986159,-383.047749
253.872082,-6069.688724,-10955.047942,-153.219100
253.872403,-4737.318029,-11251.130318,-1762.019645
253.872725,-4737.318029,-11621.233289,-2604.724693
253.873047,-5181.441594,-10584.944971,-2145.067394
253.873369,-3701.029710,-7772.162391,-1532.190996
253.873691,-444.123565,-5403.503377,-1838.629195
253.874013,1850.514855,-5033.400406,-2068.457845
253.874335,2812.782580,-5625.565159,-1225.752797
253.874657,4145.153275,-7031.956449,-612.876398
253.874979,5403.503377,-8882.471304,-919.314598
253.875301,6735.874072,-11325.150913,-919.314598
253.875623,6587.832884,-11917.315666,-383.047749
253.875944,4663.297435,-10214.842000,-459.657299
253.876266,2368.659014,-9474.636058,153.219100
253.876588,740.205942,-9178.553681,306.438199
253.876910,148.041188,-7698.141797,-1225.752797
253.877232,-592.164754,-6439.791695,-2451.505594
253.877554,-1776.494261,-7328.038826,-2068.457845
253.877876,-4071.132681,-8882.471304,-1149.143247
253.878198,-4589.276840,-10362.883188,-995.924147
253.878520,-3849.070898,-11695.253884,-2068.457845
253.878842,-3256.906145,-13915.871710,-3217.601092
253.879164,-3849.070898,-14730.098246,-2528.115143
253.879485,-5033.400406,-12213.398043,-842.705048
253.879807,-4071.132681,-9622.677246,-919.314598
253.880129,-740.205942,-7772.162391,-2834.553343
253.880451,2442.679609,-6957.935855,-4826.401637
253.880773,3034.844362,-6587.832884,-3983.696590
253.881095,2886.803174,-7254.018232,-536.266849
253.881417,2664.741391,-8142.265362,1455.581446
253.881739,3627.009116,-10288.862594,0.000000
253.882061,4293.194464,-11399.171507,-2757.943793
253.882383,3552.988522,-11917.315666,-2911.162892
253.882705,1850.514855,-11251.130318,-612.876398
253.883026,148.041188,-9770.718434,1685.410096
253.883348,-814.226536,-7846.182985,1762.019645
253.883670,-888.247130,-6217.729913,0.000000
253.883992,-1924.535449,-6513.812290,-1838.629195
253.884314,-3627.009116,-8438.347739,-2221.676944
253.884636,-5033.400406,-9400.615463,-1149.143247
253.884958,-5773.606348,-9992.780217,-459.657299
253.885280,-4885.359217,-10584.944971,-153.219100
253.885602,-4219.173869,-11843.295072,-689.485948
253.885924,-4663.297435,-11399.171507,-1838.629195
253.886246,-4515.256246,-10658.965565,-2604.724693
253.886567,-3701.029710,-9400.615463,-1608.800546
253.886889,-962.267725,-7476.080014,-1072.533697
253.887211,740.205942,-6439.791695,-1762.019645
253.887533,1554.432478,-5921.647536,-1685.410096
253.887855,2664.741391,-6069.688724,-1378.971896
253.888177,4071.132681,-7254.018232,-2298.286494
253.888499,4885.359217,-9918.759623,-2681.334243
253.888821,4737.318029,-11621.233289,-1225.752797
253.889143,3627.009116,-11473.192101,-306.438199
253.889465,1776.494261,-10732.986159,0.000000
253.889787,1184.329507,-10214.842000,229.828649
253.890108,444.123565,-7328.038826,-1378.971896
253.890430,74.020594,-6587.832884,-3064.381992
253.890752,-1036.288319,-7105.977043,-2604.724693
253.891074,-2738.761985,-8586.388927,-995.924147
253.891396,-3849.070898,-9104.533087,-689.485948
253.891718,-3330.926739,-10066.800811,-2068.457845
253.892040,-2368.659014,-12435.459826,-3294.210641
253.892362,-2368.659014,-15248.242405,-3677.258390
253.892684,-3775.050304,-14211.954086,-1378.971896
253.893006,-4071.132681,-10955.047942,0.000000
253.893328,-1110.308913,-9104.533087,-1608.800546
253.893649,2590.720797,-7846.182985,-3753.867940
253.893971,4663.297435,-6439.791695,-4979.620737
253.894293,4293.194464,-6735.874072,-3217.601092
253.894615,4219.173869,-8660.409521,76.609550
253.894937,4737.318029,-9104.533087,1608.800546
253.895259,5107.421000,-9844.739029,-1225.752797
253.895581,4441.235652,-11177.109724,-3370.820191
253.895903,3627.009116,-11917.315666,-2298.286494
253.896225,1480.411884,-11399.171507,0.000000
253.896547,-1184.329507,-9326.594869,1608.800546
253.896869,-2220.617826,-7402.059420,1762.019645
253.897190,-2442.679609,-5551.544565,-306.438199
253.897512,-3182.885551,-6587.832884,-3140.991542
253.897834,-5255.462188,-8808.450710,-3600.648841
253.898156,-6735.874072,-9474.636058,-1225.752797
253.898478,-6661.853478,-10066.800811,76.609550
253.898800,-5625.565159,-11177.109724,-229.828649
253.899122,-5255.462188,-11621.233289,-1762.019645
253.899444,-5403.503377,-11843.295072,-3064.381992
253.899766,-5107.421000,-10955.047942,-2374.896044
253.900088,-2960.823768,-8364.327145,-919.314598
253.900410,-296.082377,-6069.688724,-1378.971896
253.900731,1702.473667,-5699.585753,-1532.190996
253.901053,3256.906145,-6069.688724,-1455.581446
253.901375,4589.276840,-7031.956449,-1991.848295
253.901697,6143.709319,-9030.512492,-2451.505594
253.902019,6809.894666,-11251.130318,-842.705048
253.902341,5403.503377,-11621.233289,153.219100
253.902663,2886.803174,-10436.903782,612.876398
253.902985,1036.288319,-10066.800811,995.924147
253.903307,148.041188,-9548.656652,-536.266849
253.903629,-518.144159,-7254.018232,-2681.334243
253.903951,-962.267725,-6513.812290,-2451.505594
253.904272,-2368.659014,-7402.059420,-995.924147
253.904594,-3404.947333,-9400.615463,-612.876398
253.904916,-4293.194464,-9400.615463,-1225.752797
253.905238,-4145.153275,-10584.944971,-2987.772442
253.905560,-3849.070898,-14359.995275,-4519.963438
253.905882,-4589.276840,-15248.242405,-3447.429741
253.906204,-5107.421000,-12139.377449,-2451.505594
253.906526,-3256.906145,-9770.718434,-2068.457845
253.906848,1184.329507,-8734.430116,-2834.553343
253.907170,4589.276840,-7328.038826,-4443.353888
253.907492,4737.318029,-5329.482782,-4596.572988
253.907813,4219.173869,-7920.203579,-1455.581446
253.908135,4737.318029,-9474.636058,1532.190996
253.908457,5255.462188,-9844.739029,-306.438199
253.908779,5255.462188,-11325.150913,-2987.772442
253.909101,5033.400406,-11177.109724,-1685.410096
253.909423,3330.926739,-10510.924376,-383.047749
253.909745,518.144159,-8808.450710,1149.143247
253.910067,-1110.308913,-7476.080014,2068.457845
253.910389,-1332.370696,-6513.812290,842.705048
253.910711,-1628.453072,-6883.915261,-2221.676944
253.911033,-4219.173869,-8364.327145,-3447.429741
253.911354,-6735.874072,-10214.842000,-1302.362347
253.911676,-7772.162391,-10362.883188,-229.828649
253.911998,-7254.018232,-10584.944971,-842.705048
253.912320,-6069.688724,-12435.459826,-2451.505594
253.912642,-6217.729913,-12805.562797,-2757.943793
253.912964,-6143.709319,-11547.212695,-2068.457845
253.913286,-4293.194464,-8660.409521,-1225.752797
253.913608,-222.061783,-6513.812290,-1838.629195
253.913930,2886.803174,-5625.565159,-2681.334243
253.914252,3256.906145,-5477.523971,-1608.800546
253.914574,4293.194464,-7031.956449,-842.705048
253.914895,4885.359217,-8882.471304,-919.314598
253.915217,5551.544565,-10436.903782,-1225.752797
253.915539,4959.379811,-11473.192101,-306.438199
253.915861,2738.761985,-10288.862594,229.828649
253.916183,814.226536,-10288.862594,842.705048
253.916505,-222.061783,-9844.739029,766.095498
253.916827,0.000000,-7254.018232,-995.924147
253.917149,-296.082377,-5403.503377,-2145.067394
253.917471,-1036.288319,-6661.853478,-1225.752797
253.917793,-2738.761985,-8734.430116,-306.438199
253.918114,-3997.112087,-10140.821405,-1302.362347
253.918436,-4071.132681,-10658.965565,-2068.457845
253.918758,-4515.256246,-13027.624579,-2834.553343
253.919080,-5699.585753,-14582.057057,-2834.553343
253.919402,-6661.853478,-12731.542202,-2451.505594
253.919724,-5329.482782,-9548.656652,-2374.896044
253.920046,-1850.514855,-8734.430116,-3294.210641
253.920368,1924.535449,-7994.224174,-4060.306139
253.920690,4071.132681,-6365.771101,-3983.696590
253.921012,4663.297435,-6291.750507,-2911.162892
253.921334,4959.379811,-9548.656652,-383.047749
253.921655,5107.421000,-11843.295072,612.876398
253.921977,4219.173869,-10732.986159,-612.876398
253.922299,3256.906145,-9770.718434,-1608.800546
253.922621,3182.885551,-10288.862594,-995.924147
253.922943,2812.782580,-9844.739029,-153.219100
253.923265,1184.329507,-8290.306550,1072.533697
253.923587,74.020594,-7105.977043,1608.800546
253.923909,-740.205942,-6809.894666,919.314598
253.924231,-2072.576638,-7105.977043,-766.095498
253.924553,-4441.235652,-8216.285956,-2681.334243
253.924875,-5477.523971,-10436.903782,-2757.943793
253.925196,-5699.585753,-12509.480420,-1302.362347
253.925518,-5921.647536,-12879.583391,-689.485948
253.925840,-6217.729913,-11695.253884,-1072.533697
253.926162,-5403.503377,-10288.862594,-2451.505594
253.926484,-3923.091493,-9770.718434,-3370.820191
253.926806,-2812.782580,-8586.388927,-3370.820191
253.927128,-962.267725,-6883.915261,-2757.943793
253.927450,1184.329507,-6143.709319,-2834.553343
253.927772,3034.844362,-7624.121203,-2374.896044
253.928094,3923.091493,-8068.244768,-536.266849
253.928416,4737.318029,-7846.182985,-536.266849
253.928737,5551.544565,-9178.553681,-1762.019645
253.929059,5847.626942,-10362.883188,-1838.629195
253.929381,4663.297435,-10658.965565,-536.266849
253.929703,1998.556043,-8956.491898,229.828649
253.930025,592.164754,-8808.450710,1072.533697
253.930347,592.164754,-8068.244768,0.000000
253.930669,148.041188,-6883.915261,-2298.286494
253.930991,-1480.411884,-7772.162391,-3140.991542
253.931313,-3552.988522,-10066.800811,-1608.800546
253.931635,-3923.091493,-11621.233289,0.000000
253.931957,-3775.050304,-12287.418637,-1378.971896
253.932278,-3330.926739,-13249.686362,-2911.162892
253.932600,-3182.885551,-13249.686362,-2834.553343
253.932922,-3404.947333,-11325.150913,-2298.286494
253.933244,-2886.803174,-9178.553681,-2068.457845
253.933566,-222.061783,-7624.121203,-2451.505594
253.933888,3034.844362,-7031.956449,-3447.429741
253.934210,3923.091493,-7031.956449,-4136.915689
253.934532,3775.050304,-8734.430116,-1608.800546
253.934853,3627.009116,-10066.800811,459.657299
253.935175,4219.173869,-10140.821405,-459.657299
253.935497,4663.297435,-10807.006753,-2221.676944
253.935819,4071.132681,-10881.027347,-1915.238745
253.936141,2220.617826,-10140.821405,-919.314598
253.936463,-518.144159,-9104.533087,459.657299
253.936785,-666.185348,-8438.347739,842.705048
253.937107,-1628.453072,-6439.791695,0.000000
253.937429,-2960.823768,-6439.791695,-1685.410096
253.937750,-5403.503377,-8216.285956,-1915.238745
