#time,accel_x,accel_y,accel_z
431.134847,0.000000,-9400.615463,-1378.971896
431.135169,-296.082377,-9326.594869,-1378.971896
431.135491,-148.041188,-9252.574275,-919.314598
431.135813,-222.061783,-9622.677246,-1225.752797
431.136135,-148.041188,-9474.636058,-1225.752797
431.136457,-296.082377,-9400.615463,-1378.971896
431.136779,-222.061783,-9400.615463,-1302.362347
431.137100,-148.041188,-9326.594869,-1225.752797
431.137422,0.000000,-9178.553681,-995.924147
431.137744,-444.123565,-9400.615463,-1225.752797
431.138066,-444.123565,-9400.615463,-1532.190996
431.138388,-592.164754,-9326.594869,-1302.362347
431.138710,-666.185348,-9400.615463,-1302.362347
431.139032,-444.123565,-9400.615463,-1302.362347
431.139354,-740.205942,-9030.512492,-919.314598
431.139675,-444.123565,-9326.594869,-1149.143247
431.139997,-592.164754,-9252.574275,-1532.190996
431.140319,-666.185348,-9178.553681,-1302.362347
431.140641,-666.185348,-9474.636058,-1762.019645
431.140963,-888.247130,-9252.574275,-995.924147
431.141285,-592.164754,-9474.636058,-1149.143247
431.141607,-518.144159,-9474.636058,-1225.752797
431.141929,-592.164754,-9474.636058,-1532.190996
431.142251,-592.164754,-9474.636058,-1532.190996
431.142572,-666.185348,-9030.512492,-1455.581446
431.142894,-444.123565,-9548.656652,-1378.971896
431.143216,-592.164754,-9326.594869,-1149.143247
431.143538,-370.102971,-9400.615463,-1378.971896
431.143860,-296.082377,-9474.636058,-1378.971896
431.144182,-518.144159,-9326.594869,-1302.362347
431.144504,-222.061783,-9104.533087,-1915.238745
431.144826,-222.061783,-9474.636058,-1532.190996
431.145148,-444.123565,-9178.553681,-1762.019645
431.145469,-222.061783,-9400.615463,-1378.971896
431.145791,-148.041188,-9474.636058,-1455.581446
431.146113,-222.061783,-9474.636058,-1455.581446
431.146435,-222.061783,-9474.636058,-1838.629195
431.146757,-444.123565,-9474.636058,-1532.190996
431.147079,-148.041188,-9622.677246,-1608.800546
431.147401,-370.102971,-9400.615463,-1455.581446
431.147723,-222.061783,-9252.574275,-995.924147
431.148045,74.020594,-9400.615463,-1838.629195
431.148366,0.000000,-9326.594869,-1608.800546
431.148688,-148.041188,-9474.636058,-1532.190996
431.149010,-148.041188,-9400.615463,-1378.971896
431.149332,0.000000,-9400.615463,-1762.019645
431.149654,-148.041188,-9474.636058,-1455.581446
431.149976,-148.041188,-9622.677246,-1532.190996
431.150298,-148.041188,-9474.636058,-1532.190996
431.150620,0.000000,-9400.615463,-1608.800546
431.150942,-148.041188,-9178.553681,-1532.190996
431.151263,148.041188,-9400.615463,-1455.581446
431.151585,0.000000,-9326.594869,-1838.629195
431.151907,-296.082377,-9474.636058,-1532.190996
431.152229,-518.144159,-9474.636058,-1608.800546
431.152551,-444.123565,-9622.677246,-1532.190996
431.152873,-222.061783,-9400.615463,-1838.629195
431.153195,-370.102971,-9474.636058,-1991.848295
431.153517,-222.061783,-9178.553681,-1455.581446
431.153839,-518.144159,-9104.533087,-1608.800546
431.154160,-370.102971,-9252.574275,-1762.019645
431.154482,-592.164754,-9400.615463,-1685.410096
431.154804,-1406.391290,-9178.553681,-1072.533697
431.155126,-962.267725,-9474.636058,-1532.190996
431.155448,-740.205942,-9474.636058,-1302.362347
431.155770,-814.226536,-9104.533087,-1149.143247
431.156092,-592.164754,-9252.574275,-1455.581446
431.156414,222.061783,-9252.574275,-1225.752797
431.156736,888.247130,-9474.636058,-1532.190996
431.157057,1110.308913,-10066.800811,-1072.533697
431.157379,592.164754,-9696.697840,-536.266849
431.157701,0.000000,-9400.615463,-383.047749
431.158023,-518.144159,-8956.491898,-383.047749
431.158345,-296.082377,-9252.574275,-1685.410096
431.158667,-1184.329507,-8956.491898,-1532.190996
431.158989,-1258.350101,-8438.347739,-1302.362347
431.159311,-444.123565,-8882.471304,-1762.019645
431.159633,222.061783,-9770.718434,-1378.971896
431.159954,222.061783,-9918.759623,-306.438199
431.160276,0.000000,-9770.718434,-536.266849
431.160598,74.020594,-9252.574275,-1378.971896
431.160920,1332.370696,-10066.800811,-1915.238745
431.161242,1628.453072,-10214.842000,-1838.629195
431.161564,1184.329507,-9030.512492,-153.219100
431.161886,2072.576638,-8586.388927,0.000000
431.162208,3330.926739,-9400.615463,-1225.752797
431.162530,4071.132681,-9622.677246,-766.095498
431.162851,3182.885551,-8956.491898,0.000000
431.163173,2516.700203,-8068.244768,0.000000
431.163495,2960.823768,-8290.306550,0.000000
431.163817,3478.967927,-9252.574275,-1072.533697
431.164139,2516.700203,-9252.574275,-919.314598
431.164461,2368.659014,-8364.327145,-1072.533697
431.164783,3182.885551,-8216.285956,-2221.676944
431.165105,4293.194464,-9992.780217,-2068.457845
431.165427,4219.173869,-10732.986159,-1838.629195
431.165748,3849.070898,-9696.697840,-1762.019645
431.166070,4071.132681,-9918.759623,-2298.286494
431.166392,4663.297435,-11177.109724,-1915.238745
431.166714,4663.297435,-10510.924376,-2145.067394
431.167036,3701.029710,-9696.697840,-1838.629195
431.167358,3849.070898,-9400.615463,-1532.190996
431.167680,4219.173869,-9400.615463,-1149.143247
431.168002,4959.379811,-8734.430116,-2451.505594
431.168323,5477.523971,-8586.388927,-2451.505594
431.168645,5921.647536,-8882.471304,-1378.971896
431.168967,6365.771101,-9326.594869,-1225.752797
431.169289,6439.791695,-9400.615463,-1302.362347
431.169611,6291.750507,-9474.636058,-1532.190996
431.169933,4959.379811,-9474.636058,-1915.238745
431.170255,3478.967927,-9992.780217,-2298.286494
431.170577,1110.308913,-10140.821405,-2528.115143
431.170899,148.041188,-11547.212695,-2451.505594
431.171220,-296.082377,-12361.439231,-1608.800546
431.171542,-740.205942,-12953.603985,-612.876398
431.171864,-666.185348,-12509.480420,536.266849
431.172186,74.020594,-11917.315666,1302.362347
431.172508,962.267725,-10288.862594,1455.581446
431.172830,888.247130,-8586.388927,1072.533697
431.173152,0.000000,-6365.771101,1072.533697
431.173474,-1110.308913,-4663.297435,0.000000
431.173796,-1480.411884,-3849.070898,-1532.190996
431.174117,-740.205942,-4515.256246,-2757.943793
431.174439,1110.308913,-5329.482782,-3447.429741
431.174761,3478.967927,-6365.771101,-4060.306139
431.175083,5551.544565,-7994.224174,-4136.915689
431.175405,6735.874072,-10214.842000,-3140.991542
431.175727,6513.812290,-12213.398043,-2757.943793
431.176049,5551.544565,-13767.830521,-3217.601092
431.176371,5033.400406,-14656.077652,-3140.991542
431.176693,4441.235652,-14285.974681,-2374.896044
431.177014,3182.885551,-13323.706956,-229.828649
431.177336,1776.494261,-11473.192101,2374.896044
431.177658,814.226536,-9770.718434,3600.648841
431.177980,1480.411884,-7476.080014,3447.429741
431.178302,1554.432478,-5477.523971,2987.772442
431.178624,518.144159,-3923.091493,2987.772442
431.178946,370.102971,-3182.885551,2681.334243
431.179268,0.000000,-4293.194464,383.047749
431.179590,222.061783,-6883.915261,-1302.362347
431.179911,0.000000,-8216.285956,-1915.238745
431.180233,-222.061783,-9474.636058,-3370.820191
431.180555,74.020594,-11843.295072,-5439.278036
431.180877,1554.432478,-15322.262999,-5669.106685
431.181199,1702.473667,-16580.613101,-4903.011187
431.181521,1406.391290,-16876.695478,-4673.182538
431.181843,962.267725,-14952.160028,-3140.991542
431.182165,1628.453072,-11399.171507,-2681.334243
431.182487,3478.967927,-8734.430116,-3140.991542
431.182808,4885.359217,-7624.121203,-1838.629195
431.183130,5773.606348,-7105.977043,536.266849
431.183452,6365.771101,-7179.997637,2757.943793
431.183774,7105.977043,-6587.832884,4366.744339
431.184096,8512.368333,-4663.297435,3753.867940
431.184418,9326.594869,-4441.235652,2068.457845
431.184740,7105.977043,-5181.441594,2298.286494
431.185062,4219.173869,-4145.153275,3294.210641
431.185384,2960.823768,-5625.565159,-995.924147
431.185705,2960.823768,-9178.553681,-4596.572988
431.186027,1332.370696,-10881.027347,-3600.648841
431.186349,-296.082377,-11843.295072,-3447.429741
431.186671,-1554.432478,-15840.407159,-3830.477490
431.186993,-2368.659014,-17542.880825,-3447.429741
431.187315,-3404.947333,-14211.954086,-3830.477490
431.187637,-2886.803174,-9178.553681,-6128.763984
431.187959,-148.041188,-9474.636058,-6052.154434
431.188281,2368.659014,-9992.780217,-4979.620737
431.188602,3923.091493,-9474.636058,-3294.210641
431.188924,5773.606348,-8956.491898,0.000000
431.189246,8512.368333,-9252.574275,1302.362347
431.189568,9696.697840,-9918.759623,459.657299
431.189890,8364.327145,-8438.347739,383.047749
431.190212,6217.729913,-7105.977043,766.095498
431.190534,4737.318029,-7254.018232,766.095498
431.190856,3404.947333,-8142.265362,306.438199
431.191178,1110.308913,-8364.327145,153.219100
431.191499,-1110.308913,-9474.636058,229.828649
431.191821,-2738.761985,-10140.821405,612.876398
431.192143,-2442.679609,-11399.171507,-383.047749
431.192465,-1702.473667,-10362.883188,-2604.724693
431.192787,-370.102971,-9474.636058,-2757.943793
431.193109,814.226536,-9252.574275,-1302.362347
431.193431,2220.617826,-9400.615463,-2451.505594
431.193753,3627.009116,-8882.471304,-3830.477490
431.194075,4737.318029,-9474.636058,-3677.258390
431.194396,5107.421000,-10362.883188,-2145.067394
431.194718,4737.318029,-9770.718434,-1072.533697
431.195040,3627.009116,-8956.491898,-1455.581446
431.195362,2738.761985,-8364.327145,-842.705048
431.195684,2220.617826,-7476.080014,-919.314598
431.196006,1628.453072,-7105.977043,-1762.019645
431.196328,1480.411884,-8290.306550,-2987.772442
431.196650,444.123565,-10362.883188,-1532.190996
431.196971,-666.185348,-9400.615463,2451.505594
431.197293,-592.164754,-7624.121203,2834.553343
431.197615,518.144159,-9400.615463,-383.047749
431.197937,2886.803174,-11399.171507,-2604.724693
431.198259,3034.844362,-12657.521608,-2451.505594
431.198581,2886.803174,-13249.686362,-306.438199
431.198903,3627.009116,-13397.727550,2451.505594
431.199225,4811.338623,-12139.377449,1608.800546
431.199547,5403.503377,-9252.574275,-612.876398
431.199868,6439.791695,-7179.997637,-2221.676944
431.200190,7550.100608,-8586.388927,-2374.896044
431.200512,8364.327145,-9770.718434,-3294.210641
431.200834,9400.615463,-9030.512492,-306.438199
431.201156,8808.450710,-6809.894666,1915.238745
431.201478,6809.894666,-5773.606348,2374.896044
431.201800,5033.400406,-5847.626942,1072.533697
431.202122,592.164754,-3923.091493,-1608.800546
431.202444,-3330.926739,-3923.091493,-3983.696590
431.202765,-4589.276840,-7624.121203,-4366.744339
431.203087,-3627.009116,-12287.418637,-3753.867940
431.203409,-2368.659014,-11769.274478,-3600.648841
431.203731,-740.205942,-11917.315666,-2604.724693
431.204053,444.123565,-12583.501014,-229.828649
431.204375,0.000000,-12287.418637,-1225.752797
431.204696,-1628.453072,-11473.192101,-3677.258390
431.205018,74.020594,-10732.986159,-4826.401637
431.205340,2368.659014,-12139.377449,-4596.572988
431.205662,4589.276840,-13767.830521,-2068.457845
431.205984,6957.935855,-13545.768739,919.314598
431.206305,9252.574275,-10807.006753,3140.991542
431.206627,11547.212695,-7772.162391,2604.724693
431.206949,11695.253884,-6661.853478,3140.991542
431.207271,10436.903782,-5921.647536,842.705048
431.207593,8808.450710,-5625.565159,-1838.629195
431.207915,7624.121203,-6439.791695,-1072.533697
431.208236,5107.421000,-7105.977043,842.705048
431.208558,1258.350101,-6957.935855,689.485948
431.208880,-1406.391290,-7105.977043,76.609550
431.209202,-2664.741391,-7550.100608,-2604.724693
431.209524,-3256.906145,-9548.656652,-5439.278036
431.209846,-5107.421000,-11769.274478,-6052.154434
431.210167,-7328.038826,-12583.501014,-4136.915689
431.210489,-9400.615463,-12583.501014,-1915.238745
431.210811,-9030.512492,-11843.295072,-3753.867940
431.211133,-7920.203579,-12583.501014,-6128.763984
431.211455,-6809.894666,-13767.830521,-5898.935335
431.211777,-4737.318029,-12435.459826,-2911.162892
431.212098,-962.267725,-10955.047942,-153.219100
431.212420,3552.988522,-8290.306550,1072.533697
431.212742,7994.224174,-5255.462188,1532.190996
431.213064,9844.739029,-3478.967927,1225.752797
431.213386,9326.594869,-2664.741391,1072.533697
431.213708,8142.265362,-3627.009116,1455.581446
431.214029,7402.059420,-6661.853478,1225.752797
431.214351,7031.956449,-9474.636058,76.609550
431.214673,6365.771101,-10584.944971,-536.266849
431.214995,4515.256246,-10214.842000,-1149.143247
431.215317,2960.823768,-10881.027347,-1532.190996
431.215639,1628.453072,-11917.315666,-1838.629195
431.215960,-1110.308913,-11843.295072,-2451.505594
431.216282,-3627.009116,-11177.109724,-3370.820191
431.216604,-5403.503377,-11991.336260,-2757.943793
431.216926,-4737.318029,-13471.748144,-2451.505594
431.217248,-3256.906145,-12583.501014,-2451.505594
431.217570,-2368.659014,-10584.944971,-1608.800546
431.217891,-2072.576638,-9252.574275,689.485948
431.218213,-1924.535449,-7846.182985,1072.533697
431.218535,-962.267725,-6069.688724,-1378.971896
431.218857,296.082377,-5699.585753,-3370.820191
431.219179,1258.350101,-6883.915261,-1225.752797
431.219501,1036.288319,-6439.791695,383.047749
431.219822,222.061783,-5477.523971,-689.485948
431.220144,148.041188,-6809.894666,-2451.505594
431.220466,296.082377,-9400.615463,-3983.696590
431.220788,-518.144159,-11473.192101,-3983.696590
431.221110,-444.123565,-13693.809927,-2604.724693
431.221432,-222.061783,-13989.892304,-1302.362347
431.221753,1258.350101,-13767.830521,-1378.971896
431.222075,2812.782580,-13397.727550,-995.924147
431.222397,3923.091493,-11917.315666,76.609550
431.222719,4071.132681,-9696.697840,0.000000
431.223041,2812.782580,-8956.491898,76.609550
431.223363,2664.741391,-8216.285956,2298.286494
431.223684,2590.720797,-7031.956449,2604.724693
431.224006,2960.823768,-5477.523971,0.000000
431.224328,3404.947333,-6069.688724,-995.924147
431.224650,740.205942,-5255.462188,229.828649
431.224972,-3330.926739,-4515.256246,459.657299
431.225293,-7105.977043,-6069.688724,-1225.752797
431.225615,-9178.553681,-10066.800811,-3983.696590
431.225937,-10436.903782,-11917.315666,-6281.983084
431.226259,-10881.027347,-10066.800811,-5745.716235
431.226581,-9918.759623,-11103.089130,-4903.011187
431.226903,-6513.812290,-14063.912898,-3983.696590
431.227224,-3775.050304,-12805.562797,-3677.258390
431.227546,-2146.597232,-10807.006753,-3064.381992
431.227868,1258.350101,-10955.047942,-1915.238745
431.228190,3701.029710,-10807.006753,-1685.410096
431.228512,4811.338623,-9252.574275,-2681.334243
431.228834,5625.565159,-7179.997637,-766.095498
431.229155,7179.997637,-7179.997637,2374.896044
431.229477,7994.224174,-6735.874072,2374.896044
431.229799,6587.832884,-5551.544565,1838.629195
431.230121,3997.112087,-6439.791695,1838.629195
431.230443,1332.370696,-7846.182985,612.876398
431.230765,-1332.370696,-8438.347739,-1762.019645
431.231086,-2442.679609,-9844.739029,-2604.724693
431.231408,-2146.597232,-11177.109724,-2757.943793
431.231730,-1332.370696,-11991.336260,-2604.724693
431.232052,-1110.308913,-12731.542202,-2757.943793
431.232374,-1776.494261,-13545.768739,-1378.971896
431.232696,-1776.494261,-12731.542202,-1149.143247
431.233017,-1702.473667,-10584.944971,-3830.477490
431.233339,-148.041188,-9400.615463,-5745.716235
431.233661,962.267725,-9696.697840,-4519.963438
431.233983,888.247130,-9696.697840,-2145.067394
431.234305,-296.082377,-7920.203579,-766.095498
431.234627,-370.102971,-7698.141797,-306.438199
431.234948,-1850.514855,-8438.347739,-766.095498
431.235270,-3330.926739,-8512.368333,-1532.190996
431.235592,-5551.544565,-7476.080014,-1225.752797
431.235914,-5181.441594,-6883.915261,-536.266849
431.236236,-3256.906145,-8290.306550,-536.266849
431.236558,-1924.535449,-8512.368333,766.095498
431.236879,-1036.288319,-9104.533087,459.657299
431.237201,1036.288319,-9326.594869,0.000000
431.237523,3108.864956,-10881.027347,-995.924147
431.237845,4367.215058,-11843.295072,-612.876398
431.238167,5255.462188,-10584.944971,153.219100
431.238489,5551.544565,-9770.718434,-689.485948
431.238810,6513.812290,-10955.047942,-1149.143247
431.239132,6069.688724,-10807.006753,-612.876398
431.239454,4663.297435,-8512.368333,-229.828649
431.239776,2516.700203,-7031.956449,-383.047749
431.240098,740.205942,-7402.059420,-612.876398
431.240420,-2146.597232,-7772.162391,-1455.581446
431.240741,-4811.338623,-6735.874072,-1225.752797
431.241063,-6365.771101,-7031.956449,-995.924147
431.241385,-5995.668130,-9178.553681,-2451.505594
431.241707,-5551.544565,-10510.924376,-2145.067394
431.242029,-6143.709319,-10288.862594,-1838.629195
431.242351,-5625.565159,-10436.903782,0.000000
431.242672,-3256.906145,-9844.739029,-306.438199
431.242994,-962.267725,-8512.368333,-2911.162892
431.243316,814.226536,-8512.368333,-4136.915689
431.243638,2886.803174,-10214.842000,-3447.429741
431.243960,4219.173869,-10807.006753,-1915.238745
431.244281,3775.050304,-10140.821405,-1608.800546
431.244603,2664.741391,-10140.821405,-612.876398
431.244925,1628.453072,-9992.780217,-1608.800546
431.245247,-1110.308913,-9696.697840,-2374.896044
431.245569,-3108.864956,-9918.759623,-2681.334243
431.245891,-3552.988522,-10066.800811,-1991.848295
431.246212,-2442.679609,-9918.759623,-1991.848295
431.246534,-1480.411884,-10288.862594,-306.438199
431.246856,-1554.432478,-8808.450710,1149.143247
431.247178,-740.205942,-7920.203579,689.485948
431.247500,296.082377,-7994.224174,-842.705048
431.247822,592.164754,-9178.553681,-1302.362347
431.248143,0.000000,-8734.430116,-1378.971896
431.248465,-222.061783,-8660.409521,-2068.457845
431.248787,-222.061783,-10288.862594,-2757.943793
431.249109,-592.164754,-10732.986159,-1685.410096
431.249431,-1184.329507,-10140.821405,-2221.676944
431.249753,-1924.535449,-9400.615463,-3294.210641
431.250074,-2738.761985,-9622.677246,-2681.334243
431.250396,-3701.029710,-9326.594869,-1072.533697
431.250718,-4959.379811,-8586.388927,-2221.676944
431.251040,-3627.009116,-8956.491898,-2834.553343
431.251362,-1628.453072,-9844.739029,-2451.505594
431.251684,-444.123565,-9400.615463,-1225.752797
431.252005,888.247130,-8364.327145,612.876398
431.252327,1924.535449,-6957.935855,1455.581446
431.252649,3182.885551,-7920.203579,0.000000
431.252971,3701.029710,-7994.224174,-536.266849
431.253293,3627.009116,-8364.327145,-766.095498
431.253615,3256.906145,-8882.471304,-383.047749
431.253936,3256.906145,-9474.636058,-1072.533697
431.254258,1924.535449,-8808.450710,-612.876398
431.254580,1110.308913,-8956.491898,-2374.896044
431.254902,0.000000,-9252.574275,-3524.039291
431.255224,-1258.350101,-10732.986159,-3217.601092
431.255546,-2738.761985,-11991.336260,-2528.115143
431.255867,-2368.659014,-12139.377449,-2757.943793
431.256189,-1628.453072,-13175.665768,-2834.553343
431.256511,-1184.329507,-13101.645173,-1302.362347
431.256833,-1332.370696,-11177.109724,0.000000
431.257155,-518.144159,-8586.388927,-1072.533697
431.257477,1406.391290,-9400.615463,-2145.067394
431.257798,1702.473667,-9770.718434,-1072.533697
431.258120,1036.288319,-8734.430116,-153.219100
431.258442,814.226536,-7846.182985,459.657299
431.258764,1850.514855,-8142.265362,536.266849
431.259086,1924.535449,-8142.265362,-919.314598
431.259408,-148.041188,-7476.080014,-1685.410096
431.259729,-2220.617826,-8586.388927,-383.047749
431.260051,-3404.947333,-9622.677246,-536.266849
431.260373,-4589.276840,-9548.656652,-1915.238745
431.260695,-4737.318029,-9622.677246,-2451.505594
431.261017,-3627.009116,-11029.068536,-1991.848295
431.261339,-1850.514855,-10584.944971,-2451.505594
431.261660,-592.164754,-9622.677246,-1838.629195
431.261982,0.000000,-9474.636058,153.219100
431.262304,592.164754,-8808.450710,689.485948
431.262626,1406.391290,-7550.100608,-1302.362347
431.262948,1998.556043,-7105.977043,-2757.943793
431.263269,3108.864956,-8586.388927,-1991.848295
431.263591,2590.720797,-9548.656652,-612.876398
431.263913,1332.370696,-8660.409521,919.314598
431.264235,148.041188,-8586.388927,1455.581446
431.264557,-666.185348,-8808.450710,0.000000
431.264879,-2146.597232,-8290.306550,-1838.629195
431.265200,-3627.009116,-7328.038826,-1915.238745
431.265522,-3775.050304,-7624.121203,-1838.629195
431.265844,-2442.679609,-8734.430116,-1608.800546
431.266166,-1554.432478,-9548.656652,-459.657299
431.266488,-1998.556043,-10066.800811,229.828649
431.266810,-2294.638420,-10066.800811,-306.438199
431.267131,-1554.432478,-10288.862594,-2451.505594
431.267453,-1036.288319,-10584.944971,-4060.306139
431.267775,-444.123565,-10140.821405,-3447.429741
431.268097,814.226536,-9474.636058,-2451.505594
431.268419,1776.494261,-9400.615463,-1991.848295
431.268741,2220.617826,-9400.615463,-2298.286494
431.269062,1184.329507,-9474.636058,-3064.381992
431.269384,0.000000,-10807.006753,-4060.306139
431.269706,-2516.700203,-11251.130318,-2528.115143
431.270028,-3330.926739,-11843.295072,-1762.019645
431.270350,-3552.988522,-11029.068536,-1608.800546
431.270672,-2664.741391,-10584.944971,-1072.533697
431.270993,-1258.350101,-9400.615463,-689.485948
431.271315,296.082377,-8586.388927,-995.924147
431.271637,1628.453072,-8142.265362,-995.924147
431.271959,1554.432478,-7476.080014,-842.705048
431.272281,1924.535449,-8068.244768,-459.657299
431.272603,2220.617826,-8956.491898,-612.876398
431.272924,3182.885551,-10066.800811,-1838.629195
431.273246,2442.679609,-11621.233289,-2298.286494
431.273568,1480.411884,-11251.130318,-1532.190996
431.273890,592.164754,-9696.697840,-1302.362347
431.274212,0.000000,-9474.636058,-1608.800546
431.274534,-1110.308913,-9252.574275,-2451.505594
431.274855,-3034.844362,-8068.244768,-995.924147
431.275177,-3627.009116,-8364.327145,-1302.362347
431.275499,-2738.761985,-9030.512492,-1608.800546
431.275821,-1480.411884,-9104.533087,-1532.190996
431.276143,-1258.350101,-7402.059420,0.000000
431.276465,-962.267725,-6661.853478,1532.190996
431.276786,-592.164754,-6957.935855,1149.143247
431.277108,0.000000,-7179.997637,-1455.581446
431.277430,0.000000,-7846.182985,-2374.896044
431.277752,1258.350101,-9252.574275,-689.485948
431.278074,2368.659014,-10066.800811,-306.438199
431.278396,3478.967927,-9622.677246,-919.314598
431.278717,3404.947333,-8956.491898,-1225.752797
431.279039,2516.700203,-9696.697840,-1838.629195
431.279361,1036.288319,-11103.089130,-2528.115143
431.279683,-1406.391290,-10881.027347,-2757.943793
431.280005,-2960.823768,-10140.821405,-1915.238745
431.280327,-2664.741391,-11399.171507,-2068.457845
431.280648,-1332.370696,-12139.377449,-2145.067394
431.280970,-666.185348,-11399.171507,-536.266849
431.281292,-518.144159,-10214.842000,766.095498
431.281614,0.000000,-8882.471304,842.705048
431.281936,296.082377,-7846.182985,0.000000
431.282257,370.102971,-8142.265362,-1225.752797
431.282579,296.082377,-7772.162391,-2145.067394
431.282901,740.205942,-8290.306550,-2221.676944
431.283223,814.226536,-8512.368333,-1762.019645
431.283545,-370.102971,-10066.800811,-995.924147
431.283867,-2220.617826,-10140.821405,-995.924147
431.284188,-4219.173869,-10584.944971,-2298.286494
431.284510,-5329.482782,-11251.130318,-2528.115143
431.284832,-5921.647536,-10881.027347,-1991.848295
431.285154,-4885.359217,-9030.512492,-3753.867940
431.285476,-3478.967927,-8364.327145,-3983.696590
431.285798,-1480.411884,-8734.430116,-2451.505594
431.286119,-814.226536,-8586.388927,-459.657299
431.286441,-888.247130,-8068.244768,-229.828649
431.286763,-296.082377,-7698.141797,-612.876398
431.287085,0.000000,-8364.327145,-1915.238745
431.287407,222.061783,-9326.594869,-2681.334243
431.287729,592.164754,-8660.409521,-1762.019645
431.288050,1924.535449,-8216.285956,-1072.533697
431.288372,2960.823768,-8734.430116,-1149.143247
431.288694,2886.803174,-9770.718434,-995.924147
431.289016,962.267725,-10288.862594,-919.314598
431.289338,-1184.329507,-9696.697840,-612.876398
431.289660,-1850.514855,-9844.739029,-1302.362347
431.289981,-1184.329507,-9918.759623,-3447.429741
431.290303,-444.123565,-9918.759623,-4136.915689
431.290625,-370.102971,-9400.615463,-612.876398
431.290947,-666.185348,-8660.409521,1072.533697
431.291269,0.000000,-8438.347739,-383.047749
431.291591,370.102971,-9474.636058,-2451.505594
431.291912,148.041188,-9548.656652,-2145.067394
431.292234,0.000000,-8586.388927,-2221.676944
431.292556,1554.432478,-8660.409521,-2757.943793
431.292878,2886.803174,-9252.574275,-2834.553343
431.293200,2220.617826,-9400.615463,-2221.676944
431.293522,0.000000,-9252.574275,-1685.410096
431.293843,-1406.391290,-10288.862594,-2757.943793
431.294165,-2146.597232,-12213.398043,-3524.039291
431.294487,-2886.803174,-12435.459826,-2528.115143
431.294809,-3108.864956,-11843.295072,-1532.190996
431.295131,-1998.556043,-10732.986159,-383.047749
431.295453,814.226536,-9918.759623,-612.876398
431.295774,2368.659014,-8734.430116,-689.485948
431.296096,2368.659014,-6883.915261,-383.047749
431.296418,2146.597232,-5921.647536,153.219100
431.296740,1998.556043,-6587.832884,-612.876398
431.297062,1924.535449,-7698.141797,-1302.362347
431.297384,2368.659014,-9548.656652,-689.485948
431.297705,1554.432478,-9770.718434,-1225.752797
431.298027,0.000000,-9770.718434,-1608.800546
431.298349,-1702.473667,-9474.636058,-1762.019645
431.298671,-3108.864956,-10140.821405,-2374.896044
431.298993,-4441.235652,-11029.068536,-2221.676944
431.299315,-4663.297435,-10955.047942,-2451.505594
431.299636,-3330.926739,-10066.800811,-2451.505594
431.299958,-1110.308913,-10362.883188,-1915.238745
431.300280,444.123565,-9770.718434,0.000000
431.300602,370.102971,-8734.430116,766.095498
431.300924,-296.082377,-7550.100608,536.266849
431.301245,-444.123565,-7179.997637,-1072.533697
431.301567,444.123565,-7179.997637,-2451.505594
431.301889,1332.370696,-7328.038826,-2757.943793
431.302211,2072.576638,-8512.368333,-612.876398
431.302533,2590.720797,-9474.636058,1532.190996
431.302855,2664.741391,-8660.409521,76.609550
431.303176,1850.514855,-9178.553681,-2221.676944
431.303498,74.020594,-10362.883188,-2604.724693
431.303820,-2886.803174,-10732.986159,-2757.943793
431.304142,-4293.194464,-9992.780217,-2298.286494
431.304464,-4367.215058,-10066.800811,-2834.553343
431.304786,-3552.988522,-11917.315666,-2451.505594
431.305107,-2368.659014,-12065.356855,-1762.019645
431.305429,-2220.617826,-11251.130318,-459.657299
431.305751,-814.226536,-9770.718434,-536.266849
431.306072,888.247130,-9918.759623,-1685.410096
431.306394,1110.308913,-9252.574275,-1225.752797
431.306715,592.164754,-7476.080014,-995.924147
431.307037,296.082377,-5699.585753,-1225.752797
431.307359,740.205942,-6661.853478,-2757.943793
431.307680,518.144159,-8216.285956,-3753.867940
431.308002,-814.226536,-10140.821405,-1991.848295
431.308323,-2072.576638,-11473.192101,-995.924147
431.308645,-2220.617826,-11843.295072,-919.314598
431.308967,-2294.638420,-11473.192101,-1149.143247
431.309288,-2146.597232,-10140.821405,-1685.410096
431.309610,-1184.329507,-8216.285956,-2451.505594
431.309931,74.020594,-7254.018232,-2834.553343
431.310253,370.102971,-7179.997637,-1532.190996
431.310575,0.000000,-7994.224174,153.219100
431.310896,-518.144159,-8808.450710,0.000000
431.311218,296.082377,-9400.615463,-1532.190996
431.311539,888.247130,-9474.636058,-1762.019645
431.311861,2072.576638,-8512.368333,-2068.457845
431.312183,2516.700203,-7772.162391,-1915.238745
431.312504,2738.761985,-7476.080014,-1378.971896
431.312826,1554.432478,-7994.224174,-1455.581446
431.313147,740.205942,-9252.574275,-919.314598
431.313469,-1258.350101,-11103.089130,-2374.896044
431.313791,-3182.885551,-11621.233289,-2374.896044
431.314112,-3627.009116,-11843.295072,-1762.019645
431.314434,-2368.659014,-11695.253884,-2221.676944
431.314755,-962.267725,-10436.903782,-2451.505594
431.315077,666.185348,-9030.512492,-995.924147
431.315399,1258.350101,-8438.347739,-306.438199
431.315720,1332.370696,-9030.512492,-383.047749
431.316042,592.164754,-8512.368333,-1149.143247
431.316363,888.247130,-8586.388927,-2221.676944
431.316685,1332.370696,-8956.491898,-2681.334243
431.317007,1776.494261,-9252.574275,-1762.019645
431.317328,1406.391290,-8882.471304,-995.924147
431.317650,592.164754,-8438.347739,-1685.410096
431.317971,-222.061783,-9178.553681,-2528.115143
431.318293,-2220.617826,-11103.089130,-2757.943793
431.318615,-4219.173869,-12065.356855,-1991.848295
431.318936,-4959.379811,-11769.274478,-2221.676944
431.319258,-3849.070898,-11251.130318,-3447.429741
431.319579,-2072.576638,-11695.253884,-1991.848295
431.319901,148.041188,-9844.739029,1072.533697
431.320223,518.144159,-7105.977043,306.438199
431.320544,1628.453072,-6809.894666,-995.924147
431.320866,1998.556043,-7105.977043,-306.438199
431.321187,1110.308913,-7105.977043,-383.047749
431.321509,444.123565,-6439.791695,-1149.143247
431.321831,1258.350101,-7476.080014,-919.314598
431.322152,1332.370696,-8808.450710,-1378.971896
431.322474,148.041188,-9400.615463,-1072.533697
431.322795,-1184.329507,-9622.677246,-689.485948
431.323117,-2146.597232,-10362.883188,-1225.752797
431.323438,-2812.782580,-10881.027347,-1991.848295
431.323760,-4515.256246,-10881.027347,-1991.848295
431.324082,-4367.215058,-9548.656652,-1762.019645
431.324403,-2664.741391,-9178.553681,-2604.724693
431.324725,-740.205942,-9548.656652,-2451.505594
431.325046,-148.041188,-8734.430116,0.000000
431.325368,222.061783,-7402.059420,766.095498
431.325690,1406.391290,-7846.182985,-842.705048
431.326011,2590.720797,-8956.491898,-1915.238745
431.326333,2294.638420,-8734.430116,-919.314598
431.326654,1776.494261,-7772.162391,-995.924147
431.326976,1554.432478,-7772.162391,-612.876398
431.327298,1480.411884,-8586.388927,-1915.238745
431.327619,296.082377,-9622.677246,-2757.943793
431.327941,-1924.535449,-10510.924376,-2604.724693
431.328262,-3775.050304,-10732.986159,-2604.724693
431.328584,-3775.050304,-11621.233289,-2374.896044
431.328906,-3701.029710,-11917.315666,-2681.334243
431.329227,-2368.659014,-11843.295072,-2451.505594
431.329549,-1480.411884,-10881.027347,-1608.800546
431.329870,-592.164754,-9992.780217,-383.047749
431.330192,740.205942,-9252.574275,-459.657299
431.330514,1332.370696,-8364.327145,-1225.752797
431.330835,1406.391290,-8142.265362,-1302.362347
431.331157,1850.514855,-8364.327145,-1225.752797
431.331478,2294.638420,-8290.306550,-1608.800546
431.331800,2072.576638,-8586.388927,-2068.457845
431.332122,1628.453072,-8290.306550,-1302.362347
431.332443,592.164754,-8882.471304,-1991.848295
431.332765,-740.205942,-10140.821405,-2987.772442
431.333086,-2442.679609,-11177.109724,-2757.943793
431.333408,-3478.967927,-11103.089130,-1455.581446
431.333730,-3775.050304,-9696.697840,-1838.629195
431.334051,-2664.741391,-9918.759623,-2911.162892
431.334373,-1628.453072,-9992.780217,-2221.676944
431.334694,-1184.329507,-8882.471304,0.000000
431.335016,-814.226536,-8068.244768,0.000000
431.335338,666.185348,-8290.306550,-1302.362347
431.335659,2072.576638,-8808.450710,-1378.971896
431.335981,1924.535449,-8512.368333,-919.314598
431.336302,1554.432478,-7994.224174,-1149.143247
431.336624,2072.576638,-8512.368333,-842.705048
431.336946,2664.741391,-8660.409521,-919.314598
431.337267,1628.453072,-8512.368333,-919.314598
431.337589,-296.082377,-9400.615463,-1225.752797
431.337910,-2886.803174,-9992.780217,-612.876398
431.338232,-4293.194464,-10881.027347,-1225.752797
431.338554,-4589.276840,-10436.903782,-2145.067394
431.338875,-2516.700203,-9178.553681,-3447.429741
431.339197,-296.082377,-8586.388927,-2528.115143
431.339518,1184.329507,-9622.677246,-689.485948
431.339840,1628.453072,-9252.574275,689.485948
431.340162,1776.494261,-9178.553681,612.876398
431.340483,1554.432478,-9252.574275,-995.924147
431.340805,814.226536,-8882.471304,-1991.848295
431.341126,814.226536,-8216.285956,-1915.238745
431.341448,888.247130,-8142.265362,-1225.752797
431.341770,518.144159,-8956.491898,-1072.533697
431.342091,-1184.329507,-9326.594869,-842.705048
431.342413,-3182.885551,-9252.574275,-1225.752797
431.342734,-4071.132681,-10288.862594,-2374.896044
431.343056,-4145.153275,-11029.068536,-3370.820191
431.343378,-3997.112087,-11695.253884,-3294.210641
431.343699,-3701.029710,-10955.047942,-1991.848295
431.344021,-2738.761985,-9918.759623,-306.438199
431.344342,-1184.329507,-9474.636058,-383.047749
431.344664,370.102971,-9326.594869,-1455.581446
431.344985,1554.432478,-9252.574275,-2068.457845
431.345307,2146.597232,-8882.471304,-1532.190996
431.345629,2442.679609,-8882.471304,306.438199
431.345950,3330.926739,-8512.368333,842.705048
431.346272,3923.091493,-8068.244768,-766.095498
431.346593,3404.947333,-7402.059420,-2221.676944
431.346915,1628.453072,-8216.285956,-1915.238745
431.347237,-666.185348,-8290.306550,-1455.581446
431.347558,-1998.556043,-9474.636058,-2145.067394
431.347880,-3923.091493,-10066.800811,-2451.505594
431.348201,-5107.421000,-10658.965565,-1225.752797
431.348523,-5329.482782,-10436.903782,-1532.190996
431.348845,-4071.132681,-9622.677246,-2757.943793
431.349166,-2368.659014,-8956.491898,-2987.772442
431.349488,-1036.288319,-9844.739029,-1532.190996
431.349809,-1110.308913,-9400.615463,0.000000
431.350131,-1036.288319,-8586.388927,0.000000
431.350453,666.185348,-8364.327145,-1838.629195
431.350774,2812.782580,-8956.491898,-2911.162892
431.351096,4219.173869,-9030.512492,-2528.115143
431.351417,3775.050304,-8216.285956,-1762.019645
431.351739,2442.679609,-7994.224174,-459.657299
431.352061,1776.494261,-9548.656652,-689.485948
431.352382,-370.102971,-10881.027347,-2298.286494
431.352704,-2294.638420,-11621.233289,-2911.162892
431.353025,-2886.803174,-11473.192101,-2374.896044
431.353347,-2442.679609,-10732.986159,-2911.162892
431.353669,-666.185348,-10955.047942,-2145.067394
431.353990,222.061783,-10584.944971,-459.657299
431.354312,592.164754,-9474.636058,536.266849
431.354633,962.267725,-9104.533087,-306.438199
431.354955,814.226536,-9104.533087,-1608.800546
431.355277,592.164754,-9104.533087,-1685.410096
431.355598,74.020594,-8660.409521,-1532.190996
431.355920,444.123565,-8734.430116,-1225.752797
431.356241,1406.391290,-8882.471304,-689.485948
431.356563,1924.535449,-9178.553681,-1225.752797
431.356885,74.020594,-8438.347739,-1455.581446
431.357206,-1480.411884,-9400.615463,-1762.019645
431.357528,-3404.947333,-10288.862594,-2451.505594
431.357849,-4663.297435,-10288.862594,-2298.286494
431.358171,-4737.318029,-9844.739029,-2911.162892
431.358493,-3775.050304,-9474.636058,-2451.505594
431.358814,-2146.597232,-9844.739029,-2145.067394
431.359136,-1406.391290,-9844.739029,-766.095498
431.359457,-370.102971,-9844.739029,306.438199
431.359779,444.123565,-9548.656652,229.828649
431.360101,666.185348,-8586.388927,459.657299
431.360422,1036.288319,-7476.080014,153.219100
431.360744,2146.597232,-7031.956449,-536.266849
431.361065,2812.782580,-7105.977043,-1685.410096
431.361387,3256.906145,-7254.018232,-842.705048
431.361709,2812.782580,-8512.368333,766.095498
431.362030,1184.329507,-9326.594869,-459.657299
431.362352,-296.082377,-10066.800811,-995.924147
431.362673,-2146.597232,-10807.006753,-1532.190996
431.362995,-2960.823768,-10881.027347,-1762.019645
431.363317,-2442.679609,-10214.842000,-2528.115143
431.363638,-1850.514855,-8364.327145,-3370.820191
431.363960,-1036.288319,-9030.512492,-2528.115143
431.364281,-444.123565,-10066.800811,-612.876398
431.364603,-1110.308913,-10288.862594,-229.828649
431.364925,-962.267725,-9252.574275,-995.924147
431.365246,-814.226536,-9030.512492,-1685.410096
431.365568,-370.102971,-9474.636058,-2757.943793
431.365889,-1036.288319,-9178.553681,-1991.848295
431.366211,-1332.370696,-8290.306550,-766.095498
431.366533,-1110.308913,-8438.347739,-919.314598
431.366854,-1110.308913,-9252.574275,-1225.752797
431.367176,-2294.638420,-10658.965565,-1762.019645
431.367497,-3256.906145,-10214.842000,-1072.533697
431.367819,-2738.761985,-10584.944971,-1149.143247
431.368140,-888.247130,-10658.965565,-1915.238745
431.368462,444.123565,-10214.842000,-2374.896044
431.368784,814.226536,-10140.821405,-1149.143247
431.369105,0.000000,-10288.862594,-306.438199
431.369427,222.061783,-10066.800811,-689.485948
431.369748,1110.308913,-9252.574275,-1608.800546
431.370070,1702.473667,-8364.327145,-2145.067394
431.370392,2442.679609,-7920.203579,-1532.190996
431.370713,3552.988522,-8364.327145,-1225.752797
431.371035,3330.926739,-7994.224174,-689.485948
431.371356,2146.597232,-7772.162391,-612.876398
431.371678,0.000000,-8364.327145,-1455.581446
431.372000,-2738.761985,-9178.553681,-2145.067394
431.372321,-5033.400406,-9770.718434,-1532.190996
431.372643,-6069.688724,-10732.986159,-1991.848295
431.372964,-4959.379811,-10066.800811,-2451.505594
431.373286,-3330.926739,-9992.780217,-1838.629195
431.373608,-1850.514855,-9548.656652,0.000000
431.373929,-740.205942,-9252.574275,0.000000
431.374251,296.082377,-8438.347739,-995.924147
431.374572,1110.308913,-7550.100608,-1072.533697
431.374894,1776.494261,-7624.121203,-1685.410096
431.375216,2590.720797,-7698.141797,-2604.724693
431.375537,4145.153275,-8660.409521,-3064.381992
431.375859,4441.235652,-9844.739029,-1838.629195
431.376180,2886.803174,-10362.883188,-383.047749
431.376502,1628.453072,-10214.842000,-842.705048
431.376824,74.020594,-11399.171507,-2528.115143
431.377145,-1332.370696,-11251.130318,-1991.848295
431.377467,-1998.556043,-11029.068536,-1378.971896
431.377788,-1850.514855,-8882.471304,-1838.629195
431.378110,-1406.391290,-8512.368333,-1838.629195
431.378432,-592.164754,-9104.533087,-689.485948
431.378753,-1554.432478,-9474.636058,-612.876398
431.379075,-2220.617826,-9400.615463,-1225.752797
431.379396,-2442.679609,-10214.842000,-153.219100
431.379718,-2220.617826,-10140.821405,-383.047749
431.380040,-1924.535449,-8882.471304,-1838.629195
431.380361,-1184.329507,-7624.121203,-2528.115143
431.380683,0.000000,-8068.244768,-1991.848295
431.381004,296.082377,-8142.265362,-1991.848295
431.381326,0.000000,-8142.265362,-2068.457845
431.381648,-1184.329507,-9918.759623,-2221.676944
431.381969,-2368.659014,-11843.295072,-1532.190996
431.382291,-2886.803174,-11843.295072,-689.485948
431.382612,-2368.659014,-10732.986159,-1762.019645
431.382934,-1554.432478,-10066.800811,-2068.457845
431.383256,-444.123565,-8734.430116,-995.924147
431.383577,-148.041188,-7920.203579,0.000000
431.383899,0.000000,-7920.203579,689.485948
431.384220,666.185348,-8068.244768,766.095498
431.384542,1258.350101,-7698.141797,0.000000
431.384864,1702.473667,-7994.224174,-459.657299
431.385185,1776.494261,-7772.162391,-766.095498
431.385507,2072.576638,-8216.285956,-689.485948
431.385828,1924.535449,-7846.182985,-842.705048
431.386150,888.247130,-8734.430116,-995.924147
431.386472,-666.185348,-9770.718434,-2068.457845
431.386793,-2146.597232,-10214.842000,-2834.553343
431.387115,-2368.659014,-10584.944971,-2987.772442
431.387436,-962.267725,-10288.862594,-3753.867940
431.387758,-148.041188,-10140.821405,-2451.505594
431.388080,0.000000,-10214.842000,-1915.238745
431.388401,-444.123565,-9992.780217,-995.924147
431.388723,-370.102971,-9918.759623,-1455.581446
431.389044,-444.123565,-9918.759623,-1532.190996
431.389366,-370.102971,-9474.636058,-1685.410096
431.389688,0.000000,-7846.182985,-2221.676944
431.390009,1258.350101,-7698.141797,-2068.457845
431.390331,2442.679609,-9474.636058,-1072.533697
431.390652,2442.679609,-9992.780217,-459.657299
431.390974,1184.329507,-9474.636058,-1072.533697
431.391295,0.000000,-9844.739029,-1302.362347
431.391617,-1776.494261,-11325.150913,-1838.629195
431.391939,-2664.741391,-11325.150913,-2451.505594
431.392260,-2960.823768,-9992.780217,-2604.724693
431.392582,-1702.473667,-9918.759623,-2604.724693
431.392903,222.061783,-10066.800811,-2451.505594
431.393225,1406.391290,-10362.883188,-1838.629195
431.393547,888.247130,-10584.944971,-153.219100
431.393868,370.102971,-10362.883188,306.438199
431.394190,0.000000,-9252.574275,-842.705048
431.394511,222.061783,-7105.977043,-2374.896044
431.394833,592.164754,-6809.894666,-2604.724693
431.395155,592.164754,-6735.874072,-2221.676944
431.395476,148.041188,-6883.915261,-995.924147
431.395798,-666.185348,-7846.182985,-766.095498
431.396119,-1110.308913,-9622.677246,-536.266849
431.396441,-2442.679609,-10658.965565,-919.314598
431.396763,-3849.070898,-11029.068536,-383.047749
431.397084,-4293.194464,-10658.965565,-306.438199
431.397406,-3330.926739,-9178.553681,-1455.581446
431.397727,-1628.453072,-8438.347739,-1838.629195
431.398049,-1258.350101,-8216.285956,-919.314598
431.398371,-592.164754,-8438.347739,536.266849
431.398692,-296.082377,-7624.121203,0.000000
431.399014,1332.370696,-7994.224174,-1762.019645
431.399335,2590.720797,-9326.594869,-2068.457845
431.399657,3256.906145,-9474.636058,-1149.143247
431.399979,3256.906145,-10066.800811,-536.266849
431.400300,2886.803174,-9696.697840,-459.657299
431.400622,1554.432478,-9548.656652,-1378.971896
431.400943,592.164754,-10066.800811,-2911.162892
431.401265,-1406.391290,-11547.212695,-2681.334243
431.401587,-2960.823768,-11547.212695,-1302.362347
431.401908,-2812.782580,-11103.089130,-1608.800546
431.402230,-1628.453072,-10362.883188,-2145.067394
431.402551,-740.205942,-10436.903782,-1532.190996
431.402873,-962.267725,-9992.780217,0.000000
431.403195,-1702.473667,-8660.409521,0.000000
431.403516,-1702.473667,-7920.203579,-1302.362347
431.403838,-1480.411884,-7846.182985,-2145.067394
431.404159,-888.247130,-8364.327145,-2068.457845
431.404481,-370.102971,-8956.491898,-1915.238745
431.404803,222.061783,-8808.450710,-1302.362347
431.405124,1554.432478,-9770.718434,-1455.581446
431.405446,1628.453072,-9844.739029,-1991.848295
431.405768,740.205942,-9992.780217,-2145.067394
431.406090,-1036.288319,-9918.759623,-1532.190996
431.406411,-2294.638420,-9844.739029,-1915.238745
431.406733,-2516.700203,-9400.615463,-2834.553343
431.407055,-1406.391290,-9770.718434,-2911.162892
431.407377,-592.164754,-10510.924376,-1608.800546
431.407698,0.000000,-9326.594869,0.000000
431.408020,370.102971,-7994.224174,153.219100
431.408342,1332.370696,-8364.327145,383.047749
431.408663,1480.411884,-7772.162391,76.609550
431.408985,814.226536,-6661.853478,-1225.752797
431.409307,740.205942,-6661.853478,-1225.752797
431.409629,1406.391290,-8364.327145,-1225.752797
431.409950,2220.617826,-8142.265362,-1991.848295
431.410272,1776.494261,-8438.347739,-2298.286494
431.410594,1554.432478,-9918.759623,-2374.896044
431.410916,74.020594,-11843.295072,-1149.143247
431.411237,-1702.473667,-11399.171507,-1762.019645
431.411559,-2220.617826,-10140.821405,-2757.943793
431.411881,-2072.576638,-9400.615463,-3294.210641
431.412203,-1480.411884,-10066.800811,-2757.943793
431.412524,-1628.453072,-9326.594869,-1991.848295
431.412846,-1184.329507,-8142.265362,-919.314598
431.413168,0.000000,-8882.471304,-1838.629195
431.413490,888.247130,-10658.965565,-1915.238745
431.413811,370.102971,-10214.842000,-1302.362347
431.414133,-518.144159,-9104.533087,-1072.533697
431.414455,444.123565,-9696.697840,-1532.190996
431.414777,1480.411884,-9474.636058,-2298.286494
431.415098,888.247130,-9474.636058,-2145.067394
431.415420,-666.185348,-10066.800811,-1302.362347
431.415742,-2220.617826,-11103.089130,-1378.971896
431.416064,-2812.782580,-11695.253884,-1762.019645
431.416385,-2664.741391,-12213.398043,-2145.067394
431.416707,-1554.432478,-11621.233289,-1915.238745
431.417029,0.000000,-10066.800811,-995.924147
431.417350,888.247130,-8734.430116,-919.314598
431.417672,1036.288319,-8882.471304,536.266849
431.417994,740.205942,-8216.285956,-306.438199
431.418316,-148.041188,-7994.224174,-1685.410096
431.418637,-592.164754,-7624.121203,-1532.190996
431.418959,0.000000,-7254.018232,-1072.533697
431.419281,222.061783,-6069.688724,-1225.752797
431.419603,814.226536,-7031.956449,-1685.410096
431.419924,0.000000,-7994.224174,-766.095498
431.420246,-1850.514855,-9770.718434,-306.438199
431.420568,-3849.070898,-11177.109724,-1072.533697
431.420890,-4589.276840,-11473.192101,-2298.286494
431.421211,-4589.276840,-10807.006753,-1762.019645
431.421533,-2960.823768,-9918.759623,-1762.019645
431.421855,-1110.308913,-8734.430116,-1762.019645
431.422177,518.144159,-8216.285956,-766.095498
431.422498,1776.494261,-8290.306550,689.485948
431.422820,2294.638420,-7698.141797,612.876398
431.423142,2294.638420,-7328.038826,-612.876398
431.423464,1702.473667,-7476.080014,-1149.143247
431.423785,1184.329507,-9104.533087,-995.924147
431.424107,1776.494261,-9178.553681,-1378.971896
431.424429,2664.741391,-8956.491898,-2068.457845
431.424751,3478.967927,-9474.636058,-1762.019645
431.425072,2220.617826,-9400.615463,-1225.752797
431.425394,-444.123565,-9844.739029,-1149.143247
431.425716,-2590.720797,-11399.171507,-1455.581446
431.426038,-3404.947333,-12361.439231,-2834.553343
431.426359,-3849.070898,-11843.295072,-3907.087040
431.426681,-3330.926739,-11177.109724,-2528.115143
431.427003,-2442.679609,-10362.883188,-842.705048
431.427324,-1332.370696,-9178.553681,-689.485948
431.427646,74.020594,-8290.306550,-1225.752797
431.427968,518.144159,-8142.265362,-1302.362347
431.428290,444.123565,-7920.203579,-1762.019645
431.428611,74.020594,-8364.327145,-1915.238745
431.428933,148.041188,-8808.450710,-1455.581446
431.429255,666.185348,-8512.368333,-1072.533697
431.429577,1480.411884,-8216.285956,-1915.238745
431.429898,1258.350101,-8956.491898,-2757.943793
431.430220,370.102971,-10214.842000,-2298.286494
431.430542,-1184.329507,-11103.089130,-1302.362347
431.430864,-2220.617826,-11473.192101,-1149.143247
431.431185,-2294.638420,-11399.171507,-1915.238745
431.431507,-1184.329507,-11177.109724,-1991.848295
431.431829,-148.041188,-10510.924376,-1302.362347
431.432151,962.267725,-8808.450710,-766.095498
431.432472,2146.597232,-7772.162391,-995.924147
431.432794,3108.864956,-6957.935855,-766.095498
431.433116,2738.761985,-7031.956449,153.219100
431.433438,2072.576638,-7179.997637,153.219100
431.433759,1924.535449,-7550.100608,0.000000
431.434081,1702.473667,-8142.265362,-1455.581446
431.434403,1258.350101,-8586.388927,-1838.629195
431.434725,0.000000,-9252.574275,-1149.143247
431.435046,-2146.597232,-9474.636058,-1915.238745
431.435368,-3701.029710,-10362.883188,-2834.553343
431.435690,-4589.276840,-11029.068536,-2987.772442
431.436012,-4737.318029,-10881.027347,-2834.553343
431.436333,-3849.070898,-9622.677246,-3140.991542
431.436655,-2146.597232,-10140.821405,-2757.943793
431.436977,-1110.308913,-9992.780217,-1302.362347
431.437298,-296.082377,-9400.615463,0.000000
431.437620,0.000000,-9030.512492,-1225.752797
431.437942,444.123565,-8956.491898,-2451.505594
431.438264,962.267725,-9400.615463,-2298.286494
431.438585,518.144159,-8882.471304,-1608.800546
431.438907,1628.453072,-8660.409521,-1455.581446
431.439229,2664.741391,-8734.430116,-1072.533697
431.439551,1998.556043,-9474.636058,0.000000
431.439872,74.020594,-10066.800811,383.047749
431.440194,-2442.679609,-10214.842000,-1225.752797
431.440516,-4293.194464,-10584.944971,-2757.943793
431.440838,-4737.318029,-12065.356855,-2298.286494
431.441159,-3627.009116,-10658.965565,-1915.238745
431.441481,-1628.453072,-9770.718434,-2451.505594
431.441803,222.061783,-9030.512492,-766.095498
431.442125,962.267725,-9474.636058,536.266849
431.442446,148.041188,-8734.430116,536.266849
431.442768,-296.082377,-7920.203579,-612.876398
431.443090,-296.082377,-7550.100608,-1532.190996
431.443412,370.102971,-8068.244768,-3064.381992
431.443733,444.123565,-7476.080014,-2528.115143
431.444055,0.000000,-7179.997637,-919.314598
431.444377,-888.247130,-7402.059420,-306.438199
431.444699,-1850.514855,-8808.450710,-1991.848295
431.445020,-3404.947333,-10066.800811,-2987.772442
431.445342,-5181.441594,-11029.068536,-2221.676944
431.445664,-5107.421000,-10955.047942,-1302.362347
431.445986,-3108.864956,-9844.739029,-2145.067394
431.446307,-296.082377,-9844.739029,-2145.067394
431.446629,1480.411884,-10436.903782,0.000000
431.446951,1776.494261,-9252.574275,1838.629195
431.447272,2220.617826,-7105.977043,153.219100
431.447594,3923.091493,-7772.162391,-1915.238745
431.447916,4885.359217,-8586.388927,-1608.800546
431.448238,3997.112087,-8438.347739,-229.828649
431.448559,3404.947333,-7698.141797,383.047749
431.448881,3997.112087,-8734.430116,0.000000
431.449203,3404.947333,-9696.697840,-1378.971896
431.449525,1110.308913,-9696.697840,-2451.505594
431.449846,-1628.453072,-9770.718434,-2987.772442
431.450168,-3404.947333,-10362.883188,-2987.772442
431.450490,-5033.400406,-11547.212695,-2528.115143
431.450812,-5181.441594,-13027.624579,-2528.115143
431.451133,-4589.276840,-11991.336260,-2757.943793
431.451455,-3108.864956,-10807.006753,-2604.724693
431.451777,-1554.432478,-10881.027347,-1608.800546
431.452099,222.061783,-9474.636058,-153.219100
431.452420,518.144159,-8068.244768,-842.705048
431.452742,1480.411884,-7254.018232,-1072.533697
431.453064,2294.638420,-7328.038826,-1455.581446
431.453386,2812.782580,-7254.018232,-2451.505594
431.453707,2516.700203,-7994.224174,-1762.019645
431.454029,1554.432478,-8808.450710,-766.095498
431.454351,-370.102971,-9326.594869,-1225.752797
431.454673,-1480.411884,-10066.800811,-1762.019645
431.454994,-2072.576638,-10881.027347,-1608.800546
431.455316,-2368.659014,-10658.965565,-1685.410096
431.455638,-2294.638420,-8956.491898,-2681.334243
431.455960,-1332.370696,-9696.697840,-3064.381992
431.456281,-370.102971,-10214.842000,-1608.800546
431.456603,-222.061783,-9030.512492,-536.266849
431.456925,0.000000,-8438.347739,-842.705048
431.457246,666.185348,-8882.471304,-536.266849
431.457568,518.144159,-8512.368333,-766.095498
431.457890,148.041188,-7994.224174,-612.876398
431.458212,370.102971,-7624.121203,-842.705048
431.458533,740.205942,-8364.327145,-1149.143247
431.458855,1036.288319,-8216.285956,-1532.190996
431.459177,370.102971,-8956.491898,-2068.457845
431.459499,-1110.308913,-9770.718434,-2145.067394
431.459820,-3330.926739,-10807.006753,-2298.286494
431.460142,-4737.318029,-11177.109724,-1915.238745
431.460464,-4959.379811,-10881.027347,-2145.067394
431.460786,-3182.885551,-9918.759623,-2451.505594
431.461107,-1184.329507,-10658.965565,-2604.724693
431.461429,1036.288319,-10584.944971,-1378.971896
431.461751,1998.556043,-9918.759623,-306.438199
431.462073,2146.597232,-9104.533087,0.000000
431.462394,1998.556043,-8586.388927,459.657299
431.462716,2590.720797,-8142.265362,-306.438199
431.463038,2294.638420,-7105.977043,-2451.505594
431.463360,2812.782580,-7920.203579,-2987.772442
431.463681,2294.638420,-9696.697840,-459.657299
431.464003,1036.288319,-9548.656652,1762.019645
431.464325,-814.226536,-9326.594869,0.000000
431.464647,-2368.659014,-10288.862594,-1762.019645
431.464968,-4219.173869,-10807.006753,-2451.505594
431.465290,-6291.750507,-10584.944971,-2604.724693
431.465612,-6513.812290,-9696.697840,-3370.820191
431.465934,-4293.194464,-10881.027347,-3064.381992
431.466255,-2442.679609,-11251.130318,-1302.362347
431.466577,-1628.453072,-9400.615463,229.828649
431.466899,-444.123565,-7624.121203,0.000000
431.467220,814.226536,-7994.224174,-1072.533697
431.467542,2294.638420,-8512.368333,-1991.848295
431.467864,2516.700203,-7772.162391,-2068.457845
431.468186,2960.823768,-7846.182985,-842.705048
431.468507,3478.967927,-8586.388927,153.219100
431.468829,2738.761985,-8882.471304,0.000000
431.469151,962.267725,-8512.368333,-1225.752797
431.469473,-1036.288319,-9474.636058,-1378.971896
431.469794,-3256.906145,-10288.862594,-1149.143247
431.470116,-4219.173869,-10214.842000,-2068.457845
431.470438,-2294.638420,-9548.656652,-2604.724693
431.470760,-444.123565,-9770.718434,-1762.019645
431.471081,1110.308913,-9622.677246,-229.828649
431.471403,1406.391290,-8956.491898,153.219100
431.471725,1850.514855,-8734.430116,-612.876398
431.472047,1480.411884,-9622.677246,-995.924147
431.472368,444.123565,-8586.388927,-1762.019645
431.472690,888.247130,-8734.430116,-2374.896044
431.473012,2516.700203,-9400.615463,-2604.724693
431.473334,2368.659014,-9104.533087,-1225.752797
431.473655,1554.432478,-8512.368333,-689.485948
431.473977,296.082377,-8364.327145,-2145.067394
431.474299,-740.205942,-9400.615463,-3447.429741
431.474621,-3478.967927,-10807.006753,-4290.134789
431.474942,-5699.585753,-11473.192101,-3524.039291
431.475264,-5773.606348,-11177.109724,-2834.553343
431.475586,-3923.091493,-11621.233289,-3140.991542
431.475908,-1776.494261,-12583.501014,-2451.505594
431.476229,-740.205942,-11769.274478,-1378.971896
431.476551,-370.102971,-8882.471304,-76.609550
431.476873,1036.288319,-8438.347739,-536.266849
431.477194,2664.741391,-8808.450710,-1378.971896
431.477516,3478.967927,-8290.306550,-1302.362347
431.477838,3256.906145,-7698.141797,-306.438199
431.478160,2368.659014,-8068.244768,76.609550
431.478481,1628.453072,-8438.347739,-306.438199
431.478803,518.144159,-9030.512492,-919.314598
431.479125,-1480.411884,-9918.759623,-1302.362347
431.479447,-3256.906145,-9770.718434,-1608.800546
431.479768,-4515.256246,-8364.327145,-1915.238745
431.480090,-4441.235652,-8808.450710,-2528.115143
431.480412,-3627.009116,-10140.821405,-2451.505594
431.480734,-3330.926739,-9474.636058,-2528.115143
431.481055,-2960.823768,-9326.594869,-2451.505594
431.481377,-1702.473667,-9696.697840,-1608.800546
431.481699,-1110.308913,-9992.780217,-919.314598
431.482021,-370.102971,-8808.450710,-1532.190996
431.482342,370.102971,-7698.141797,-1532.190996
431.482664,1554.432478,-7402.059420,-1455.581446
431.482986,2146.597232,-8068.244768,-1455.581446
431.483308,1480.411884,-7994.224174,383.047749
431.483629,296.082377,-8142.265362,153.219100
431.483951,-222.061783,-9030.512492,-995.924147
431.484273,-592.164754,-10436.903782,-1685.410096
431.484595,-2220.617826,-10510.924376,-1072.533697
431.484916,-2590.720797,-9548.656652,-306.438199
431.485238,-1702.473667,-9178.553681,-1608.800546
431.485560,0.000000,-9400.615463,-2451.505594
431.485882,888.247130,-9770.718434,-2068.457845
431.486203,592.164754,-9474.636058,-995.924147
431.486525,1036.288319,-9770.718434,-536.266849
431.486847,2368.659014,-9474.636058,-1838.629195
431.487168,3034.844362,-9844.739029,-2068.457845
431.487490,3108.864956,-8734.430116,-1455.581446
431.487812,2590.720797,-8068.244768,-1225.752797
431.488134,2072.576638,-8290.306550,-1762.019645
431.488455,962.267725,-9178.553681,-1685.410096
431.488777,-1036.288319,-9696.697840,-2374.896044
431.489099,-4441.235652,-10510.924376,-2604.724693
431.489421,-6143.709319,-11991.336260,-2374.896044
431.489742,-6661.853478,-11917.315666,-1991.848295
431.490064,-5995.668130,-9622.677246,-2834.553343
431.490386,-4071.132681,-8142.265362,-3140.991542
431.490708,-962.267725,-9030.512492,-2221.676944
431.491029,666.185348,-9770.718434,-2068.457845
431.491351,888.247130,-9548.656652,-689.485948
431.491673,1554.432478,-9474.636058,153.219100
431.491995,2960.823768,-9178.553681,153.219100
431.492316,3478.967927,-9622.677246,-2221.676944
431.492638,3256.906145,-9844.739029,-1608.800546
431.492960,2738.761985,-8512.368333,842.705048
431.493282,2220.617826,-7476.080014,76.609550
431.493603,1480.411884,-7698.141797,-1378.971896
431.493925,0.000000,-9104.533087,-536.266849
431.494247,-2220.617826,-8734.430116,-153.219100
431.494569,-3775.050304,-8142.265362,-1608.800546
431.494890,-3330.926739,-9030.512492,-2528.115143
431.495212,-2146.597232,-10362.883188,-1991.848295
431.495534,-1702.473667,-9770.718434,-1455.581446
431.495855,-2146.597232,-8808.450710,-229.828649
431.496177,-1406.391290,-8438.347739,-766.095498
431.496499,-592.164754,-8956.491898,-1532.190996
431.496821,-666.185348,-8808.450710,-2681.334243
431.497142,-148.041188,-8216.285956,-2451.505594
431.497464,1776.494261,-8808.450710,-1685.410096
431.497786,3108.864956,-9326.594869,-2451.505594
431.498108,2664.741391,-9474.636058,-1991.848295
431.498429,1184.329507,-9474.636058,-919.314598
431.498751,-888.247130,-9104.533087,-1302.362347
431.499073,-1110.308913,-10214.842000,-3677.258390
431.499395,-2072.576638,-10807.006753,-3753.867940
431.499716,-1406.391290,-11029.068536,-2298.286494
431.500038,-888.247130,-11843.295072,-1072.533697
431.500360,148.041188,-11843.295072,-229.828649
431.500682,740.205942,-11473.192101,842.705048
431.501003,1406.391290,-10288.862594,-919.314598
431.501325,296.082377,-9104.533087,-1378.971896
431.501647,-444.123565,-7624.121203,-1225.752797
431.501969,296.082377,-7328.038826,-1302.362347
431.502290,1998.556043,-7772.162391,-1838.629195
431.502612,1924.535449,-8142.265362,-1532.190996
431.502934,1998.556043,-8882.471304,-766.095498
431.503256,1406.391290,-10140.821405,-689.485948
431.503577,-518.144159,-10658.965565,-1532.190996
431.503899,-2960.823768,-10807.006753,-2451.505594
431.504221,-4515.256246,-10288.862594,-1915.238745
431.504543,-4515.256246,-9548.656652,-2145.067394
431.504864,-3923.091493,-9252.574275,-3600.648841
431.505186,-3034.844362,-8068.244768,-2987.772442
431.505508,-2960.823768,-7476.080014,-1149.143247
431.505830,-2590.720797,-7920.203579,-1149.143247
431.506152,-1406.391290,-8290.306550,-1532.190996
431.506473,-370.102971,-8068.244768,-1302.362347
431.506795,0.000000,-7994.224174,-1915.238745
431.507117,666.185348,-8808.450710,-1302.362347
431.507439,1110.308913,-8882.471304,-612.876398
431.507761,962.267725,-8438.347739,0.000000
431.508083,814.226536,-8956.491898,-459.657299
431.508404,148.041188,-9844.739029,-1378.971896
431.508726,-962.267725,-10066.800811,-1149.143247
431.509048,-962.267725,-10436.903782,-459.657299
431.509370,-444.123565,-10436.903782,-919.314598
431.509692,296.082377,-9548.656652,-1915.238745
431.510014,1480.411884,-10066.800811,-1762.019645
431.510335,444.123565,-9178.553681,-919.314598
431.510657,222.061783,-8438.347739,-1302.362347
431.510979,0.000000,-8734.430116,-1915.238745
431.511301,0.000000,-9030.512492,-2528.115143
431.511623,-740.205942,-8882.471304,-2451.505594
431.511945,-148.041188,-9178.553681,-2911.162892
431.512266,814.226536,-9844.739029,-2604.724693
431.512588,740.205942,-9844.739029,-2068.457845
431.512910,-740.205942,-9474.636058,-2221.676944
431.513232,-2368.659014,-10436.903782,-2374.896044
431.513554,-3997.112087,-11769.274478,-2834.553343
431.513876,-5255.462188,-11843.295072,-2528.115143
431.514197,-4885.359217,-11695.253884,-2374.896044
431.514519,-3108.864956,-10436.903782,-1991.848295
431.514841,-888.247130,-9178.553681,-1072.533697
431.515163,222.061783,-8882.471304,76.609550
431.515485,962.267725,-8438.347739,459.657299
431.515807,1702.473667,-7772.162391,-459.657299
431.516128,2368.659014,-7105.977043,-1072.533697
431.516450,2886.803174,-7698.141797,-919.314598
431.516772,3404.947333,-8290.306550,-1072.533697
431.517094,2812.782580,-9252.574275,-612.876398
431.517416,2220.617826,-9844.739029,-229.828649
431.517738,2146.597232,-10436.903782,-1378.971896
431.518059,2146.597232,-10436.903782,-2528.115143
431.518381,74.020594,-11029.068536,-995.924147
431.518703,-2072.576638,-10140.821405,-306.438199
431.519025,-2960.823768,-8068.244768,-766.095498
431.519347,-1924.535449,-7772.162391,-2221.676944
431.519668,-1332.370696,-9104.533087,-2145.067394
431.519990,-2368.659014,-8882.471304,-1149.143247
431.520312,-2812.782580,-7476.080014,0.000000
431.520634,-1850.514855,-8512.368333,-689.485948
431.520956,-296.082377,-9326.594869,-1378.971896
431.521278,-740.205942,-8438.347739,-1072.533697
431.521599,-592.164754,-7105.977043,-1838.629195
431.521921,1110.308913,-7994.224174,-2757.943793
431.522243,1850.514855,-9252.574275,-3294.210641
431.522565,592.164754,-9474.636058,-1685.410096
431.522887,-1332.370696,-9326.594869,-689.485948
431.523209,-2590.720797,-10362.883188,-1915.238745
431.523530,-3108.864956,-11991.336260,-2834.553343
431.523852,-4441.235652,-12879.583391,-2757.943793
431.524174,-4663.297435,-11843.295072,-2145.067394
431.524496,-3256.906145,-11547.212695,-1608.800546
431.524818,-1776.494261,-10807.006753,-689.485948
431.525140,-1702.473667,-9252.574275,536.266849
431.525461,-2812.782580,-7179.997637,536.266849
431.525783,-2812.782580,-6735.874072,-612.876398
431.526105,-1702.473667,-7254.018232,-2681.334243
431.526427,-814.226536,-8438.347739,-3217.601092
431.526749,-370.102971,-8882.471304,-1532.190996
431.527071,148.041188,-9252.574275,0.000000
431.527392,-370.102971,-9474.636058,0.000000
431.527714,-1924.535449,-10214.842000,-1608.800546
431.528036,-4515.256246,-10881.027347,-2528.115143
431.528358,-7105.977043,-10436.903782,-3830.477490
431.528680,-8882.471304,-8882.471304,-4290.134789
431.529002,-8808.450710,-9326.594869,-3600.648841
431.529323,-6809.894666,-9474.636058,-2451.505594
431.529645,-4811.338623,-9178.553681,-2298.286494
431.529967,-3701.029710,-8364.327145,-1072.533697
431.530289,-2886.803174,-7846.182985,0.000000
431.530611,-2072.576638,-8068.244768,-1072.533697
431.530932,-2220.617826,-8142.265362,-1991.848295
431.531254,-2812.782580,-7698.141797,-995.924147
431.531576,-2812.782580,-7031.956449,-459.657299
431.531898,-814.226536,-7476.080014,-2145.067394
431.532220,962.267725,-8808.450710,-2221.676944
431.532542,1036.288319,-10214.842000,-1225.752797
431.532863,-222.061783,-9844.739029,459.657299
431.533185,-1036.288319,-10436.903782,536.266849
431.533507,-1998.556043,-11251.130318,-1302.362347
431.533829,-3627.009116,-11177.109724,-2298.286494
431.534151,-6587.832884,-9844.739029,-2451.505594
431.534473,-7105.977043,-9622.677246,-2451.505594
431.534794,-5995.668130,-9992.780217,-2528.115143
431.535116,-4663.297435,-9770.718434,-1608.800546
431.535438,-3478.967927,-8808.450710,-766.095498
431.535760,-2516.700203,-7920.203579,-153.219100
431.536082,-1554.432478,-8142.265362,-1072.533697
431.536404,-1036.288319,-8364.327145,-2681.334243
431.536725,-2072.576638,-8512.368333,-3370.820191
431.537047,-3478.967927,-7846.182985,-2911.162892
431.537369,-3849.070898,-7994.224174,-2757.943793
431.537691,-3478.967927,-9548.656652,-3983.696590
431.538013,-3034.844362,-10140.821405,-4826.401637
431.538335,-3034.844362,-11769.274478,-3524.039291
431.538656,-3256.906145,-12953.603985,-2298.286494
431.538978,-3330.926739,-12805.562797,-919.314598
431.539300,-4515.256246,-12287.418637,-995.924147
431.539622,-6143.709319,-11473.192101,-995.924147
431.539944,-7476.080014,-10362.883188,-536.266849
431.540266,-7179.997637,-8364.327145,-1455.581446
431.540587,-5477.523971,-7476.080014,-2298.286494
431.540909,-3404.947333,-7179.997637,-383.047749
431.541231,-1702.473667,-7624.121203,1532.190996
431.541553,-444.123565,-7105.977043,2298.286494
431.541875,1036.288319,-7698.141797,1455.581446
431.542196,1776.494261,-7698.141797,-306.438199
431.542518,444.123565,-6291.750507,-1608.800546
431.542840,-1406.391290,-7031.956449,-1838.629195
431.543162,-4293.194464,-8216.285956,-2834.553343
431.543484,-5995.668130,-9548.656652,-3753.867940
431.543806,-7402.059420,-10658.965565,-4290.134789
431.544127,-8068.244768,-11251.130318,-4136.915689
431.544449,-8142.265362,-11991.336260,-4136.915689
431.544771,-7105.977043,-12213.398043,-3830.477490
431.545093,-6217.729913,-11621.233289,-2451.505594
431.545415,-5403.503377,-9844.739029,-689.485948
431.545737,-4663.297435,-7994.224174,-995.924147
431.546058,-3997.112087,-7031.956449,-995.924147
431.546380,-3552.988522,-8216.285956,-689.485948
431.546702,-4071.132681,-8882.471304,1532.190996
431.547024,-3256.906145,-8808.450710,3370.820191
431.547346,-1258.350101,-7994.224174,2681.334243
431.547668,1406.391290,-7031.956449,842.705048
431.547989,3552.988522,-5995.668130,0.000000
431.548311,4071.132681,-6365.771101,76.609550
431.548633,3330.926739,-6883.915261,76.609550
431.548955,2368.659014,-8364.327145,-919.314598
431.549277,1110.308913,-9400.615463,-2834.553343
431.549599,-740.205942,-10362.883188,-3753.867940
431.549920,-2738.761985,-12435.459826,-4903.011187
431.550242,-4811.338623,-12509.480420,-4903.011187
431.550564,-6513.812290,-12065.356855,-4979.620737
431.550886,-7179.997637,-12065.356855,-4290.134789
431.551208,-7772.162391,-11695.253884,-3064.381992
431.551530,-8068.244768,-9474.636058,-3907.087040
431.551851,-7846.182985,-8734.430116,-4826.401637
431.552173,-6883.915261,-9474.636058,-4366.744339
431.552495,-5847.626942,-9992.780217,-2068.457845
431.552817,-5107.421000,-8956.491898,536.266849
431.553139,-3997.112087,-8290.306550,1072.533697
431.553460,-2294.638420,-8142.265362,842.705048
431.553782,0.000000,-7624.121203,-766.095498
431.554104,1184.329507,-7179.997637,-1455.581446
431.554426,2664.741391,-7105.977043,0.000000
431.554748,4441.235652,-8660.409521,-612.876398
431.555070,5033.400406,-10140.821405,-2757.943793
431.555391,4367.215058,-13397.727550,-2528.115143
431.555713,1850.514855,-14656.077652,-306.438199
431.556035,-2442.679609,-14582.057057,76.609550
431.556357,-6365.771101,-12953.603985,-919.314598
431.556679,-9030.512492,-10807.006753,-2221.676944
431.557001,-9918.759623,-7476.080014,-3830.477490
431.557322,-10732.986159,-5033.400406,-4443.353888
431.557644,-11103.089130,-5033.400406,-2834.553343
431.557966,-10510.924376,-5995.668130,-995.924147
431.558288,-9326.594869,-6957.935855,-995.924147
431.558610,-7105.977043,-8734.430116,-1225.752797
431.558932,-5329.482782,-10214.842000,-1302.362347
431.559253,-4219.173869,-10288.862594,-1608.800546
431.559575,-3182.885551,-9178.553681,-1762.019645
431.559897,-1406.391290,-8364.327145,-2298.286494
431.560219,0.000000,-7846.182985,-2068.457845
431.560541,-666.185348,-7105.977043,-2757.943793
431.560863,-1924.535449,-7624.121203,-3677.258390
431.561184,-2960.823768,-9844.739029,-3140.991542
431.561506,-3552.988522,-11991.336260,-1532.190996
431.561828,-4737.318029,-13323.706956,-766.095498
431.562150,-5107.421000,-13545.768739,229.828649
431.562472,-5255.462188,-12287.418637,1072.533697
431.562794,-5329.482782,-9696.697840,919.314598
431.563115,-4367.215058,-7179.997637,383.047749
431.563437,-2442.679609,-4219.173869,-612.876398
431.563759,0.000000,-3849.070898,-1378.971896
431.564081,1480.411884,-4959.379811,-689.485948
431.564403,1924.535449,-7031.956449,153.219100
431.564724,1628.453072,-8956.491898,-383.047749
431.565046,740.205942,-11399.171507,-1915.238745
431.565368,-814.226536,-13175.665768,-2221.676944
431.565690,-2886.803174,-13545.768739,-2451.505594
431.566012,-5107.421000,-12509.480420,-2987.772442
431.566334,-5995.668130,-11843.295072,-3907.087040
431.566655,-6217.729913,-11991.336260,-3677.258390
431.566977,-7105.977043,-11473.192101,-2451.505594
431.567299,-8808.450710,-9104.533087,-842.705048
431.567621,-9400.615463,-7328.038826,-1072.533697
431.567943,-7846.182985,-7254.018232,-2451.505594
431.568265,-5699.585753,-7550.100608,-3907.087040
431.568586,-3997.112087,-7920.203579,-3753.867940
431.568908,-3330.926739,-8216.285956,-1455.581446
431.569230,-2368.659014,-7698.141797,306.438199
431.569552,-1406.391290,-6513.812290,0.000000
431.569874,-444.123565,-7254.018232,-2374.896044
431.570196,-444.123565,-9474.636058,-4060.306139
431.570517,-1184.329507,-12805.562797,-3447.429741
431.570839,-1480.411884,-15692.365970,0.000000
431.571161,-1184.329507,-15988.448347,3294.210641
431.571483,0.000000,-13027.624579,3907.087040
431.571805,2664.741391,-10066.800811,1991.848295
431.572127,4441.235652,-9474.636058,306.438199
431.572448,4071.132681,-9252.574275,1378.971896
431.572770,1702.473667,-7994.224174,4519.963438
431.573092,-666.185348,-5551.544565,6052.154434
431.573414,-2886.803174,-4885.359217,4826.401637
431.573736,-6513.812290,-3997.112087,2298.286494
431.574058,-9474.636058,-3108.864956,-1302.362347
431.574379,-10955.047942,-3478.967927,-4749.792088
431.574701,-10288.862594,-5625.565159,-6281.983084
431.575023,-9252.574275,-6957.935855,-5362.668486
431.575345,-8216.285956,-8808.450710,-4213.525239
431.575667,-7328.038826,-13545.768739,-4443.353888
431.575988,-6957.935855,-18061.024985,-4366.744339
431.576310,-7105.977043,-18505.148550,-4749.792088
431.576632,-6069.688724,-16580.613101,-4366.744339
431.576954,-3108.864956,-14211.954086,-2221.676944
431.577276,-1924.535449,-11325.150913,0.000000
431.577598,-740.205942,-8068.244768,2528.115143
431.577919,-222.061783,-4589.276840,4903.011187
431.578241,962.267725,-3256.906145,4903.011187
431.578563,888.247130,-3034.844362,3370.820191
431.578885,444.123565,-4737.318029,2757.943793
431.579207,370.102971,-7402.059420,2604.724693
431.579529,0.000000,-9770.718434,3064.381992
431.579850,962.267725,-11621.233289,2451.505594
431.580172,2886.803174,-12065.356855,-766.095498
431.580494,3775.050304,-10436.903782,-2528.115143
431.580816,2664.741391,-10584.944971,-3140.991542
431.581138,222.061783,-14211.954086,-2604.724693
431.581460,-592.164754,-16876.695478,-2145.067394
431.581781,-370.102971,-16506.592507,-3140.991542
431.582103,0.000000,-15174.221811,-2911.162892
431.582425,592.164754,-13175.665768,689.485948
431.582747,0.000000,-10214.842000,2834.553343
431.583069,-2368.659014,-6587.832884,3753.867940
431.583391,-2590.720797,-3478.967927,4443.353888
431.583712,-1332.370696,-1702.473667,2911.162892
431.584034,518.144159,0.000000,76.609550
431.584356,740.205942,-1184.329507,842.705048
431.584678,1110.308913,-4959.379811,3753.867940
431.585000,1110.308913,-6661.853478,5286.058936
431.585322,2590.720797,-8586.388927,995.924147
431.585643,4145.153275,-10658.965565,-3983.696590
431.585965,3775.050304,-11473.192101,-4979.620737
431.586287,1332.370696,-13323.706956,-2911.162892
431.586609,-1036.288319,-16358.551318,383.047749
431.586931,-2072.576638,-17912.983796,1608.800546
431.587252,-2664.741391,-15618.345376,-842.705048
431.587574,-2368.659014,-13397.727550,-1455.581446
431.587896,-2368.659014,-12361.439231,2298.286494
431.588218,-2960.823768,-11029.068536,4826.401637
431.588540,-3627.009116,-8660.409521,6281.983084
431.588862,-4145.153275,-6735.874072,7967.393179
431.589183,-3627.009116,-5995.668130,6665.030833
431.589505,-3775.050304,-7402.059420,3217.601092
431.589827,-4219.173869,-7846.182985,3140.991542
431.590149,-3627.009116,-6365.771101,4749.792088
431.590471,962.267725,-6439.791695,2528.115143
431.590793,5033.400406,-6291.750507,-306.438199
431.591114,4811.338623,-4293.194464,0.000000
431.591436,2738.761985,-4737.318029,0.000000
431.591758,1036.288319,-9918.759623,-2451.505594
431.592080,-740.205942,-14656.077652,-4979.620737
431.592402,-4145.153275,-16654.633695,-6128.763984
431.592724,-8142.265362,-17764.942608,-3140.991542
431.593045,-10807.006753,-18357.107362,2681.334243
431.593367,-11325.150913,-16062.468941,5439.278036
431.593689,-9844.739029,-12065.356855,3983.696590
431.594011,-7328.038826,-9474.636058,3064.381992
431.594333,-5107.421000,-8068.244768,4443.353888
431.594655,-4071.132681,-7328.038826,7354.516781
431.594976,-2072.576638,-3330.926739,11491.432470
431.595298,962.267725,1110.308913,12257.527968
431.595620,5033.400406,1776.494261,7277.907231
431.595942,9030.512492,-2960.823768,2068.457845
431.596264,9992.780217,-5699.585753,229.828649
431.596586,7105.977043,-6809.894666,1608.800546
431.596907,4663.297435,-12583.501014,4443.353888
431.597229,2812.782580,-19097.313304,4136.915689
431.597551,0.000000,-20133.601622,-919.314598
431.597873,-3627.009116,-16580.613101,-4290.134789
431.598195,-4515.256246,-16284.530724,-1302.362347
431.598517,-3923.091493,-13027.624579,995.924147
431.598838,-4293.194464,-6365.771101,306.438199
431.599160,-3997.112087,-2590.720797,689.485948
431.599482,-2368.659014,-4737.318029,3983.696590
431.599804,-2072.576638,-6587.832884,4443.353888
431.600126,-3552.988522,-6735.874072,3370.820191
431.600447,-2516.700203,-6883.915261,4443.353888
431.600769,1332.370696,-9030.512492,6052.154434
431.601091,3627.009116,-9474.636058,6588.421283
431.601413,3997.112087,-6439.791695,7277.907231
431.601735,7772.162391,-2220.617826,2681.334243
431.602057,11473.192101,-4959.379811,-4979.620737
431.602378,10510.924376,-7994.224174,-5975.544884
431.602700,4293.194464,-9030.512492,-842.705048
431.603022,-1850.514855,-14063.912898,459.657299
431.603344,-5033.400406,-20651.745782,-2145.067394
431.603666,-5995.668130,-22354.219448,-4826.401637
431.603988,-6291.750507,-18357.107362,-7814.174080
431.604309,-4293.194464,-14211.954086,-6205.373534
431.604631,-1332.370696,-11325.150913,-1225.752797
431.604953,-740.205942,-8512.368333,2911.162892
431.605275,518.144159,-6069.688724,4519.963438
431.605596,1924.535449,-5181.441594,2298.286494
431.605918,2294.638420,-7402.059420,-1532.190996
431.606240,814.226536,-10140.821405,229.828649
431.606561,370.102971,-8364.327145,4136.915689
431.606883,2886.803174,-7179.997637,2298.286494
431.607205,5255.462188,-9992.780217,459.657299
431.607527,4219.173869,-11843.295072,766.095498
431.607848,-1850.514855,-10140.821405,1302.362347
431.608170,-8142.265362,-8882.471304,229.828649
431.608492,-9918.759623,-9178.553681,-1378.971896
431.608814,-10214.842000,-8068.244768,-5592.497135
431.609135,-10955.047942,-8290.306550,-9116.536426
431.609457,-11547.212695,-12213.398043,-6128.763984
431.609779,-9326.594869,-15322.262999,-383.047749
431.610100,-5699.585753,-13989.892304,459.657299
431.610422,-2516.700203,-12287.418637,306.438199
431.610744,0.000000,-11325.150913,2374.896044
431.611066,1184.329507,-7698.141797,3140.991542
431.611387,3404.947333,-3108.864956,1685.410096
431.611709,7105.977043,-222.061783,1378.971896
431.612031,9844.739029,-296.082377,3447.429741
431.612352,9918.759623,-2960.823768,5975.544884
431.612674,5551.544565,-7031.956449,7201.297681
431.612996,1850.514855,-11029.068536,7201.297681
431.613318,-518.144159,-14063.912898,4443.353888
431.613639,-1924.535449,-15248.242405,383.047749
431.613961,-2442.679609,-12879.583391,-306.438199
431.614283,-2738.761985,-10066.800811,689.485948
431.614605,-2294.638420,-8882.471304,2221.676944
431.614926,-2220.617826,-9178.553681,2451.505594
431.615248,-3108.864956,-9622.677246,1149.143247
431.615570,-3997.112087,-10140.821405,229.828649
431.615891,-4811.338623,-12657.521608,0.000000
431.616213,-4515.256246,-13397.727550,1685.410096
431.616535,-3182.885551,-11473.192101,3677.258390
431.616857,-814.226536,-9548.656652,4060.306139
431.617178,1184.329507,-8956.491898,4136.915689
431.617500,2368.659014,-8882.471304,5669.106685
431.617822,2368.659014,-7328.038826,5362.668486
431.618143,3404.947333,-7031.956449,4443.353888
431.618465,4811.338623,-7254.018232,3524.039291
431.618787,4811.338623,-7994.224174,3370.820191
431.619109,2368.659014,-9326.594869,4673.182538
431.619430,-518.144159,-9548.656652,4826.401637
431.619752,-2738.761985,-10510.924376,2528.115143
431.620074,-3627.009116,-12583.501014,-229.828649
431.620395,-4367.215058,-13915.871710,-766.095498
431.620717,-4367.215058,-13249.686362,1225.752797
431.621039,-2220.617826,-11547.212695,3677.258390
431.621361,1480.411884,-10955.047942,3447.429741
431.621682,3034.844362,-10584.944971,2834.553343
431.622004,1776.494261,-9474.636058,3064.381992
431.622326,-666.185348,-8586.388927,3907.087040
431.622648,-1258.350101,-7550.100608,4519.963438
431.622969,-740.205942,-6809.894666,2374.896044
431.623291,1628.453072,-6587.832884,842.705048
431.623613,3627.009116,-6661.853478,1838.629195
431.623934,4959.379811,-7402.059420,3677.258390
431.624256,4959.379811,-8364.327145,4443.353888
431.624578,3182.885551,-9252.574275,2681.334243
431.624900,296.082377,-9548.656652,153.219100
431.625221,-3404.947333,-8882.471304,-2145.067394
431.625543,-6291.750507,-8586.388927,-3600.648841
431.625865,-7476.080014,-9178.553681,-4519.963438
431.626186,-7105.977043,-10288.862594,-4366.744339
431.626508,-6513.812290,-12139.377449,-3753.867940
431.626830,-5699.585753,-13693.809927,-1455.581446
431.627152,-4959.379811,-14878.139434,689.485948
431.627473,-4441.235652,-13693.809927,229.828649
431.627795,-3182.885551,-10658.965565,-995.924147
431.628117,-2812.782580,-7031.956449,-1608.800546
431.628439,-2294.638420,-5403.503377,-1378.971896
431.628760,-518.144159,-4811.338623,-689.485948
431.629082,1702.473667,-5477.523971,229.828649
431.629404,3997.112087,-6957.935855,766.095498
431.629725,5551.544565,-10140.821405,383.047749
431.630047,5477.523971,-11547.212695,383.047749
431.630369,4441.235652,-10362.883188,306.438199
431.630691,2516.700203,-7698.141797,-1532.190996
431.631012,740.205942,-6439.791695,-4060.306139
431.631334,-1628.453072,-5477.523971,-6511.811733
431.631656,-2960.823768,-8142.265362,-6665.030833
431.631977,-4441.235652,-11399.171507,-5439.278036
431.632299,-4811.338623,-15544.324782,-3064.381992
431.632621,-4219.173869,-17987.004391,-1072.533697
431.632943,-3330.926739,-16580.613101,0.000000
431.633264,-2294.638420,-12879.583391,-995.924147
431.633586,-1110.308913,-8586.388927,-612.876398
431.633908,296.082377,-5107.421000,-229.828649
431.634230,2294.638420,-3256.906145,0.000000
431.634551,4441.235652,-3108.864956,383.047749
431.634873,5403.503377,-5033.400406,2068.457845
431.635195,5033.400406,-8438.347739,3600.648841
431.635516,4515.256246,-10066.800811,3064.381992
431.635838,3701.029710,-9770.718434,76.609550
431.636160,2886.803174,-9918.759623,-2528.115143
431.636482,518.144159,-10214.842000,-2451.505594
431.636803,-1850.514855,-11103.089130,-2604.724693
431.637125,-4293.194464,-11843.295072,-2451.505594
431.637447,-5995.668130,-13175.665768,-2757.943793
431.637768,-7254.018232,-14211.954086,-2757.943793
431.638090,-7920.203579,-13323.706956,-1838.629195
431.638412,-7105.977043,-11695.253884,-1532.190996
431.638734,-4737.318029,-10510.924376,-766.095498
431.639055,-2738.761985,-9844.739029,766.095498
431.639377,-1702.473667,-8068.244768,3064.381992
431.639699,0.000000,-6587.832884,3907.087040
431.640021,1998.556043,-5181.441594,2757.943793
431.640342,4145.153275,-4589.276840,1762.019645
431.640664,5107.421000,-3849.070898,2145.067394
431.640986,6291.750507,-4589.276840,1225.752797
431.641307,7476.080014,-7328.038826,76.609550
431.641629,6587.832884,-10436.903782,536.266849
431.641951,3923.091493,-11991.336260,1225.752797
431.642273,222.061783,-14211.954086,919.314598
431.642594,-2442.679609,-14656.077652,-153.219100
431.642916,-4293.194464,-13249.686362,-2528.115143
431.643238,-4441.235652,-9474.636058,-3907.087040
431.643559,-3256.906145,-8068.244768,-3217.601092
431.643881,-1332.370696,-7550.100608,-919.314598
431.644203,-1184.329507,-8438.347739,1302.362347
431.644525,-2072.576638,-8882.471304,2987.772442
431.644846,-2368.659014,-9178.553681,2911.162892
431.645168,-1776.494261,-8734.430116,153.219100
431.645490,-888.247130,-7031.956449,-1532.190996
431.645811,-518.144159,-3775.050304,-995.924147
431.646133,666.185348,-3256.906145,-919.314598
431.646455,2516.700203,-7031.956449,-1915.238745
431.646777,2368.659014,-10362.883188,-2221.676944
431.647098,-2146.597232,-11029.068536,-1302.362347
431.647420,-5551.544565,-13693.809927,-1378.971896
431.647742,-6957.935855,-16062.468941,-3140.991542
431.648064,-7031.956449,-13693.809927,-6128.763984
431.648385,-6587.832884,-10510.924376,-7584.345430
431.648707,-3923.091493,-10140.821405,-4903.011187
431.649029,-888.247130,-11473.192101,-2068.457845
431.649350,444.123565,-10584.944971,-536.266849
431.649672,1110.308913,-9992.780217,612.876398
431.649994,2220.617826,-9252.574275,1149.143247
431.650316,4071.132681,-7550.100608,-1302.362347
431.650637,4293.194464,-4737.318029,-2681.334243
431.650959,4811.338623,-4515.256246,-2221.676944
431.651281,4959.379811,-6439.791695,-689.485948
431.651602,4071.132681,-9474.636058,76.609550
431.651924,2072.576638,-11991.336260,0.000000
431.652246,-370.102971,-13915.871710,-1915.238745
431.652568,-3330.926739,-13693.809927,-3140.991542
431.652889,-3923.091493,-10584.944971,-4673.182538
431.653211,-2738.761985,-8660.409521,-6052.154434
431.653533,-1702.473667,-9104.533087,-6435.202183
431.653855,-1628.453072,-10288.862594,-3600.648841
431.654176,-2368.659014,-10436.903782,-1072.533697
431.654498,-2738.761985,-10881.027347,0.000000
431.654820,-1924.535449,-11621.233289,-1302.362347
431.655141,-1036.288319,-9696.697840,-2681.334243
431.655463,0.000000,-5477.523971,-2145.067394
431.655785,2146.597232,-3108.864956,-1149.143247
431.656107,3849.070898,-3034.844362,-459.657299
431.656428,4441.235652,-4737.318029,-153.219100
431.656750,3182.885551,-7846.182985,0.000000
431.657072,814.226536,-11325.150913,76.609550
431.657393,-1406.391290,-13619.789333,76.609550
431.657715,-2368.659014,-13989.892304,-1302.362347
431.658037,-2294.638420,-12583.501014,-1838.629195
431.658359,-1702.473667,-10510.924376,-1378.971896
431.658680,-444.123565,-9030.512492,-459.657299
431.659002,888.247130,-6587.832884,-306.438199
431.659324,2442.679609,-6069.688724,-1455.581446
431.659646,3256.906145,-6809.894666,-1532.190996
431.659967,2072.576638,-8068.244768,-919.314598
431.660289,962.267725,-8364.327145,-383.047749
431.660611,740.205942,-8512.368333,229.828649
431.660932,814.226536,-9178.553681,-1455.581446
431.661254,666.185348,-10288.862594,-2757.943793
431.661576,-148.041188,-10436.903782,-2221.676944
431.661898,-1258.350101,-11325.150913,-459.657299
431.662219,-2812.782580,-12583.501014,0.000000
431.662541,-4515.256246,-11473.192101,-689.485948
431.662863,-4737.318029,-10214.842000,-1685.410096
431.663184,-4145.153275,-9548.656652,-2757.943793
431.663506,-2738.761985,-9992.780217,-3140.991542
431.663828,-2442.679609,-9918.759623,-1762.019645
431.664150,-1776.494261,-9770.718434,1302.362347
431.664471,-888.247130,-9918.759623,2145.067394
431.664793,222.061783,-9252.574275,459.657299
431.665115,814.226536,-7624.121203,-1685.410096
431.665437,740.205942,-5921.647536,-1838.629195
431.665758,1110.308913,-5625.565159,-995.924147
431.666080,1850.514855,-6513.812290,-1532.190996
431.666402,1850.514855,-7994.224174,-1608.800546
431.666723,814.226536,-10362.883188,-1378.971896
431.667045,-1628.453072,-12509.480420,-689.485948
431.667367,-3923.091493,-15174.221811,-306.438199
431.667689,-4589.276840,-14137.933492,-689.485948
431.668010,-3627.009116,-11473.192101,-2298.286494
431.668332,-1702.473667,-9252.574275,-2068.457845
431.668654,814.226536,-7254.018232,-842.705048
431.668975,2516.700203,-5107.421000,76.609550
431.669297,2960.823768,-4737.318029,383.047749
431.669619,2738.761985,-6587.832884,153.219100
431.669941,2072.576638,-7476.080014,-459.657299
431.670262,1628.453072,-7698.141797,-2298.286494
431.670584,888.247130,-8808.450710,-2298.286494
431.670906,1184.329507,-9918.759623,-1455.581446
431.671227,1850.514855,-8512.368333,-2068.457845
431.671549,2072.576638,-9474.636058,-2451.505594
431.671871,-370.102971,-11547.212695,-2221.676944
431.672193,-4071.132681,-13545.768739,-1302.362347
431.672514,-5921.647536,-12731.542202,-1915.238745
431.672836,-5403.503377,-10955.047942,-4366.744339
431.673158,-2886.803174,-10066.800811,-4826.401637
431.673480,-1110.308913,-9178.553681,-2528.115143
431.673801,-222.061783,-7105.977043,76.609550
431.674123,518.144159,-7105.977043,766.095498
431.674445,1184.329507,-8586.388927,-689.485948
431.674766,592.164754,-9548.656652,-2298.286494
431.675088,-370.102971,-8364.327145,-2604.724693
431.675410,0.000000,-7105.977043,-2681.334243
431.675732,1776.494261,-7328.038826,-2834.553343
431.676053,3997.112087,-8660.409521,-2681.334243
431.676375,4293.194464,-10732.986159,-2145.067394
431.676697,2294.638420,-12065.356855,-1455.581446
431.677018,-888.247130,-14952.160028,-612.876398
431.677340,-2516.700203,-16210.510130,-995.924147
431.677662,-3034.844362,-14063.912898,-2068.457845
431.677984,-1406.391290,-9918.759623,-2834.553343
431.678305,1406.391290,-7031.956449,-2528.115143
431.678627,4219.173869,-4737.318029,-459.657299
431.678949,5181.441594,-3849.070898,1225.752797
431.679271,4293.194464,-5477.523971,1685.410096
431.679592,2368.659014,-7698.141797,229.828649
431.679914,222.061783,-8882.471304,-1378.971896
431.680236,-1850.514855,-10214.842000,-1762.019645
431.680557,-3034.844362,-10436.903782,-2374.896044
431.680879,-2738.761985,-9992.780217,-3217.601092
431.681201,-1850.514855,-9622.677246,-2834.553343
431.681523,-2738.761985,-9696.697840,-1302.362347
431.681844,-4663.297435,-10362.883188,-919.314598
431.682166,-5921.647536,-10807.006753,-2604.724693
431.682488,-5699.585753,-11177.109724,-3907.087040
431.682809,-4737.318029,-10732.986159,-3677.258390
431.683131,-3108.864956,-9696.697840,-1378.971896
431.683453,-592.164754,-8290.306550,1225.752797
431.683775,1036.288319,-6587.832884,995.924147
431.684096,2590.720797,-6291.750507,0.000000
431.684418,3627.009116,-6883.915261,-306.438199
431.684740,3627.009116,-6661.853478,0.000000
431.685062,2812.782580,-6809.894666,-306.438199
431.685383,2220.617826,-6735.874072,-229.828649
431.685705,3182.885551,-8512.368333,-1225.752797
431.686027,3330.926739,-9844.739029,-2757.943793
431.686348,1258.350101,-11473.192101,-2298.286494
431.686670,-2664.741391,-13619.789333,-766.095498
431.686992,-5329.482782,-15322.262999,0.000000
431.687314,-5995.668130,-15248.242405,-1762.019645
431.687635,-4441.235652,-13027.624579,-3447.429741
431.687957,-2294.638420,-10658.965565,-3677.258390
431.688279,0.000000,-7031.956449,-1149.143247
431.688600,1924.535449,-4737.318029,689.485948
431.688922,2516.700203,-4589.276840,-383.047749
431.689244,1702.473667,-7105.977043,-1685.410096
431.689566,74.020594,-8438.347739,-1838.629195
431.689887,-1184.329507,-9844.739029,-1838.629195
431.690209,-1036.288319,-10510.924376,-2987.772442
431.690531,0.000000,-10214.842000,-3983.696590
431.690853,2072.576638,-9178.553681,-2987.772442
431.691174,1702.473667,-9252.574275,-1608.800546
431.691496,-740.205942,-10658.965565,-459.657299
431.691818,-3182.885551,-12435.459826,-1685.410096
431.692139,-4515.256246,-12361.439231,-3524.039291
431.692461,-4145.153275,-11843.295072,-2987.772442
431.692783,-2368.659014,-10584.944971,-2068.457845
431.693105,74.020594,-9178.553681,-459.657299
431.693426,2220.617826,-7179.997637,842.705048
431.693748,3552.988522,-6439.791695,1762.019645
431.694070,4145.153275,-7105.977043,536.266849
431.694391,4071.132681,-6291.750507,-306.438199
431.694713,3775.050304,-5995.668130,-919.314598
431.695035,4515.256246,-5773.606348,-1685.410096
431.695357,5107.421000,-6883.915261,-2987.772442
431.695678,5329.482782,-8956.491898,-2757.943793
431.696000,3034.844362,-11991.336260,-2068.457845
431.696322,-1184.329507,-14137.933492,-459.657299
431.696643,-5477.523971,-14582.057057,-383.047749
431.696965,-7772.162391,-13915.871710,-1991.848295
431.697287,-7402.059420,-11843.295072,-4136.915689
431.697609,-6143.709319,-9326.594869,-5669.106685
431.697930,-4219.173869,-7105.977043,-2987.772442
431.698252,-2664.741391,-5477.523971,1378.971896
431.698574,-2146.597232,-5921.647536,1762.019645
431.698896,-2516.700203,-7624.121203,-383.047749
431.699217,-2664.741391,-7772.162391,-1762.019645
431.699539,-2220.617826,-7994.224174,-2451.505594
431.699861,-888.247130,-7698.141797,-3447.429741
431.700182,1332.370696,-8586.388927,-3447.429741
431.700504,3256.906145,-9696.697840,-2604.724693
431.700826,2960.823768,-10955.047942,-1149.143247
431.701148,1332.370696,-12879.583391,-383.047749
431.701469,-1110.308913,-14285.974681,-995.924147
431.701791,-2368.659014,-13693.809927,-3140.991542
431.702113,-2516.700203,-11843.295072,-3753.867940
431.702434,-666.185348,-10066.800811,-2604.724693
431.702756,2146.597232,-9474.636058,-306.438199
431.703078,3478.967927,-7550.100608,919.314598
431.703400,3627.009116,-6661.853478,2145.067394
431.703721,3034.844362,-6883.915261,2145.067394
431.704043,2516.700203,-6883.915261,0.000000
431.704365,1776.494261,-6217.729913,-2298.286494
431.704687,962.267725,-6587.832884,-2221.676944
431.705008,666.185348,-7179.997637,-1302.362347
431.705330,1184.329507,-7698.141797,-1915.238745
431.705652,1036.288319,-9474.636058,-2987.772442
431.705973,-1406.391290,-11695.253884,-3370.820191
431.706295,-5551.544565,-14211.954086,-3217.601092
431.706617,-8142.265362,-14656.077652,-3064.381992
431.706939,-7624.121203,-13915.871710,-4136.915689
431.707260,-5699.585753,-11177.109724,-4903.011187
431.707582,-3701.029710,-9104.533087,-3064.381992
431.707903,-1776.494261,-7550.100608,-459.657299
431.708225,-222.061783,-6365.771101,1072.533697
431.708547,740.205942,-5847.626942,536.266849
431.708868,1406.391290,-5255.462188,-229.828649
431.709190,2812.782580,-4441.235652,-919.314598
431.709511,4515.256246,-5107.421000,-1915.238745
431.709833,4959.379811,-8586.388927,-2451.505594
431.710155,4367.215058,-10658.965565,-383.047749
431.710476,3552.988522,-11399.171507,766.095498
431.710798,2368.659014,-13545.768739,0.000000
431.711120,222.061783,-14508.036463,-766.095498
431.711441,-2294.638420,-11991.336260,-2528.115143
431.711763,-2368.659014,-11251.130318,-4443.353888
431.712085,-1184.329507,-11547.212695,-3753.867940
431.712406,0.000000,-11695.253884,-1685.410096
431.712728,222.061783,-9252.574275,229.828649
431.713050,222.061783,-7550.100608,1225.752797
431.713371,148.041188,-7698.141797,459.657299
431.713693,-370.102971,-6957.935855,-1915.238745
431.714015,-962.267725,-5255.462188,-3294.210641
431.714336,-962.267725,-5847.626942,-2604.724693
431.714658,-740.205942,-7698.141797,-1378.971896
431.714980,-2072.576638,-9474.636058,-842.705048
431.715301,-2146.597232,-10658.965565,-1378.971896
431.715623,-2368.659014,-11991.336260,-2374.896044
431.715945,-3701.029710,-13323.706956,-2911.162892
431.716266,-5107.421000,-12657.521608,-2528.115143
431.716588,-4959.379811,-12139.377449,-2221.676944
431.716910,-3404.947333,-11251.130318,-1762.019645
431.717231,-1628.453072,-10140.821405,-1532.190996
431.717553,-370.102971,-8882.471304,-612.876398
431.717875,444.123565,-7402.059420,1149.143247
431.718196,1998.556043,-5921.647536,1455.581446
431.718518,3108.864956,-5107.421000,0.000000
431.718840,4293.194464,-4367.215058,-995.924147
431.719161,4219.173869,-5551.544565,-459.657299
431.719483,3478.967927,-7105.977043,-306.438199
431.719805,2368.659014,-8956.491898,-766.095498
431.720126,1776.494261,-10362.883188,-1378.971896
431.720448,592.164754,-12213.398043,-1838.629195
431.720770,-1776.494261,-12509.480420,-1991.848295
431.721091,-3997.112087,-11399.171507,-2145.067394
431.721413,-4219.173869,-10732.986159,-2757.943793
431.721735,-3330.926739,-9844.739029,-4290.134789
431.722056,-2590.720797,-10214.842000,-3370.820191
431.722378,-2220.617826,-10066.800811,-1302.362347
431.722700,-2146.597232,-9992.780217,153.219100
431.723021,-1924.535449,-9474.636058,536.266849
431.723343,-1480.411884,-8142.265362,-153.219100
431.723665,-296.082377,-5773.606348,-2374.896044
431.723986,1036.288319,-5329.482782,-2757.943793
431.724308,1702.473667,-6735.874072,-2528.115143
431.724630,666.185348,-8438.347739,-1991.848295
431.724951,740.205942,-9030.512492,-1072.533697
431.725273,1110.308913,-11399.171507,-1072.533697
431.725595,0.000000,-13397.727550,-2757.943793
431.725916,-2738.761985,-13545.768739,-2911.162892
431.726238,-4145.153275,-12287.418637,-2298.286494
431.726560,-3108.864956,-12657.521608,-2681.334243
431.726881,-1480.411884,-12287.418637,-2221.676944
431.727203,-296.082377,-11621.233289,-1378.971896
431.727525,0.000000,-8956.491898,842.705048
431.727846,888.247130,-6809.894666,2221.676944
431.728168,2590.720797,-5329.482782,383.047749
431.728490,3997.112087,-3627.009116,-2834.553343
431.728811,3701.029710,-3330.926739,-2451.505594
431.729133,2368.659014,-5847.626942,-459.657299
431.729455,1110.308913,-9252.574275,-306.438199
431.729776,518.144159,-11103.089130,-1378.971896
431.730098,-518.144159,-12361.439231,-1991.848295
431.730420,-1776.494261,-12435.459826,-2681.334243
431.730741,-3256.906145,-11399.171507,-2528.115143
431.731063,-3552.988522,-9696.697840,-3830.477490
431.731384,-2960.823768,-9474.636058,-4443.353888
431.731706,-2442.679609,-9918.759623,-3217.601092
431.732028,-2738.761985,-9918.759623,-1302.362347
431.732349,-1924.535449,-10140.821405,76.609550
431.732671,-1258.350101,-10436.903782,0.000000
431.732993,-222.061783,-9474.636058,76.609550
431.733314,740.205942,-7105.977043,-536.266849
431.733636,2072.576638,-4367.215058,-766.095498
431.733958,2516.700203,-3701.029710,-1838.629195
431.734279,2442.679609,-6439.791695,-1685.410096
431.734601,1110.308913,-9030.512492,-306.438199
431.734923,-518.144159,-11399.171507,-229.828649
431.735244,-2072.576638,-13545.768739,-1838.629195
431.735566,-3034.844362,-13989.892304,-2757.943793
431.735888,-3923.091493,-11399.171507,-2451.505594
431.736209,-3182.885551,-10510.924376,-3064.381992
431.736531,-1924.535449,-10658.965565,-3447.429741
431.736853,-1702.473667,-11621.233289,-2604.724693
431.737174,-1702.473667,-11177.109724,153.219100
431.737496,-1480.411884,-11177.109724,2068.457845
431.737818,0.000000,-9252.574275,383.047749
431.738139,740.205942,-7254.018232,-2221.676944
431.738461,1110.308913,-4441.235652,-1838.629195
431.738783,1776.494261,-3923.091493,-459.657299
431.739104,2442.679609,-5699.585753,-919.314598
431.739426,1480.411884,-7994.224174,-1838.629195
431.739748,74.020594,-10510.924376,-919.314598
431.740069,-1554.432478,-11843.295072,-1302.362347
431.740391,-2812.782580,-13841.851115,-2451.505594
431.740713,-3034.844362,-13693.809927,-3370.820191
431.741034,-3256.906145,-11991.336260,-2528.115143
431.741356,-2220.617826,-10881.027347,-2528.115143
431.741678,-444.123565,-10658.965565,-995.924147
431.741999,666.185348,-9326.594869,536.266849
431.742321,1406.391290,-8512.368333,766.095498
431.742643,2146.597232,-7402.059420,0.000000
431.742964,2960.823768,-5625.565159,-383.047749
431.743286,3849.070898,-3701.029710,-1302.362347
431.743608,3923.091493,-4293.194464,-1455.581446
431.743929,2886.803174,-6883.915261,-842.705048
431.744251,1258.350101,-9400.615463,-689.485948
431.744573,-666.185348,-11103.089130,-919.314598
431.744894,-2368.659014,-13323.706956,-1532.190996
431.745216,-4219.173869,-13619.789333,-2374.896044
431.745538,-5699.585753,-11177.109724,-3294.210641
431.745859,-5033.400406,-9622.677246,-3907.087040
431.746181,-4145.153275,-9992.780217,-3983.696590
431.746503,-3775.050304,-10288.862594,-3677.258390
431.746824,-3256.906145,-10140.821405,-1685.410096
431.747146,-2368.659014,-10436.903782,153.219100
431.747468,-1036.288319,-9326.594869,0.000000
431.747789,518.144159,-7994.224174,-1225.752797
431.748111,1258.350101,-5329.482782,-1915.238745
431.748433,2590.720797,-4293.194464,-1991.848295
431.748754,3404.947333,-5847.626942,-1991.848295
431.749076,3108.864956,-8882.471304,-1225.752797
431.749398,1406.391290,-9548.656652,-536.266849
431.749719,0.000000,-11917.315666,-919.314598
431.750041,-1332.370696,-14582.057057,-2451.505594
431.750363,-2812.782580,-13767.830521,-2451.505594
431.750684,-3034.844362,-10288.862594,-2757.943793
431.751006,-1258.350101,-9030.512492,-3983.696590
431.751328,666.185348,-9770.718434,-3064.381992
431.751649,1258.350101,-9474.636058,-1608.800546
431.751971,222.061783,-9104.533087,459.657299
431.752293,222.061783,-9696.697840,1378.971896
431.752614,296.082377,-9474.636058,-229.828649
431.752936,222.061783,-7698.141797,-2451.505594
431.753257,444.123565,-6439.791695,-1915.238745
431.753579,370.102971,-6217.729913,-536.266849
431.753901,222.061783,-7031.956449,-1149.143247
431.754222,296.082377,-8364.327145,-1762.019645
431.754544,0.000000,-9474.636058,-1455.581446
431.754866,-1702.473667,-10288.862594,-1838.629195
431.755187,-3701.029710,-11843.295072,-2298.286494
431.755509,-4589.276840,-11473.192101,-1991.848295
431.755831,-4145.153275,-11029.068536,-2757.943793
431.756152,-2590.720797,-9696.697840,-2757.943793
431.756474,-1110.308913,-8512.368333,-1762.019645
431.756796,-666.185348,-8512.368333,-612.876398
431.757117,296.082377,-8438.347739,-153.219100
431.757439,1036.288319,-8956.491898,-689.485948
431.757761,2146.597232,-8068.244768,-1532.190996
431.758082,2590.720797,-6883.915261,-1608.800546
431.758404,2368.659014,-7402.059420,-1302.362347
431.758726,1776.494261,-9030.512492,-766.095498
431.759047,1258.350101,-9474.636058,-766.095498
431.759369,0.000000,-9992.780217,-995.924147
431.759691,-1184.329507,-11029.068536,-1608.800546
431.760012,-2442.679609,-12361.439231,-1762.019645
431.760334,-3182.885551,-11251.130318,-1685.410096
431.760656,-3034.844362,-9992.780217,-2374.896044
431.760977,-962.267725,-9474.636058,-2681.334243
431.761299,592.164754,-10066.800811,-2528.115143
431.761621,1332.370696,-9474.636058,-459.657299
431.761942,296.082377,-9548.656652,0.000000
431.762264,-296.082377,-10658.965565,0.000000
431.762586,0.000000,-9992.780217,-842.705048
431.762907,0.000000,-7698.141797,-1302.362347
431.763229,444.123565,-5551.544565,-1915.238745
431.763551,1480.411884,-5847.626942,-2221.676944
431.763872,1184.329507,-7179.997637,-1838.629195
431.764194,-592.164754,-9770.718434,-306.438199
431.764516,-2960.823768,-11843.295072,76.609550
431.764837,-4811.338623,-14137.933492,-229.828649
431.765159,-5181.441594,-12731.542202,-1378.971896
431.765481,-3775.050304,-10066.800811,-3064.381992
431.765802,-2146.597232,-7994.224174,-3524.039291
431.766124,-444.123565,-7698.141797,-2221.676944
431.766446,1406.391290,-7846.182985,-229.828649
431.766767,2516.700203,-9252.574275,229.828649
431.767089,2220.617826,-9770.718434,229.828649
431.767411,888.247130,-10140.821405,-306.438199
431.767732,444.123565,-8808.450710,-459.657299
431.768054,1184.329507,-6957.935855,-1608.800546
431.768376,2812.782580,-6069.688724,-2911.162892
431.768697,3552.988522,-5699.585753,-2221.676944
431.769019,2368.659014,-7994.224174,-1685.410096
431.769341,0.000000,-10584.944971,-383.047749
431.769662,-3627.009116,-13471.748144,-459.657299
431.769984,-5625.565159,-14137.933492,-919.314598
431.770306,-5699.585753,-11399.171507,-2528.115143
431.770627,-3701.029710,-9178.553681,-4060.306139
431.770949,-1036.288319,-7476.080014,-3677.258390
431.771271,1110.308913,-6217.729913,-1378.971896
431.771592,1924.535449,-7476.080014,612.876398
431.771914,1850.514855,-9104.533087,0.000000
431.772236,1184.329507,-9992.780217,-1532.190996
431.772557,666.185348,-10288.862594,-2604.724693
431.772879,592.164754,-9992.780217,-2451.505594
431.773201,962.267725,-9104.533087,-2451.505594
431.773522,1480.411884,-8808.450710,-2451.505594
431.773844,1332.370696,-8364.327145,-1225.752797
431.774166,74.020594,-10288.862594,-842.705048
431.774487,-2738.761985,-11547.212695,-1608.800546
431.774809,-4737.318029,-11325.150913,-2451.505594
431.775130,-4589.276840,-10510.924376,-3524.039291
431.775452,-2294.638420,-10510.924376,-4213.525239
431.775774,-592.164754,-10732.986159,-2451.505594
431.776095,0.000000,-9252.574275,-383.047749
431.776417,0.000000,-8734.430116,536.266849
431.776739,666.185348,-9252.574275,0.000000
431.777060,1332.370696,-8808.450710,-1838.629195
431.777382,1924.535449,-6735.874072,-3907.087040
431.777704,2368.659014,-5995.668130,-3830.477490
431.778025,3108.864956,-7846.182985,-2451.505594
431.778347,2960.823768,-9844.739029,-1378.971896
431.778669,1110.308913,-11029.068536,-459.657299
431.778990,-1258.350101,-12213.398043,153.219100
431.779312,-3849.070898,-13101.645173,-1302.362347
431.779634,-5107.421000,-11695.253884,-2221.676944
431.779955,-4737.318029,-7772.162391,-3600.648841
431.780277,-2664.741391,-6217.729913,-3677.258390
431.780599,0.000000,-6587.832884,-1838.629195
431.780920,1036.288319,-6809.894666,0.000000
431.781242,296.082377,-7476.080014,1378.971896
431.781564,-370.102971,-8734.430116,536.266849
431.781885,0.000000,-10510.924376,-1149.143247
431.782207,962.267725,-9252.574275,-2604.724693
431.782529,962.267725,-7624.121203,-2834.553343
431.782850,1628.453072,-7624.121203,-1838.629195
431.783172,1850.514855,-9030.512492,-1149.143247
431.783494,1036.288319,-9992.780217,-1455.581446
431.783815,-1332.370696,-11917.315666,-2374.896044
431.784137,-4219.173869,-13249.686362,-1608.800546
431.784459,-5403.503377,-13545.768739,-2068.457845
431.784780,-4515.256246,-11399.171507,-2757.943793
431.785102,-3108.864956,-9770.718434,-2604.724693
431.785424,-1406.391290,-9252.574275,-612.876398
431.785745,-222.061783,-7698.141797,1455.581446
431.786067,592.164754,-6217.729913,1149.143247
431.786389,1850.514855,-6957.935855,-229.828649
431.786710,2368.659014,-7994.224174,-2068.457845
431.787032,2220.617826,-7105.977043,-2145.067394
431.787354,2072.576638,-7179.997637,-766.095498
431.787675,2812.782580,-8586.388927,-536.266849
431.787997,2960.823768,-11695.253884,-2604.724693
431.788319,1036.288319,-12361.439231,-2987.772442
431.788640,-1258.350101,-13619.789333,-1149.143247
431.788962,-2738.761985,-14211.954086,229.828649
431.789284,-3256.906145,-12731.542202,-766.095498
431.789605,-2368.659014,-8808.450710,-2987.772442
431.789927,-1480.411884,-6957.935855,-2987.772442
431.790249,-592.164754,-7328.038826,-919.314598
431.790570,-370.102971,-7698.141797,1225.752797
431.790892,-222.061783,-7254.018232,1378.971896
431.791214,592.164754,-8068.244768,842.705048
431.791535,1332.370696,-9474.636058,0.000000
431.791857,666.185348,-9326.594869,-153.219100
431.792179,592.164754,-6809.894666,153.219100
431.792500,2072.576638,-5699.585753,-1149.143247
431.792822,3775.050304,-6809.894666,-2834.553343
431.793144,3775.050304,-8586.388927,-2834.553343
431.793465,518.144159,-10436.903782,-1608.800546
431.793787,-2590.720797,-12805.562797,-766.095498
431.794109,-4737.318029,-15544.324782,0.000000
431.794430,-5033.400406,-14137.933492,-1685.410096
431.794752,-5033.400406,-10881.027347,-3830.477490
431.795074,-4219.173869,-8586.388927,-3370.820191
431.795395,-3108.864956,-7328.038826,-1072.533697
431.795717,-2072.576638,-5921.647536,0.000000
431.796039,-296.082377,-5699.585753,0.000000
431.796360,518.144159,-7179.997637,-459.657299
431.796682,0.000000,-8068.244768,-1991.848295
431.797003,-148.041188,-8142.265362,-1915.238745
431.797325,740.205942,-8586.388927,-1991.848295
431.797647,2664.741391,-9844.739029,-3064.381992
431.797968,4071.132681,-10288.862594,-3600.648841
431.798290,2960.823768,-11177.109724,-2757.943793
431.798612,666.185348,-12879.583391,-995.924147
431.798933,-1998.556043,-14656.077652,-306.438199
431.799255,-2590.720797,-12953.603985,-2221.676944
431.799577,-2072.576638,-9992.780217,-4060.306139
431.799898,-444.123565,-8512.368333,-4136.915689
431.800220,1258.350101,-8734.430116,-1915.238745
431.800542,1480.411884,-7031.956449,229.828649
431.800863,1924.535449,-7402.059420,1149.143247
431.801185,1924.535449,-8512.368333,383.047749
431.801507,518.144159,-9104.533087,-2298.286494
431.801828,-1406.391290,-6883.915261,-2834.553343
431.802150,-1258.350101,-6513.812290,-2834.553343
431.802472,518.144159,-7920.203579,-3447.429741
431.802793,1332.370696,-8808.450710,-3983.696590
431.803115,148.041188,-9622.677246,-2681.334243
431.803437,-1554.432478,-11991.336260,-1455.581446
431.803758,-3997.112087,-14656.077652,-1685.410096
431.804080,-5625.565159,-14952.160028,-2757.943793
431.804402,-6439.791695,-12139.377449,-3600.648841
431.804723,-4737.318029,-9178.553681,-3677.258390
431.805045,-2072.576638,-7846.182985,-2145.067394
431.805367,296.082377,-5847.626942,-229.828649
431.805688,1702.473667,-5477.523971,1302.362347
431.806010,1924.535449,-5403.503377,1455.581446
431.806332,2294.638420,-6513.812290,459.657299
431.806653,2812.782580,-5921.647536,-1302.362347
431.806975,3627.009116,-6883.915261,-1915.238745
431.807297,3256.906145,-8364.327145,-1608.800546
431.807619,3849.070898,-11177.109724,-689.485948
431.807940,3552.988522,-12213.398043,-766.095498
431.808262,2072.576638,-12361.439231,-842.705048
431.808584,-1110.308913,-12879.583391,383.047749
431.808906,-2664.741391,-12509.480420,-842.705048
431.809227,-2738.761985,-9622.677246,-3370.820191
431.809549,-1998.556043,-8068.244768,-4673.182538
431.809871,-1184.329507,-9622.677246,-1762.019645
431.810193,-1110.308913,-9252.574275,2221.676944
431.810514,-1924.535449,-8734.430116,2834.553343
431.810836,-2072.576638,-8290.306550,1608.800546
431.811158,-1258.350101,-8364.327145,-1302.362347
431.811480,-518.144159,-6587.832884,-3217.601092
431.811801,-518.144159,-4959.379811,-2757.943793
431.812123,74.020594,-5921.647536,-1149.143247
431.812445,1258.350101,-9178.553681,-2145.067394
431.812767,1554.432478,-11399.171507,-2911.162892
431.813088,0.000000,-13545.768739,-1838.629195
431.813410,-3108.864956,-15988.448347,-995.924147
431.813732,-5107.421000,-16210.510130,-919.314598
431.814054,-4663.297435,-13249.686362,-1685.410096
431.814375,-2886.803174,-9918.759623,-2298.286494
431.814697,-370.102971,-7920.203579,-1302.362347
431.815019,1036.288319,-5847.626942,612.876398
431.815341,1702.473667,-4885.359217,2145.067394
431.815662,2812.782580,-5181.441594,1302.362347
431.815984,2812.782580,-6957.935855,0.000000
431.816306,2294.638420,-7328.038826,-689.485948
431.816628,1924.535449,-7179.997637,536.266849
431.816949,2294.638420,-6661.853478,-459.657299
431.817271,3849.070898,-7698.141797,-3140.991542
431.817593,4071.132681,-10140.821405,-3677.258390
431.817915,1258.350101,-11917.315666,-1608.800546
431.818236,-2886.803174,-13619.789333,153.219100
431.818558,-5921.647536,-15174.221811,-153.219100
431.818880,-5847.626942,-13249.686362,-2298.286494
431.819202,-4663.297435,-10140.821405,-4903.011187
431.819523,-2886.803174,-8142.265362,-4673.182538
431.819845,-1110.308913,-7328.038826,-1302.362347
431.820167,-444.123565,-7179.997637,919.314598
431.820489,-962.267725,-8216.285956,1915.238745
431.820810,-1776.494261,-9252.574275,842.705048
431.821132,-1850.514855,-8512.368333,-1378.971896
431.821454,-1554.432478,-6883.915261,-3217.601092
431.821776,0.000000,-5699.585753,-2757.943793
431.822097,2368.659014,-5921.647536,-3447.429741
431.822419,4885.359217,-7846.182985,-3753.867940
431.822741,3627.009116,-11843.295072,-2374.896044
431.823063,-148.041188,-14804.118840,-612.876398
431.823384,-5107.421000,-16506.592507,-612.876398
431.823706,-6069.688724,-14804.118840,-2221.676944
431.824028,-3701.029710,-10807.006753,-4826.401637
431.824350,-814.226536,-7402.059420,-6971.469032
431.824671,1332.370696,-5773.606348,-3753.867940
431.824993,2220.617826,-6069.688724,2221.676944
431.825315,2590.720797,-7402.059420,4213.525239
431.825637,2368.659014,-8512.368333,1532.190996
431.825958,2368.659014,-8438.347739,-1685.410096
431.826280,1628.453072,-7105.977043,-3294.210641
431.826602,2146.597232,-6439.791695,-3677.258390
431.826924,3478.967927,-6883.915261,-2681.334243
431.827245,4959.379811,-8364.327145,-1762.019645
431.827567,4293.194464,-11177.109724,-1455.581446
431.827889,1036.288319,-13397.727550,-2451.505594
431.828211,-3182.885551,-16432.571912,-1915.238745
431.828532,-5773.606348,-16358.551318,-2145.067394
431.828854,-5699.585753,-13249.686362,-3677.258390
431.829176,-3627.009116,-9696.697840,-4060.306139
431.829498,-1406.391290,-6883.915261,-2221.676944
431.829819,-592.164754,-5107.421000,995.924147
431.830141,-740.205942,-6217.729913,2757.943793
431.830463,-1258.350101,-8142.265362,2145.067394
431.830785,-1850.514855,-7698.141797,-536.266849
431.831106,-1924.535449,-6069.688724,-1915.238745
431.831428,-888.247130,-5921.647536,-1915.238745
431.831750,296.082377,-6069.688724,-766.095498
431.832072,1258.350101,-7550.100608,-1838.629195
431.832393,740.205942,-10140.821405,-1915.238745
431.832715,-814.226536,-12731.542202,-766.095498
431.833037,-3478.967927,-15988.448347,-995.924147
431.833359,-4811.338623,-16136.489536,-2374.896044
431.833680,-4367.215058,-13471.748144,-3064.381992
431.834002,-1850.514855,-10732.986159,-3294.210641
431.834324,740.205942,-9400.615463,-1915.238745
431.834646,1776.494261,-7698.141797,1072.533697
431.834967,2220.617826,-6513.812290,2987.772442
431.835289,2368.659014,-6513.812290,2528.115143
431.835611,2886.803174,-6587.832884,459.657299
431.835933,3775.050304,-5625.565159,-1149.143247
431.836254,3034.844362,-5773.606348,383.047749
431.836576,3330.926739,-7328.038826,1762.019645
431.836898,3330.926739,-8142.265362,842.705048
431.837220,3701.029710,-9548.656652,-995.924147
431.837541,1998.556043,-10214.842000,-1685.410096
431.837863,-1332.370696,-11843.295072,-1762.019645
431.838185,-3478.967927,-14063.912898,-2528.115143
431.838507,-5033.400406,-14804.118840,-2911.162892
431.838828,-5477.523971,-13693.809927,-3217.601092
431.839150,-5847.626942,-11991.336260,-1915.238745
431.839472,-4737.318029,-9474.636058,153.219100
431.839794,-3404.947333,-7031.956449,153.219100
431.840115,-2146.597232,-5699.585753,-1455.581446
431.840437,-1702.473667,-5625.565159,-1149.143247
431.840759,-814.226536,-5181.441594,-536.266849
431.841081,-666.185348,-6069.688724,-1378.971896
431.841402,-592.164754,-7920.203579,-536.266849
431.841724,-592.164754,-8364.327145,0.000000
431.842046,1628.453072,-8290.306550,-2068.457845
431.842368,3701.029710,-9474.636058,-4290.134789
431.842689,3108.864956,-11769.274478,-3983.696590
431.843011,148.041188,-13471.748144,-1838.629195
431.843333,-2294.638420,-14211.954086,0.000000
431.843655,-2220.617826,-14730.098246,-306.438199
431.843976,-1258.350101,-13249.686362,-2451.505594
431.844298,0.000000,-9770.718434,-3294.210641
431.844620,1554.432478,-7624.121203,-1072.533697
431.844942,3108.864956,-6069.688724,612.876398
431.845263,3775.050304,-5255.462188,1225.752797
431.845585,3108.864956,-4737.318029,766.095498
431.845907,1776.494261,-5329.482782,-229.828649
431.846229,444.123565,-7105.977043,-2528.115143
431.846550,-1332.370696,-9326.594869,-3830.477490
431.846872,-1850.514855,-9696.697840,-3447.429741
431.847194,-1110.308913,-9844.739029,-3140.991542
431.847516,-370.102971,-11177.109724,-3677.258390
431.847837,-1924.535449,-13545.768739,-3600.648841
431.848159,-5625.565159,-14730.098246,-3140.991542
431.848481,-7402.059420,-14730.098246,-3524.039291
431.848803,-6365.771101,-13693.809927,-3983.696590
431.849124,-3404.947333,-10732.986159,-3600.648841
431.849446,-1184.329507,-7105.977043,-2451.505594
431.849768,370.102971,-4663.297435,0.000000
431.850090,2220.617826,-4515.256246,2145.067394
431.850411,3108.864956,-4441.235652,1455.581446
431.850733,2442.679609,-4885.359217,0.000000
431.851055,1850.514855,-6217.729913,-1302.362347
431.851377,1480.411884,-9178.553681,-1072.533697
431.851698,1702.473667,-9474.636058,-995.924147
431.852020,2516.700203,-9474.636058,-1991.848295
431.852342,3552.988522,-10436.903782,-2604.724693
431.852664,2368.659014,-11695.253884,-3600.648841
431.852985,-666.185348,-11769.274478,-3064.381992
431.853307,-2812.782580,-13619.789333,-2451.505594
431.853629,-3627.009116,-14878.139434,-2987.772442
431.853951,-3034.844362,-13545.768739,-3294.210641
431.854272,-1184.329507,-10362.883188,-2145.067394
431.854594,370.102971,-7105.977043,0.000000
431.854916,740.205942,-4737.318029,1762.019645
431.855238,592.164754,-2220.617826,1532.190996
431.855559,888.247130,-1702.473667,-1608.800546
431.855881,814.226536,-4885.359217,-2911.162892
431.856203,-148.041188,-10214.842000,-1225.752797
431.856525,-2072.576638,-12953.603985,612.876398
431.856846,-2368.659014,-13693.809927,1532.190996
431.857168,-1036.288319,-12805.562797,-459.657299
431.857490,-296.082377,-11695.253884,-2451.505594
431.857812,-1184.329507,-9326.594869,-2911.162892
431.858133,-2590.720797,-9548.656652,-2604.724693
431.858455,-2516.700203,-11029.068536,-2145.067394
431.858777,-2220.617826,-12435.459826,-1302.362347
431.859099,-1184.329507,-11843.295072,-76.609550
431.859420,-592.164754,-10881.027347,1072.533697
431.859742,-222.061783,-9474.636058,1455.581446
431.860064,0.000000,-7105.977043,0.000000
431.860386,1332.370696,-4515.256246,-1532.190996
431.860707,2368.659014,-4219.173869,-1838.629195
431.861029,1998.556043,-6735.874072,-1225.752797
431.861351,592.164754,-8882.471304,612.876398
431.861673,0.000000,-10436.903782,0.000000
431.861994,592.164754,-11917.315666,-1762.019645
431.862316,-148.041188,-12509.480420,-2374.896044
431.862638,-2294.638420,-10436.903782,-2068.457845
431.862960,-3478.967927,-9918.759623,-1838.629195
431.863281,-2442.679609,-10140.821405,-2298.286494
431.863603,-1258.350101,-11177.109724,-2221.676944
431.863925,-592.164754,-10140.821405,-1149.143247
431.864247,-518.144159,-9474.636058,1072.533697
431.864568,0.000000,-8438.347739,1302.362347
431.864890,148.041188,-6883.915261,76.609550
431.865212,1924.535449,-4367.215058,-1455.581446
431.865534,3404.947333,-3330.926739,-1991.848295
431.865855,3627.009116,-4737.318029,-1762.019645
431.866177,1702.473667,-7328.038826,-1302.362347
431.866499,666.185348,-9548.656652,-995.924147
431.866821,148.041188,-11843.295072,-2604.724693
431.867142,-1480.411884,-14952.160028,-3064.381992
431.867464,-3701.029710,-15470.304188,-2451.505594
431.867786,-5181.441594,-13175.665768,-1762.019645
431.868108,-3923.091493,-10955.047942,-2528.115143
431.868429,-1776.494261,-10288.862594,-2757.943793
431.868751,-74.020594,-8364.327145,-2221.676944
431.869073,370.102971,-6291.750507,-459.657299
431.869395,814.226536,-5995.668130,1072.533697
431.869716,1184.329507,-7254.018232,1072.533697
431.870038,1332.370696,-7254.018232,-766.095498
431.870360,666.185348,-8290.306550,-1762.019645
431.870682,518.144159,-9252.574275,-766.095498
431.871003,-222.061783,-9844.739029,-612.876398
431.871325,296.082377,-9622.677246,-1915.238745
431.871647,444.123565,-9548.656652,-2298.286494
431.871969,-814.226536,-10658.965565,-2757.943793
431.872290,-2368.659014,-11029.068536,-3524.039291
431.872612,-3256.906145,-10881.027347,-3907.087040
431.872934,-3108.864956,-11177.109724,-4979.620737
431.873256,-2442.679609,-12879.583391,-4673.182538
431.873577,-1776.494261,-12879.583391,-2528.115143
431.873899,-1406.391290,-12435.459826,-459.657299
431.874221,-1184.329507,-11029.068536,0.000000
431.874543,-592.164754,-8586.388927,-383.047749
431.874864,1554.432478,-5033.400406,-1072.533697
431.875186,2960.823768,-2368.659014,-2374.896044
431.875508,4219.173869,-2738.761985,-3064.381992
431.875830,3849.070898,-6069.688724,-2221.676944
431.876151,2664.741391,-8882.471304,153.219100
431.876473,1184.329507,-11843.295072,842.705048
431.876795,-1258.350101,-15026.180623,0.000000
431.877117,-3034.844362,-16136.489536,-1685.410096
431.877438,-3849.070898,-11547.212695,-2911.162892
431.877760,-2220.617826,-8290.306550,-3447.429741
431.878082,1258.350101,-7254.018232,-2451.505594
431.878404,2812.782580,-5403.503377,-1838.629195
431.878725,2886.803174,-5625.565159,0.000000
431.879047,1850.514855,-8216.285956,1532.190996
431.879369,0.000000,-10584.944971,1532.190996
431.879691,-1406.391290,-9474.636058,-842.705048
431.880012,-2220.617826,-8068.244768,-2221.676944
431.880334,-1850.514855,-7105.977043,-1608.800546
431.880656,-1036.288319,-6957.935855,-1838.629195
431.880978,-666.185348,-6439.791695,-2298.286494
431.881299,-888.247130,-8660.409521,-1225.752797
431.881621,-2146.597232,-10881.027347,-995.924147
431.881943,-4737.318029,-13545.768739,-2757.943793
431.882265,-5995.668130,-13693.809927,-2681.334243
431.882586,-5995.668130,-13693.809927,-2068.457845
431.882908,-4219.173869,-12583.501014,-3370.820191
431.883230,-2220.617826,-10658.965565,-3217.601092
431.883552,-518.144159,-9326.594869,-612.876398
431.883873,1850.514855,-9030.512492,612.876398
431.884195,3775.050304,-7402.059420,-842.705048
431.884517,5033.400406,-6069.688724,-2757.943793
431.884839,5847.626942,-6661.853478,-1685.410096
431.885160,4589.276840,-7402.059420,0.000000
431.885482,3108.864956,-9104.533087,-459.657299
431.885804,2146.597232,-9918.759623,-459.657299
431.886126,1554.432478,-11325.150913,-536.266849
431.886447,518.144159,-12213.398043,-1149.143247
431.886769,-1702.473667,-12805.562797,-766.095498
431.887091,-2960.823768,-11843.295072,0.000000
431.887413,-2516.700203,-9992.780217,-536.266849
431.887734,-1036.288319,-7772.162391,-1455.581446
431.888056,-370.102971,-6513.812290,-1225.752797
431.888378,0.000000,-5181.441594,-842.705048
431.888700,0.000000,-6883.915261,-459.657299
431.889021,-1258.350101,-9326.594869,-536.266849
431.889343,-2072.576638,-10362.883188,153.219100
431.889665,-2220.617826,-9252.574275,1225.752797
431.889987,-1850.514855,-7254.018232,76.609550
431.890308,296.082377,-6365.771101,-2757.943793
431.890630,1480.411884,-5403.503377,-4366.744339
431.890952,1332.370696,-6661.853478,-3983.696590
431.891274,-740.205942,-9770.718434,-1608.800546
431.891595,-3701.029710,-13471.748144,0.000000
431.891917,-5921.647536,-13915.871710,0.000000
431.892239,-6513.812290,-12583.501014,-2221.676944
431.892561,-4959.379811,-10658.965565,-3983.696590
431.892882,-1924.535449,-9474.636058,-4290.134789
431.893204,1184.329507,-7105.977043,-3217.601092
431.893526,2442.679609,-6809.894666,76.609550
431.893848,3478.967927,-8512.368333,2221.676944
431.894169,3404.947333,-10510.924376,76.609550
431.894491,2590.720797,-10214.842000,-2451.505594
431.894813,1850.514855,-9992.780217,-2834.553343
431.895135,2220.617826,-9548.656652,-2834.553343
431.895456,3478.967927,-8364.327145,-2681.334243
431.895778,3256.906145,-8290.306550,-1685.410096
431.896100,1554.432478,-10140.821405,-153.219100
431.896422,-1924.535449,-12287.418637,-689.485948
431.896743,-4145.153275,-12287.418637,-2604.724693
431.897065,-4663.297435,-11843.295072,-3753.867940
431.897387,-3627.009116,-11251.130318,-4443.353888
431.897709,-2516.700203,-10066.800811,-2681.334243
431.898030,-666.185348,-8364.327145,-306.438199
431.898352,370.102971,-7624.121203,153.219100
431.898674,666.185348,-7920.203579,-919.314598
431.898996,-296.082377,-9104.533087,-2221.676944
431.899317,-1184.329507,-8364.327145,-3140.991542
431.899639,-1776.494261,-8068.244768,-2834.553343
431.899961,-1406.391290,-8512.368333,-1838.629195
431.900283,-296.082377,-8512.368333,-1072.533697
431.900604,444.123565,-6735.874072,-2068.457845
431.900926,-222.061783,-8290.306550,-2757.943793
431.901248,-2738.761985,-11177.109724,-1608.800546
431.901570,-4959.379811,-12435.459826,-1072.533697
431.901891,-5033.400406,-11547.212695,-1838.629195
431.902213,-3404.947333,-9696.697840,-2145.067394
431.902535,-518.144159,-9400.615463,-1149.143247
431.902857,1702.473667,-8142.265362,-306.438199
431.903178,3256.906145,-5921.647536,229.828649
431.903500,4515.256246,-5477.523971,229.828649
431.903822,5329.482782,-6735.874072,306.438199
431.904144,5699.585753,-5921.647536,0.000000
431.904465,4515.256246,-6291.750507,-766.095498
431.904787,3849.070898,-8142.265362,-766.095498
431.905109,2368.659014,-11029.068536,-383.047749
431.905431,740.205942,-11399.171507,153.219100
431.905752,-1406.391290,-11843.295072,536.266849
431.906074,-3627.009116,-11991.336260,0.000000
431.906396,-5033.400406,-11399.171507,-1762.019645
431.906718,-4737.318029,-9474.636058,-3294.210641
431.907039,-3923.091493,-8586.388927,-3064.381992
431.907361,-3627.009116,-9030.512492,-1532.190996
431.907683,-3256.906145,-9326.594869,0.000000
431.908005,-2442.679609,-9474.636058,-689.485948
431.908326,-2294.638420,-9844.739029,-2298.286494
431.908648,-1998.556043,-11621.233289,-2528.115143
431.908970,-1850.514855,-10881.027347,-1915.238745
431.909292,-666.185348,-9252.574275,-1991.848295
431.909613,1036.288319,-8290.306550,-1991.848295
431.909935,2072.576638,-9252.574275,-2451.505594
431.910257,2738.761985,-8808.450710,-2987.772442
431.910579,1480.411884,-10066.800811,-2604.724693
431.910900,-370.102971,-12361.439231,-1532.190996
431.911222,-1998.556043,-13989.892304,-919.314598
431.911544,-3404.947333,-12805.562797,-842.705048
431.911866,-2812.782580,-11177.109724,-536.266849
431.912187,-962.267725,-9474.636058,0.000000
431.912509,1406.391290,-7550.100608,-842.705048
431.912831,3552.988522,-4737.318029,-842.705048
431.913153,5181.441594,-5255.462188,153.219100
431.913475,4959.379811,-6957.935855,612.876398
431.913796,3627.009116,-7550.100608,76.609550
431.914118,1628.453072,-7920.203579,-536.266849
431.914440,888.247130,-8068.244768,-1608.800546
431.914762,666.185348,-9992.780217,-2911.162892
431.915083,0.000000,-9474.636058,-3983.696590
431.915405,-1702.473667,-9844.739029,-2298.286494
431.915727,-3478.967927,-10732.986159,-842.705048
431.916049,-5107.421000,-11991.336260,-1225.752797
431.916370,-6069.688724,-10288.862594,-2987.772442
431.916692,-6069.688724,-8808.450710,-4060.306139
431.917014,-5403.503377,-8142.265362,-3983.696590
431.917336,-4293.194464,-8586.388927,-2068.457845
431.917657,-2960.823768,-7772.162391,76.609550
431.917979,-2146.597232,-7476.080014,766.095498
431.918301,-444.123565,-8660.409521,-459.657299
431.918623,-222.061783,-8290.306550,-2068.457845
431.918944,222.061783,-7105.977043,-2451.505594
431.919266,1628.453072,-6661.853478,-2911.162892
431.919588,3256.906145,-8290.306550,-3600.648841
431.919910,3552.988522,-9622.677246,-2987.772442
431.920231,2368.659014,-11399.171507,-1991.848295
431.920553,370.102971,-12509.480420,-1532.190996
431.920875,-1924.535449,-13545.768739,-1991.848295
431.921197,-2368.659014,-11769.274478,-3140.991542
431.921518,-1702.473667,-10214.842000,-3830.477490
431.921840,222.061783,-9844.739029,-4060.306139
431.922162,1036.288319,-11251.130318,-1991.848295
431.922484,1998.556043,-10436.903782,919.314598
431.922805,2442.679609,-9252.574275,1532.190996
431.923127,3478.967927,-8882.471304,-229.828649
431.923449,2960.823768,-7920.203579,-2068.457845
431.923771,2368.659014,-6217.729913,-2681.334243
431.924092,1776.494261,-5995.668130,-2451.505594
