#time,accel_x,accel_y,accel_z
393.630468,0.000000,-8956.491898,-1838.629195
393.630791,0.000000,-9474.636058,-1915.238745
393.631113,-444.123565,-9548.656652,-1685.410096
393.631436,-592.164754,-9400.615463,-1608.800546
393.631758,-518.144159,-9696.697840,-1838.629195
393.632081,-370.102971,-9178.553681,-1915.238745
393.632403,-148.041188,-9252.574275,-1762.019645
393.632725,-148.041188,-9252.574275,-1762.019645
393.633048,-148.041188,-9326.594869,-1685.410096
393.633370,-222.061783,-9252.574275,-1838.629195
393.633693,-296.082377,-9400.615463,-1762.019645
393.634015,-444.123565,-9770.718434,-1915.238745
393.634338,-592.164754,-9548.656652,-2145.067394
393.634660,-370.102971,-9474.636058,-1991.848295
393.634983,-518.144159,-9252.574275,-2298.286494
393.635305,-296.082377,-9030.512492,-2068.457845
393.635628,-148.041188,-9474.636058,-1762.019645
393.635950,-592.164754,-9178.553681,-1915.238745
393.636273,-592.164754,-9548.656652,-1838.629195
393.636595,-592.164754,-9474.636058,-1991.848295
393.636917,-518.144159,-9400.615463,-2068.457845
393.637240,-296.082377,-9400.615463,-2221.676944
393.637562,0.000000,-9622.677246,-1762.019645
393.637885,-518.144159,-9252.574275,-1685.410096
393.638207,-296.082377,-9474.636058,-1915.238745
393.638530,-370.102971,-9474.636058,-1838.629195
393.638852,-444.123565,-9474.636058,-1838.629195
393.639175,-518.144159,-9474.636058,-1838.629195
393.639497,-518.144159,-9252.574275,-1838.629195
393.639820,-444.123565,-9400.615463,-1608.800546
393.640142,-296.082377,-9252.574275,-1608.800546
393.640465,-148.041188,-9400.615463,-1608.800546
393.640787,-444.123565,-9474.636058,-1532.190996
393.641109,-592.164754,-9252.574275,-1302.362347
393.641432,-518.144159,-9474.636058,-1532.190996
393.641754,-370.102971,-9696.697840,-1608.800546
393.642077,-444.123565,-9548.656652,-1608.800546
393.642399,-370.102971,-9474.636058,-1608.800546
393.642722,-148.041188,-9400.615463,-1685.410096
393.643044,-148.041188,-9474.636058,-1378.971896
393.643367,-296.082377,-9474.636058,-1225.752797
393.643689,-444.123565,-9400.615463,-1302.362347
393.644012,-666.185348,-9474.636058,-1378.971896
393.644334,-888.247130,-9474.636058,-766.095498
393.644657,-592.164754,-9474.636058,-1455.581446
393.644979,-296.082377,-9326.594869,-1378.971896
393.645301,-222.061783,-9252.574275,-1378.971896
393.645624,-296.082377,-9252.574275,-1225.752797
393.645946,-296.082377,-9178.553681,-1072.533697
393.646269,-666.185348,-9178.553681,-1225.752797
393.646591,-592.164754,-9548.656652,-995.924147
393.646914,-592.164754,-9548.656652,-1225.752797
393.647236,-148.041188,-9474.636058,-1225.752797
393.647559,518.144159,-9252.574275,-1225.752797
393.647881,2294.638420,-9400.615463,-1915.238745
393.648204,2738.761985,-9326.594869,-1149.143247
393.648526,2294.638420,-8734.430116,76.609550
393.648849,1258.350101,-8290.306550,-306.438199
393.649171,148.041188,-9030.512492,-1762.019645
393.649493,-666.185348,-9696.697840,-2374.896044
393.649816,-2220.617826,-9548.656652,-1762.019645
393.650138,-3701.029710,-9474.636058,-1915.238745
393.650461,-3775.050304,-9252.574275,-2451.505594
393.650783,-1850.514855,-9474.636058,-3064.381992
393.651106,1406.391290,-10955.047942,-2528.115143
393.651428,3404.947333,-11251.130318,-766.095498
393.651751,3182.885551,-9696.697840,229.828649
393.652073,2442.679609,-8734.430116,0.000000
393.652396,2368.659014,-9178.553681,-1225.752797
393.652718,2664.741391,-9548.656652,-2451.505594
393.653041,1776.494261,-9178.553681,-2145.067394
393.653363,0.000000,-7624.121203,-459.657299
393.653685,-370.102971,-6883.915261,-612.876398
393.654008,962.267725,-8216.285956,-2145.067394
393.654330,1850.514855,-10066.800811,-2757.943793
393.654653,296.082377,-9992.780217,-536.266849
393.654975,-1702.473667,-9030.512492,-689.485948
393.655298,-1628.453072,-9030.512492,-2757.943793
393.655620,-296.082377,-9326.594869,-4826.401637
393.655943,296.082377,-10066.800811,-3370.820191
393.656265,814.226536,-11029.068536,-1608.800546
393.656588,1850.514855,-10510.924376,-2987.772442
393.656910,3478.967927,-9696.697840,-2451.505594
393.657233,4589.276840,-10436.903782,-1302.362347
393.657555,4959.379811,-11769.274478,-612.876398
393.657877,3775.050304,-10658.965565,-995.924147
393.658200,2664.741391,-8586.388927,-1378.971896
393.658522,2368.659014,-7698.141797,-766.095498
393.658845,2368.659014,-7994.224174,-1532.190996
393.659167,2072.576638,-7624.121203,-1149.143247
393.659490,1110.308913,-7031.956449,-1149.143247
393.659812,1702.473667,-8808.450710,-919.314598
393.660135,2442.679609,-10584.944971,-612.876398
393.660457,2368.659014,-10510.924376,-1072.533697
393.660780,1628.453072,-9548.656652,-1915.238745
393.661102,1776.494261,-10214.842000,-1915.238745
393.661425,2442.679609,-9770.718434,-1455.581446
393.661747,3034.844362,-9252.574275,-2451.505594
393.662069,2738.761985,-9622.677246,-2528.115143
393.662392,2516.700203,-10436.903782,-1455.581446
393.662714,3034.844362,-9992.780217,-459.657299
393.663037,3034.844362,-10066.800811,-1378.971896
393.663359,2738.761985,-10214.842000,-1225.752797
393.663682,2146.597232,-9252.574275,-306.438199
393.664004,1776.494261,-8142.265362,0.000000
393.664327,888.247130,-6957.935855,-612.876398
393.664649,74.020594,-7550.100608,-1225.752797
393.664972,-148.041188,-8734.430116,-842.705048
393.665294,-222.061783,-9696.697840,-689.485948
393.665617,-296.082377,-10732.986159,-536.266849
393.665939,0.000000,-11843.295072,-306.438199
393.666261,740.205942,-11917.315666,-229.828649
393.666584,1184.329507,-11251.130318,0.000000
393.666906,1332.370696,-10140.821405,-306.438199
393.667229,1702.473667,-9400.615463,-1149.143247
393.667551,1406.391290,-8290.306550,-1302.362347
393.667874,1332.370696,-7846.182985,-1149.143247
393.668196,1406.391290,-8290.306550,-1302.362347
393.668519,1406.391290,-8290.306550,-1608.800546
393.668841,1628.453072,-8882.471304,-1149.143247
393.669164,1406.391290,-8438.347739,-919.314598
393.669486,1702.473667,-7994.224174,-1302.362347
393.669809,1850.514855,-7328.038826,-2451.505594
393.670131,1924.535449,-7846.182985,-2374.896044
393.670453,1924.535449,-8808.450710,-1608.800546
393.670776,1332.370696,-9252.574275,-1378.971896
393.671098,1258.350101,-10066.800811,-2145.067394
393.671421,1184.329507,-11251.130318,-2145.067394
393.671743,1480.411884,-11991.336260,-1532.190996
393.672066,1850.514855,-11399.171507,-1149.143247
393.672388,2220.617826,-10288.862594,-536.266849
393.672711,2590.720797,-9918.759623,-1149.143247
393.673033,3256.906145,-9474.636058,-1149.143247
393.673356,3701.029710,-9178.553681,-689.485948
393.673678,3478.967927,-8660.409521,-536.266849
393.674001,4145.153275,-8364.327145,-1072.533697
393.674323,5181.441594,-8142.265362,-1991.848295
393.674645,6217.729913,-8438.347739,-2451.505594
393.674968,6069.688724,-8364.327145,-1915.238745
393.675290,5255.462188,-8734.430116,-1455.581446
393.675613,4293.194464,-9696.697840,-1991.848295
393.675935,3108.864956,-11399.171507,-3140.991542
393.676258,1480.411884,-12361.439231,-2911.162892
393.676580,74.020594,-12805.562797,-2451.505594
393.676903,-814.226536,-11843.295072,-1685.410096
393.677225,-666.185348,-10510.924376,-766.095498
393.677548,-888.247130,-8216.285956,0.000000
393.677870,0.000000,-7402.059420,-536.266849
393.678193,148.041188,-6661.853478,-536.266849
393.678515,222.061783,-5921.647536,-612.876398
393.678837,148.041188,-5551.544565,-612.876398
393.679160,222.061783,-6661.853478,-1838.629195
393.679482,740.205942,-8290.306550,-1991.848295
393.679805,370.102971,-8882.471304,-1838.629195
393.680127,74.020594,-9770.718434,-2068.457845
393.680450,222.061783,-11103.089130,-2528.115143
393.680772,444.123565,-11177.109724,-2834.553343
393.681095,-444.123565,-10881.027347,-2604.724693
393.681417,-1554.432478,-11251.130318,-2528.115143
393.681740,-2294.638420,-11917.315666,-2757.943793
393.682062,-2960.823768,-12139.377449,-2528.115143
393.682385,-3627.009116,-12139.377449,-1532.190996
393.682707,-3997.112087,-11399.171507,-1378.971896
393.683029,-3478.967927,-10584.944971,-612.876398
393.683352,-2220.617826,-10214.842000,-153.219100
393.683674,-222.061783,-8882.471304,0.000000
393.683997,814.226536,-7105.977043,306.438199
393.684319,2516.700203,-6069.688724,0.000000
393.684642,4959.379811,-5625.565159,-383.047749
393.684964,5921.647536,-6069.688724,-995.924147
393.685287,6069.688724,-6291.750507,-995.924147
393.685609,5329.482782,-6809.894666,-1149.143247
393.685932,5107.421000,-8586.388927,-4136.915689
393.686254,4811.338623,-11843.295072,-3830.477490
393.686577,3849.070898,-13767.830521,-2221.676944
393.686899,1480.411884,-12879.583391,-1225.752797
393.687221,-1554.432478,-11843.295072,-536.266849
393.687544,-3108.864956,-11029.068536,-766.095498
393.687866,-4811.338623,-10066.800811,-2528.115143
393.688189,-6291.750507,-8808.450710,-2068.457845
393.688511,-7476.080014,-7031.956449,-536.266849
393.688834,-7476.080014,-5477.523971,-1149.143247
393.689156,-4515.256246,-7402.059420,-1838.629195
393.689479,-370.102971,-8142.265362,-1532.190996
393.689801,3627.009116,-9326.594869,-1838.629195
393.690124,6513.812290,-10732.986159,-2374.896044
393.690446,9474.636058,-11325.150913,-995.924147
393.690769,11695.253884,-10510.924376,-766.095498
393.691091,12287.418637,-8956.491898,-1532.190996
393.691413,12435.459826,-7550.100608,-3064.381992
393.691736,10362.883188,-7772.162391,-2528.115143
393.692058,7105.977043,-9844.739029,-2068.457845
393.692381,3478.967927,-10881.027347,-536.266849
393.692703,-740.205942,-12213.398043,-153.219100
393.693026,-4145.153275,-13101.645173,536.266849
393.693348,-5403.503377,-12287.418637,459.657299
393.693671,-7994.224174,-10436.903782,-306.438199
393.693993,-9326.594869,-8808.450710,919.314598
393.694316,-9622.677246,-5033.400406,1762.019645
393.694638,-9992.780217,-2590.720797,383.047749
393.694961,-7698.141797,-4367.215058,-2068.457845
393.695283,-4367.215058,-7031.956449,-4749.792088
393.695605,-370.102971,-9548.656652,-5822.325785
393.695929,2590.720797,-11843.295072,-4136.915689
393.696252,3997.112087,-12361.439231,-612.876398
393.696574,5403.503377,-10510.924376,-1532.190996
393.696897,6513.812290,-9918.759623,-6281.983084
393.697219,6809.894666,-11621.233289,-7277.907231
393.697542,5255.462188,-11695.253884,-4903.011187
393.697864,814.226536,-9252.574275,-1915.238745
393.698187,-3330.926739,-9030.512492,0.000000
393.698509,-5625.565159,-9844.739029,1225.752797
393.698832,-7402.059420,-9770.718434,536.266849
393.699154,-8660.409521,-9992.780217,-1532.190996
393.699477,-10436.903782,-11251.130318,-1532.190996
393.699799,-10658.965565,-10214.842000,3064.381992
393.700122,-7624.121203,-6217.729913,2528.115143
393.700444,-3256.906145,-4219.173869,-689.485948
393.700767,2812.782580,-6809.894666,-2987.772442
393.701089,8586.388927,-7624.121203,-3753.867940
393.701412,10881.027347,-8660.409521,-4213.525239
393.701734,11177.109724,-10288.862594,-1378.971896
393.702057,10436.903782,-11029.068536,-306.438199
393.702379,9326.594869,-11991.336260,-5745.716235
393.702702,6069.688724,-14285.974681,-7048.078582
393.703025,1110.308913,-13989.892304,-4443.353888
393.703347,-6143.709319,-9918.759623,-3983.696590
393.703670,-10807.006753,-10732.986159,-2681.334243
393.703992,-11769.274478,-10510.924376,1762.019645
393.704315,-13619.789333,-8956.491898,306.438199
393.704637,-13397.727550,-8438.347739,-2145.067394
393.704960,-11843.295072,-9992.780217,306.438199
393.705282,-9918.759623,-8660.409521,5209.449386
393.705605,-6809.894666,-3701.029710,3677.258390
393.705927,-2294.638420,-2886.803174,1072.533697
393.706250,4367.215058,-4663.297435,-1302.362347
393.706572,9622.677246,-3849.070898,-3677.258390
393.706895,11177.109724,-5329.482782,-2911.162892
393.707217,12731.542202,-7254.018232,-536.266849
393.707540,14211.954086,-9474.636058,-3907.087040
393.707862,13175.665768,-13027.624579,-7737.564530
393.708185,9844.739029,-15840.407159,-4290.134789
393.708507,3404.947333,-14434.015869,-1762.019645
393.708830,-3108.864956,-12805.562797,-4060.306139
393.709152,-5699.585753,-13841.851115,-3447.429741
393.709475,-6587.832884,-13101.645173,-3064.381992
393.709797,-9474.636058,-11399.171507,-2528.115143
393.710120,-11473.192101,-9474.636058,4903.011187
393.710443,-11325.150913,-6735.874072,6741.640382
393.710765,-8512.368333,-7105.977043,2451.505594
393.711088,-1702.473667,-6957.935855,-612.876398
393.711410,3775.050304,-3552.988522,-995.924147
393.711733,7698.141797,-2664.741391,-2834.553343
393.712055,12435.459826,-5033.400406,-1378.971896
393.712378,14211.954086,-7105.977043,536.266849
393.712700,13619.789333,-6661.853478,-1072.533697
393.713023,9622.677246,-8808.450710,-5209.449386
393.713345,3552.988522,-15322.262999,-7354.516781
393.713668,-1480.411884,-20133.601622,-6128.763984
393.713990,-6661.853478,-16802.674883,-5515.887586
393.714313,-11695.253884,-12583.501014,-4366.744339
393.714635,-12213.398043,-13175.665768,-1378.971896
393.714958,-11843.295072,-9178.553681,842.705048
393.715280,-11399.171507,-7846.182985,229.828649
393.715603,-11843.295072,-8956.491898,76.609550
393.715925,-10955.047942,-10362.883188,3600.648841
393.716248,-7920.203579,-8364.327145,5439.278036
393.716570,-2886.803174,-3923.091493,3753.867940
393.716893,3701.029710,-1110.308913,1072.533697
393.717215,10288.862594,-814.226536,-2451.505594
393.717538,15544.324782,-1036.288319,-1378.971896
393.717861,15692.365970,-2738.761985,-153.219100
393.718183,12509.480420,-7920.203579,-3753.867940
393.718506,9474.636058,-14656.077652,-6665.030833
393.718828,6217.729913,-17098.757260,-6128.763984
393.719151,1036.288319,-15840.407159,-6435.202183
393.719473,-6365.771101,-14582.057057,-5669.106685
393.719796,-10510.924376,-14656.077652,-4060.306139
393.720118,-11399.171507,-13397.727550,-1072.533697
393.720441,-12287.418637,-11325.150913,-306.438199
393.720763,-13989.892304,-11325.150913,689.485948
393.721086,-11843.295072,-9844.739029,2298.286494
393.721408,-7402.059420,-7105.977043,612.876398
393.721731,-2294.638420,-5551.544565,2374.896044
393.722053,4219.173869,-4737.318029,4596.572988
393.722376,10288.862594,-1480.411884,689.485948
393.722698,13915.871710,-1406.391290,-2911.162892
393.723021,15322.262999,-2960.823768,-459.657299
393.723343,13027.624579,-5699.585753,-2221.676944
393.723666,9252.574275,-9178.553681,-6971.469032
393.723988,4367.215058,-13323.706956,-6741.640382
393.724311,-1332.370696,-15248.242405,-5592.497135
393.724633,-6809.894666,-17098.757260,-7048.078582
393.724956,-9844.739029,-19171.333898,-6588.421283
393.725279,-13397.727550,-16580.613101,-3830.477490
393.725601,-13841.851115,-14211.954086,-3753.867940
393.725924,-11991.336260,-13989.892304,-2604.724693
393.726246,-9622.677246,-12879.583391,3294.210641
393.726569,-8882.471304,-8068.244768,4136.915689
393.726891,-4441.235652,-4515.256246,2757.943793
393.727214,2368.659014,-3404.947333,3064.381992
393.727536,9474.636058,-962.267725,995.924147
393.727859,13767.830521,592.164754,-1378.971896
393.728181,15618.345376,-1554.432478,1149.143247
393.728504,17024.736666,-2960.823768,3830.477490
393.728826,15322.262999,-4663.297435,-2374.896044
393.729149,10881.027347,-8882.471304,-6894.859482
393.729471,4885.359217,-13841.851115,-4903.011187
393.729794,-2812.782580,-14804.118840,-5745.716235
393.730116,-10140.821405,-17246.798449,-6128.763984
393.730439,-13619.789333,-16876.695478,-3294.210641
393.730761,-14508.036463,-15396.283594,-3447.429741
393.731084,-12953.603985,-13619.789333,-3753.867940
393.731406,-11917.315666,-12731.542202,-383.047749
393.731729,-10807.006753,-11177.109724,4596.572988
393.732051,-6809.894666,-6883.915261,2298.286494
393.732374,-888.247130,-4589.276840,1915.238745
393.732697,5107.421000,-3478.967927,2145.067394
393.733019,9178.553681,-814.226536,-1302.362347
393.733342,11473.192101,-666.185348,-1532.190996
393.733664,13323.706956,-3404.947333,2221.676944
393.733987,12287.418637,-6069.688724,383.047749
393.734309,9400.615463,-9622.677246,-4136.915689
393.734632,4885.359217,-12213.398043,-6052.154434
393.734954,-2146.597232,-13323.706956,-5209.449386
393.735277,-8512.368333,-15988.448347,-5745.716235
393.735599,-13397.727550,-16802.674883,-4290.134789
393.735922,-15988.448347,-16580.613101,-3524.039291
393.736244,-15988.448347,-13989.892304,-2987.772442
393.736567,-13693.809927,-15692.365970,-229.828649
393.736889,-11399.171507,-14434.015869,1762.019645
393.737212,-7550.100608,-11547.212695,1302.362347
393.737534,-2368.659014,-5921.647536,3294.210641
393.737857,3256.906145,-1554.432478,4903.011187
393.738179,8290.306550,1110.308913,2221.676944
393.738502,12731.542202,1628.453072,-1225.752797
393.738824,13915.871710,888.247130,-2068.457845
393.739147,12435.459826,-3108.864956,-2145.067394
393.739469,8956.491898,-8290.306550,-3064.381992
393.739792,4515.256246,-12287.418637,-3600.648841
393.740114,0.000000,-13545.768739,-5822.325785
393.740437,-5107.421000,-15174.221811,-7354.516781
393.740760,-8660.409521,-17172.777854,-5362.668486
393.741082,-12213.398043,-15248.242405,-4673.182538
393.741405,-13323.706956,-14878.139434,-4903.011187
393.741727,-11991.336260,-14508.036463,-1608.800546
393.742050,-9104.533087,-12657.521608,2987.772442
393.742372,-6439.791695,-7476.080014,76.609550
393.742695,-1628.453072,-6143.709319,-229.828649
393.743017,4959.379811,-7105.977043,2451.505594
393.743340,11251.130318,-4959.379811,1149.143247
393.743662,13915.871710,-3701.029710,306.438199
393.743985,15692.365970,-2368.659014,2911.162892
393.744307,16876.695478,-2368.659014,1608.800546
393.744630,14211.954086,-4145.153275,-4519.963438
393.744952,9474.636058,-7328.038826,-5056.230287
393.745275,2516.700203,-10584.944971,-3447.429741
393.745597,-4515.256246,-13915.871710,-5209.449386
393.745920,-10214.842000,-16802.674883,-4519.963438
393.746242,-15470.304188,-16876.695478,-4290.134789
393.746565,-16580.613101,-17838.963202,-5745.716235
393.746887,-15174.221811,-16358.551318,-4366.744339
393.747210,-13175.665768,-16062.468941,-919.314598
393.747532,-11621.233289,-11917.315666,3064.381992
393.747855,-7772.162391,-7105.977043,2604.724693
393.748178,-1184.329507,-4367.215058,1838.629195
393.748500,5995.668130,-3701.029710,612.876398
393.748823,10510.924376,-1406.391290,-1378.971896
393.749145,12509.480420,74.020594,-612.876398
393.749468,13693.809927,-1258.350101,1302.362347
393.749790,13175.665768,-4071.132681,-689.485948
393.750113,10881.027347,-8586.388927,-4136.915689
393.750435,6809.894666,-11177.109724,-5056.230287
393.750758,296.082377,-12583.501014,-5132.839837
393.751080,-5773.606348,-16284.530724,-5132.839837
393.751403,-9326.594869,-17172.777854,-1762.019645
393.751725,-12361.439231,-14137.933492,-1762.019645
393.752048,-12287.418637,-12657.521608,-3830.477490
393.752370,-10510.924376,-13915.871710,-1685.410096
393.752693,-8068.244768,-13545.768739,2145.067394
393.753015,-5625.565159,-8734.430116,1838.629195
393.753338,-1480.411884,-4441.235652,1991.848295
393.753660,4145.153275,-5477.523971,2451.505594
393.753983,8956.491898,-3997.112087,689.485948
393.754305,10288.862594,-1554.432478,-1762.019645
393.754628,10436.903782,-2886.803174,-1072.533697
393.754950,9918.759623,-5403.503377,-689.485948
393.755273,8734.430116,-8364.327145,-3140.991542
393.755596,4811.338623,-9400.615463,-5209.449386
393.755918,-1554.432478,-10807.006753,-5515.887586
393.756241,-7846.182985,-14285.974681,-5515.887586
393.756563,-11547.212695,-17468.860231,-3217.601092
393.756886,-15174.221811,-16580.613101,-2987.772442
393.757208,-16876.695478,-14211.954086,-4519.963438
393.757531,-14656.077652,-13841.851115,-1991.848295
393.757853,-11695.253884,-13989.892304,1225.752797
393.758176,-8068.244768,-10807.006753,1915.238745
393.758498,-3330.926739,-6217.729913,3140.991542
393.758821,2516.700203,-2146.597232,3294.210641
393.759143,8216.285956,-888.247130,1532.190996
393.759466,12361.439231,-1258.350101,459.657299
393.759788,12879.583391,-962.267725,0.000000
393.760111,12065.356855,-2960.823768,-1532.190996
393.760433,11251.130318,-6957.935855,-4060.306139
393.760756,8586.388927,-10140.821405,-3907.087040
393.761078,3997.112087,-12213.398043,-4903.011187
393.761401,-1702.473667,-14582.057057,-6205.373534
393.761723,-7031.956449,-18135.045579,-4826.401637
393.762046,-10732.986159,-18061.024985,-1838.629195
393.762368,-11029.068536,-14434.015869,-4213.525239
393.762691,-10584.944971,-13175.665768,-4979.620737
393.763014,-9844.739029,-12435.459826,0.000000
393.763336,-7254.018232,-8586.388927,2834.553343
393.763659,-4441.235652,-5403.503377,1762.019645
393.763981,814.226536,-6513.812290,2068.457845
393.764304,7105.977043,-5181.441594,1149.143247
393.764626,9992.780217,-4441.235652,-2145.067394
393.764949,11695.253884,-3256.906145,-919.314598
393.765271,12287.418637,-3701.029710,2068.457845
393.765594,11103.089130,-4071.132681,-1225.752797
393.765916,9252.574275,-7402.059420,-5132.839837
393.766239,4737.318029,-10214.842000,-4979.620737
393.766561,-2294.638420,-12879.583391,-6358.592633
393.766884,-8438.347739,-17172.777854,-5515.887586
393.767206,-11177.109724,-18579.169144,-2451.505594
393.767529,-13915.871710,-16802.674883,-3217.601092
393.767851,-12805.562797,-14285.974681,-3983.696590
393.768174,-9844.739029,-14211.954086,-1838.629195
393.768496,-8586.388927,-13101.645173,1225.752797
393.768819,-5995.668130,-9104.533087,3370.820191
393.769141,-1628.453072,-4441.235652,3447.429741
393.769464,3330.926739,-1480.411884,2221.676944
393.769786,8068.244768,-1480.411884,-612.876398
393.770109,11473.192101,-1036.288319,-459.657299
393.770432,11843.295072,-1554.432478,383.047749
393.770754,11177.109724,-4219.173869,-766.095498
393.771077,9548.656652,-9104.533087,-2451.505594
393.771399,6661.853478,-12065.356855,-4136.915689
393.771722,1628.453072,-12361.439231,-5286.058936
393.772044,-4959.379811,-13767.830521,-4903.011187
393.772367,-9178.553681,-15692.365970,-3140.991542
393.772689,-11177.109724,-14656.077652,-2221.676944
393.773012,-11843.295072,-12879.583391,-3524.039291
393.773334,-10807.006753,-12139.377449,-1915.238745
393.773657,-8586.388927,-12139.377449,0.000000
393.773979,-5551.544565,-10584.944971,1915.238745
393.774302,-2072.576638,-6587.832884,2987.772442
393.774624,1924.535449,-3404.947333,3524.039291
393.774947,6661.853478,-4145.153275,919.314598
393.775269,9548.656652,-3701.029710,-919.314598
393.775592,9844.739029,-2146.597232,-995.924147
393.775914,8512.368333,-3701.029710,-1762.019645
393.776237,7476.080014,-7105.977043,-3447.429741
393.776559,5995.668130,-10955.047942,-4979.620737
393.776882,2960.823768,-11917.315666,-5822.325785
393.777204,-2590.720797,-13841.851115,-5975.544884
393.777527,-7772.162391,-17246.798449,-4596.572988
393.777850,-11547.212695,-19023.292709,-2374.896044
393.778172,-13249.686362,-16062.468941,-2451.505594
393.778495,-13545.768739,-13915.871710,-3907.087040
393.778817,-11843.295072,-13175.665768,-2834.553343
393.779140,-7772.162391,-10807.006753,1378.971896
393.779462,-4145.153275,-7698.141797,3524.039291
393.779785,518.144159,-3182.885551,3753.867940
393.780107,5699.585753,-1776.494261,2145.067394
393.780430,10288.862594,-2294.638420,76.609550
393.780752,12657.521608,-1554.432478,-306.438199
393.781075,11991.336260,-2146.597232,-1915.238745
393.781397,9918.759623,-5107.421000,-3294.210641
393.781720,8882.471304,-9548.656652,-4136.915689
393.782042,5699.585753,-12065.356855,-4136.915689
393.782365,740.205942,-13693.809927,-5209.449386
393.782687,-5625.565159,-15988.448347,-5822.325785
393.783010,-9030.512492,-17987.004391,-3677.258390
393.783332,-10955.047942,-16210.510130,-2604.724693
393.783655,-11251.130318,-13323.706956,-3983.696590
393.783977,-10362.883188,-12435.459826,-3753.867940
393.784300,-7476.080014,-11103.089130,1608.800546
393.784622,-4515.256246,-7105.977043,3907.087040
393.784945,-444.123565,-3330.926739,2834.553343
393.785268,3849.070898,-4145.153275,1838.629195
393.785590,9326.594869,-3552.988522,536.266849
393.785913,11621.233289,-2516.700203,-1685.410096
393.786235,11029.068536,-3404.947333,76.609550
393.786558,9918.759623,-5329.482782,1991.848295
393.786880,9104.533087,-7328.038826,-2451.505594
393.787203,6957.935855,-10140.821405,-6128.763984
393.787525,2368.659014,-12139.377449,-5592.497135
393.787848,-4441.235652,-14211.954086,-4903.011187
393.788170,-9474.636058,-17468.860231,-4136.915689
393.788493,-11843.295072,-18357.107362,-1915.238745
393.788815,-12805.562797,-16136.489536,-1991.848295
393.789138,-12805.562797,-14285.974681,-2911.162892
393.789460,-10140.821405,-11843.295072,-766.095498
393.789783,-7402.059420,-9548.656652,2145.067394
393.790105,-3552.988522,-7179.997637,2911.162892
393.790428,1406.391290,-3182.885551,3524.039291
393.790750,5181.441594,-148.041188,2987.772442
393.791073,8438.347739,888.247130,766.095498
393.791395,10584.944971,-444.123565,-1378.971896
393.791718,10362.883188,-4293.194464,-3370.820191
393.792040,8808.450710,-8586.388927,-3447.429741
393.792363,6069.688724,-11769.274478,-3294.210641
393.792685,2368.659014,-13101.645173,-4213.525239
393.793008,-2220.617826,-14656.077652,-5286.058936
393.793330,-7105.977043,-15692.365970,-5286.058936
393.793653,-11029.068536,-16284.530724,-3447.429741
393.793975,-12139.377449,-14878.139434,-3600.648841
393.794298,-11325.150913,-13397.727550,-2451.505594
393.794620,-9474.636058,-11473.192101,-1915.238745
393.794943,-5995.668130,-10214.842000,459.657299
393.795265,-2516.700203,-7698.141797,3600.648841
393.795588,1850.514855,-4589.276840,4290.134789
393.795910,5107.421000,-2516.700203,2068.457845
393.796233,7772.162391,-2812.782580,842.705048
393.796555,9474.636058,-1702.473667,383.047749
393.796878,9622.677246,-2516.700203,-2298.286494
393.797200,8882.471304,-6069.688724,-4136.915689
393.797523,8364.327145,-10288.862594,-4060.306139
393.797845,5699.585753,-11103.089130,-4136.915689
393.798168,0.000000,-11473.192101,-5286.058936
393.798490,-5921.647536,-14952.160028,-4673.182538
393.798813,-10288.862594,-18209.066173,-3677.258390
393.799135,-14285.974681,-17838.963202,-5056.230287
393.799458,-14730.098246,-16506.592507,-4979.620737
393.799780,-12879.583391,-15174.221811,-3370.820191
393.800103,-8956.491898,-11917.315666,-536.266849
393.800425,-4219.173869,-7698.141797,3447.429741
393.800747,740.205942,-3108.864956,5132.839837
393.801070,4959.379811,-962.267725,3370.820191
393.801392,10510.924376,-2294.638420,1072.533697
393.801715,13397.727550,-1776.494261,-536.266849
393.802037,13027.624579,-1258.350101,-995.924147
393.802360,12509.480420,-4441.235652,-1762.019645
393.802682,10881.027347,-7994.224174,-3064.381992
393.803005,9104.533087,-10955.047942,-3447.429741
393.803327,4663.297435,-11769.274478,-4290.134789
393.803650,-1480.411884,-14137.933492,-5822.325785
393.803972,-7105.977043,-18061.024985,-4979.620737
393.804295,-10362.883188,-18431.127956,-3064.381992
393.804617,-11325.150913,-15692.365970,-3064.381992
393.804940,-11473.192101,-13841.851115,-4673.182538
393.805262,-9252.574275,-11695.253884,-919.314598
393.805585,-6069.688724,-8438.347739,2911.162892
393.805907,-3552.988522,-4515.256246,2911.162892
393.806230,1184.329507,-4071.132681,2528.115143
393.806552,6143.709319,-3256.906145,766.095498
393.806875,8586.388927,-2960.823768,-2374.896044
393.807197,9474.636058,-3775.050304,-919.314598
393.807520,8660.409521,-4885.359217,842.705048
393.807842,7994.224174,-6735.874072,-1225.752797
393.808165,6809.894666,-9992.780217,-4903.011187
393.808487,2590.720797,-11695.253884,-5362.668486
393.808809,-4071.132681,-12435.459826,-5209.449386
393.809132,-9622.677246,-16728.654289,-4366.744339
393.809454,-12805.562797,-18801.230927,-2298.286494
393.809777,-14508.036463,-16580.613101,-2145.067394
393.810099,-15100.201217,-14137.933492,-2911.162892
393.810422,-13101.645173,-13027.624579,-995.924147
393.810744,-9992.780217,-10362.883188,2068.457845
393.811067,-5699.585753,-7179.997637,2681.334243
393.811389,-296.082377,-3034.844362,3524.039291
393.811712,5255.462188,-814.226536,2451.505594
393.812034,10066.800811,0.000000,459.657299
393.812357,12435.459826,-1850.514855,-766.095498
393.812679,11843.295072,-4145.153275,-842.705048
393.813002,10732.986159,-8216.285956,-1378.971896
393.813324,7772.162391,-9474.636058,-3600.648841
393.813647,3330.926739,-10807.006753,-5669.106685
393.813969,-1924.535449,-12731.542202,-5898.935335
393.814292,-6513.812290,-14508.036463,-5209.449386
393.814614,-10140.821405,-14656.077652,-3830.477490
393.814937,-9918.759623,-16728.654289,-4290.134789
393.815259,-9918.759623,-16654.633695,-3677.258390
393.815582,-9252.574275,-15470.304188,76.609550
393.815904,-7846.182985,-9696.697840,3370.820191
393.816227,-4589.276840,-4737.318029,1915.238745
393.816549,370.102971,-4441.235652,1532.190996
393.816871,6661.853478,-3552.988522,689.485948
393.817194,10807.006753,-2664.741391,-1455.581446
393.817516,12139.377449,-3923.091493,-459.657299
393.817839,13175.665768,-5477.523971,3524.039291
393.818161,13471.748144,-6661.853478,612.876398
393.818484,11695.253884,-6957.935855,-5056.230287
393.818806,7772.162391,-9992.780217,-5669.106685
393.819129,1480.411884,-11917.315666,-4519.963438
393.819451,-5625.565159,-13545.768739,-4290.134789
393.819774,-11547.212695,-15544.324782,-3524.039291
393.820096,-15100.201217,-16136.489536,-3217.601092
393.820419,-14952.160028,-15692.365970,-5132.839837
393.820741,-13397.727550,-14508.036463,-3983.696590
393.821064,-12065.356855,-13619.789333,-919.314598
393.821386,-8808.450710,-10214.842000,3140.991542
393.821709,-3849.070898,-5625.565159,2911.162892
393.822031,2220.617826,-2146.597232,1762.019645
393.822354,7254.018232,-1110.308913,0.000000
393.822676,10362.883188,-1480.411884,-2911.162892
393.822999,11769.274478,-2220.617826,-2757.943793
393.823321,12287.418637,-5107.421000,-689.485948
393.823644,10881.027347,-8216.285956,-1378.971896
393.823966,8956.491898,-11843.295072,-4366.744339
393.824289,4885.359217,-13323.706956,-5056.230287
393.824611,-518.144159,-14434.015869,-5056.230287
393.824933,-6291.750507,-15988.448347,-4443.353888
393.825256,-10732.986159,-15248.242405,-2298.286494
393.825578,-11547.212695,-13101.645173,-1608.800546
393.825901,-11399.171507,-10955.047942,-2298.286494
393.826223,-10584.944971,-11473.192101,-1302.362347
393.826546,-7846.182985,-10288.862594,2451.505594
393.826868,-4293.194464,-6957.935855,3370.820191
393.827191,814.226536,-3849.070898,2451.505594
393.827513,6143.709319,-4367.215058,1532.190996
393.827836,9326.594869,-4071.132681,383.047749
393.828158,9770.718434,-2072.576638,-612.876398
393.828481,8438.347739,-3478.967927,-2528.115143
393.828803,6883.915261,-7254.018232,-3830.477490
393.829126,5773.606348,-10510.924376,-5975.544884
393.829448,1850.514855,-11177.109724,-7048.078582
393.829771,-3923.091493,-13397.727550,-5669.106685
393.830093,-8734.430116,-17246.798449,-4290.134789
393.830416,-11325.150913,-19245.354492,-2834.553343
393.830738,-13397.727550,-16136.489536,-2451.505594
393.831061,-15322.262999,-13619.789333,-2451.505594
393.831383,-13693.809927,-11991.336260,-1302.362347
393.831706,-9770.718434,-10066.800811,612.876398
393.832028,-5773.606348,-7402.059420,2528.115143
393.832351,-444.123565,-3330.926739,4903.011187
393.832673,5329.482782,-666.185348,3294.210641
393.832995,10881.027347,-1554.432478,1149.143247
393.833318,14137.933492,-1332.370696,1225.752797
393.833640,14508.036463,-1850.514855,-1225.752797
393.833963,13249.686362,-6291.750507,-3447.429741
393.834285,11547.212695,-10140.821405,-3753.867940
393.834608,7698.141797,-11473.192101,-3600.648841
393.834930,2146.597232,-12805.562797,-5822.325785
393.835253,-4071.132681,-15692.365970,-5669.106685
393.835575,-9178.553681,-17246.798449,-4060.306139
393.835898,-10436.903782,-18209.066173,-3600.648841
393.836220,-12361.439231,-16358.551318,-4903.011187
393.836543,-12657.521608,-14137.933492,-1685.410096
393.836865,-10362.883188,-9918.759623,2221.676944
393.837188,-6513.812290,-4959.379811,2528.115143
393.837510,-1850.514855,-3627.009116,1838.629195
393.837833,4737.318029,-4071.132681,2451.505594
393.838155,10066.800811,-2368.659014,919.314598
393.838478,13249.686362,-2590.720797,-766.095498
393.838800,14211.954086,-3997.112087,1685.410096
393.839123,13989.892304,-6069.688724,1532.190996
393.839445,11177.109724,-7402.059420,-2757.943793
393.839768,6957.935855,-9252.574275,-4366.744339
393.840090,74.020594,-10955.047942,-5362.668486
393.840412,-7105.977043,-13989.892304,-7277.907231
393.840735,-11843.295072,-16654.633695,-5439.278036
393.841057,-15100.201217,-17690.922014,-4213.525239
393.841380,-16506.592507,-17764.942608,-4443.353888
393.841702,-14804.118840,-16136.489536,-2604.724693
393.842025,-11473.192101,-12583.501014,459.657299
393.842347,-9696.697840,-7920.203579,1532.190996
393.842670,-6291.750507,-5403.503377,2451.505594
393.842992,518.144159,-3849.070898,1915.238745
393.843315,6439.791695,-1332.370696,-842.705048
393.843637,10658.965565,-1258.350101,-2834.553343
393.843960,12509.480420,-2738.761985,153.219100
393.844282,13101.645173,-4441.235652,2374.896044
393.844605,11695.253884,-6735.874072,-536.266849
393.844927,9252.574275,-10066.800811,-4366.744339
393.845250,4441.235652,-12583.501014,-5592.497135
393.845572,-1776.494261,-13841.851115,-5515.887586
393.845895,-7550.100608,-14730.098246,-3753.867940
393.846217,-12065.356855,-14952.160028,-2374.896044
393.846540,-12805.562797,-15692.365970,-3064.381992
393.846862,-11843.295072,-13693.809927,-2911.162892
393.847185,-10881.027347,-12509.480420,0.000000
393.847507,-9548.656652,-9104.533087,2221.676944
393.847830,-4663.297435,-7772.162391,1225.752797
393.848152,1184.329507,-5847.626942,1302.362347
393.848474,6587.832884,-3923.091493,689.485948
393.848797,9622.677246,-2812.782580,-919.314598
393.849119,10807.006753,-3923.091493,-919.314598
393.849442,10881.027347,-5773.606348,306.438199
393.849764,9474.636058,-7105.977043,-1225.752797
393.850087,7328.038826,-8216.285956,-4749.792088
393.850409,3552.988522,-10881.027347,-6818.249932
393.850732,-962.267725,-13693.809927,-5745.716235
393.851054,-5551.544565,-14730.098246,-3677.258390
393.851377,-10362.883188,-14952.160028,-2298.286494
393.851699,-12583.501014,-16358.551318,-2145.067394
393.852022,-13619.789333,-14211.954086,-1302.362347
393.852344,-12583.501014,-13323.706956,-459.657299
393.852667,-11473.192101,-9918.759623,995.924147
393.852989,-6809.894666,-6587.832884,1685.410096
393.853312,-888.247130,-4515.256246,2068.457845
393.853634,6513.812290,-2368.659014,2221.676944
393.853957,11917.315666,-1554.432478,536.266849
393.854279,14434.015869,-2368.659014,-766.095498
393.854602,14211.954086,-3552.988522,229.828649
393.854924,12287.418637,-6069.688724,-536.266849
393.855247,9474.636058,-8216.285956,-5132.839837
393.855569,5477.523971,-10732.986159,-7660.954980
393.855892,666.185348,-13767.830521,-7048.078582
393.856214,-4071.132681,-15544.324782,-5056.230287
393.856536,-7105.977043,-16728.654289,-2681.334243
393.856859,-10807.006753,-16062.468941,-3217.601092
393.857181,-11917.315666,-15914.427753,-2068.457845
393.857504,-11029.068536,-13027.624579,-689.485948
393.857826,-9030.512492,-9252.574275,76.609550
393.858149,-6439.791695,-7179.997637,459.657299
393.858471,-1258.350101,-5477.523971,1608.800546
393.858794,4589.276840,-3849.070898,1991.848295
393.859116,9622.677246,-3108.864956,995.924147
393.859439,12953.603985,-4367.215058,612.876398
393.859761,13619.789333,-5033.400406,536.266849
393.860084,12731.542202,-5699.585753,-306.438199
393.860406,9696.697840,-7920.203579,-2681.334243
393.860729,4811.338623,-10362.883188,-4979.620737
393.861051,-814.226536,-12509.480420,-6205.373534
393.861374,-6883.915261,-13767.830521,-5286.058936
393.861696,-11695.253884,-14804.118840,-3907.087040
393.862019,-16358.551318,-15174.221811,-4213.525239
393.862341,-17542.880825,-15544.324782,-3294.210641
393.862664,-16062.468941,-15174.221811,-2145.067394
393.862986,-13175.665768,-13175.665768,0.000000
393.863309,-10658.965565,-9400.615463,919.314598
393.863631,-5403.503377,-6365.771101,1532.190996
393.863954,0.000000,-3256.906145,2374.896044
393.864276,5773.606348,-1480.411884,766.095498
393.864598,9770.718434,-1924.535449,-1302.362347
393.864921,11695.253884,-2294.638420,-153.219100
393.865243,12287.418637,-3923.091493,0.000000
393.865566,10881.027347,-7105.977043,-2757.943793
393.865888,9178.553681,-10732.986159,-4519.963438
393.866211,5255.462188,-13027.624579,-4596.572988
393.866533,-148.041188,-14211.954086,-3830.477490
393.866856,-5033.400406,-15174.221811,-3140.991542
393.867178,-9770.718434,-14063.912898,-2451.505594
393.867501,-11917.315666,-14359.995275,-3217.601092
393.867823,-11843.295072,-13471.748144,-1915.238745
393.868146,-9696.697840,-12657.521608,383.047749
393.868468,-7105.977043,-9474.636058,1532.190996
393.868791,-2886.803174,-7402.059420,1455.581446
393.869113,2368.659014,-6291.750507,3370.820191
393.869436,6809.894666,-4293.194464,2528.115143
393.869758,9696.697840,-2960.823768,-459.657299
393.870081,10732.986159,-2590.720797,-1762.019645
393.870403,10362.883188,-3849.070898,-1838.629195
393.870726,8734.430116,-6883.915261,-2757.943793
393.871048,6439.791695,-9474.636058,-4673.182538
393.871371,2664.741391,-11621.233289,-6128.763984
393.871693,-1924.535449,-13915.871710,-6281.983084
393.872016,-6365.771101,-15100.201217,-4673.182538
393.872338,-10436.903782,-16580.613101,-3447.429741
393.872660,-13397.727550,-15692.365970,-3677.258390
393.872983,-13693.809927,-14878.139434,-2604.724693
393.873305,-11843.295072,-13471.748144,-1302.362347
393.873628,-8364.327145,-9992.780217,842.705048
393.873950,-5403.503377,-7105.977043,1762.019645
393.874273,-740.205942,-4811.338623,3677.258390
393.874595,5181.441594,-3404.947333,3983.696590
393.874918,10362.883188,-2220.617826,995.924147
393.875240,13323.706956,-1702.473667,-536.266849
393.875563,13989.892304,-2516.700203,-1149.143247
393.875885,13249.686362,-4737.318029,-2145.067394
393.876208,10510.924376,-7476.080014,-3907.087040
393.876530,6143.709319,-10214.842000,-4903.011187
393.876853,814.226536,-13471.748144,-6128.763984
393.877175,-4515.256246,-16210.510130,-6741.640382
393.877498,-9030.512492,-16728.654289,-5822.325785
393.877820,-11843.295072,-17690.922014,-4443.353888
393.878143,-12509.480420,-16580.613101,-3217.601092
393.878465,-11399.171507,-14211.954086,-689.485948
393.878788,-8734.430116,-9918.759623,612.876398
393.879110,-5847.626942,-7031.956449,1149.143247
393.879433,-1924.535449,-4959.379811,1149.143247
393.879755,3256.906145,-3849.070898,2221.676944
393.880078,7402.059420,-2960.823768,1532.190996
393.880400,10288.862594,-3256.906145,536.266849
393.880722,11473.192101,-3923.091493,766.095498
393.881045,11473.192101,-4589.276840,76.609550
393.881367,9844.739029,-6883.915261,-3064.381992
393.881690,6735.874072,-9400.615463,-5209.449386
393.882012,2146.597232,-11991.336260,-5592.497135
393.882335,-3552.988522,-13471.748144,-4826.401637
393.882657,-8808.450710,-14952.160028,-4673.182538
393.882980,-12361.439231,-17098.757260,-4213.525239
393.883302,-14508.036463,-18135.045579,-3753.867940
393.883625,-14211.954086,-16580.613101,-2834.553343
393.883947,-11621.233289,-13767.830521,0.000000
393.884270,-9474.636058,-9770.718434,2374.896044
393.884592,-5477.523971,-6291.750507,2145.067394
393.884915,-666.185348,-3478.967927,2987.772442
393.885237,4737.318029,-666.185348,2068.457845
393.885560,9030.512492,0.000000,-842.705048
393.885882,11177.109724,-1110.308913,-1378.971896
393.886205,11325.150913,-3701.029710,995.924147
393.886527,10288.862594,-6291.750507,-612.876398
393.886850,8660.409521,-9474.636058,-4213.525239
393.887172,5847.626942,-12065.356855,-5515.887586
393.887495,1184.329507,-13915.871710,-5286.058936
393.887817,-4811.338623,-15248.242405,-4060.306139
393.888140,-8808.450710,-16136.489536,-2681.334243
393.888462,-11325.150913,-15396.283594,-3294.210641
393.888784,-11473.192101,-15174.221811,-3370.820191
393.889107,-9918.759623,-13323.706956,-919.314598
393.889429,-7476.080014,-10510.924376,919.314598
393.889752,-5033.400406,-7105.977043,1915.238745
393.890074,-666.185348,-5403.503377,2451.505594
393.890397,4441.235652,-3923.091493,2681.334243
393.890719,8142.265362,-2368.659014,76.609550
393.891042,9770.718434,-2442.679609,-1532.190996
393.891364,10362.883188,-4737.318029,-1225.752797
393.891687,9622.677246,-7105.977043,-612.876398
393.892009,8290.306550,-9104.533087,-2374.896044
393.892332,5255.462188,-10288.862594,-4903.011187
393.892654,1036.288319,-12657.521608,-5515.887586
393.892977,-3552.988522,-14878.139434,-4749.792088
393.893299,-7920.203579,-15914.427753,-2911.162892
393.893622,-12731.542202,-15914.427753,-2987.772442
393.893944,-13767.830521,-15544.324782,-2298.286494
393.894267,-11769.274478,-14582.057057,-1225.752797
393.894589,-8956.491898,-11547.212695,0.000000
393.894912,-6513.812290,-7476.080014,1838.629195
393.895234,-3034.844362,-5403.503377,3064.381992
393.895557,2072.576638,-3478.967927,3064.381992
393.895879,6365.771101,-1258.350101,1149.143247
393.896201,9696.697840,-1184.329507,-995.924147
393.896524,10881.027347,-1628.453072,-2528.115143
393.896846,10436.903782,-4663.297435,-1915.238745
393.897169,9104.533087,-7846.182985,-3294.210641
393.897491,6661.853478,-10584.944971,-5286.058936
393.897813,2738.761985,-13619.789333,-6128.763984
393.898136,-2146.597232,-15174.221811,-5362.668486
393.898458,-5921.647536,-16654.633695,-4979.620737
393.898781,-9474.636058,-16802.674883,-4290.134789
393.899103,-10510.924376,-15470.304188,-3064.381992
393.899426,-9474.636058,-13767.830521,-1225.752797
393.899748,-7105.977043,-10510.924376,153.219100
393.900070,-4145.153275,-7920.203579,1302.362347
393.900393,-1184.329507,-6217.729913,2681.334243
393.900715,3627.009116,-4811.338623,2757.943793
393.901038,7476.080014,-4219.173869,2374.896044
393.901360,10066.800811,-3256.906145,919.314598
393.901682,11103.089130,-3552.988522,-383.047749
393.902005,9696.697840,-4219.173869,-995.924147
393.902327,7328.038826,-6809.894666,-1838.629195
393.902650,4663.297435,-9030.512492,-3907.087040
393.902972,962.267725,-11547.212695,-6281.983084
393.903295,-4071.132681,-12361.439231,-6128.763984
393.903617,-7698.141797,-14434.015869,-5132.839837
393.903939,-12657.521608,-15544.324782,-4519.963438
393.904262,-15544.324782,-17024.736666,-3600.648841
393.904584,-15544.324782,-16728.654289,-3217.601092
393.904907,-12509.480420,-14730.098246,-2068.457845
393.905229,-9178.553681,-10510.924376,-383.047749
393.905551,-6143.709319,-7105.977043,1762.019645
393.905874,-1554.432478,-3849.070898,3524.039291
393.906196,4441.235652,-1554.432478,2451.505594
393.906519,10066.800811,-888.247130,229.828649
393.906841,13175.665768,-1332.370696,-766.095498
393.907163,13027.624579,-2886.803174,-459.657299
393.907486,11769.274478,-6143.709319,-919.314598
393.907808,10066.800811,-9474.636058,-2681.334243
393.908131,7105.977043,-11251.130318,-4213.525239
393.908453,2664.741391,-13027.624579,-5209.449386
393.908776,-2220.617826,-14878.139434,-4979.620737
393.909098,-6439.791695,-16284.530724,-3907.087040
393.909420,-9400.615463,-16728.654289,-2298.286494
393.909743,-10066.800811,-14582.057057,-2374.896044
393.910065,-9104.533087,-13101.645173,-842.705048
393.910388,-6735.874072,-10510.924376,-1072.533697
393.910710,-3256.906145,-8438.347739,383.047749
393.911032,0.000000,-6513.812290,1838.629195
393.911355,3997.112087,-4515.256246,2681.334243
393.911677,7920.203579,-3330.926739,1915.238745
393.912000,9474.636058,-3108.864956,-153.219100
393.912322,9474.636058,-3923.091493,-1378.971896
393.912645,7550.100608,-6069.688724,-1072.533697
393.912967,5551.544565,-8512.368333,-1838.629195
393.913289,3182.885551,-9622.677246,-4443.353888
393.913612,-296.082377,-11029.068536,-5669.106685
393.913934,-4515.256246,-12805.562797,-5056.230287
393.914257,-9474.636058,-14434.015869,-3753.867940
393.914579,-12139.377449,-16210.510130,-3830.477490
393.914901,-13545.768739,-15692.365970,-2834.553343
393.915224,-12435.459826,-15026.180623,-2221.676944
393.915546,-10140.821405,-12065.356855,-842.705048
393.915869,-7105.977043,-8882.471304,536.266849
393.916191,-2886.803174,-6587.832884,2298.286494
393.916514,1998.556043,-4293.194464,2987.772442
393.916836,6883.915261,-3330.926739,1532.190996
393.917158,10214.842000,-2072.576638,306.438199
393.917481,11103.089130,-2368.659014,-536.266849
393.917803,10658.965565,-3849.070898,-842.705048
393.918126,8808.450710,-7328.038826,-1915.238745
393.918448,5699.585753,-9918.759623,-3370.820191
393.918770,2516.700203,-11695.253884,-4519.963438
393.919093,-2072.576638,-13027.624579,-5132.839837
393.919415,-6217.729913,-14508.036463,-4596.572988
393.919738,-10362.883188,-15248.242405,-3217.601092
393.920060,-12287.418637,-15766.386565,-2298.286494
393.920382,-12361.439231,-13323.706956,-1532.190996
393.920705,-10658.965565,-11473.192101,-1532.190996
393.921027,-8142.265362,-9474.636058,-612.876398
393.921350,-4145.153275,-7105.977043,459.657299
393.921672,740.205942,-5773.606348,1149.143247
393.921995,5995.668130,-4737.318029,1149.143247
393.922317,9992.780217,-4959.379811,459.657299
393.922639,11399.171507,-3997.112087,0.000000
393.922962,11103.089130,-4589.276840,-995.924147
393.923284,9622.677246,-7179.997637,-2145.067394
393.923607,7402.059420,-9696.697840,-3294.210641
393.923929,3701.029710,-11325.150913,-3524.039291
393.924251,-1036.288319,-11547.212695,-4290.134789
393.924574,-5181.441594,-13323.706956,-4136.915689
393.924896,-9104.533087,-13989.892304,-3140.991542
393.925219,-11473.192101,-15766.386565,-2298.286494
393.925541,-11917.315666,-14656.077652,-1225.752797
393.925864,-11029.068536,-13175.665768,-995.924147
393.926186,-8216.285956,-10436.903782,-383.047749
393.926508,-4663.297435,-7624.121203,919.314598
393.926831,-888.247130,-5329.482782,2604.724693
393.927153,3182.885551,-3552.988522,1838.629195
393.927476,7402.059420,-2516.700203,383.047749
393.927798,10288.862594,-2442.679609,-1225.752797
393.928120,11029.068536,-3923.091493,-1915.238745
393.928443,10066.800811,-6587.832884,-2374.896044
393.928765,8142.265362,-9178.553681,-4060.306139
393.929088,5551.544565,-11399.171507,-4903.011187
393.929410,1998.556043,-12583.501014,-4519.963438
393.929733,-2516.700203,-13619.789333,-4596.572988
393.930055,-7179.997637,-14063.912898,-3677.258390
393.930377,-10584.944971,-14508.036463,-2834.553343
393.930700,-11695.253884,-14508.036463,-2221.676944
393.931022,-9992.780217,-13175.665768,-1608.800546
393.931345,-7105.977043,-10362.883188,-383.047749
393.931667,-3552.988522,-7994.224174,842.705048
393.931989,444.123565,-6587.832884,2374.896044
393.932312,5181.441594,-5477.523971,2987.772442
393.932634,9178.553681,-4737.318029,1685.410096
393.932957,11251.130318,-4737.318029,0.000000
393.933279,11251.130318,-5329.482782,-1378.971896
393.933602,9770.718434,-6439.791695,-1608.800546
393.933924,7179.997637,-8956.491898,-1838.629195
393.934246,4293.194464,-9474.636058,-3524.039291
393.934569,370.102971,-10140.821405,-5592.497135
393.934891,-3627.009116,-12731.542202,-5822.325785
393.935214,-8068.244768,-14137.933492,-3753.867940
393.935536,-13397.727550,-15100.201217,-3294.210641
393.935858,-16358.551318,-15248.242405,-2604.724693
393.936181,-15840.407159,-14582.057057,-1991.848295
393.936503,-13027.624579,-12657.521608,-1762.019645
393.936826,-9622.677246,-9104.533087,-919.314598
393.937148,-5625.565159,-6513.812290,919.314598
393.937470,-814.226536,-4293.194464,2757.943793
393.937793,4959.379811,-2960.823768,1838.629195
393.938115,9548.656652,-2368.659014,306.438199
393.938438,11547.212695,-2294.638420,-1608.800546
393.938760,11547.212695,-3849.070898,-1915.238745
393.939083,10584.944971,-6439.791695,-2145.067394
393.939405,8660.409521,-10066.800811,-2987.772442
393.939727,4885.359217,-11843.295072,-3600.648841
393.940050,518.144159,-13693.809927,-4366.744339
393.940372,-3997.112087,-14434.015869,-4290.134789
393.940695,-7476.080014,-15100.201217,-3447.429741
393.941017,-10066.800811,-14730.098246,-2604.724693
393.941339,-11325.150913,-13767.830521,-1455.581446
393.941662,-10510.924376,-10732.986159,459.657299
393.941984,-7476.080014,-8734.430116,306.438199
393.942307,-3923.091493,-6957.935855,459.657299
393.942629,0.000000,-6143.709319,1532.190996
393.942952,4737.318029,-4885.359217,1762.019645
393.943274,8142.265362,-5181.441594,153.219100
393.943596,11029.068536,-5329.482782,-995.924147
393.943919,11103.089130,-6883.915261,-1149.143247
393.944241,9400.615463,-7846.182985,-2145.067394
393.944564,6661.853478,-9400.615463,-3753.867940
393.944886,3330.926739,-9918.759623,-5132.839837
393.945208,-148.041188,-12361.439231,-6818.249932
393.945531,-4589.276840,-13767.830521,-5286.058936
393.945853,-9474.636058,-14508.036463,-3217.601092
393.946176,-11621.233289,-16506.592507,-2528.115143
393.946498,-12583.501014,-15618.345376,-1149.143247
393.946821,-11325.150913,-14730.098246,229.828649
393.947143,-9696.697840,-10510.924376,1149.143247
393.947465,-7105.977043,-6661.853478,1455.581446
393.947788,-3997.112087,-4219.173869,3217.601092
393.948110,518.144159,-1924.535449,3907.087040
393.948433,5403.503377,-444.123565,1225.752797
393.948755,9474.636058,-1184.329507,-1685.410096
393.949077,11399.171507,-3849.070898,-1991.848295
393.949400,11251.130318,-5625.565159,-1225.752797
393.949722,9770.718434,-7550.100608,-3064.381992
393.950045,7328.038826,-10732.986159,-4903.011187
393.950367,3627.009116,-13323.706956,-6281.983084
393.950689,-1110.308913,-15692.365970,-6281.983084
393.951012,-6291.750507,-16580.613101,-4903.011187
393.951334,-10362.883188,-16728.654289,-3217.601092
393.951657,-11917.315666,-15692.365970,-2451.505594
393.951979,-10584.944971,-12805.562797,-383.047749
393.952302,-8586.388927,-10140.821405,459.657299
393.952624,-6883.915261,-7179.997637,1608.800546
393.952946,-2812.782580,-5329.482782,1991.848295
393.953269,1850.514855,-3775.050304,2604.724693
393.953591,6735.874072,-2960.823768,2451.505594
393.953914,9696.697840,-3478.967927,1149.143247
393.954236,10436.903782,-4145.153275,-306.438199
393.954558,10066.800811,-5625.565159,-1455.581446
393.954881,8660.409521,-7994.224174,-2528.115143
393.955203,6291.750507,-10214.842000,-4826.401637
393.955526,2368.659014,-11177.109724,-6358.592633
393.955848,-2146.597232,-13767.830521,-6818.249932
393.956171,-7476.080014,-15766.386565,-5439.278036
393.956493,-11177.109724,-18135.045579,-4213.525239
393.956815,-13471.748144,-17912.983796,-3907.087040
393.957138,-14508.036463,-16728.654289,-2911.162892
393.957460,-12657.521608,-13471.748144,-689.485948
393.957783,-9400.615463,-9178.553681,1225.752797
393.958105,-6513.812290,-6069.688724,2298.286494
393.958427,-2072.576638,-3108.864956,3600.648841
393.958750,3182.885551,-1036.288319,2528.115143
393.959072,8808.450710,222.061783,612.876398
393.959395,12361.439231,-1110.308913,-766.095498
393.959717,13027.624579,-3108.864956,-459.657299
393.960040,11991.336260,-6365.771101,-229.828649
393.960362,10066.800811,-9178.553681,-1915.238745
393.960684,7179.997637,-11473.192101,-5209.449386
393.961007,2738.761985,-13397.727550,-6894.859482
393.961329,-2220.617826,-14952.160028,-6281.983084
393.961652,-7031.956449,-16506.592507,-4596.572988
393.961974,-10510.924376,-17320.819043,-2528.115143
393.962296,-12435.459826,-15840.407159,-1302.362347
393.962619,-11843.295072,-13471.748144,-459.657299
393.962941,-9030.512492,-9474.636058,-842.705048
393.963264,-5403.503377,-6587.832884,-229.828649
393.963586,-1850.514855,-4959.379811,1991.848295
393.963908,3627.009116,-3923.091493,3370.820191
393.964231,8586.388927,-2960.823768,2145.067394
393.964553,10732.986159,-2812.782580,229.828649
393.964876,10955.047942,-3997.112087,-995.924147
393.965198,9844.739029,-6513.812290,-1838.629195
393.965521,8142.265362,-8586.388927,-2604.724693
393.965843,5181.441594,-10362.883188,-4290.134789
393.966165,1332.370696,-11917.315666,-5669.106685
393.966488,-2960.823768,-14285.974681,-5669.106685
393.966810,-7105.977043,-15544.324782,-3677.258390
393.967133,-12953.603985,-16062.468941,-3677.258390
393.967455,-15470.304188,-16506.592507,-3064.381992
393.967777,-14508.036463,-15914.427753,-1991.848295
393.968100,-11547.212695,-13471.748144,-383.047749
393.968422,-8512.368333,-8290.306550,383.047749
393.968745,-4737.318029,-5329.482782,2374.896044
393.969067,-592.164754,-2812.782580,4979.620737
393.969390,5033.400406,-370.102971,2451.505594
393.969712,8586.388927,148.041188,-919.314598
393.970034,10881.027347,-1332.370696,-2374.896044
393.970357,11177.109724,-4145.153275,-1378.971896
393.970679,9548.656652,-6957.935855,-2374.896044
393.971002,7254.018232,-10066.800811,-4290.134789
393.971324,4071.132681,-12953.603985,-5362.668486
393.971646,0.000000,-15692.365970,-6665.030833
393.971969,-4885.359217,-17098.757260,-5515.887586
393.972291,-9622.677246,-16654.633695,-3294.210641
393.972614,-11991.336260,-16136.489536,-2681.334243
393.972936,-11843.295072,-13841.851115,-1685.410096
393.973259,-9770.718434,-12287.418637,0.000000
393.973581,-7846.182985,-8512.368333,995.924147
393.973903,-4219.173869,-5921.647536,1455.581446
393.974226,1110.308913,-4219.173869,2681.334243
393.974548,6513.812290,-2738.761985,3294.210641
393.974871,10436.903782,-2886.803174,1762.019645
393.975193,11843.295072,-3256.906145,229.828649
393.975515,11621.233289,-4515.256246,76.609550
393.975838,9918.759623,-6883.915261,-766.095498
393.976160,7328.038826,-8512.368333,-4213.525239
393.976483,3997.112087,-10807.006753,-6894.859482
393.976805,-740.205942,-13027.624579,-7507.735880
393.977127,-5995.668130,-15544.324782,-5515.887586
393.977450,-11029.068536,-17542.880825,-3524.039291
393.977772,-13989.892304,-18283.086767,-3370.820191
393.978095,-14211.954086,-16580.613101,-3600.648841
393.978417,-12953.603985,-15248.242405,-2068.457845
393.978740,-10584.944971,-11177.109724,229.828649
393.979062,-6957.935855,-7031.956449,1455.581446
393.979384,-2516.700203,-3701.029710,2528.115143
393.979707,3775.050304,-1036.288319,2757.943793
393.980029,8586.388927,0.000000,766.095498
393.980352,11843.295072,-518.144159,0.000000
393.980674,12435.459826,-2442.679609,229.828649
393.980996,12065.356855,-5107.421000,-689.485948
393.981319,10584.944971,-8290.306550,-2987.772442
393.981641,7328.038826,-10807.006753,-3907.087040
393.981964,3701.029710,-13619.789333,-5056.230287
393.982286,-740.205942,-15100.201217,-5439.278036
393.982609,-5625.565159,-16506.592507,-4673.182538
393.982931,-9474.636058,-16876.695478,-2374.896044
393.983253,-11695.253884,-15248.242405,-1532.190996
393.983576,-11991.336260,-13175.665768,-1378.971896
393.983898,-9992.780217,-9696.697840,-1532.190996
393.984221,-6069.688724,-8734.430116,0.000000
393.984543,-2072.576638,-6809.894666,1455.581446
393.984865,2812.782580,-4219.173869,2757.943793
393.985188,7920.203579,-3923.091493,2298.286494
393.985510,11103.089130,-3923.091493,1302.362347
393.985833,11325.150913,-4293.194464,153.219100
393.986155,9696.697840,-4959.379811,-766.095498
393.986478,7550.100608,-7105.977043,-2221.676944
393.986800,4737.318029,-9474.636058,-4673.182538
393.987122,1480.411884,-11473.192101,-6281.983084
393.987445,-3182.885551,-12805.562797,-5822.325785
393.987767,-7698.141797,-14730.098246,-4290.134789
393.988090,-11991.336260,-16950.716072,-3600.648841
393.988412,-14508.036463,-17987.004391,-1915.238745
393.988734,-15174.221811,-16506.592507,-1532.190996
393.989057,-13397.727550,-13249.686362,-1072.533697
393.989379,-10140.821405,-9326.594869,-306.438199
393.989702,-5625.565159,-6439.791695,1072.533697
393.990024,-370.102971,-3627.009116,2604.724693
393.990346,5995.668130,-1480.411884,2451.505594
393.990669,11251.130318,-1036.288319,536.266849
393.990991,14137.933492,-1776.494261,-153.219100
393.991314,14063.912898,-3775.050304,-689.485948
393.991636,11547.212695,-6809.894666,-995.924147
393.991959,8142.265362,-10140.821405,-3447.429741
393.992281,3923.091493,-11103.089130,-5362.668486
393.992603,-666.185348,-13323.706956,-6588.421283
393.992926,-5403.503377,-15174.221811,-5286.058936
393.993248,-9030.512492,-15988.448347,-3217.601092
393.993571,-12805.562797,-14508.036463,-2528.115143
393.993893,-13619.789333,-13915.871710,-995.924147
393.994215,-11547.212695,-12139.377449,-1685.410096
393.994538,-7846.182985,-10214.842000,-1991.848295
393.994860,-4589.276840,-6957.935855,-842.705048
393.995183,0.000000,-5773.606348,1378.971896
393.995505,5255.462188,-4737.318029,2681.334243
393.995828,10436.903782,-3997.112087,689.485948
393.996150,12953.603985,-3849.070898,-919.314598
393.996473,12731.542202,-4885.359217,-919.314598
393.996796,10436.903782,-7105.977043,-612.876398
393.997118,7254.018232,-9992.780217,-2604.724693
393.997441,3923.091493,-10436.903782,-4826.401637
393.997763,-222.061783,-11695.253884,-6588.421283
393.998086,-4885.359217,-13915.871710,-5745.716235
393.998409,-9992.780217,-15618.345376,-2604.724693
393.998731,-13323.706956,-15322.262999,-1685.410096
393.999054,-14359.995275,-14878.139434,-1302.362347
393.999376,-13323.706956,-14508.036463,-1532.190996
393.999699,-8956.491898,-11917.315666,-612.876398
394.000022,-5107.421000,-8438.347739,153.219100
394.000344,-592.164754,-5329.482782,2681.334243
394.000667,4293.194464,-3701.029710,4519.963438
394.000989,9474.636058,-3034.844362,2145.067394
394.001312,12065.356855,-1776.494261,-306.438199
394.001635,11917.315666,-2072.576638,-842.705048
394.001957,10436.903782,-4441.235652,-1685.410096
394.002280,8438.347739,-7328.038826,-3600.648841
394.002603,6143.709319,-10807.006753,-5362.668486
394.002925,2664.741391,-12731.542202,-4749.792088
394.003248,-1258.350101,-14211.954086,-3524.039291
394.003570,-5995.668130,-14656.077652,-3753.867940
394.003893,-10140.821405,-15470.304188,-1915.238745
394.004216,-13545.768739,-14285.974681,-1302.362347
394.004538,-13767.830521,-12805.562797,-919.314598
394.004861,-11547.212695,-9770.718434,-1608.800546
394.005183,-8290.306550,-8142.265362,-306.438199
394.005506,-3849.070898,-6291.750507,1302.362347
394.005829,1332.370696,-4885.359217,2987.772442
394.006151,7550.100608,-4959.379811,1991.848295
394.006474,11917.315666,-5255.462188,153.219100
394.006796,13471.748144,-5107.421000,-689.485948
394.007119,12361.439231,-5181.441594,-229.828649
394.007442,9622.677246,-6291.750507,-1302.362347
394.007764,6069.688724,-9252.574275,-4366.744339
394.008087,2294.638420,-11621.233289,-7048.078582
394.008409,-2590.720797,-13471.748144,-7048.078582
394.008732,-7698.141797,-15026.180623,-4826.401637
394.009055,-12731.542202,-16358.551318,-2604.724693
394.009377,-14211.954086,-17987.004391,-2451.505594
394.009700,-14508.036463,-15988.448347,-1378.971896
394.010022,-12879.583391,-14137.933492,-536.266849
394.010345,-10510.924376,-9178.553681,229.828649
394.010668,-5921.647536,-5181.441594,842.705048
394.010990,-1332.370696,-2294.638420,2145.067394
394.011313,4367.215058,-444.123565,2221.676944
394.011636,8808.450710,-1110.308913,459.657299
394.011958,11473.192101,-2664.741391,-1149.143247
394.012281,11843.295072,-5403.503377,-1302.362347
394.012603,10658.965565,-7031.956449,-1762.019645
394.012926,8734.430116,-8808.450710,-4596.572988
394.013249,5181.441594,-11621.233289,-6741.640382
394.013571,1554.432478,-14508.036463,-6665.030833
394.013894,-3034.844362,-15322.262999,-5209.449386
394.014216,-7550.100608,-15396.283594,-4290.134789
394.014539,-11695.253884,-15618.345376,-3370.820191
394.014862,-11843.295072,-15026.180623,-1532.190996
394.015184,-10362.883188,-13397.727550,-842.705048
394.015507,-8438.347739,-9548.656652,-459.657299
394.015829,-5033.400406,-7105.977043,536.266849
394.016152,-814.226536,-4737.318029,3294.210641
394.016475,4663.297435,-2368.659014,3677.258390
394.016797,9326.594869,-1332.370696,1302.362347
394.017120,12731.542202,-2368.659014,-536.266849
394.017442,14508.036463,-4589.276840,-842.705048
394.017765,13693.809927,-7254.018232,229.828649
394.018088,11251.130318,-9326.594869,-229.828649
394.018410,7179.997637,-10732.986159,-3600.648841
394.018733,2516.700203,-12879.583391,-6511.811733
394.019056,-2590.720797,-14952.160028,-6435.202183
394.019378,-7994.224174,-15692.365970,-5056.230287
394.019701,-12435.459826,-17172.777854,-4136.915689
394.020023,-13915.871710,-16580.613101,-2911.162892
394.020346,-13619.789333,-16136.489536,0.000000
394.020669,-11399.171507,-12953.603985,0.000000
394.020991,-8068.244768,-9104.533087,612.876398
394.021314,-4441.235652,-6809.894666,1225.752797
394.021636,148.041188,-3108.864956,3294.210641
394.021959,4589.276840,-148.041188,2374.896044
394.022282,7550.100608,222.061783,229.828649
394.022604,9252.574275,-962.267725,-383.047749
394.022927,9992.780217,-4219.173869,-1302.362347
394.023249,8808.450710,-6809.894666,-2834.553343
394.023572,6291.750507,-10140.821405,-4443.353888
394.023895,3552.988522,-13249.686362,-5209.449386
394.024217,592.164754,-15840.407159,-5209.449386
394.024540,-3701.029710,-17098.757260,-3983.696590
394.024862,-8660.409521,-16506.592507,-2298.286494
394.025185,-11325.150913,-14211.954086,-2298.286494
394.025508,-11621.233289,-13397.727550,-2221.676944
394.025830,-11029.068536,-11251.130318,-1072.533697
394.026153,-9400.615463,-8956.491898,766.095498
394.026475,-6661.853478,-7105.977043,2068.457845
394.026798,-1702.473667,-5403.503377,2987.772442
394.027121,3997.112087,-3849.070898,3830.477490
394.027443,8290.306550,-2738.761985,1455.581446
394.027766,10066.800811,-2368.659014,0.000000
394.028089,10362.883188,-3330.926739,459.657299
394.028411,8660.409521,-5477.523971,-1378.971896
394.028734,6069.688724,-8216.285956,-4673.182538
394.029056,2812.782580,-11029.068536,-6971.469032
394.029379,-1332.370696,-13693.809927,-7660.954980
394.029702,-5773.606348,-16654.633695,-5975.544884
394.030024,-9622.677246,-18579.169144,-4136.915689
394.030347,-12657.521608,-18653.189738,-3600.648841
394.030669,-13915.871710,-17987.004391,-2911.162892
394.030992,-12065.356855,-14730.098246,-1685.410096
394.031315,-8734.430116,-10362.883188,0.000000
394.031637,-5625.565159,-6883.915261,536.266849
394.031960,-1480.411884,-3330.926739,2221.676944
394.032282,3256.906145,-1480.411884,3907.087040
394.032605,8586.388927,0.000000,2374.896044
394.032928,12657.521608,-962.267725,76.609550
394.033250,14063.912898,-3108.864956,0.000000
394.033573,13545.768739,-5699.585753,-383.047749
394.033895,11473.192101,-7772.162391,-1838.629195
394.034218,7846.182985,-9770.718434,-4366.744339
394.034541,3627.009116,-12583.501014,-6435.202183
394.034863,-740.205942,-15100.201217,-6741.640382
394.035186,-5329.482782,-16506.592507,-6665.030833
394.035509,-9992.780217,-16210.510130,-4673.182538
394.035831,-11917.315666,-16210.510130,-2911.162892
394.036154,-10658.965565,-14878.139434,-2451.505594
394.036476,-7476.080014,-11917.315666,-1991.848295
394.036799,-4367.215058,-9326.594869,-153.219100
394.037122,-814.226536,-6069.688724,1378.971896
394.037444,3404.947333,-4071.132681,2911.162892
394.037767,7994.224174,-2960.823768,2757.943793
394.038089,11251.130318,-1998.556043,1072.533697
394.038412,11695.253884,-2590.720797,-153.219100
394.038735,10288.862594,-3997.112087,0.000000
394.039057,7846.182985,-6513.812290,-383.047749
394.039380,5255.462188,-9178.553681,-3677.258390
394.039702,2146.597232,-11325.150913,-6128.763984
394.040025,-1924.535449,-13471.748144,-6128.763984
394.040348,-6143.709319,-14656.077652,-5056.230287
394.040670,-11325.150913,-16284.530724,-3753.867940
394.040993,-14359.995275,-17987.004391,-2911.162892
394.041315,-15248.242405,-18357.107362,-2145.067394
394.041638,-13101.645173,-15618.345376,-1455.581446
394.041961,-10807.006753,-11251.130318,153.219100
394.042283,-6957.935855,-6809.894666,919.314598
394.042606,-2664.741391,-4219.173869,2451.505594
394.042928,2590.720797,-2368.659014,3370.820191
394.043251,7105.977043,-222.061783,1608.800546
394.043574,9622.677246,-518.144159,-383.047749
394.043896,9474.636058,-1924.535449,-536.266849
394.044219,8142.265362,-5329.482782,-1072.533697
394.044542,6957.935855,-8808.450710,-3294.210641
394.044864,4663.297435,-11473.192101,-4673.182538
394.045187,1480.411884,-13619.789333,-5209.449386
394.045509,-2516.700203,-15470.304188,-3830.477490
394.045832,-6291.750507,-16580.613101,-2604.724693
394.046155,-9474.636058,-16284.530724,-1532.190996
394.046477,-11029.068536,-14656.077652,-2451.505594
394.046800,-10066.800811,-13471.748144,-1225.752797
394.047122,-8808.450710,-9992.780217,-536.266849
394.047445,-6069.688724,-6883.915261,689.485948
394.047768,-2738.761985,-5033.400406,2451.505594
394.048090,1924.535449,-3775.050304,3064.381992
394.048413,6439.791695,-2516.700203,1149.143247
394.048735,8882.471304,-2664.741391,-306.438199
394.049058,9622.677246,-3775.050304,-766.095498
394.049381,8660.409521,-5847.626942,-919.314598
394.049703,7105.977043,-8364.327145,-2451.505594
394.050026,4737.318029,-10510.924376,-5056.230287
394.050348,1110.308913,-12139.377449,-6894.859482
394.050671,-3256.906145,-14582.057057,-6818.249932
394.050994,-6661.853478,-16136.489536,-4903.011187
394.051316,-10436.903782,-16950.716072,-3677.258390
394.051639,-11991.336260,-17468.860231,-2451.505594
394.051962,-12213.398043,-15840.407159,-995.924147
394.052284,-9326.594869,-12657.521608,-306.438199
394.052607,-6365.771101,-8068.244768,1225.752797
394.052929,-2738.761985,-4737.318029,1838.629195
394.053252,1258.350101,-2146.597232,3140.991542
394.053575,5625.565159,-962.267725,2451.505594
394.053897,9548.656652,-222.061783,842.705048
394.054220,11917.315666,-1850.514855,-689.485948
394.054542,11843.295072,-4441.235652,-2451.505594
394.054865,10955.047942,-7698.141797,-2911.162892
394.055188,8142.265362,-10140.821405,-4519.963438
394.055510,4811.338623,-12879.583391,-5745.716235
394.055833,1036.288319,-15396.283594,-5745.716235
394.056155,-3404.947333,-16358.551318,-6052.154434
394.056478,-8956.491898,-15544.324782,-4443.353888
394.056801,-11399.171507,-15692.365970,-3830.477490
394.057123,-11251.130318,-13989.892304,-2604.724693
394.057446,-9400.615463,-12805.562797,-1838.629195
394.057768,-7105.977043,-9548.656652,76.609550
394.058091,-3701.029710,-7031.956449,995.924147
394.058414,296.082377,-5403.503377,2604.724693
394.058736,5107.421000,-3775.050304,2987.772442
394.059059,8808.450710,-2738.761985,1225.752797
394.059381,10362.883188,-1850.514855,229.828649
394.059704,10140.821405,-3182.885551,0.000000
394.060027,7624.121203,-5773.606348,-536.266849
394.060349,5181.441594,-8438.347739,-2451.505594
394.060672,2368.659014,-10584.944971,-4903.011187
394.060995,-888.247130,-13323.706956,-6741.640382
394.061317,-4293.194464,-15914.427753,-5745.716235
394.061640,-8438.347739,-17320.819043,-3600.648841
394.061962,-11251.130318,-18505.148550,-3217.601092
394.062285,-13027.624579,-16580.613101,-1532.190996
394.062608,-13249.686362,-14804.118840,-459.657299
394.062930,-11843.295072,-10066.800811,-229.828649
394.063253,-9622.677246,-6957.935855,-536.266849
394.063575,-6217.729913,-4737.318029,1378.971896
394.063898,-962.267725,-2812.782580,2451.505594
394.064221,4885.359217,-2442.679609,1608.800546
394.064543,9548.656652,-1258.350101,612.876398
394.064866,12213.398043,-2442.679609,0.000000
394.065188,12509.480420,-5329.482782,-995.924147
394.065511,11251.130318,-8660.409521,-2145.067394
394.065834,7698.141797,-11251.130318,-2528.115143
394.066156,3849.070898,-12213.398043,-3907.087040
394.066479,222.061783,-13841.851115,-4903.011187
394.066801,-3108.864956,-15840.407159,-4060.306139
394.067124,-6661.853478,-16210.510130,-3064.381992
394.067447,-8438.347739,-15766.386565,-842.705048
394.067769,-8734.430116,-14211.954086,383.047749
394.068092,-8068.244768,-10881.027347,842.705048
394.068415,-5921.647536,-8068.244768,383.047749
394.068737,-3997.112087,-5847.626942,1762.019645
394.069060,-740.205942,-3627.009116,1762.019645
394.069382,3923.091493,-2812.782580,536.266849
394.069705,7624.121203,-2442.679609,-306.438199
394.070028,9622.677246,-3256.906145,-1072.533697
394.070350,9178.553681,-4811.338623,-1072.533697
394.070673,7402.059420,-8068.244768,-1378.971896
394.070995,5255.462188,-10881.027347,-3983.696590
394.071318,2368.659014,-12583.501014,-6894.859482
394.071641,-1406.391290,-13767.830521,-7354.516781
394.071963,-5403.503377,-14878.139434,-5898.935335
394.072286,-9178.553681,-16654.633695,-4213.525239
394.072608,-11769.274478,-15988.448347,-2221.676944
394.072931,-12065.356855,-14878.139434,-153.219100
394.073254,-10881.027347,-12435.459826,-995.924147
394.073576,-8956.491898,-9252.574275,-1225.752797
394.073899,-5699.585753,-6883.915261,459.657299
394.074221,-1406.391290,-4737.318029,3064.381992
394.074544,4145.153275,-2516.700203,3140.991542
394.074867,9474.636058,-1332.370696,1302.362347
394.075189,13545.768739,-814.226536,-1378.971896
394.075512,14952.160028,-2368.659014,-766.095498
394.075834,13175.665768,-4589.276840,-383.047749
394.076157,9992.780217,-8734.430116,-2681.334243
394.076480,5995.668130,-12287.418637,-5822.325785
394.076802,1702.473667,-14434.015869,-6435.202183
394.077125,-3701.029710,-15026.180623,-6435.202183
394.077448,-9104.533087,-16580.613101,-5515.887586
394.077770,-12953.603985,-17246.798449,-3830.477490
394.078093,-14211.954086,-15174.221811,-3064.381992
394.078415,-13841.851115,-12583.501014,-1608.800546
394.078738,-12731.542202,-9696.697840,-1762.019645
394.079061,-9918.759623,-7328.038826,-1149.143247
394.079383,-6291.750507,-6069.688724,0.000000
394.079706,-814.226536,-4219.173869,1072.533697
394.080028,4441.235652,-3108.864956,306.438199
394.080351,8438.347739,-3849.070898,-689.485948
394.080674,9622.677246,-4293.194464,-229.828649
394.080996,9696.697840,-4589.276840,0.000000
394.081319,8734.430116,-6365.771101,-2221.676944
394.081641,7772.162391,-10214.842000,-4749.792088
394.081964,5329.482782,-13841.851115,-5898.935335
394.082287,1480.411884,-15396.283594,-4290.134789
394.082609,-3997.112087,-16580.613101,-2451.505594
394.082932,-7698.141797,-16876.695478,-459.657299
394.083254,-9918.759623,-16580.613101,-612.876398
394.083577,-9770.718434,-14582.057057,-2145.067394
394.083900,-9474.636058,-12065.356855,-1072.533697
394.084222,-8364.327145,-8438.347739,1838.629195
394.084545,-6439.791695,-4885.359217,4519.963438
394.084868,-2368.659014,-2072.576638,4060.306139
394.085190,1850.514855,-296.082377,1608.800546
394.085513,6809.894666,74.020594,-842.705048
394.085835,9622.677246,-1258.350101,-2374.896044
394.086158,10362.883188,-4811.338623,-1608.800546
394.086481,9030.512492,-8068.244768,-1149.143247
394.086803,7105.977043,-10584.944971,-2757.943793
394.087126,4811.338623,-11843.295072,-6205.373534
394.087448,2220.617826,-14952.160028,-6665.030833
394.087771,-1480.411884,-16728.654289,-5822.325785
394.088094,-5255.462188,-16876.695478,-4136.915689
394.088416,-8364.327145,-15914.427753,-1532.190996
394.088739,-9400.615463,-14656.077652,1608.800546
394.089061,-8142.265362,-11843.295072,689.485948
394.089384,-5551.544565,-8882.471304,-459.657299
394.089707,-3552.988522,-6365.771101,-306.438199
394.090029,-592.164754,-4441.235652,2145.067394
394.090352,4145.153275,-3552.988522,4060.306139
394.090674,9622.677246,-2220.617826,2911.162892
394.090997,12657.521608,-2664.741391,689.485948
394.091320,12731.542202,-3034.844362,-306.438199
394.091642,10807.006753,-5255.462188,-612.876398
394.091965,7920.203579,-8808.450710,-2987.772442
394.092287,4367.215058,-12287.418637,-6281.983084
394.092610,518.144159,-13767.830521,-7890.783629
394.092933,-4737.318029,-15618.345376,-7354.516781
394.093255,-8290.306550,-17468.860231,-4903.011187
394.093578,-12657.521608,-17838.963202,-3524.039291
394.093901,-14804.118840,-17542.880825,-2834.553343
394.094223,-14878.139434,-14582.057057,-1608.800546
394.094546,-13619.789333,-11399.171507,76.609550
394.094868,-12213.398043,-6513.812290,0.000000
394.095191,-8068.244768,-4293.194464,0.000000
394.095514,-1776.494261,-3256.906145,1532.190996
394.095836,4959.379811,-148.041188,1149.143247
394.096159,9918.759623,-814.226536,-612.876398
394.096481,12509.480420,-2294.638420,383.047749
394.096804,12731.542202,-4219.173869,2068.457845
394.097127,11325.150913,-5699.585753,-2145.067394
394.097449,9326.594869,-10140.821405,-5822.325785
394.097772,6143.709319,-14137.933492,-6818.249932
394.098094,962.267725,-15544.324782,-6205.373534
394.098417,-4737.318029,-16506.592507,-3907.087040
394.098740,-8734.430116,-16728.654289,-1532.190996
394.099062,-9474.636058,-17246.798449,-1762.019645
394.099385,-9622.677246,-14730.098246,-3983.696590
394.099707,-11103.089130,-12509.480420,-1608.800546
394.100030,-11473.192101,-8956.491898,1838.629195
394.100352,-8660.409521,-5847.626942,3217.601092
394.100675,-4145.153275,-2368.659014,1838.629195
394.100998,1184.329507,-888.247130,536.266849
394.101320,5995.668130,-1110.308913,-229.828649
394.101643,8808.450710,-2220.617826,-1991.848295
394.101965,9326.594869,-5107.421000,-766.095498
394.102288,8142.265362,-8512.368333,766.095498
394.102611,6587.832884,-9844.739029,-2834.553343
394.102933,4145.153275,-11843.295072,-7201.297681
394.103256,296.082377,-14730.098246,-7507.735880
394.103578,-4145.153275,-16358.551318,-5898.935335
394.103901,-7698.141797,-17764.942608,-4290.134789
394.104224,-10584.944971,-17616.901420,-1838.629195
394.104546,-10362.883188,-16062.468941,229.828649
394.104869,-8512.368333,-13767.830521,76.609550
394.105191,-7031.956449,-10955.047942,459.657299
394.105514,-5773.606348,-6957.935855,3217.601092
394.105837,-2294.638420,-3552.988522,4290.134789
394.106159,2886.803174,-740.205942,3524.039291
394.106482,7328.038826,1776.494261,2528.115143
394.106804,11251.130318,2220.617826,153.219100
394.107127,12583.501014,-814.226536,-1302.362347
394.107450,12583.501014,-5921.647536,-1149.143247
394.107772,10658.965565,-10288.862594,-2528.115143
394.108095,7179.997637,-12435.459826,-4979.620737
394.108417,3775.050304,-14952.160028,-6665.030833
394.108740,-518.144159,-16950.716072,-6511.811733
394.109063,-5255.462188,-18357.107362,-6052.154434
394.109385,-8808.450710,-18061.024985,-3524.039291
394.109708,-10955.047942,-14804.118840,-919.314598
394.110030,-10066.800811,-12139.377449,-383.047749
394.110353,-7846.182985,-9178.553681,-1532.190996
394.110675,-5181.441594,-8290.306550,-229.828649
394.110998,-2664.741391,-7179.997637,2528.115143
394.111321,2072.576638,-4811.338623,3677.258390
394.111643,6957.935855,-2516.700203,2681.334243
394.111966,10066.800811,-1332.370696,1455.581446
394.112288,11399.171507,222.061783,536.266849
394.112611,10214.842000,-962.267725,-306.438199
394.112934,8660.409521,-6365.771101,-2298.286494
394.113256,6439.791695,-12139.377449,-4136.915689
394.113579,2886.803174,-14359.995275,-5975.544884
394.113901,-2738.761985,-14582.057057,-6128.763984
394.114224,-7402.059420,-17468.860231,-4903.011187
394.114547,-10436.903782,-19689.478057,-4213.525239
394.114869,-13101.645173,-18135.045579,-5286.058936
394.115192,-14434.015869,-15914.427753,-4060.306139
394.115514,-14730.098246,-13101.645173,0.000000
394.115837,-12213.398043,-8586.388927,0.000000
394.116160,-9252.574275,-5033.400406,-306.438199
394.116482,-3627.009116,-4219.173869,689.485948
394.116805,3182.885551,-2442.679609,689.485948
394.117127,9104.533087,-2220.617826,-459.657299
394.117450,11843.295072,-1924.535449,689.485948
394.117773,12065.356855,-2960.823768,1991.848295
394.118095,10955.047942,-4589.276840,-306.438199
394.118418,9178.553681,-8364.327145,-4366.744339
394.118740,6365.771101,-12213.398043,-5822.325785
394.119063,1480.411884,-13989.892304,-6588.421283
394.119386,-4219.173869,-14508.036463,-4443.353888
394.119708,-8068.244768,-15766.386565,-1608.800546
394.120031,-9622.677246,-16580.613101,-1149.143247
394.120353,-9770.718434,-15840.407159,-3217.601092
394.120676,-10066.800811,-13471.748144,-2068.457845
394.120998,-10881.027347,-9696.697840,536.266849
394.121321,-8808.450710,-5773.606348,1072.533697
394.121644,-4219.173869,-4293.194464,766.095498
394.121966,1924.535449,-3478.967927,842.705048
394.122289,6809.894666,-2368.659014,-459.657299
394.122611,10140.821405,-3404.947333,-1838.629195
394.122934,11473.192101,-5107.421000,-459.657299
394.123257,11251.130318,-6809.894666,0.000000
394.123579,9844.739029,-8808.450710,-1838.629195
394.123902,6735.874072,-10732.986159,-4979.620737
394.124224,2220.617826,-13175.665768,-6128.763984
394.124547,-3034.844362,-15026.180623,-5209.449386
394.124870,-7846.182985,-16136.489536,-4213.525239
394.125192,-10955.047942,-17246.798449,-2451.505594
394.125515,-11769.274478,-16358.551318,-383.047749
394.125837,-11547.212695,-14211.954086,612.876398
394.126160,-10436.903782,-10955.047942,0.000000
394.126483,-6957.935855,-7698.141797,766.095498
394.126805,-2886.803174,-5329.482782,2068.457845
394.127128,2294.638420,-2368.659014,2834.553343
394.127450,7328.038826,-222.061783,2451.505594
394.127773,10732.986159,-370.102971,306.438199
394.128096,11991.336260,-1258.350101,-1072.533697
394.128418,11621.233289,-4959.379811,-383.047749
394.128741,9770.718434,-8438.347739,-2221.676944
394.129063,6513.812290,-11695.253884,-5056.230287
394.129386,3034.844362,-14508.036463,-6205.373534
394.129709,-740.205942,-16358.551318,-5286.058936
394.130031,-5329.482782,-16654.633695,-4290.134789
394.130354,-9474.636058,-15544.324782,-2834.553343
394.130676,-11917.315666,-14211.954086,-2068.457845
394.130999,-11917.315666,-11843.295072,-1915.238745
394.131321,-10066.800811,-10288.862594,-1532.190996
394.131644,-7698.141797,-9474.636058,229.828649
394.131967,-4441.235652,-7550.100608,1915.238745
394.132289,740.205942,-5699.585753,2757.943793
394.132612,7254.018232,-3997.112087,1915.238745
394.132934,11621.233289,-3330.926739,1762.019645
394.133257,13027.624579,-3108.864956,612.876398
394.133580,11843.295072,-2886.803174,919.314598
394.133902,9474.636058,-4515.256246,383.047749
394.134225,6661.853478,-8216.285956,-2911.162892
394.134547,3478.967927,-12583.501014,-6588.421283
394.134870,-1184.329507,-14730.098246,-6281.983084
394.135193,-6365.771101,-15544.324782,-4136.915689
394.135515,-10288.862594,-16728.654289,-2221.676944
394.135838,-12657.521608,-17172.777854,-995.924147
394.136160,-13101.645173,-14878.139434,-2221.676944
394.136483,-13767.830521,-12805.562797,-2451.505594
394.136806,-13841.851115,-9992.780217,-536.266849
394.137128,-10881.027347,-6439.791695,536.266849
394.137451,-6217.729913,-3701.029710,229.828649
394.137773,296.082377,-2294.638420,0.000000
394.138096,6809.894666,-2146.597232,229.828649
394.138419,11325.150913,-2294.638420,-536.266849
394.138741,12953.603985,-4219.173869,-1149.143247
394.139064,12509.480420,-6587.832884,-536.266849
394.139386,10510.924376,-8660.409521,-2834.553343
394.139709,7402.059420,-10436.903782,-6052.154434
394.140031,3478.967927,-13101.645173,-7124.688131
394.140354,-1776.494261,-15026.180623,-5515.887586
394.140677,-6143.709319,-16580.613101,-3907.087040
394.140999,-7846.182985,-16950.716072,-2451.505594
394.141322,-9844.739029,-15692.365970,-1225.752797
394.141644,-9622.677246,-13693.809927,-995.924147
394.141967,-8512.368333,-10066.800811,-229.828649
394.142290,-6587.832884,-6661.853478,995.924147
394.142612,-3552.988522,-4441.235652,2221.676944
394.142935,1332.370696,-3034.844362,2528.115143
394.143257,6587.832884,-1332.370696,306.438199
394.143580,10436.903782,-1702.473667,-1149.143247
394.143903,11917.315666,-4145.153275,-995.924147
394.144225,11843.295072,-7254.018232,0.000000
394.144548,10288.862594,-8882.471304,-766.095498
394.144870,6735.874072,-10362.883188,-5209.449386
394.145193,2516.700203,-13101.645173,-7660.954980
394.145516,-2664.741391,-15914.427753,-6894.859482
394.145838,-7994.224174,-16284.530724,-5745.716235
394.146161,-11547.212695,-17468.860231,-5056.230287
394.146483,-13323.706956,-17024.736666,-3753.867940
394.146806,-12731.542202,-15544.324782,-1225.752797
394.147129,-11695.253884,-11769.274478,0.000000
394.147451,-9770.718434,-7846.182985,1302.362347
394.147774,-6587.832884,-5477.523971,2221.676944
394.148096,-518.144159,-3182.885551,2911.162892
394.148419,4737.318029,0.000000,1455.581446
394.148742,9178.553681,666.185348,153.219100
394.149064,12065.356855,-444.123565,306.438199
394.149387,13397.727550,-3182.885551,1149.143247
394.149709,13101.645173,-6217.729913,0.000000
394.150032,10066.800811,-10955.047942,-3753.867940
394.150354,6735.874072,-15174.221811,-5822.325785
394.150677,1776.494261,-16210.510130,-5898.935335
394.151000,-4441.235652,-15766.386565,-4749.792088
394.151322,-9030.512492,-15470.304188,-2528.115143
394.151645,-11251.130318,-14137.933492,-3064.381992
394.151967,-11695.253884,-13545.768739,-4443.353888
394.152290,-11843.295072,-12953.603985,-1915.238745
394.152613,-10881.027347,-11103.089130,2757.943793
394.152935,-9622.677246,-7550.100608,3600.648841
394.153258,-5477.523971,-3108.864956,2068.457845
394.153580,370.102971,-2664.741391,1915.238745
394.153903,6143.709319,-1554.432478,459.657299
394.154226,9178.553681,-1554.432478,-1302.362347
394.154548,9622.677246,-3404.947333,-306.438199
394.154871,9622.677246,-6143.709319,1915.238745
394.155193,8734.430116,-9400.615463,-1608.800546
394.155516,5995.668130,-11325.150913,-6281.983084
394.155839,2220.617826,-14656.077652,-7354.516781
394.156161,-2368.659014,-17172.777854,-5898.935335
394.156484,-6217.729913,-18431.127956,-3600.648841
394.156806,-10140.821405,-17394.839637,-1455.581446
394.157129,-11029.068536,-15692.365970,-1149.143247
394.157452,-10510.924376,-13249.686362,-1302.362347
394.157774,-9918.759623,-10510.924376,-919.314598
394.158097,-8734.430116,-7698.141797,842.705048
394.158419,-5995.668130,-4959.379811,2987.772442
394.158742,-1406.391290,-2072.576638,4136.915689
394.159065,4441.235652,518.144159,2757.943793
394.159387,8808.450710,888.247130,76.609550
394.159710,11103.089130,-518.144159,-1225.752797
394.160032,11177.109724,-2960.823768,-919.314598
394.160355,9622.677246,-7105.977043,-3064.381992
394.160677,7105.977043,-12139.377449,-5745.716235
394.161000,3478.967927,-15322.262999,-6588.421283
394.161323,-666.185348,-16432.571912,-6511.811733
394.161645,-4737.318029,-17838.963202,-6128.763984
394.161968,-8512.368333,-17320.819043,-5132.839837
394.162290,-9992.780217,-17320.819043,-4673.182538
394.162613,-10214.842000,-13693.809927,-1608.800546
394.162936,-9622.677246,-10881.027347,0.000000
394.163258,-8438.347739,-6735.874072,-229.828649
394.163581,-4959.379811,-5995.668130,536.266849
394.163903,666.185348,-4367.215058,1455.581446
394.164226,5255.462188,-3182.885551,2068.457845
394.164549,9622.677246,-2960.823768,1608.800546
394.164871,12509.480420,-3256.906145,2145.067394
394.165194,13545.768739,-4219.173869,1149.143247
394.165516,12213.398043,-4959.379811,0.000000
394.165839,9104.533087,-7994.224174,-3447.429741
394.166162,4737.318029,-11991.336260,-6511.811733
394.166484,222.061783,-15100.201217,-7277.907231
394.166807,-5699.585753,-16654.633695,-5515.887586
394.167129,-9622.677246,-17690.922014,-4366.744339
394.167452,-13175.665768,-17246.798449,-4366.744339
394.167775,-13915.871710,-17764.942608,-3983.696590
394.168097,-13101.645173,-15322.262999,-1915.238745
394.168420,-11621.233289,-10510.924376,689.485948
394.168742,-10066.800811,-5329.482782,919.314598
394.169065,-5329.482782,-3034.844362,1378.971896
394.169388,1110.308913,-1036.288319,1532.190996
394.169710,6735.874072,444.123565,76.609550
394.170033,9844.739029,-666.185348,-536.266849
394.170355,11695.253884,-3108.864956,1225.752797
394.170678,11843.295072,-4885.359217,2221.676944
394.171000,10732.986159,-7476.080014,-1991.848295
394.171323,8512.368333,-11177.109724,-5209.449386
394.171646,4663.297435,-14434.015869,-6435.202183
394.171968,-444.123565,-15396.283594,-5132.839837
394.172291,-5107.421000,-15692.365970,-2757.943793
394.172613,-8660.409521,-15174.221811,-2374.896044
394.172936,-9548.656652,-15914.427753,-3447.429741
394.173259,-9474.636058,-14508.036463,-2528.115143
394.173581,-9918.759623,-12139.377449,536.266849
394.173904,-9474.636058,-7476.080014,2298.286494
394.174226,-5477.523971,-4959.379811,1302.362347
394.174549,0.000000,-3478.967927,1225.752797
394.174872,5403.503377,-1998.556043,1072.533697
394.175194,8216.285956,-2368.659014,0.000000
394.175517,9474.636058,-3849.070898,0.000000
394.175839,9548.656652,-6735.874072,919.314598
394.176162,8142.265362,-7846.182985,0.000000
394.176485,6291.750507,-9252.574275,-4213.525239
394.176807,2368.659014,-11769.274478,-6971.469032
394.177130,-2072.576638,-15248.242405,-6894.859482
394.177452,-5921.647536,-16432.571912,-4596.572988
394.177775,-10436.903782,-16358.551318,-3983.696590
394.178098,-12509.480420,-17320.819043,-2911.162892
394.178420,-11843.295072,-15618.345376,-1149.143247
394.178743,-10658.965565,-13323.706956,-1225.752797
394.179065,-9474.636058,-9474.636058,-612.876398
394.179388,-6587.832884,-6513.812290,1838.629195
394.179711,-2442.679609,-3182.885551,3983.696590
394.180033,2664.741391,0.000000,2451.505594
394.180356,7105.977043,962.267725,536.266849
394.180678,10140.821405,444.123565,0.000000
394.181001,12287.418637,-3108.864956,-459.657299
394.181323,12213.398043,-7105.977043,-1915.238745
394.181646,10214.842000,-11325.150913,-3140.991542
394.181969,6957.935855,-13989.892304,-4519.963438
394.182291,3034.844362,-15396.283594,-5515.887586
394.182614,-1924.535449,-16358.551318,-5286.058936
394.182936,-6735.874072,-16136.489536,-4366.744339
394.183259,-9548.656652,-16580.613101,-4903.011187
394.183582,-10881.027347,-14285.974681,-3600.648841
394.183904,-10732.986159,-12065.356855,-306.438199
394.184227,-9474.636058,-8364.327145,76.609550
394.184549,-6883.915261,-6587.832884,459.657299
394.184872,-2738.761985,-5773.606348,1455.581446
394.185195,2442.679609,-4071.132681,2298.286494
394.185517,6957.935855,-2812.782580,689.485948
394.185840,9622.677246,-3108.864956,383.047749
394.186162,10955.047942,-4515.256246,1149.143247
394.186485,10807.006753,-5107.421000,-153.219100
394.186808,9252.574275,-7105.977043,-2604.724693
394.187130,6587.832884,-11251.130318,-4979.620737
394.187453,2442.679609,-14656.077652,-6435.202183
394.187775,-2442.679609,-15618.345376,-5286.058936
394.188098,-7994.224174,-16432.571912,-3677.258390
394.188421,-11991.336260,-17764.942608,-3064.381992
394.188743,-13323.706956,-16876.695478,-2834.553343
394.189066,-13767.830521,-13693.809927,-2451.505594
394.189388,-13249.686362,-10214.842000,-2145.067394
394.189711,-10140.821405,-6809.894666,383.047749
394.190034,-5773.606348,-5329.482782,2145.067394
394.190356,370.102971,-3182.885551,2757.943793
394.190679,6143.709319,-592.164754,1378.971896
394.191001,10436.903782,-1332.370696,0.000000
394.191324,13101.645173,-2960.823768,612.876398
394.191646,12805.562797,-4737.318029,383.047749
394.191969,10881.027347,-7402.059420,-919.314598
394.192292,7698.141797,-10140.821405,-3830.477490
394.192614,3997.112087,-12657.521608,-5898.935335
394.192937,-444.123565,-14285.974681,-6205.373534
394.193259,-5033.400406,-15322.262999,-4443.353888
394.193582,-10140.821405,-14878.139434,-3217.601092
394.193905,-11547.212695,-15692.365970,-2757.943793
394.194227,-11843.295072,-13249.686362,-1685.410096
394.194550,-11325.150913,-11769.274478,-1685.410096
394.194872,-9844.739029,-8142.265362,-919.314598
394.195195,-5921.647536,-7031.956449,-536.266849
394.195518,-592.164754,-5699.585753,153.219100
394.195840,5255.462188,-4219.173869,536.266849
394.196163,9844.739029,-4367.215058,919.314598
394.196485,12287.418637,-4219.173869,1072.533697
394.196808,12731.542202,-4737.318029,229.828649
394.197130,11547.212695,-7254.018232,-383.047749
394.197453,8956.491898,-9696.697840,-1762.019645
394.197775,4367.215058,-10436.903782,-3983.696590
394.198098,-1036.288319,-11103.089130,-5132.839837
394.198420,-6217.729913,-12805.562797,-3983.696590
394.198743,-8882.471304,-15174.221811,-3140.991542
394.199066,-13101.645173,-16062.468941,-3064.381992
394.199388,-14137.933492,-15174.221811,-1991.848295
394.199711,-12805.562797,-13471.748144,-1072.533697
394.200033,-10436.903782,-10658.965565,-306.438199
394.200356,-7476.080014,-7254.018232,-612.876398
394.200678,-3256.906145,-5107.421000,459.657299
394.201001,2146.597232,-3849.070898,306.438199
394.201323,7920.203579,-2886.803174,-383.047749
394.201646,11843.295072,-2886.803174,-1072.533697
394.201968,13323.706956,-3701.029710,-842.705048
394.202291,12953.603985,-6735.874072,76.609550
394.202613,10510.924376,-10362.883188,-766.095498
394.202936,7031.956449,-12361.439231,-2911.162892
394.203259,2368.659014,-12435.459826,-4903.011187
394.203581,-2368.659014,-12657.521608,-5056.230287
394.203904,-6735.874072,-13693.809927,-3370.820191
394.204226,-10066.800811,-13397.727550,-1149.143247
394.204549,-11843.295072,-11547.212695,-842.705048
394.204871,-11621.233289,-10881.027347,-1149.143247
394.205194,-9326.594869,-9696.697840,-1915.238745
394.205516,-6587.832884,-8290.306550,-689.485948
394.205839,-3627.009116,-8142.265362,536.266849
394.206161,962.267725,-7031.956449,1378.971896
394.206484,5625.565159,-5847.626942,689.485948
394.206806,9030.512492,-4959.379811,-995.924147
394.207129,10584.944971,-5107.421000,-2068.457845
394.207451,10510.924376,-6735.874072,-1838.629195
394.207774,8956.491898,-9326.594869,-1455.581446
394.208097,6217.729913,-10732.986159,-2221.676944
394.208419,1776.494261,-11917.315666,-3677.258390
394.208742,-2738.761985,-13101.645173,-4136.915689
394.209064,-7031.956449,-14137.933492,-2987.772442
394.209387,-11325.150913,-15174.221811,-2451.505594
394.209709,-13545.768739,-14582.057057,-1378.971896
394.210032,-14730.098246,-12805.562797,766.095498
394.210354,-13323.706956,-9918.759623,-306.438199
394.210677,-10436.903782,-7105.977043,-306.438199
394.210999,-6883.915261,-5699.585753,1302.362347
394.211322,-1554.432478,-4589.276840,1685.410096
394.211644,4071.132681,-2812.782580,0.000000
394.211967,9104.533087,-2368.659014,-612.876398
394.212290,12213.398043,-3478.967927,-919.314598
394.212612,13101.645173,-6291.750507,-1225.752797
394.212935,11473.192101,-8438.347739,-2145.067394
394.213257,8586.388927,-10955.047942,-3907.087040
394.213580,4811.338623,-12953.603985,-5362.668486
394.213902,222.061783,-14730.098246,-5286.058936
394.214225,-4737.318029,-14804.118840,-4213.525239
394.214547,-8808.450710,-14211.954086,-2757.943793
394.214870,-11843.295072,-12731.542202,-2221.676944
394.215192,-11843.295072,-11695.253884,-1991.848295
394.215515,-10288.862594,-9178.553681,-2374.896044
394.215837,-7550.100608,-7328.038826,-842.705048
394.216160,-4885.359217,-6587.832884,1072.533697
394.216483,0.000000,-5329.482782,1762.019645
394.216805,5773.606348,-4959.379811,536.266849
394.217128,10510.924376,-4959.379811,-459.657299
394.217450,13767.830521,-5699.585753,-995.924147
394.217773,14804.118840,-7328.038826,-1608.800546
394.218095,13693.809927,-8364.327145,76.609550
394.218418,11325.150913,-9844.739029,-1608.800546
394.218740,7476.080014,-10658.965565,-4826.401637
394.219063,2072.576638,-12583.501014,-6358.592633
394.219385,-3108.864956,-14508.036463,-5439.278036
394.219708,-7994.224174,-15396.283594,-3370.820191
394.220030,-12879.583391,-15692.365970,-2757.943793
394.220353,-14878.139434,-15174.221811,-1685.410096
394.220676,-14285.974681,-13397.727550,-383.047749
394.220998,-11325.150913,-9770.718434,0.000000
394.221321,-9252.574275,-6217.729913,229.828649
394.221643,-4737.318029,-4071.132681,459.657299
394.221966,1332.370696,-2516.700203,995.924147
394.222288,7402.059420,-1702.473667,229.828649
394.222611,11917.315666,-2368.659014,-459.657299
394.222933,13471.748144,-4811.338623,0.000000
394.223256,13249.686362,-6957.935855,-153.219100
394.223578,11103.089130,-9770.718434,-1915.238745
394.223901,7920.203579,-12287.418637,-4060.306139
394.224223,3627.009116,-13397.727550,-5515.887586
394.224546,-2146.597232,-13175.665768,-5056.230287
394.224869,-7550.100608,-13101.645173,-3294.210641
394.225191,-11917.315666,-13693.809927,-2374.896044
394.225514,-13323.706956,-14285.974681,-2834.553343
394.225836,-14063.912898,-13027.624579,-2145.067394
394.226159,-13989.892304,-10807.006753,0.000000
394.226481,-11695.253884,-7031.956449,1378.971896
394.226804,-8586.388927,-5847.626942,766.095498
394.227126,-2664.741391,-4959.379811,612.876398
394.227449,3330.926739,-3627.009116,383.047749
394.227771,8142.265362,-3923.091493,-1149.143247
394.228094,11547.212695,-5033.400406,-1302.362347
394.228416,12139.377449,-7328.038826,-536.266849
394.228739,11473.192101,-9252.574275,-459.657299
394.229062,8956.491898,-10955.047942,-2834.553343
394.229384,4737.318029,-12805.562797,-5286.058936
394.229707,-1110.308913,-14211.954086,-6205.373534
394.230029,-6365.771101,-15248.242405,-5209.449386
394.230352,-11769.274478,-16062.468941,-3447.429741
394.230674,-13989.892304,-16802.674883,-1685.410096
394.230997,-15100.201217,-15100.201217,-842.705048
394.231319,-13989.892304,-11917.315666,76.609550
394.231642,-10807.006753,-8142.265362,1225.752797
394.231964,-8216.285956,-5625.565159,2451.505594
394.232287,-3182.885551,-2368.659014,2987.772442
394.232609,3256.906145,-222.061783,1838.629195
394.232932,9622.677246,296.082377,0.000000
394.233255,14137.933492,-1332.370696,-1991.848295
394.233577,15840.407159,-5033.400406,-689.485948
394.233900,14582.057057,-8734.430116,612.876398
394.234222,12731.542202,-11177.109724,-1532.190996
394.234545,9400.615463,-12139.377449,-5439.278036
394.234867,5033.400406,-14508.036463,-6511.811733
394.235190,-666.185348,-15396.283594,-5592.497135
394.235512,-6439.791695,-15470.304188,-4366.744339
394.235835,-9844.739029,-14730.098246,-1991.848295
394.236157,-11547.212695,-12583.501014,-1302.362347
394.236480,-10658.965565,-10807.006753,-995.924147
394.236802,-8142.265362,-8290.306550,-1378.971896
394.237125,-5625.565159,-7105.977043,306.438199
394.237448,-2442.679609,-5477.523971,2068.457845
394.237770,3627.009116,-4515.256246,2374.896044
394.238093,9696.697840,-3775.050304,1378.971896
394.238415,13989.892304,-3404.947333,0.000000
394.238738,15618.345376,-4737.318029,-689.485948
394.239060,14582.057057,-6217.729913,842.705048
394.239383,11917.315666,-9030.512492,0.000000
394.239705,7254.018232,-11029.068536,-4136.915689
394.240028,1702.473667,-13249.686362,-7124.688131
394.240350,-3849.070898,-15618.345376,-6358.592633
394.240673,-9548.656652,-16580.613101,-6435.202183
394.240995,-13915.871710,-17987.004391,-4596.572988
394.241318,-17024.736666,-16580.613101,-2834.553343
394.241641,-17838.963202,-14582.057057,-766.095498
394.241963,-15100.201217,-10584.944971,-919.314598
394.242286,-11843.295072,-6735.874072,-1455.581446
394.242608,-7772.162391,-4737.318029,76.609550
394.242931,-2294.638420,-4145.153275,1378.971896
394.243253,3775.050304,-3256.906145,383.047749
394.243576,9770.718434,-2738.761985,-229.828649
394.243898,13767.830521,-3552.988522,842.705048
394.244221,14656.077652,-4885.359217,153.219100
394.244543,12065.356855,-6365.771101,-1149.143247
394.244866,8956.491898,-9992.780217,-2221.676944
394.245188,4737.318029,-12731.542202,-4060.306139
394.245511,-740.205942,-13397.727550,-6511.811733
394.245833,-6439.791695,-14211.954086,-4903.011187
394.246156,-9326.594869,-14952.160028,-2604.724693
394.246479,-13027.624579,-13841.851115,-2145.067394
394.246801,-14582.057057,-13693.809927,-1532.190996
394.247124,-14804.118840,-11177.109724,-383.047749
394.247446,-13101.645173,-8734.430116,842.705048
394.247769,-9844.739029,-5699.585753,-229.828649
394.248091,-4441.235652,-3627.009116,-1072.533697
394.248414,2220.617826,-3552.988522,-383.047749
394.248736,8512.368333,-4293.194464,-306.438199
394.249059,13027.624579,-5699.585753,0.000000
394.249381,14508.036463,-6809.894666,612.876398
394.249704,13619.789333,-8586.388927,612.876398
394.250026,11399.171507,-9770.718434,-2298.286494
394.250349,7254.018232,-11399.171507,-5362.668486
394.250672,1554.432478,-11843.295072,-5209.449386
394.250994,-3701.029710,-14804.118840,-4826.401637
394.251317,-7994.224174,-16284.530724,-3064.381992
394.251639,-11547.212695,-16876.695478,-1225.752797
394.251962,-11695.253884,-15988.448347,0.000000
394.252284,-10955.047942,-12657.521608,612.876398
394.252607,-9326.594869,-9696.697840,612.876398
394.252929,-6143.709319,-6217.729913,1455.581446
394.253252,-1406.391290,-3330.926739,2834.553343
394.253574,3552.988522,-296.082377,2221.676944
394.253897,8882.471304,148.041188,612.876398
394.254219,12361.439231,-1776.494261,-612.876398
394.254542,13471.748144,-4071.132681,306.438199
394.254865,12287.418637,-7328.038826,-536.266849
394.255187,9992.780217,-10510.924376,-3294.210641
394.255510,6957.935855,-13323.706956,-5975.544884
394.255832,3034.844362,-15026.180623,-6741.640382
394.256155,-2664.741391,-14730.098246,-4979.620737
394.256477,-8364.327145,-13693.809927,-4903.011187
394.256800,-13175.665768,-14285.974681,-3830.477490
394.257122,-14508.036463,-12509.480420,-2221.676944
394.257445,-13767.830521,-11473.192101,-2298.286494
394.257767,-11843.295072,-9474.636058,-1378.971896
394.258090,-7994.224174,-8068.244768,-306.438199
394.258412,-3108.864956,-6735.874072,1915.238745
394.258735,2590.720797,-5181.441594,2681.334243
394.259058,7920.203579,-4071.132681,2374.896044
394.259380,12287.418637,-3330.926739,1685.410096
394.259703,14434.015869,-3923.091493,-229.828649
394.260025,14211.954086,-4811.338623,-229.828649
394.260348,11843.295072,-7031.956449,-153.219100
394.260670,7920.203579,-10436.903782,-2298.286494
394.260993,3256.906145,-13249.686362,-4290.134789
394.261315,-1924.535449,-14878.139434,-5592.497135
394.261638,-7772.162391,-16580.613101,-5515.887586
394.261960,-12805.562797,-17098.757260,-4443.353888
394.262283,-16506.592507,-17838.963202,-3447.429741
394.262605,-17616.901420,-14878.139434,-919.314598
394.262928,-16654.633695,-12287.418637,-766.095498
394.263251,-14952.160028,-7254.018232,-1455.581446
394.263573,-10658.965565,-4811.338623,-1762.019645
394.263896,-4737.318029,-3849.070898,-383.047749
394.264218,1480.411884,-1850.514855,229.828649
394.264541,7550.100608,-1406.391290,-995.924147
394.264863,11399.171507,-3256.906145,-766.095498
394.265186,12731.542202,-5921.647536,229.828649
394.265508,12139.377449,-8364.327145,-1072.533697
394.265831,9696.697840,-9770.718434,-2757.943793
394.266153,6439.791695,-11547.212695,-4136.915689
394.266476,1628.453072,-13249.686362,-5822.325785
394.266798,-2220.617826,-14730.098246,-4673.182538
394.267121,-5921.647536,-14952.160028,-2987.772442
394.267444,-8068.244768,-14804.118840,-1225.752797
394.267766,-9252.574275,-12731.542202,0.000000
394.268089,-9474.636058,-10584.944971,0.000000
394.268411,-8438.347739,-7328.038826,-995.924147
394.268734,-4885.359217,-6957.935855,536.266849
394.269056,-1258.350101,-5773.606348,1608.800546
394.269379,4071.132681,-4441.235652,612.876398
394.269701,8734.430116,-3997.112087,229.828649
394.270024,11769.274478,-5255.462188,536.266849
394.270346,13101.645173,-6809.894666,0.000000
394.270669,11917.315666,-7698.141797,-689.485948
394.270991,9844.739029,-9844.739029,-2834.553343
394.271314,6735.874072,-11843.295072,-5056.230287
394.271637,2220.617826,-12879.583391,-6205.373534
394.271959,-3478.967927,-13249.686362,-4903.011187
394.272282,-8364.327145,-14582.057057,-3753.867940
394.272604,-11695.253884,-16210.510130,-3064.381992
394.272927,-14211.954086,-16432.571912,-2068.457845
394.273249,-14804.118840,-13989.892304,-689.485948
394.273572,-11621.233289,-10807.006753,536.266849
394.273894,-8512.368333,-7550.100608,383.047749
394.274217,-3478.967927,-4071.132681,766.095498
394.274539,2146.597232,-1776.494261,1378.971896
394.274862,7920.203579,-962.267725,1302.362347
394.275184,12583.501014,-1776.494261,76.609550
394.275507,14434.015869,-3552.988522,0.000000
394.275830,14063.912898,-5773.606348,0.000000
394.276152,12065.356855,-9622.677246,-1378.971896
394.276475,8512.368333,-11991.336260,-3677.258390
394.276797,4515.256246,-13545.768739,-4596.572988
394.277120,-666.185348,-14137.933492,-4596.572988
394.277442,-5921.647536,-13767.830521,-4213.525239
394.277765,-11029.068536,-13767.830521,-2987.772442
394.278087,-13471.748144,-13175.665768,-1915.238745
394.278410,-14137.933492,-12065.356855,-919.314598
394.278732,-13841.851115,-9622.677246,-1072.533697
394.279055,-11029.068536,-7920.203579,-1149.143247
394.279377,-7105.977043,-6661.853478,-306.438199
394.279700,-1850.514855,-5773.606348,919.314598
394.280023,4515.256246,-4219.173869,1455.581446
394.280345,9474.636058,-4441.235652,612.876398
394.280668,11843.295072,-4737.318029,-842.705048
394.280990,11917.315666,-5625.565159,-919.314598
394.281313,9918.759623,-7402.059420,0.000000
394.281635,6957.935855,-10066.800811,-2451.505594
394.281958,3256.906145,-12509.480420,-6052.154434
394.282280,-1332.370696,-14137.933492,-6511.811733
394.282603,-6217.729913,-14878.139434,-5362.668486
394.282925,-9844.739029,-16358.551318,-2911.162892
394.283248,-13249.686362,-16580.613101,-2221.676944
394.283570,-14804.118840,-15618.345376,-1608.800546
394.283893,-14211.954086,-12509.480420,-1455.581446
394.284215,-13175.665768,-9178.553681,-306.438199
394.284538,-10436.903782,-5403.503377,0.000000
394.284861,-5551.544565,-2812.782580,383.047749
394.285183,666.185348,-1184.329507,0.000000
394.285506,7772.162391,-518.144159,-1225.752797
394.285828,13249.686362,-2886.803174,-1455.581446
394.286151,15396.283594,-6217.729913,-689.485948
394.286473,14285.974681,-9992.780217,0.000000
394.286796,11473.192101,-11695.253884,-1608.800546
394.287118,7920.203579,-12361.439231,-5132.839837
394.287441,3627.009116,-13693.809927,-6818.249932
394.287763,-1924.535449,-14730.098246,-6052.154434
394.288086,-6735.874072,-14285.974681,-3600.648841
394.288408,-10807.006753,-12435.459826,-1915.238745
394.288731,-10066.800811,-13175.665768,-2298.286494
394.289054,-8216.285956,-11325.150913,-1225.752797
394.289376,-7402.059420,-10214.842000,-919.314598
394.289699,-6439.791695,-7920.203579,612.876398
394.290021,-2442.679609,-5995.668130,2145.067394
394.290344,2294.638420,-4145.153275,1455.581446
394.290666,7031.956449,-2886.803174,459.657299
394.290989,10214.842000,-2738.761985,-995.924147
394.291311,11843.295072,-3923.091493,-995.924147
394.291634,11917.315666,-6661.853478,306.438199
394.291956,10140.821405,-9918.759623,-689.485948
394.292279,7105.977043,-11547.212695,-3983.696590
394.292601,2738.761985,-13841.851115,-5975.544884
394.292924,-1184.329507,-16210.510130,-5592.497135
394.293247,-5995.668130,-16876.695478,-4749.792088
394.293569,-11103.089130,-16358.551318,-3294.210641
394.293892,-13841.851115,-14656.077652,-1302.362347
394.294214,-13989.892304,-14063.912898,-995.924147
394.294537,-10881.027347,-11029.068536,-1455.581446
394.294859,-8290.306550,-7328.038826,-153.219100
394.295182,-5625.565159,-5551.544565,1532.190996
394.295504,-1184.329507,-3923.091493,2681.334243
394.295827,4589.276840,-2442.679609,2221.676944
394.296149,8956.491898,-1924.535449,383.047749
394.296472,11325.150913,-2738.761985,-1302.362347
394.296794,11177.109724,-4589.276840,76.609550
394.297117,9474.636058,-7179.997637,306.438199
394.297440,7179.997637,-10510.924376,-1838.629195
394.297762,3627.009116,-12287.418637,-4060.306139
394.298085,370.102971,-14211.954086,-5669.106685
394.298407,-3108.864956,-14508.036463,-5362.668486
394.298730,-6143.709319,-15100.201217,-2987.772442
394.299052,-10436.903782,-14730.098246,-1378.971896
394.299375,-12657.521608,-13249.686362,-306.438199
394.299697,-13175.665768,-10732.986159,-536.266849
394.300019,-12139.377449,-7254.018232,-766.095498
394.300342,-9844.739029,-4885.359217,-1762.019645
394.300664,-4959.379811,-4959.379811,-1225.752797
394.300987,814.226536,-4219.173869,536.266849
394.301309,7105.977043,-3775.050304,306.438199
394.301632,11251.130318,-4737.318029,229.828649
394.301954,12879.583391,-6661.853478,153.219100
394.302276,12361.439231,-8364.327145,-1302.362347
394.302599,10214.842000,-9326.594869,-3217.601092
394.302921,5995.668130,-10881.027347,-4596.572988
394.303244,1554.432478,-13323.706956,-5515.887586
394.303566,-4071.132681,-14952.160028,-5209.449386
394.303889,-8142.265362,-16284.530724,-3830.477490
394.304211,-10807.006753,-16728.654289,-2451.505594
394.304533,-11177.109724,-16432.571912,-1991.848295
394.304856,-10955.047942,-13027.624579,-306.438199
394.305178,-9548.656652,-10510.924376,536.266849
394.305501,-7550.100608,-6365.771101,1762.019645
394.305823,-3478.967927,-3108.864956,2221.676944
394.306146,888.247130,0.000000,1608.800546
394.306468,6365.771101,0.000000,-229.828649
394.306790,10214.842000,-1776.494261,-1991.848295
394.307113,12213.398043,-4145.153275,-689.485948
394.307435,12139.377449,-7328.038826,612.876398
394.307758,10066.800811,-11029.068536,-1072.533697
394.308080,7105.977043,-13175.665768,-4519.963438
394.308403,3775.050304,-15100.201217,-7201.297681
394.308725,-592.164754,-15766.386565,-6971.469032
394.309048,-5255.462188,-14878.139434,-4903.011187
394.309370,-10807.006753,-13175.665768,-3064.381992
394.309692,-13027.624579,-12065.356855,-1915.238745
394.310015,-11621.233289,-11251.130318,-2528.115143
394.310337,-8660.409521,-10436.903782,-2451.505594
394.310660,-6735.874072,-8068.244768,-1225.752797
394.310982,-3701.029710,-6735.874072,1072.533697
394.311305,592.164754,-5995.668130,3064.381992
394.311627,6513.812290,-4145.153275,2834.553343
394.311949,10807.006753,-2738.761985,459.657299
394.312272,12805.562797,-3478.967927,-842.705048
394.312594,12435.459826,-4811.338623,306.438199
394.312917,10584.944971,-7105.977043,1302.362347
394.313239,7550.100608,-9548.656652,-766.095498
394.313562,3775.050304,-12213.398043,-4290.134789
394.313884,0.000000,-14582.057057,-6052.154434
394.314206,-4145.153275,-15618.345376,-5132.839837
394.314529,-8068.244768,-16802.674883,-3907.087040
394.314851,-11917.315666,-17098.757260,-3294.210641
394.315174,-14285.974681,-15692.365970,-383.047749
394.315496,-14730.098246,-12805.562797,536.266849
394.315819,-13989.892304,-7624.121203,-153.219100
394.316141,-11843.295072,-4515.256246,-1991.848295
394.316463,-6735.874072,-3701.029710,-1915.238745
394.316786,-962.267725,-2664.741391,-842.705048
394.317108,5477.523971,-1998.556043,0.000000
394.317431,9992.780217,-3034.844362,153.219100
394.317753,11547.212695,-5551.544565,842.705048
394.318076,10881.027347,-8586.388927,0.000000
394.318398,8586.388927,-9474.636058,-2068.457845
394.318720,5699.585753,-11843.295072,-4749.792088
394.319043,1998.556043,-13471.748144,-5439.278036
394.319365,-1924.535449,-13767.830521,-4673.182538
394.319688,-4737.318029,-13693.809927,-2451.505594
394.320010,-7846.182985,-14285.974681,-1608.800546
394.320333,-7550.100608,-14730.098246,-306.438199
394.320655,-8808.450710,-11325.150913,1225.752797
394.320977,-8290.306550,-8290.306550,-306.438199
394.321300,-7105.977043,-5995.668130,-153.219100
394.321622,-3552.988522,-5329.482782,2145.067394
394.321945,518.144159,-3404.947333,1302.362347
394.322267,4737.318029,-2146.597232,-612.876398
394.322590,8512.368333,-3627.009116,-919.314598
394.322912,10288.862594,-5625.565159,-229.828649
394.323234,10288.862594,-7994.224174,-1225.752797
394.323557,8068.244768,-10510.924376,-2068.457845
394.323879,5403.503377,-12583.501014,-4673.182538
394.324202,1850.514855,-14508.036463,-7201.297681
394.324524,-2220.617826,-15322.262999,-7201.297681
394.324847,-6735.874072,-15396.283594,-5898.935335
394.325169,-9770.718434,-16506.592507,-4136.915689
394.325492,-11695.253884,-15544.324782,-1762.019645
394.325814,-12435.459826,-13767.830521,-612.876398
394.326136,-10955.047942,-10362.883188,-1225.752797
394.326459,-8290.306550,-6957.935855,-612.876398
394.326781,-4589.276840,-5181.441594,689.485948
394.327104,962.267725,-2960.823768,1532.190996
394.327426,6291.750507,-1702.473667,1149.143247
394.327749,11399.171507,-1702.473667,153.219100
394.328071,14952.160028,-3478.967927,-306.438199
394.328393,15988.448347,-5773.606348,-459.657299
394.328716,14434.015869,-8734.430116,-459.657299
394.329038,10362.883188,-10955.047942,-2451.505594
394.329361,6365.771101,-13545.768739,-4749.792088
394.329683,2368.659014,-14952.160028,-5898.935335
394.330006,-2146.597232,-15322.262999,-6052.154434
394.330328,-6661.853478,-14582.057057,-3677.258390
394.330650,-11843.295072,-12509.480420,-1532.190996
394.330973,-13175.665768,-12213.398043,-766.095498
394.331295,-11917.315666,-10584.944971,-1532.190996
394.331618,-9326.594869,-8438.347739,-1991.848295
394.331940,-7698.141797,-6365.771101,-1532.190996
394.332263,-4071.132681,-5033.400406,536.266849
394.332585,1702.473667,-5699.585753,1685.410096
394.332907,6957.935855,-4737.318029,1532.190996
394.333230,10584.944971,-3701.029710,-229.828649
394.333552,11325.150913,-4959.379811,-1302.362347
394.333875,10658.965565,-7402.059420,459.657299
394.334197,8734.430116,-10214.842000,229.828649
394.334520,4663.297435,-10658.965565,-2451.505594
394.334842,814.226536,-11843.295072,-5209.449386
394.335164,-2294.638420,-14285.974681,-5056.230287
394.335487,-5477.523971,-15692.365970,-3217.601092
394.335809,-9252.574275,-16136.489536,-1915.238745
394.336132,-12435.459826,-15692.365970,842.705048
394.336454,-13175.665768,-14063.912898,1685.410096
394.336777,-11991.336260,-10436.903782,153.219100
394.337099,-10584.944971,-6143.709319,153.219100
394.337421,-8068.244768,-2886.803174,459.657299
394.337744,-3182.885551,-2368.659014,689.485948
394.338066,3108.864956,-1998.556043,536.266849
394.338389,8216.285956,-1776.494261,-306.438199
394.338711,9770.718434,-3701.029710,-1455.581446
394.339034,9696.697840,-7402.059420,-306.438199
394.339356,8290.306550,-11399.171507,-1838.629195
394.339678,5255.462188,-13471.748144,-5286.058936
394.340001,2146.597232,-14508.036463,-7048.078582
394.340323,-1702.473667,-14730.098246,-5898.935335
394.340646,-6217.729913,-14878.139434,-4290.134789
394.340968,-10066.800811,-14211.954086,-2221.676944
394.341291,-11917.315666,-14285.974681,0.000000
394.341613,-11843.295072,-10732.986159,-459.657299
394.341936,-9548.656652,-7846.182985,-2451.505594
394.342258,-7105.977043,-6513.812290,-1302.362347
394.342580,-3552.988522,-5033.400406,1225.752797
394.342903,1332.370696,-3849.070898,2757.943793
394.343225,6513.812290,-2738.761985,1991.848295
394.343548,11695.253884,-3182.885551,459.657299
394.343870,13915.871710,-4367.215058,-1149.143247
394.344193,13915.871710,-5181.441594,-1608.800546
394.344515,11843.295072,-8586.388927,0.000000
394.344837,9104.533087,-11399.171507,-2145.067394
394.345160,5847.626942,-13915.871710,-6205.373534
394.345482,1702.473667,-15914.427753,-7201.297681
394.345805,-3849.070898,-16802.674883,-6435.202183
394.346127,-8808.450710,-17172.777854,-4673.182538
394.346450,-12657.521608,-16654.633695,-2451.505594
394.346772,-13545.768739,-13249.686362,-1378.971896
394.347094,-13249.686362,-10658.965565,-2145.067394
394.347417,-11251.130318,-7476.080014,-1991.848295
394.347739,-8068.244768,-4737.318029,-459.657299
394.348062,-3701.029710,-3701.029710,383.047749
394.348384,2368.659014,-3478.967927,0.000000
394.348707,8808.450710,-3552.988522,153.219100
394.349029,13397.727550,-3701.029710,-229.828649
394.349351,15100.201217,-5477.523971,-536.266849
394.349674,13693.809927,-7698.141797,0.000000
394.349996,10881.027347,-9918.759623,-766.095498
394.350319,7402.059420,-11769.274478,-4136.915689
394.350641,2960.823768,-13101.645173,-6435.202183
394.350964,-1332.370696,-14359.995275,-5898.935335
394.351286,-4959.379811,-15100.201217,-3600.648841
394.351608,-8512.368333,-15840.407159,-1915.238745
394.351931,-10288.862594,-15396.283594,0.000000
394.352253,-11695.253884,-12583.501014,1915.238745
394.352576,-11843.295072,-7624.121203,0.000000
394.352898,-9918.759623,-4293.194464,-1532.190996
394.353221,-5403.503377,-5329.482782,-995.924147
394.353543,-666.185348,-4367.215058,0.000000
394.353865,4071.132681,-2886.803174,0.000000
394.354188,8216.285956,-4293.194464,689.485948
394.354510,10807.006753,-6439.791695,1378.971896
394.354833,10881.027347,-8660.409521,0.000000
394.355155,8216.285956,-9400.615463,-1532.190996
394.355478,4441.235652,-10140.821405,-3140.991542
394.355800,518.144159,-12065.356855,-5515.887586
394.356123,-3182.885551,-13767.830521,-5669.106685
394.356445,-7698.141797,-14137.933492,-3370.820191
394.356767,-11991.336260,-15100.201217,-2298.286494
394.357090,-12583.501014,-16210.510130,-536.266849
394.357412,-12287.418637,-14730.098246,1149.143247
394.357735,-11843.295072,-11695.253884,229.828649
394.358057,-10436.903782,-7105.977043,612.876398
394.358380,-6957.935855,-4959.379811,2834.553343
394.358702,-3256.906145,-1184.329507,3907.087040
394.359024,2442.679609,1184.329507,1225.752797
394.359347,7550.100608,1776.494261,-1378.971896
394.359669,11103.089130,-592.164754,-1762.019645
394.359992,12361.439231,-5255.462188,-1225.752797
394.360314,11325.150913,-10584.944971,-2451.505594
394.360637,9548.656652,-15174.221811,-4366.744339
394.360959,6957.935855,-17320.819043,-5669.106685
394.361281,2886.803174,-17912.983796,-6358.592633
394.361604,-2368.659014,-16728.654289,-6128.763984
394.361926,-7994.224174,-16432.571912,-3983.696590
394.362249,-11991.336260,-13693.809927,-1685.410096
394.362571,-13027.624579,-11177.109724,-1302.362347
394.362894,-10658.965565,-8068.244768,-2451.505594
394.363216,-6809.894666,-6661.853478,-2068.457845
394.363538,-2960.823768,-6069.688724,842.705048
394.363861,666.185348,-5403.503377,2681.334243
394.364183,5847.626942,-4515.256246,2604.724693
394.364506,10807.006753,-3478.967927,1532.190996
394.364828,13841.851115,-4293.194464,-689.485948
394.365151,13471.748144,-3997.112087,-689.485948
394.365473,11399.171507,-4737.318029,689.485948
394.365795,8660.409521,-7846.182985,-2221.676944
394.366118,5699.585753,-13397.727550,-6281.983084
394.366440,1850.514855,-17172.777854,-6894.859482
394.366763,-3404.947333,-17394.839637,-5898.935335
394.367085,-8734.430116,-16580.613101,-4366.744339
394.367408,-10510.924376,-19023.292709,-3907.087040
394.367730,-12583.501014,-17246.798449,-2221.676944
394.368052,-14359.995275,-13323.706956,-536.266849
394.368375,-15692.365970,-6661.853478,0.000000
394.368697,-12731.542202,-2516.700203,-383.047749
394.369020,-7698.141797,-2812.782580,-1225.752797
394.369342,-814.226536,-1776.494261,-995.924147
394.369665,5033.400406,-1406.391290,-1302.362347
394.369987,10955.047942,-3330.926739,0.000000
394.370309,14063.912898,-6661.853478,2987.772442
394.370632,14878.139434,-8956.491898,2528.115143
394.370954,11547.212695,-7772.162391,-1225.752797
394.371277,7476.080014,-8956.491898,-4519.963438
394.371599,3997.112087,-12805.562797,-7201.297681
394.371922,-666.185348,-15766.386565,-6511.811733
394.372244,-6069.688724,-16210.510130,-3294.210641
394.372567,-9030.512492,-16284.530724,-766.095498
394.372889,-8808.450710,-16728.654289,-459.657299
394.373211,-8438.347739,-15618.345376,153.219100
394.373534,-9622.677246,-9992.780217,0.000000
394.373856,-10214.842000,-5403.503377,536.266849
394.374179,-7402.059420,-3701.029710,1762.019645
394.374501,-1924.535449,-2590.720797,1149.143247
394.374824,3627.009116,-370.102971,-919.314598
394.375146,6883.915261,-814.226536,-2451.505594
394.375468,9030.512492,-4367.215058,-1149.143247
394.375791,9992.780217,-9252.574275,2374.896044
394.376113,8956.491898,-10807.006753,153.219100
394.376436,6291.750507,-11621.233289,-4903.011187
394.376758,2886.803174,-13471.748144,-7507.735880
394.377081,-1184.329507,-14878.139434,-7277.907231
394.377403,-6513.812290,-15322.262999,-5362.668486
394.377725,-11547.212695,-16580.613101,-2528.115143
394.378048,-13545.768739,-17098.757260,-1455.581446
394.378370,-11991.336260,-15618.345376,-153.219100
394.378693,-11325.150913,-11917.315666,153.219100
394.379015,-9770.718434,-7476.080014,612.876398
394.379338,-6587.832884,-4589.276840,2374.896044
394.379660,-370.102971,-2886.803174,3217.601092
394.379982,5847.626942,888.247130,1991.848295
394.380305,10732.986159,2886.803174,-459.657299
394.380627,14211.954086,962.267725,1072.533697
394.380950,14878.139434,-2516.700203,2221.676944
394.381272,13619.789333,-7402.059420,-919.314598
394.381595,10881.027347,-13027.624579,-4826.401637
394.381917,7254.018232,-16950.716072,-5592.497135
394.382239,2072.576638,-17394.839637,-6205.373534
394.382562,-3478.967927,-17542.880825,-5515.887586
394.382884,-8364.327145,-16580.613101,-4443.353888
394.383207,-12731.542202,-15544.324782,-4979.620737
394.383529,-14434.015869,-13767.830521,-2374.896044
394.383852,-14137.933492,-9474.636058,-1225.752797
394.384174,-11843.295072,-6809.894666,-1378.971896
394.384496,-7254.018232,-5625.565159,-1149.143247
394.384819,-2294.638420,-4737.318029,1532.190996
394.385141,2590.720797,-4071.132681,1532.190996
394.385464,8660.409521,-3552.988522,383.047749
394.385786,13027.624579,-4589.276840,1302.362347
394.386109,13915.871710,-5107.421000,1378.971896
394.386431,12879.583391,-3923.091493,689.485948
394.386753,10658.965565,-6291.750507,-919.314598
394.387076,7846.182985,-11473.192101,-4979.620737
394.387398,3478.967927,-16284.530724,-7431.126331
394.387721,-1924.535449,-17542.880825,-4749.792088
394.388043,-7846.182985,-17098.757260,-3600.648841
394.388366,-9992.780217,-18727.210333,-2451.505594
394.388688,-11399.171507,-17468.860231,-1532.190996
394.389011,-13545.768739,-14804.118840,-1608.800546
394.389333,-14137.933492,-10140.821405,-536.266849
394.389655,-12065.356855,-5329.482782,1685.410096
394.389978,-8956.491898,-3108.864956,1225.752797
394.390300,-3034.844362,-592.164754,-459.657299
394.390623,2516.700203,518.144159,-995.924147
394.390945,7772.162391,-1480.411884,-766.095498
394.391268,11695.253884,-4145.153275,459.657299
394.391590,12879.583391,-7179.997637,919.314598
394.391912,10732.986159,-9252.574275,-1149.143247
394.392235,7920.203579,-10955.047942,-4903.011187
394.392557,3997.112087,-13397.727550,-7124.688131
394.392880,-1036.288319,-15026.180623,-6358.592633
394.393202,-6143.709319,-16210.510130,-4903.011187
394.393525,-9326.594869,-16654.633695,-2221.676944
394.393847,-11621.233289,-15692.365970,-1455.581446
394.394169,-10807.006753,-14508.036463,-229.828649
394.394492,-9548.656652,-10214.842000,536.266849
394.394814,-8290.306550,-5699.585753,689.485948
394.395137,-6217.729913,-3330.926739,1532.190996
394.395459,-222.061783,-2590.720797,2451.505594
394.395782,5551.544565,-518.144159,1762.019645
394.396104,9770.718434,-148.041188,-153.219100
394.396426,11843.295072,-3182.885551,76.609550
394.396749,12361.439231,-6661.853478,1838.629195
394.397071,11103.089130,-9696.697840,-229.828649
394.397394,8364.327145,-10955.047942,-3447.429741
394.397716,4589.276840,-12065.356855,-6281.983084
394.398039,0.000000,-15248.242405,-7660.954980
394.398361,-5773.606348,-17172.777854,-5975.544884
394.398683,-12361.439231,-17616.901420,-4903.011187
394.399006,-15692.365970,-19319.375086,-4213.525239
394.399328,-14730.098246,-16950.716072,-2145.067394
394.399651,-13841.851115,-13693.809927,-1302.362347
394.399973,-11399.171507,-7105.977043,-1838.629195
394.400296,-7624.121203,-3849.070898,0.000000
394.400618,-2072.576638,-3108.864956,2911.162892
394.400940,3701.029710,-370.102971,2298.286494
394.401263,9326.594869,888.247130,-995.924147
394.401585,13915.871710,-518.144159,-1378.971896
394.401908,15618.345376,-4737.318029,0.000000
394.402230,14434.015869,-8290.306550,1072.533697
394.402552,11103.089130,-10658.965565,-383.047749
394.402875,7179.997637,-12879.583391,-4136.915689
394.403197,3701.029710,-16580.613101,-6741.640382
394.403520,-370.102971,-16654.633695,-6281.983084
394.403842,-5477.523971,-15914.427753,-5439.278036
394.404164,-10066.800811,-14656.077652,-3600.648841
394.404487,-11621.233289,-15248.242405,306.438199
394.404809,-11399.171507,-11769.274478,153.219100
394.405132,-9770.718434,-7476.080014,-1762.019645
394.405454,-7476.080014,-6217.729913,-1378.971896
394.405777,-3849.070898,-4811.338623,766.095498
394.406099,1258.350101,-4367.215058,689.485948
394.406421,6587.832884,-3034.844362,919.314598
394.406744,10955.047942,-3775.050304,2145.067394
394.407066,13249.686362,-4885.359217,995.924147
394.407389,12139.377449,-4811.338623,536.266849
394.407711,9474.636058,-6661.853478,-995.924147
394.408033,5921.647536,-10436.903782,-4366.744339
394.408356,1998.556043,-14211.954086,-7354.516781
394.408678,-2738.761985,-14878.139434,-6435.202183
394.409001,-8068.244768,-15766.386565,-4903.011187
394.409323,-11621.233289,-18357.107362,-2987.772442
394.409646,-12435.459826,-18949.272115,-995.924147
394.409968,-13397.727550,-17468.860231,-459.657299
394.410290,-13397.727550,-11991.336260,0.000000
394.410613,-11029.068536,-6439.791695,536.266849
394.410935,-7698.141797,-3034.844362,1302.362347
394.411258,-1776.494261,-888.247130,766.095498
394.411580,4367.215058,1036.288319,0.000000
394.411902,9474.636058,296.082377,-842.705048
