#time,accel_x,accel_y,accel_z
495.265063,-370.102971,-9474.636058,-1838.629195
495.265385,-370.102971,-9622.677246,-1762.019645
495.265707,-518.144159,-9474.636058,-1455.581446
495.266029,-222.061783,-9400.615463,-1532.190996
495.266351,-296.082377,-9474.636058,-1685.410096
495.266674,-222.061783,-9178.553681,-1608.800546
495.266996,-148.041188,-9178.553681,-1455.581446
495.267318,-296.082377,-9326.594869,-1149.143247
495.267640,0.000000,-9252.574275,-1378.971896
495.267962,-370.102971,-9178.553681,-1762.019645
495.268284,-370.102971,-9400.615463,-1378.971896
495.268606,-444.123565,-9474.636058,-1225.752797
495.268928,-296.082377,-9400.615463,-1532.190996
495.269250,-592.164754,-9252.574275,-1072.533697
495.269572,-518.144159,-9104.533087,-995.924147
495.269894,-370.102971,-9178.553681,-1532.190996
495.270216,-444.123565,-9178.553681,-1608.800546
495.270538,-444.123565,-9252.574275,-1455.581446
495.270860,-518.144159,-9474.636058,-1302.362347
495.271183,-148.041188,-9696.697840,-1915.238745
495.271505,-148.041188,-9400.615463,-1532.190996
495.271827,-296.082377,-9178.553681,-1532.190996
495.272149,-370.102971,-9400.615463,-1378.971896
495.272471,-444.123565,-9474.636058,-1378.971896
495.272793,-444.123565,-9474.636058,-2145.067394
495.273115,-296.082377,-9548.656652,-1991.848295
495.273437,-370.102971,-9474.636058,-1838.629195
495.273759,-444.123565,-9474.636058,-1608.800546
495.274081,-296.082377,-9252.574275,-1608.800546
495.274403,0.000000,-9030.512492,-1838.629195
495.274725,0.000000,-9104.533087,-1608.800546
495.275047,-222.061783,-9474.636058,-1455.581446
495.275370,-370.102971,-9622.677246,-1685.410096
495.275692,-666.185348,-9696.697840,-1685.410096
495.276014,-592.164754,-9770.718434,-1762.019645
495.276336,74.020594,-9400.615463,-1838.629195
495.276658,0.000000,-9326.594869,-1838.629195
495.276980,-148.041188,-9326.594869,-1685.410096
495.277302,-370.102971,-9400.615463,-1532.190996
495.277624,-296.082377,-9326.594869,-1762.019645
495.277946,-296.082377,-9548.656652,-1762.019645
495.278268,0.000000,-9252.574275,-1838.629195
495.278590,-518.144159,-9770.718434,-1838.629195
495.278912,-666.185348,-9474.636058,-1532.190996
495.279234,-592.164754,-9326.594869,-1762.019645
495.279556,-296.082377,-9030.512492,-1762.019645
495.279879,-592.164754,-9178.553681,-1455.581446
495.280201,0.000000,-9252.574275,-1302.362347
495.280523,-518.144159,-9252.574275,-1608.800546
495.280845,-814.226536,-9252.574275,-1532.190996
495.281167,-444.123565,-9400.615463,-1608.800546
495.281489,-518.144159,-9252.574275,-2068.457845
495.281811,-444.123565,-9030.512492,-1302.362347
495.282133,-444.123565,-9252.574275,-1225.752797
495.282455,-518.144159,-9030.512492,-1302.362347
495.282777,-222.061783,-9104.533087,-1302.362347
495.283099,74.020594,-9178.553681,-1532.190996
495.283421,74.020594,-8660.409521,-1072.533697
495.283743,-222.061783,-9474.636058,-1149.143247
495.284065,-370.102971,-9400.615463,-1378.971896
495.284388,-296.082377,-9400.615463,-1378.971896
495.284710,444.123565,-9104.533087,-1915.238745
495.285032,2072.576638,-9178.553681,-1915.238745
495.285354,2812.782580,-9622.677246,-1378.971896
495.285676,2368.659014,-9030.512492,-383.047749
495.285998,1332.370696,-8364.327145,-612.876398
495.286320,296.082377,-8956.491898,-1915.238745
495.286642,-1036.288319,-9104.533087,-2451.505594
495.286964,-2442.679609,-9622.677246,-2298.286494
495.287286,-4145.153275,-9548.656652,-2145.067394
495.287608,-4071.132681,-9696.697840,-2987.772442
495.287930,-2220.617826,-9844.739029,-2911.162892
495.288252,592.164754,-10658.965565,-2528.115143
495.288575,2442.679609,-10955.047942,-919.314598
495.288897,2738.761985,-9474.636058,153.219100
495.289219,2220.617826,-8882.471304,0.000000
495.289541,2294.638420,-9400.615463,-1378.971896
495.289863,2590.720797,-10066.800811,-2451.505594
495.290185,2146.597232,-9696.697840,-1838.629195
495.290507,74.020594,-8216.285956,-306.438199
495.290829,0.000000,-7476.080014,-459.657299
495.291151,1406.391290,-8216.285956,-2068.457845
495.291473,2368.659014,-9770.718434,-2451.505594
495.291795,962.267725,-9770.718434,0.000000
495.292117,-888.247130,-8808.450710,0.000000
495.292439,-740.205942,-9400.615463,-2298.286494
495.292761,296.082377,-9400.615463,-3600.648841
495.293084,222.061783,-9400.615463,-2451.505594
495.293406,370.102971,-10658.965565,-766.095498
495.293728,1480.411884,-9844.739029,-1838.629195
495.294050,3182.885551,-9252.574275,-2451.505594
495.294372,4219.173869,-10140.821405,-1225.752797
495.294694,4589.276840,-11251.130318,0.000000
495.295016,3775.050304,-10436.903782,-612.876398
495.295338,2368.659014,-8068.244768,-1072.533697
495.295660,2368.659014,-7550.100608,-919.314598
495.295982,2368.659014,-8438.347739,-1149.143247
495.296304,1924.535449,-8216.285956,-1532.190996
495.296626,962.267725,-7254.018232,-1225.752797
495.296948,1628.453072,-8512.368333,-689.485948
495.297270,2960.823768,-10288.862594,0.000000
495.297593,3108.864956,-10288.862594,-689.485948
495.297915,2294.638420,-9400.615463,-1838.629195
495.298237,2664.741391,-9918.759623,-1685.410096
495.298559,3330.926739,-9622.677246,-842.705048
495.298881,3182.885551,-8956.491898,-1762.019645
495.299203,3034.844362,-9252.574275,-2451.505594
495.299525,2516.700203,-10066.800811,-1532.190996
495.299847,2960.823768,-9844.739029,-153.219100
495.300169,3034.844362,-9474.636058,-1225.752797
495.300491,2812.782580,-9622.677246,-1991.848295
495.300813,2368.659014,-9400.615463,-1608.800546
495.301135,1480.411884,-8364.327145,-842.705048
495.301457,740.205942,-7772.162391,-1149.143247
495.301780,-296.082377,-8586.388927,-1762.019645
495.302102,-740.205942,-9252.574275,-1991.848295
495.302424,-666.185348,-10140.821405,-1378.971896
495.302746,-592.164754,-11177.109724,-1149.143247
495.303068,0.000000,-11917.315666,-1532.190996
495.303390,814.226536,-11769.274478,-919.314598
495.303712,1850.514855,-11177.109724,-459.657299
495.304034,2516.700203,-10436.903782,-459.657299
495.304356,1998.556043,-9030.512492,-689.485948
495.304678,1776.494261,-7920.203579,-1378.971896
495.305000,1702.473667,-7698.141797,-1225.752797
495.305322,1702.473667,-7994.224174,-1225.752797
495.305644,1776.494261,-7698.141797,-1532.190996
495.305966,1332.370696,-8290.306550,-1149.143247
495.306289,1184.329507,-8808.450710,-995.924147
495.306611,1628.453072,-8808.450710,-1532.190996
495.306933,1850.514855,-8586.388927,-2451.505594
495.307255,1480.411884,-8364.327145,-2604.724693
495.307577,1406.391290,-9178.553681,-2145.067394
495.307899,1406.391290,-9252.574275,-1762.019645
495.308221,1036.288319,-9770.718434,-2451.505594
495.308543,888.247130,-10584.944971,-2221.676944
495.308865,888.247130,-11621.233289,-1762.019645
495.309187,1036.288319,-11843.295072,-919.314598
495.309509,592.164754,-10807.006753,-1072.533697
495.309831,888.247130,-10140.821405,-689.485948
495.310153,1480.411884,-9326.594869,-536.266849
495.310476,1850.514855,-8216.285956,-612.876398
495.310798,2294.638420,-7402.059420,-612.876398
495.311120,2738.761985,-7105.977043,-842.705048
495.311442,3849.070898,-7624.121203,-2298.286494
495.311764,4959.379811,-8734.430116,-2221.676944
495.312086,4959.379811,-9104.533087,-1915.238745
495.312408,4737.318029,-9474.636058,-2068.457845
495.312730,4293.194464,-10288.862594,-2451.505594
495.313052,3330.926739,-11103.089130,-2681.334243
495.313374,2368.659014,-12509.480420,-2528.115143
495.313696,1110.308913,-12657.521608,-1762.019645
495.314018,222.061783,-11621.233289,-1149.143247
495.314340,296.082377,-10214.842000,-1302.362347
495.314662,740.205942,-9252.574275,-1072.533697
495.314985,518.144159,-7624.121203,229.828649
495.315307,296.082377,-6069.688724,459.657299
495.315629,444.123565,-4811.338623,0.000000
495.315951,1184.329507,-5033.400406,-383.047749
495.316273,1480.411884,-6513.812290,-766.095498
495.316595,1184.329507,-7402.059420,-1378.971896
495.316917,592.164754,-8882.471304,-1762.019645
495.317239,444.123565,-10658.965565,-1762.019645
495.317561,814.226536,-11991.336260,-2298.286494
495.317883,888.247130,-11769.274478,-2834.553343
495.318205,0.000000,-11029.068536,-3140.991542
495.318527,-814.226536,-11695.253884,-3064.381992
495.318849,-1036.288319,-12139.377449,-2604.724693
495.319171,-1850.514855,-11769.274478,-2374.896044
495.319494,-2368.659014,-12287.418637,-1762.019645
495.319816,-2368.659014,-12361.439231,-1532.190996
495.320138,-1924.535449,-11399.171507,0.000000
495.320460,-962.267725,-9548.656652,689.485948
495.320782,296.082377,-8142.265362,766.095498
495.321104,1998.556043,-6365.771101,689.485948
495.321426,3849.070898,-4885.359217,536.266849
495.321748,5033.400406,-4515.256246,-229.828649
495.322070,6069.688724,-4663.297435,-383.047749
495.322392,6291.750507,-5329.482782,-919.314598
495.322714,6439.791695,-6957.935855,-2528.115143
495.323036,6661.853478,-10584.944971,-3064.381992
495.323358,6069.688724,-13175.665768,-3830.477490
495.323681,4663.297435,-13989.892304,-2451.505594
495.324003,1702.473667,-13101.645173,-1608.800546
495.324325,-814.226536,-12139.377449,-1149.143247
495.324647,-2664.741391,-11177.109724,-2298.286494
495.324969,-4737.318029,-9770.718434,-3830.477490
495.325291,-6365.771101,-8660.409521,-1378.971896
495.325613,-7254.018232,-6735.874072,-919.314598
495.325935,-6291.750507,-6661.853478,-1915.238745
495.326257,-2146.597232,-8216.285956,-1302.362347
495.326579,2072.576638,-7624.121203,-1685.410096
495.326901,5551.544565,-9178.553681,-2911.162892
495.327223,8956.491898,-10658.965565,-1532.190996
495.327545,11917.315666,-10732.986159,306.438199
495.327867,13915.871710,-9474.636058,-1302.362347
495.328190,14137.933492,-8290.306550,-1762.019645
495.328512,13397.727550,-7550.100608,-919.314598
495.328834,9918.759623,-8586.388927,-1991.848295
495.329156,6217.729913,-10584.944971,-2374.896044
495.329478,1480.411884,-11621.233289,-1225.752797
495.329800,-2442.679609,-12657.521608,-1378.971896
495.330122,-4589.276840,-13323.706956,-229.828649
495.330444,-6735.874072,-13619.789333,0.000000
495.330766,-9178.553681,-12139.377449,536.266849
495.331088,-10066.800811,-6735.874072,2604.724693
495.331410,-9252.574275,-2516.700203,0.000000
495.331732,-6661.853478,-1480.411884,-2451.505594
495.332054,-1480.411884,-4737.318029,-3140.991542
495.332376,3034.844362,-6883.915261,-3907.087040
495.332699,6883.915261,-8882.471304,-3753.867940
495.333021,9696.697840,-12435.459826,-2451.505594
495.333343,11251.130318,-14285.974681,-842.705048
495.333665,10732.986159,-13027.624579,-1072.533697
495.333987,7698.141797,-10362.883188,-3524.039291
495.334310,4071.132681,-8364.327145,-4903.011187
495.334632,1702.473667,-9252.574275,-6588.421283
495.334954,0.000000,-10955.047942,-4903.011187
495.335277,-2220.617826,-11621.233289,-766.095498
495.335599,-4885.359217,-12583.501014,1838.629195
495.335921,-5995.668130,-11843.295072,4519.963438
495.336243,-4959.379811,-9252.574275,3677.258390
495.336566,-3923.091493,-6439.791695,-383.047749
495.336888,-962.267725,-7402.059420,0.000000
495.337210,3923.091493,-6513.812290,383.047749
495.337532,8364.327145,-3997.112087,459.657299
495.337855,11991.336260,-4885.359217,-919.314598
495.338177,12583.501014,-8586.388927,-1225.752797
495.338499,10658.965565,-11177.109724,76.609550
495.338822,6439.791695,-11843.295072,-689.485948
495.339144,518.144159,-13693.809927,-4443.353888
495.339466,-3849.070898,-16654.633695,-7048.078582
495.339788,-6809.894666,-15618.345376,-5132.839837
495.340111,-8216.285956,-9474.636058,-1302.362347
495.340433,-9104.533087,-5107.421000,-2834.553343
495.340755,-6439.791695,-6439.791695,-3140.991542
495.341077,-3775.050304,-7476.080014,-1991.848295
495.341400,-2146.597232,-8142.265362,1225.752797
495.341722,-1924.535449,-8438.347739,3677.258390
495.342044,0.000000,-7476.080014,1532.190996
495.342367,2590.720797,-6513.812290,-1225.752797
495.342689,5477.523971,-6143.709319,-1455.581446
495.343011,5995.668130,-6291.750507,-995.924147
495.343333,5403.503377,-8364.327145,-1762.019645
495.343656,5625.565159,-10436.903782,-919.314598
495.343978,7105.977043,-10584.944971,-2068.457845
495.344300,7179.997637,-11177.109724,-4903.011187
495.344623,5921.647536,-12953.603985,-5898.935335
495.344945,3034.844362,-13175.665768,-2987.772442
495.345267,296.082377,-12435.459826,459.657299
495.345589,-1332.370696,-10436.903782,0.000000
495.345912,-2664.741391,-9622.677246,-2681.334243
495.346234,-3256.906145,-10584.944971,-3524.039291
495.346556,-3182.885551,-11177.109724,-153.219100
495.346878,-1332.370696,-9918.759623,2298.286494
495.347201,2368.659014,-7920.203579,1225.752797
495.347523,6291.750507,-5477.523971,536.266849
495.347845,9326.594869,-5181.441594,766.095498
495.348168,9400.615463,-4737.318029,1378.971896
495.348490,7179.997637,-4737.318029,-153.219100
495.348812,4663.297435,-5329.482782,-2681.334243
495.349134,2590.720797,-7846.182985,-4290.134789
495.349457,962.267725,-10066.800811,-5592.497135
495.349779,-2442.679609,-12361.439231,-6741.640382
495.350101,-5033.400406,-13619.789333,-4673.182538
495.350423,-4663.297435,-13767.830521,-1991.848295
495.350746,-2442.679609,-13767.830521,-2604.724693
495.351068,-1998.556043,-12583.501014,-4673.182538
495.351390,-2072.576638,-11399.171507,-3753.867940
495.351713,-814.226536,-10362.883188,-612.876398
495.352035,2368.659014,-11029.068536,1378.971896
495.352357,5107.421000,-10881.027347,229.828649
495.352679,5773.606348,-9326.594869,306.438199
495.353002,5033.400406,-8438.347739,3370.820191
495.353324,4811.338623,-7402.059420,5975.544884
495.353646,5255.462188,-5551.544565,3677.258390
495.353968,6439.791695,-3108.864956,-1455.581446
495.354291,7328.038826,-2664.741391,-3447.429741
495.354613,6291.750507,-6069.688724,-1072.533697
495.354935,4219.173869,-8364.327145,2298.286494
495.355258,1258.350101,-9252.574275,1302.362347
495.355580,-1480.411884,-11399.171507,-3217.601092
495.355902,-4071.132681,-12953.603985,-5515.887586
495.356224,-7402.059420,-11991.336260,-5209.449386
495.356547,-10807.006753,-10510.924376,-4903.011187
495.356869,-9400.615463,-11177.109724,-4903.011187
495.357191,-5773.606348,-12361.439231,-4979.620737
495.357513,-4441.235652,-11325.150913,-2987.772442
495.357836,-4737.318029,-9474.636058,536.266849
495.358158,-5329.482782,-9622.677246,842.705048
495.358480,-4219.173869,-10436.903782,-2068.457845
495.358803,-4071.132681,-9844.739029,-3600.648841
495.359125,-4145.153275,-7846.182985,-1685.410096
495.359447,-3034.844362,-6069.688724,612.876398
495.359769,518.144159,-6587.832884,842.705048
495.360092,4737.318029,-6809.894666,459.657299
495.360414,7179.997637,-7624.121203,-766.095498
495.360736,7920.203579,-8660.409521,-919.314598
495.361058,7624.121203,-11251.130318,689.485948
495.361381,6291.750507,-10066.800811,1072.533697
495.361703,2886.803174,-10510.924376,-2834.553343
495.362025,-370.102971,-10807.006753,-3447.429741
495.362348,-3775.050304,-10140.821405,-1838.629195
495.362670,-5995.668130,-10214.842000,-2528.115143
495.362992,-5995.668130,-11177.109724,-4596.572988
495.363314,-5107.421000,-11547.212695,-3753.867940
495.363637,-5329.482782,-9400.615463,-1762.019645
495.363959,-4219.173869,-7846.182985,536.266849
495.364281,-3627.009116,-8660.409521,-2145.067394
495.364603,-3849.070898,-11103.089130,-4290.134789
495.364926,-5551.544565,-9918.759623,-1685.410096
495.365248,-7476.080014,-5995.668130,0.000000
495.365570,-6069.688724,-6587.832884,-1915.238745
495.365893,592.164754,-8586.388927,-5056.230287
495.366215,6439.791695,-9548.656652,-5209.449386
495.366537,8216.285956,-9770.718434,-995.924147
495.366859,8068.244768,-8808.450710,5209.449386
495.367182,9474.636058,-7624.121203,4443.353888
495.367504,9770.718434,-7402.059420,-1991.848295
495.367826,7105.977043,-9400.615463,-4903.011187
495.368149,1406.391290,-10066.800811,-2528.115143
495.368471,-2590.720797,-9844.739029,-459.657299
495.368793,-2294.638420,-9992.780217,0.000000
495.369115,962.267725,-10732.986159,-1762.019645
495.369438,2812.782580,-9844.739029,-2604.724693
495.369760,1924.535449,-8734.430116,-536.266849
495.370082,444.123565,-10881.027347,2068.457845
495.370404,0.000000,-12435.459826,1455.581446
495.370727,-1776.494261,-10362.883188,-2834.553343
495.371049,-4811.338623,-7402.059420,-4519.963438
495.371371,-5255.462188,-7476.080014,-2221.676944
495.371694,-2146.597232,-8290.306550,-2451.505594
495.372016,1702.473667,-9992.780217,-5056.230287
495.372338,3849.070898,-11399.171507,-3524.039291
495.372660,4071.132681,-11029.068536,1378.971896
495.372983,2886.803174,-8882.471304,3217.601092
495.373305,1332.370696,-6883.915261,-153.219100
495.373627,-518.144159,-8512.368333,-5515.887586
495.373949,-2590.720797,-10658.965565,-6741.640382
495.374272,-5329.482782,-9104.533087,-2298.286494
495.374594,-6143.709319,-7772.162391,1532.190996
495.374916,-4145.153275,-9622.677246,-766.095498
495.375239,-740.205942,-11621.233289,-2528.115143
495.375561,592.164754,-10658.965565,0.000000
495.375883,-1110.308913,-8734.430116,2298.286494
495.376205,-1776.494261,-9030.512492,689.485948
495.376528,-1850.514855,-9770.718434,-2451.505594
495.376850,-3404.947333,-7846.182985,-2068.457845
495.377172,-5033.400406,-6809.894666,0.000000
495.377494,-4145.153275,-7920.203579,-1532.190996
495.377817,-888.247130,-9918.759623,-4290.134789
495.378139,1554.432478,-10732.986159,-4136.915689
495.378461,666.185348,-10288.862594,-689.485948
495.378784,0.000000,-9474.636058,1991.848295
495.379106,74.020594,-9474.636058,-306.438199
495.379428,74.020594,-9400.615463,-5286.058936
495.379750,-2368.659014,-9474.636058,-6435.202183
495.380073,-5403.503377,-8216.285956,-3294.210641
495.380395,-5773.606348,-7402.059420,-459.657299
495.380717,-3108.864956,-10066.800811,-1915.238745
495.381039,-444.123565,-12657.521608,-2604.724693
495.381362,518.144159,-11769.274478,-1685.410096
495.381684,370.102971,-9474.636058,306.438199
495.382006,888.247130,-9918.759623,842.705048
495.382329,2072.576638,-10214.842000,-612.876398
495.382651,666.185348,-8068.244768,-2221.676944
495.382973,-1406.391290,-6069.688724,-995.924147
495.383295,-1184.329507,-7031.956449,612.876398
495.383618,1702.473667,-8734.430116,-612.876398
495.383940,4367.215058,-9400.615463,-3294.210641
495.384262,4885.359217,-9400.615463,-2528.115143
495.384584,3849.070898,-9252.574275,1149.143247
495.384907,3478.967927,-9178.553681,1378.971896
495.385229,2590.720797,-8216.285956,-2451.505594
495.385551,370.102971,-8216.285956,-6052.154434
495.385874,-2146.597232,-8956.491898,-5515.887586
495.386196,-4293.194464,-9326.594869,-3447.429741
495.386518,-3997.112087,-10658.965565,-2374.896044
495.386840,-1776.494261,-12879.583391,-3370.820191
495.387163,592.164754,-12879.583391,-3753.867940
495.387485,74.020594,-10362.883188,-1225.752797
495.387807,-1036.288319,-8068.244768,1532.190996
495.388129,-962.267725,-8956.491898,-383.047749
495.388452,-1110.308913,-10214.842000,-3753.867940
495.388774,-2072.576638,-10066.800811,-2757.943793
495.389096,-3478.967927,-8142.265362,1378.971896
495.389419,-1850.514855,-7402.059420,2604.724693
495.389741,3256.906145,-8142.265362,76.609550
495.390063,7920.203579,-8586.388927,-2604.724693
495.390385,8512.368333,-8586.388927,-536.266849
495.390708,6143.709319,-7550.100608,3600.648841
495.391030,3849.070898,-6513.812290,3370.820191
495.391352,1258.350101,-7624.121203,-1838.629195
495.391675,-1998.556043,-9252.574275,-5286.058936
495.391997,-6291.750507,-9326.594869,-5592.497135
495.392319,-9104.533087,-9030.512492,-3830.477490
495.392641,-7772.162391,-9844.739029,-2681.334243
495.392964,-4885.359217,-11917.315666,-4060.306139
495.393286,-2146.597232,-12657.521608,-4136.915689
495.393608,-3478.967927,-9770.718434,-1149.143247
495.393930,-5181.441594,-11325.150913,0.000000
495.394253,-4737.318029,-13249.686362,-1225.752797
495.394575,-4663.297435,-11473.192101,-2757.943793
495.394897,-6587.832884,-8068.244768,-2987.772442
495.395220,-5033.400406,-6957.935855,0.000000
495.395542,148.041188,-8068.244768,229.828649
495.395864,4959.379811,-8216.285956,-919.314598
495.396186,7550.100608,-7624.121203,0.000000
495.396509,8142.265362,-7105.977043,2221.676944
495.396831,8438.347739,-7846.182985,2298.286494
495.397153,7328.038826,-8956.491898,306.438199
495.397475,3701.029710,-9918.759623,-2068.457845
495.397798,-1332.370696,-10214.842000,-3294.210641
495.398120,-5773.606348,-8956.491898,-1608.800546
495.398442,-6883.915261,-8068.244768,-2451.505594
495.398765,-5403.503377,-9474.636058,-5822.325785
495.399087,-2886.803174,-11695.253884,-6052.154434
495.399409,-2146.597232,-13545.768739,-1838.629195
495.399731,-2294.638420,-11769.274478,2068.457845
495.400054,-2960.823768,-12213.398043,0.000000
495.400376,-2516.700203,-13619.789333,-3370.820191
495.400698,-3627.009116,-10732.986159,-2681.334243
495.401020,-5033.400406,-6365.771101,-459.657299
495.401343,-3775.050304,-4737.318029,-612.876398
495.401665,222.061783,-6069.688724,-1991.848295
495.401987,4885.359217,-7105.977043,-2221.676944
495.402310,6513.812290,-7105.977043,229.828649
495.402632,7105.977043,-7698.141797,2374.896044
495.402954,7476.080014,-8734.430116,995.924147
495.403276,7105.977043,-9622.677246,-2451.505594
495.403599,3701.029710,-10288.862594,-2987.772442
495.403921,-1628.453072,-9104.533087,-1455.581446
495.404243,-5033.400406,-8290.306550,-1378.971896
495.404565,-4441.235652,-8956.491898,-3907.087040
495.404888,-1184.329507,-11473.192101,-5975.544884
495.405210,370.102971,-11695.253884,-3983.696590
495.405532,-1258.350101,-10140.821405,0.000000
495.405855,-2368.659014,-10140.821405,2681.334243
495.406177,-1406.391290,-12287.418637,0.000000
495.406499,-1110.308913,-11547.212695,-3524.039291
495.406821,-3849.070898,-8142.265362,-3983.696590
495.407144,-5699.585753,-5995.668130,-995.924147
495.407466,-3108.864956,-6069.688724,-612.876398
495.407788,2294.638420,-6365.771101,-2834.553343
495.408110,5625.565159,-7402.059420,-3524.039291
495.408433,6143.709319,-9844.739029,-306.438199
495.408755,5847.626942,-10881.027347,2298.286494
495.409077,4145.153275,-10214.842000,0.000000
495.409400,740.205942,-10584.944971,-3907.087040
495.409722,-4441.235652,-10584.944971,-4290.134789
495.410044,-8364.327145,-9030.512492,-3370.820191
495.410366,-9548.656652,-7698.141797,-3907.087040
495.410689,-6809.894666,-9696.697840,-6435.202183
495.411011,-3701.029710,-12287.418637,-5592.497135
495.411333,-1998.556043,-12287.418637,-306.438199
495.411655,-2368.659014,-9548.656652,3294.210641
495.411978,-518.144159,-11843.295072,1225.752797
495.412300,740.205942,-12805.562797,-3524.039291
495.412622,-518.144159,-9474.636058,-2528.115143
495.412945,-3108.864956,-5477.523971,383.047749
495.413267,-2368.659014,-4737.318029,842.705048
495.413589,2220.617826,-7031.956449,-2374.896044
495.413911,5477.523971,-8808.450710,-3524.039291
495.414234,5773.606348,-9622.677246,-306.438199
495.414556,4293.194464,-9548.656652,2681.334243
495.414878,2960.823768,-8660.409521,1838.629195
495.415201,1258.350101,-9252.574275,-1455.581446
495.415523,-1924.535449,-10140.821405,-4596.572988
495.415845,-6883.915261,-9548.656652,-4060.306139
495.416167,-9178.553681,-7328.038826,-2451.505594
495.416490,-7031.956449,-7920.203579,-3677.258390
495.416812,-2368.659014,-11547.212695,-5975.544884
495.417134,0.000000,-12509.480420,-3600.648841
495.417456,370.102971,-11991.336260,2068.457845
495.417779,148.041188,-11399.171507,3600.648841
495.418101,1998.556043,-12139.377449,0.000000
495.418423,2368.659014,-9770.718434,-3753.867940
495.418746,148.041188,-5699.585753,-2604.724693
495.419068,-666.185348,-4737.318029,995.924147
495.419390,1924.535449,-6513.812290,2145.067394
495.419712,5921.647536,-7476.080014,-153.219100
495.420035,7105.977043,-7624.121203,-1225.752797
495.420357,6439.791695,-8586.388927,1378.971896
495.420679,4811.338623,-9474.636058,2987.772442
495.421001,2516.700203,-10140.821405,-229.828649
495.421324,-592.164754,-9622.677246,-3524.039291
495.421646,-4293.194464,-8660.409521,-4060.306139
495.421968,-6957.935855,-7328.038826,-2757.943793
495.422291,-7328.038826,-7772.162391,-3217.601092
495.422613,-4959.379811,-11621.233289,-5056.230287
495.422935,-2146.597232,-14137.933492,-5209.449386
495.423257,-814.226536,-12657.521608,-2451.505594
495.423580,-1258.350101,-11325.150913,612.876398
495.423902,-1332.370696,-11695.253884,536.266849
495.424224,-1036.288319,-11473.192101,-2987.772442
495.424546,-1924.535449,-9474.636058,-4903.011187
495.424869,-3404.947333,-7105.977043,-2451.505594
495.425191,-1998.556043,-6957.935855,0.000000
495.425513,2590.720797,-7550.100608,-612.876398
495.425836,6291.750507,-7920.203579,-1378.971896
495.426158,7105.977043,-8438.347739,459.657299
495.426480,6069.688724,-8438.347739,2757.943793
495.426802,4811.338623,-8364.327145,2145.067394
495.427125,2368.659014,-8438.347739,-1838.629195
495.427447,-2294.638420,-8142.265362,-4366.744339
495.427769,-6661.853478,-8142.265362,-3370.820191
495.428091,-8142.265362,-8142.265362,-2374.896044
495.428414,-6365.771101,-9992.780217,-4290.134789
495.428736,-3108.864956,-12657.521608,-5822.325785
495.429058,-1258.350101,-13027.624579,-3294.210641
495.429381,-1776.494261,-10214.842000,842.705048
495.429703,-2664.741391,-10140.821405,919.314598
495.430025,-2368.659014,-11251.130318,-2834.553343
495.430347,-2072.576638,-10955.047942,-5745.716235
495.430670,-3627.009116,-8734.430116,-4519.963438
495.430992,-4145.153275,-6957.935855,-995.924147
495.431314,-888.247130,-7772.162391,536.266849
495.431636,4145.153275,-9474.636058,-612.876398
495.431959,7105.977043,-8808.450710,-229.828649
495.432281,7105.977043,-7920.203579,1455.581446
495.432603,6143.709319,-6217.729913,2528.115143
495.432926,5181.441594,-6217.729913,689.485948
495.433248,2516.700203,-6809.894666,-2145.067394
495.433570,-2146.597232,-8142.265362,-2834.553343
495.433892,-6809.894666,-9030.512492,-2068.457845
495.434215,-8586.388927,-9770.718434,-2145.067394
495.434537,-6069.688724,-11473.192101,-4826.401637
495.434859,-2664.741391,-13027.624579,-6281.983084
495.435182,-1924.535449,-12139.377449,-3600.648841
495.435504,-2590.720797,-10066.800811,536.266849
495.435826,-2516.700203,-11399.171507,-153.219100
495.436148,-1406.391290,-12879.583391,-4290.134789
495.436471,-2664.741391,-11621.233289,-6205.373534
495.436793,-3849.070898,-9326.594869,-3753.867940
495.437115,-2368.659014,-8808.450710,-919.314598
495.437438,2368.659014,-9252.574275,-689.485948
495.437760,6809.894666,-9622.677246,-229.828649
495.438082,8142.265362,-7179.997637,2374.896044
495.438404,8068.244768,-5995.668130,4060.306139
495.438727,6809.894666,-4811.338623,2298.286494
495.439049,4959.379811,-6069.688724,-919.314598
495.439371,1184.329507,-8216.285956,-2528.115143
495.439694,-3701.029710,-8586.388927,-536.266849
495.440016,-6957.935855,-8142.265362,689.485948
495.440338,-5995.668130,-9104.533087,-2374.896044
495.440660,-2886.803174,-11769.274478,-6128.763984
495.440983,-888.247130,-13249.686362,-4443.353888
495.441305,-1924.535449,-10732.986159,0.000000
495.441627,-2590.720797,-10362.883188,995.924147
495.441950,-2442.679609,-11843.295072,-2374.896044
495.442272,-1850.514855,-12287.418637,-5132.839837
495.442594,-3404.947333,-10436.903782,-4596.572988
495.442916,-3849.070898,-9252.574275,-1915.238745
495.443239,-740.205942,-8882.471304,-842.705048
495.443561,4293.194464,-9326.594869,-689.485948
495.443883,6883.915261,-7402.059420,153.219100
495.444206,7179.997637,-6809.894666,2374.896044
495.444528,6365.771101,-6217.729913,3140.991542
495.444850,5033.400406,-5921.647536,919.314598
495.445172,3330.926739,-6883.915261,-2145.067394
495.445495,-814.226536,-8882.471304,-2068.457845
495.445817,-4737.318029,-8290.306550,689.485948
495.446139,-6439.791695,-8290.306550,0.000000
495.446462,-4293.194464,-10807.006753,-3983.696590
495.446784,-148.041188,-14063.912898,-5592.497135
495.447106,370.102971,-12583.501014,-2374.896044
495.447428,-888.247130,-10436.903782,1149.143247
495.447751,-1702.473667,-10510.924376,612.876398
495.448073,-1776.494261,-12361.439231,-2681.334243
495.448395,-3478.967927,-10732.986159,-4979.620737
495.448718,-5847.626942,-8586.388927,-3830.477490
495.449040,-5625.565159,-7994.224174,-2145.067394
495.449362,-1998.556043,-8290.306550,-2681.334243
495.449684,1480.411884,-7846.182985,-2374.896044
495.450007,3627.009116,-7402.059420,306.438199
495.450329,3775.050304,-7179.997637,1225.752797
495.450651,3775.050304,-6957.935855,383.047749
495.450974,1924.535449,-6809.894666,-1915.238745
495.451296,-1554.432478,-8068.244768,-3753.867940
495.451618,-5625.565159,-9400.615463,-3294.210641
495.451940,-7772.162391,-9622.677246,-1455.581446
495.452263,-6439.791695,-11029.068536,-2911.162892
495.452585,-3034.844362,-13101.645173,-5439.278036
495.452907,-1184.329507,-13101.645173,-4596.572988
495.453230,-740.205942,-10955.047942,-689.485948
495.453552,-814.226536,-9770.718434,1838.629195
495.453874,888.247130,-11547.212695,-1532.190996
495.454196,1184.329507,-11695.253884,-5286.058936
495.454519,-148.041188,-8808.450710,-4213.525239
495.454841,-1628.453072,-7105.977043,229.828649
495.455163,444.123565,-7254.018232,1762.019645
495.455486,5403.503377,-8364.327145,-1608.800546
495.455808,7994.224174,-8956.491898,-2757.943793
495.456130,7994.224174,-8216.285956,1149.143247
495.456453,6661.853478,-7105.977043,3677.258390
495.456775,5329.482782,-6883.915261,1532.190996
495.457097,3034.844362,-8438.347739,-2911.162892
495.457419,-1184.329507,-8882.471304,-3370.820191
495.457742,-6217.729913,-8882.471304,-766.095498
495.458064,-8808.450710,-7846.182985,-1072.533697
495.458386,-6957.935855,-9918.759623,-5439.278036
495.458709,-3775.050304,-12731.542202,-6741.640382
495.459031,-1924.535449,-12509.480420,-3294.210641
495.459353,-2886.803174,-10288.862594,1762.019645
495.459675,-2516.700203,-10362.883188,153.219100
495.459998,-296.082377,-11991.336260,-3983.696590
495.460320,148.041188,-11769.274478,-5132.839837
495.460642,-666.185348,-9252.574275,-1838.629195
495.460965,-592.164754,-7476.080014,1302.362347
495.461287,2960.823768,-8290.306550,612.876398
495.461609,7254.018232,-8808.450710,-995.924147
495.461931,9104.533087,-7920.203579,383.047749
495.462254,7476.080014,-5995.668130,2298.286494
495.462576,5181.441594,-5847.626942,3217.601092
495.462898,3627.009116,-7846.182985,-306.438199
495.463221,666.185348,-9252.574275,-2757.943793
495.463543,-4737.318029,-8734.430116,-1532.190996
495.463865,-8882.471304,-7698.141797,153.219100
495.464187,-9104.533087,-9770.718434,-2757.943793
495.464510,-5773.606348,-11843.295072,-6052.154434
495.464832,-3849.070898,-13323.706956,-5362.668486
495.465154,-3923.091493,-11177.109724,-1225.752797
495.465477,-3404.947333,-11843.295072,1302.362347
495.465799,-1406.391290,-12509.480420,-1072.533697
495.466121,-1480.411884,-11251.130318,-5286.058936
495.466443,-2960.823768,-9622.677246,-4673.182538
495.466766,-4219.173869,-8142.265362,-1149.143247
495.467088,-2294.638420,-7698.141797,76.609550
495.467410,2442.679609,-7920.203579,-1915.238745
495.467733,5995.668130,-7698.141797,-2374.896044
495.468055,6291.750507,-6957.935855,1072.533697
495.468377,5255.462188,-5773.606348,4596.572988
495.468699,4219.173869,-6661.853478,2987.772442
495.469022,3256.906145,-8438.347739,-2298.286494
495.469344,-296.082377,-9030.512492,-3983.696590
495.469666,-5403.503377,-8512.368333,-153.219100
495.469989,-8512.368333,-8438.347739,1455.581446
495.470311,-7402.059420,-9770.718434,-3447.429741
495.470633,-4145.153275,-11547.212695,-8350.440928
495.470955,-2738.761985,-12583.501014,-6205.373534
495.471278,-2960.823768,-12657.521608,-383.047749
495.471600,-2146.597232,-12213.398043,0.000000
495.471922,444.123565,-13471.748144,-4443.353888
495.472245,2368.659014,-12879.583391,-6205.373534
495.472567,1702.473667,-10288.862594,-2604.724693
495.472889,740.205942,-8142.265362,689.485948
495.473211,2442.679609,-6957.935855,-306.438199
495.473534,5551.544565,-6957.935855,-3217.601092
495.473856,6957.935855,-7402.059420,-1838.629195
495.474178,5477.523971,-6661.853478,3064.381992
495.474501,3256.906145,-5403.503377,4366.744339
495.474823,2220.617826,-6513.812290,-536.266849
495.475145,1406.391290,-8734.430116,-3830.477490
495.475467,-2294.638420,-8956.491898,-1915.238745
495.475790,-7105.977043,-6957.935855,689.485948
495.476112,-8364.327145,-7179.997637,-1149.143247
495.476434,-5921.647536,-10807.006753,-5669.106685
495.476757,-2442.679609,-13989.892304,-7124.688131
495.477079,-2442.679609,-13693.809927,-2987.772442
495.477401,-3108.864956,-13175.665768,76.609550
495.477723,-1258.350101,-13989.892304,-766.095498
495.478046,1184.329507,-13619.789333,-4060.306139
495.478368,1110.308913,-10584.944971,-3753.867940
495.478690,0.000000,-7624.121203,-1302.362347
495.479013,666.185348,-6957.935855,459.657299
495.479335,3256.906145,-6809.894666,-536.266849
495.479657,6069.688724,-7031.956449,-995.924147
495.479979,6217.729913,-6143.709319,1532.190996
495.480302,4737.318029,-5847.626942,4749.792088
495.480624,4515.256246,-6069.688724,3370.820191
495.480946,3849.070898,-7994.224174,-919.314598
495.481269,1332.370696,-9326.594869,-2451.505594
495.481591,-3701.029710,-8364.327145,612.876398
495.481913,-7031.956449,-7254.018232,1072.533697
495.482235,-6069.688724,-9622.677246,-3447.429741
495.482558,-3997.112087,-12953.603985,-6971.469032
495.482880,-3478.967927,-13175.665768,-5439.278036
495.483202,-4959.379811,-12361.439231,-1532.190996
495.483525,-4589.276840,-13323.706956,0.000000
495.483847,-2368.659014,-14359.995275,-2757.943793
495.484169,-2146.597232,-12805.562797,-5209.449386
495.484491,-4145.153275,-9326.594869,-3753.867940
495.484814,-3404.947333,-6957.935855,-383.047749
495.485136,444.123565,-6217.729913,-1225.752797
495.485458,4441.235652,-5699.585753,-2374.896044
495.485781,5403.503377,-5477.523971,-306.438199
495.486103,5107.421000,-7031.956449,2528.115143
495.486425,5033.400406,-7698.141797,3370.820191
495.486747,4589.276840,-8068.244768,0.000000
495.487070,2516.700203,-9622.677246,-3753.867940
495.487392,-1184.329507,-9770.718434,-2068.457845
495.487714,-4663.297435,-8290.306550,919.314598
495.488037,-5773.606348,-7846.182985,-919.314598
495.488359,-4737.318029,-10140.821405,-5362.668486
495.488681,-4367.215058,-12953.603985,-6511.811733
495.489003,-4885.359217,-12361.439231,-3140.991542
495.489326,-5107.421000,-11251.130318,-612.876398
495.489648,-4145.153275,-12287.418637,-2451.505594
495.489970,-2072.576638,-13693.809927,-3983.696590
495.490293,-2146.597232,-11769.274478,-3294.210641
495.490615,-2664.741391,-7624.121203,-1762.019645
495.490937,-222.061783,-6661.853478,-1762.019645
495.491259,3701.029710,-7105.977043,-2068.457845
495.491582,6809.894666,-7105.977043,-1838.629195
495.491904,7254.018232,-6957.935855,383.047749
495.492226,5551.544565,-5921.647536,3370.820191
495.492549,4663.297435,-6883.915261,2298.286494
495.492871,4071.132681,-9326.594869,-1838.629195
495.493193,1036.288319,-9622.677246,-3600.648841
495.493515,-4737.318029,-7772.162391,-1149.143247
495.493838,-7550.100608,-7698.141797,76.609550
495.494160,-5551.544565,-10066.800811,-2911.162892
495.494482,-1998.556043,-11991.336260,-5745.716235
495.494805,-2738.761985,-11325.150913,-3677.258390
495.495127,-4515.256246,-9770.718434,1072.533697
495.495449,-4145.153275,-11103.089130,612.876398
495.495771,-1702.473667,-13175.665768,-3294.210641
495.496094,-740.205942,-12657.521608,-5439.278036
495.496416,-2294.638420,-9770.718434,-2374.896044
495.496738,-1850.514855,-7698.141797,689.485948
495.497061,1998.556043,-6957.935855,-842.705048
495.497383,5773.606348,-8216.285956,-2757.943793
495.497705,7105.977043,-7772.162391,-766.095498
495.498027,6217.729913,-7105.977043,2374.896044
495.498350,4959.379811,-5773.606348,2221.676944
495.498672,4515.256246,-7105.977043,-1072.533697
495.498994,2146.597232,-9770.718434,-2987.772442
495.499317,-2072.576638,-10584.944971,-2068.457845
495.499639,-6513.812290,-9252.574275,0.000000
495.499961,-6957.935855,-9844.739029,-1149.143247
495.500283,-4737.318029,-11325.150913,-5056.230287
495.500606,-2368.659014,-12287.418637,-4979.620737
495.500928,-3256.906145,-10955.047942,-1455.581446
495.501250,-3404.947333,-10658.965565,536.266849
495.501573,-1776.494261,-11473.192101,-1608.800546
495.501895,74.020594,-12435.459826,-3600.648841
495.502217,-592.164754,-10658.965565,-3140.991542
495.502539,-2368.659014,-8808.450710,-995.924147
495.502862,-592.164754,-7698.141797,306.438199
495.503184,3256.906145,-8216.285956,-1455.581446
495.503506,6365.771101,-7624.121203,-2451.505594
495.503829,6513.812290,-6365.771101,612.876398
495.504151,5329.482782,-5995.668130,2451.505594
495.504473,4367.215058,-6735.874072,1838.629195
495.504796,2368.659014,-9178.553681,-1532.190996
495.505118,-1850.514855,-10436.903782,-3140.991542
495.505440,-6809.894666,-9548.656652,-1455.581446
495.505762,-9400.615463,-8586.388927,0.000000
495.506085,-7698.141797,-9844.739029,-3140.991542
495.506407,-4737.318029,-11325.150913,-5898.935335
495.506729,-2886.803174,-11177.109724,-3677.258390
495.507052,-3627.009116,-9178.553681,383.047749
495.507374,-2738.761985,-9992.780217,1149.143247
495.507696,-370.102971,-12139.377449,-3140.991542
495.508018,-148.041188,-12139.377449,-5822.325785
495.508341,-2072.576638,-10214.842000,-2604.724693
495.508663,-2516.700203,-8660.409521,459.657299
495.508985,0.000000,-8290.306550,-995.924147
495.509308,3627.009116,-7698.141797,-3140.991542
495.509630,5403.503377,-7105.977043,-2757.943793
495.509952,5699.585753,-7105.977043,229.828649
495.510274,4959.379811,-6735.874072,1915.238745
495.510597,3997.112087,-7476.080014,229.828649
495.510919,2886.803174,-9844.739029,-2451.505594
495.511241,-370.102971,-10732.986159,-2451.505594
495.511564,-4885.359217,-9474.636058,-383.047749
495.511886,-7179.997637,-8734.430116,-1378.971896
495.512208,-6217.729913,-10288.862594,-5362.668486
495.512530,-2960.823768,-11917.315666,-6665.030833
495.512853,-2738.761985,-11621.233289,-3140.991542
495.513175,-2738.761985,-11103.089130,0.000000
495.513497,-1258.350101,-11473.192101,-153.219100
495.513820,592.164754,-12065.356855,-3140.991542
495.514142,370.102971,-10881.027347,-3907.087040
495.514464,-1332.370696,-9252.574275,-1455.581446
495.514786,-1406.391290,-7846.182985,153.219100
495.515109,1998.556043,-6735.874072,-2068.457845
495.515431,5625.565159,-7105.977043,-3447.429741
495.515753,6587.832884,-7031.956449,-689.485948
495.516076,5403.503377,-7328.038826,3600.648841
495.516398,4071.132681,-7179.997637,2451.505594
495.516720,3404.947333,-9178.553681,-1302.362347
495.517042,1110.308913,-10658.965565,-3217.601092
495.517365,-3997.112087,-9844.739029,-1532.190996
495.517687,-7846.182985,-8882.471304,-995.924147
495.518009,-7328.038826,-9770.718434,-2298.286494
495.518332,-3923.091493,-10807.006753,-5669.106685
495.518654,-1850.514855,-11473.192101,-4826.401637
495.518976,-2442.679609,-10510.924376,-459.657299
495.519298,-1850.514855,-11251.130318,1149.143247
495.519621,518.144159,-12953.603985,-1685.410096
495.519943,1406.391290,-12805.562797,-3217.601092
495.520265,74.020594,-10288.862594,-2068.457845
495.520588,-740.205942,-7476.080014,-229.828649
495.520910,888.247130,-6069.688724,-153.219100
495.521232,4071.132681,-6513.812290,-1762.019645
495.521554,4959.379811,-7476.080014,-536.266849
495.521877,4145.153275,-7105.977043,1685.410096
495.522199,2812.782580,-6957.935855,2681.334243
495.522521,2368.659014,-7994.224174,766.095498
495.522844,1184.329507,-9400.615463,-1991.848295
495.523166,-2368.659014,-9474.636058,-2374.896044
495.523488,-5995.668130,-7846.182985,-153.219100
495.523810,-7031.956449,-7105.977043,-612.876398
495.524133,-4885.359217,-9178.553681,-4213.525239
495.524455,-2590.720797,-10955.047942,-5515.887586
495.524777,-2960.823768,-11251.130318,-3217.601092
495.525100,-4293.194464,-11991.336260,0.000000
495.525422,-3849.070898,-13323.706956,0.000000
495.525744,-2590.720797,-12805.562797,-3524.039291
495.526066,-3701.029710,-10510.924376,-4979.620737
495.526389,-4219.173869,-8660.409521,-2451.505594
495.526711,-2368.659014,-7698.141797,-612.876398
495.527033,1480.411884,-7476.080014,-2604.724693
495.527356,4811.338623,-7402.059420,-2528.115143
495.527678,6143.709319,-8068.244768,536.266849
495.528000,5847.626942,-7846.182985,3370.820191
495.528322,4737.318029,-8290.306550,1991.848295
495.528645,3923.091493,-9474.636058,-2145.067394
495.528967,2072.576638,-10362.883188,-4060.306139
495.529289,-1184.329507,-9622.677246,-1532.190996
495.529612,-4441.235652,-7179.997637,766.095498
495.529934,-4071.132681,-7328.038826,-1915.238745
495.530256,-2146.597232,-10436.903782,-6281.983084
495.530578,-370.102971,-12065.356855,-3983.696590
495.530901,-1628.453072,-10807.006753,-1072.533697
495.531223,-2220.617826,-10732.986159,76.609550
495.531545,-592.164754,-11177.109724,-1532.190996
495.531868,444.123565,-10881.027347,-3983.696590
495.532190,-1628.453072,-9400.615463,-3524.039291
495.532512,-3404.947333,-8216.285956,-306.438199
495.532834,-1924.535449,-7476.080014,-1455.581446
495.533157,2516.700203,-7920.203579,-4060.306139
495.533479,5033.400406,-8660.409521,-2834.553343
495.533801,5181.441594,-9400.615463,1302.362347
495.534124,4293.194464,-8364.327145,3370.820191
495.534446,3923.091493,-7846.182985,383.047749
495.534768,3404.947333,-9178.553681,-3677.258390
495.535090,0.000000,-8512.368333,-3830.477490
495.535413,-5181.441594,-7031.956449,-919.314598
495.535735,-7624.121203,-7402.059420,-919.314598
495.536057,-5699.585753,-10510.924376,-4519.963438
495.536380,-2516.700203,-12657.521608,-6052.154434
495.536702,-1628.453072,-11251.130318,-2834.553343
495.537025,-1258.350101,-10140.821405,0.000000
495.537347,-222.061783,-11177.109724,76.609550
495.537670,1332.370696,-12731.542202,-2145.067394
495.537992,-296.082377,-10732.986159,-2911.162892
495.538315,-3330.926739,-8512.368333,-1302.362347
495.538637,-2960.823768,-7624.121203,0.000000
495.538959,0.000000,-8290.306550,-2834.553343
495.539282,2368.659014,-8660.409521,-2911.162892
495.539604,2812.782580,-8290.306550,229.828649
495.539927,2220.617826,-7994.224174,2757.943793
495.540249,1998.556043,-7698.141797,1991.848295
495.540572,1258.350101,-8068.244768,-2834.553343
495.540894,-1406.391290,-8882.471304,-5056.230287
495.541217,-4885.359217,-9252.574275,-2757.943793
495.541539,-6439.791695,-8734.430116,-383.047749
495.541862,-5181.441594,-9474.636058,-2757.943793
495.542184,-2590.720797,-11547.212695,-4366.744339
495.542507,-1406.391290,-12953.603985,-2451.505594
495.542829,-1850.514855,-11251.130318,1302.362347
495.543151,-2072.576638,-9770.718434,1225.752797
495.543474,-1036.288319,-10881.027347,-2221.676944
495.543796,-666.185348,-11177.109724,-3370.820191
495.544119,-1776.494261,-9178.553681,-919.314598
495.544441,-2812.782580,-6439.791695,1378.971896
495.544764,-962.267725,-5921.647536,76.609550
495.545086,2960.823768,-7328.038826,-2604.724693
495.545409,5773.606348,-8068.244768,-1455.581446
495.545731,5181.441594,-7254.018232,1685.410096
495.546054,4219.173869,-7550.100608,2757.943793
495.546376,3997.112087,-9030.512492,-383.047749
495.546699,3701.029710,-10140.821405,-3983.696590
495.547021,518.144159,-10436.903782,-3524.039291
495.547343,-3849.070898,-9252.574275,-1532.190996
495.547666,-5551.544565,-8808.450710,-1532.190996
495.547988,-3552.988522,-9918.759623,-5056.230287
495.548311,-1554.432478,-10955.047942,-5669.106685
495.548633,-1184.329507,-11029.068536,-2374.896044
495.548956,-2072.576638,-9844.739029,842.705048
495.549278,-814.226536,-11251.130318,-919.314598
495.549601,518.144159,-11843.295072,-3370.820191
495.549923,0.000000,-10732.986159,-3524.039291
495.550246,-2146.597232,-8734.430116,-842.705048
495.550568,-1480.411884,-7476.080014,229.828649
495.550891,1776.494261,-7846.182985,-1455.581446
495.551213,5107.421000,-8956.491898,-3294.210641
495.551535,5847.626942,-9178.553681,-536.266849
495.551858,4737.318029,-7846.182985,2987.772442
495.552180,3997.112087,-6883.915261,2221.676944
495.552503,3923.091493,-7476.080014,-2145.067394
495.552825,1628.453072,-8808.450710,-4136.915689
495.553148,-3034.844362,-8956.491898,-2451.505594
495.553470,-7105.977043,-7920.203579,-919.314598
495.553793,-7105.977043,-9400.615463,-2451.505594
495.554115,-3849.070898,-11399.171507,-5286.058936
495.554438,-1702.473667,-11843.295072,-4903.011187
495.554760,-2368.659014,-10955.047942,-919.314598
495.555082,-2960.823768,-10362.883188,1302.362347
495.555405,-2294.638420,-11843.295072,-1302.362347
495.555727,-1702.473667,-11843.295072,-3447.429741
495.556050,-2664.741391,-9992.780217,-3370.820191
495.556372,-3404.947333,-8438.347739,-2374.896044
495.556695,-1184.329507,-8290.306550,-1455.581446
495.557017,2664.741391,-8364.327145,-1915.238745
495.557340,5625.565159,-8290.306550,-1225.752797
495.557662,6365.771101,-7994.224174,995.924147
495.557985,5551.544565,-7328.038826,2451.505594
495.558307,4589.276840,-7920.203579,383.047749
495.558630,3182.885551,-9548.656652,-2681.334243
495.558952,148.041188,-9992.780217,-3447.429741
495.559274,-3627.009116,-8586.388927,-536.266849
495.559597,-4367.215058,-8734.430116,-229.828649
495.559919,-3108.864956,-10066.800811,-2757.943793
495.560242,-1332.370696,-11399.171507,-4749.792088
495.560564,-1702.473667,-10510.924376,-2298.286494
495.560887,-2960.823768,-9992.780217,842.705048
495.561209,-1332.370696,-9992.780217,-612.876398
495.561532,0.000000,-11547.212695,-4826.401637
495.561854,-962.267725,-11029.068536,-4903.011187
495.562177,-2812.782580,-9326.594869,-689.485948
495.562499,-2442.679609,-8290.306550,1072.533697
495.562822,740.205942,-8660.409521,-2298.286494
495.563144,3108.864956,-8142.265362,-2987.772442
495.563466,3478.967927,-7772.162391,-1225.752797
495.563789,2516.700203,-7698.141797,1685.410096
495.564111,2368.659014,-7698.141797,2068.457845
495.564434,2368.659014,-7772.162391,-1762.019645
495.564756,370.102971,-8734.430116,-4443.353888
495.565079,-3701.029710,-9030.512492,-1762.019645
495.565401,-6439.791695,-8956.491898,459.657299
495.565724,-6069.688724,-9474.636058,-1608.800546
495.566046,-3108.864956,-10584.944971,-4749.792088
495.566369,-1554.432478,-10807.006753,-3370.820191
495.566691,-1332.370696,-10066.800811,-229.828649
495.567014,-1480.411884,-9104.533087,766.095498
495.567336,0.000000,-10658.965565,-1608.800546
495.567658,814.226536,-11991.336260,-4290.134789
495.567981,-1406.391290,-10288.862594,-2221.676944
495.568303,-3182.885551,-9178.553681,-536.266849
495.568626,-2146.597232,-8956.491898,-842.705048
495.568948,1258.350101,-8956.491898,-2681.334243
495.569271,3849.070898,-8808.450710,-2911.162892
495.569593,3997.112087,-7254.018232,-689.485948
495.569916,3330.926739,-7105.977043,1378.971896
495.570238,2516.700203,-7105.977043,536.266849
495.570561,592.164754,-8956.491898,-2604.724693
495.570883,-2220.617826,-11029.068536,-3753.867940
495.571206,-5107.421000,-10584.944971,-2068.457845
495.571528,-5329.482782,-9474.636058,-1378.971896
495.571850,-3552.988522,-9474.636058,-2528.115143
495.572173,-1110.308913,-10288.862594,-3447.429741
495.572495,222.061783,-9104.533087,-1532.190996
495.572818,222.061783,-7994.224174,459.657299
495.573140,518.144159,-8512.368333,-536.266849
495.573463,666.185348,-10955.047942,-3983.696590
495.573785,-592.164754,-10955.047942,-3907.087040
495.574108,-1998.556043,-10140.821405,-842.705048
495.574430,-1258.350101,-10066.800811,153.219100
495.574753,2294.638420,-10214.842000,-1685.410096
495.575075,5255.462188,-9104.533087,-2451.505594
495.575398,5995.668130,-7179.997637,-612.876398
495.575720,5255.462188,-6809.894666,1608.800546
495.576042,4589.276840,-7476.080014,1455.581446
495.576365,3182.885551,-9178.553681,-2221.676944
495.576687,444.123565,-10140.821405,-4060.306139
495.577010,-3701.029710,-10436.903782,-2068.457845
495.577332,-5921.647536,-10288.862594,-459.657299
495.577655,-4811.338623,-10584.944971,-1225.752797
495.577977,-2294.638420,-10807.006753,-4060.306139
495.578300,-1110.308913,-10066.800811,-3217.601092
495.578622,-1332.370696,-8882.471304,0.000000
495.578945,-2294.638420,-8586.388927,612.876398
495.579267,-1554.432478,-10362.883188,-2221.676944
495.579590,-1258.350101,-11695.253884,-4749.792088
495.579912,-2294.638420,-10955.047942,-3983.696590
495.580234,-3034.844362,-9844.739029,0.000000
495.580557,-1184.329507,-9178.553681,1762.019645
495.580879,1776.494261,-7994.224174,-1225.752797
495.581202,3849.070898,-7179.997637,-2911.162892
495.581524,4589.276840,-7550.100608,-612.876398
495.581847,4737.318029,-8068.244768,612.876398
495.582169,3330.926739,-7254.018232,0.000000
495.582492,962.267725,-8438.347739,-1991.848295
495.582814,-2738.761985,-8956.491898,-1455.581446
495.583137,-6587.832884,-8660.409521,-1149.143247
495.583459,-8142.265362,-8734.430116,-2681.334243
495.583781,-7031.956449,-10436.903782,-4903.011187
495.584104,-4219.173869,-11769.274478,-4979.620737
495.584426,-3404.947333,-10436.903782,-2145.067394
495.584749,-3552.988522,-9622.677246,766.095498
495.585071,-2442.679609,-10214.842000,-306.438199
495.585394,-518.144159,-11695.253884,-3830.477490
495.585716,-370.102971,-11029.068536,-5132.839837
495.586039,-1776.494261,-10140.821405,-2221.676944
495.586361,-1924.535449,-9178.553681,459.657299
495.586684,1258.350101,-9030.512492,-153.219100
495.587006,5255.462188,-9104.533087,-2298.286494
495.587329,7179.997637,-8290.306550,-1149.143247
495.587651,5847.626942,-6883.915261,1991.848295
495.587973,4589.276840,-6365.771101,1838.629195
495.588296,3997.112087,-7179.997637,-919.314598
495.588618,1776.494261,-8586.388927,-2757.943793
495.588941,-2294.638420,-8808.450710,-2068.457845
495.589263,-6291.750507,-9474.636058,-1302.362347
495.589586,-6069.688724,-10362.883188,-2451.505594
495.589908,-3034.844362,-11769.274478,-5209.449386
495.590231,-1924.535449,-11325.150913,-4596.572988
495.590553,-2368.659014,-11029.068536,-306.438199
495.590876,-2960.823768,-9548.656652,1302.362347
495.591198,-1332.370696,-10436.903782,-2757.943793
495.591521,-222.061783,-11473.192101,-5822.325785
495.591843,-1406.391290,-10881.027347,-4443.353888
495.592165,-2294.638420,-9326.594869,-459.657299
495.592488,222.061783,-8216.285956,766.095498
495.592810,3923.091493,-8438.347739,-1455.581446
495.593133,6513.812290,-8808.450710,-1762.019645
495.593455,5921.647536,-7476.080014,1072.533697
495.593778,4737.318029,-5995.668130,3294.210641
495.594100,4811.338623,-5921.647536,306.438199
495.594423,4367.215058,-7846.182985,-2681.334243
495.594745,1406.391290,-9326.594869,-1762.019645
495.595068,-3108.864956,-9474.636058,229.828649
495.595390,-5551.544565,-9844.739029,-153.219100
495.595713,-4071.132681,-11251.130318,-2221.676944
495.596035,-1998.556043,-11547.212695,-4903.011187
495.596357,-1702.473667,-10881.027347,-3600.648841
495.596680,-3552.988522,-9548.656652,-536.266849
495.597002,-2960.823768,-10510.924376,383.047749
495.597325,-1406.391290,-11103.089130,-2451.505594
495.597647,-1110.308913,-11251.130318,-4673.182538
495.597970,-3256.906145,-9844.739029,-2911.162892
495.598292,-3701.029710,-8808.450710,0.000000
495.598615,-1258.350101,-8512.368333,-306.438199
495.598937,2072.576638,-8438.347739,-1838.629195
495.599260,3552.988522,-7105.977043,-1225.752797
495.599582,3404.947333,-5107.421000,153.219100
495.599905,2516.700203,-5773.606348,612.876398
495.600227,2368.659014,-8216.285956,-536.266849
495.600549,592.164754,-9696.697840,-2451.505594
495.600872,-3404.947333,-9696.697840,-2757.943793
495.601194,-6809.894666,-9474.636058,-1225.752797
495.601517,-6735.874072,-10955.047942,-1762.019645
495.601839,-4219.173869,-12657.521608,-4749.792088
495.602162,-2442.679609,-12657.521608,-4826.401637
495.602484,-2516.700203,-11251.130318,-1532.190996
495.602807,-2220.617826,-9104.533087,536.266849
495.603129,-888.247130,-9696.697840,-536.266849
495.603452,-518.144159,-10584.944971,-2834.553343
495.603774,-1628.453072,-9474.636058,-2911.162892
495.604097,-2442.679609,-7846.182985,-1685.410096
495.604419,-888.247130,-7476.080014,-1072.533697
495.604741,1998.556043,-9104.533087,-766.095498
495.605064,4293.194464,-9252.574275,-612.876398
495.605386,4219.173869,-7179.997637,229.828649
495.605709,4367.215058,-6587.832884,612.876398
495.606031,5033.400406,-7550.100608,-1225.752797
495.606354,4293.194464,-9992.780217,-3294.210641
495.606676,-74.020594,-11103.089130,-2221.676944
495.606999,-5181.441594,-10436.903782,-383.047749
495.607321,-7105.977043,-9844.739029,-689.485948
495.607644,-4959.379811,-11177.109724,-4213.525239
495.607966,-2146.597232,-11843.295072,-6128.763984
495.608289,-1776.494261,-10214.842000,-2528.115143
495.608611,-2812.782580,-7105.977043,1915.238745
495.608933,-962.267725,-6957.935855,2298.286494
495.609256,1924.535449,-9104.533087,-1991.848295
495.609578,1776.494261,-9326.594869,-4213.525239
495.609901,-814.226536,-8068.244768,-1991.848295
495.610223,-1332.370696,-7920.203579,842.705048
495.610546,1628.453072,-9400.615463,383.047749
495.610868,5255.462188,-9622.677246,-2068.457845
495.611191,6439.791695,-8438.347739,-2068.457845
495.611513,5699.585753,-7179.997637,1378.971896
495.611836,5255.462188,-7476.080014,612.876398
495.612158,4293.194464,-8882.471304,-1915.238745
495.612481,1924.535449,-10362.883188,-3983.696590
495.612803,-3108.864956,-10658.965565,-2834.553343
495.613125,-7105.977043,-10807.006753,-1072.533697
495.613448,-7328.038826,-10881.027347,-1608.800546
495.613770,-4959.379811,-11547.212695,-4213.525239
495.614093,-2738.761985,-10807.006753,-4979.620737
495.614415,-2590.720797,-8142.265362,-1072.533697
495.614738,-2516.700203,-6883.915261,2221.676944
495.615060,-888.247130,-9030.512492,-306.438199
495.615383,148.041188,-11177.109724,-4136.915689
495.615705,-1628.453072,-10584.944971,-4136.915689
495.616028,-3182.885551,-9696.697840,-1225.752797
495.616350,-1332.370696,-9252.574275,229.828649
495.616672,2368.659014,-9548.656652,-1838.629195
495.616995,5033.400406,-8956.491898,-2987.772442
495.617317,4885.359217,-8512.368333,-1455.581446
495.617640,4367.215058,-7994.224174,1225.752797
495.617962,3330.926739,-7920.203579,-306.438199
495.618285,1184.329507,-9696.697840,-3370.820191
495.618607,-1998.556043,-10436.903782,-3447.429741
495.618930,-6291.750507,-9474.636058,-1838.629195
495.619252,-7772.162391,-8660.409521,-1608.800546
495.619575,-6365.771101,-10140.821405,-3217.601092
495.619897,-3404.947333,-11695.253884,-4290.134789
495.620220,-3627.009116,-10066.800811,-1455.581446
495.620542,-4145.153275,-7031.956449,1302.362347
495.620864,-2886.803174,-7994.224174,76.609550
495.621187,-592.164754,-11621.233289,-2911.162892
495.621509,-444.123565,-11547.212695,-3983.696590
495.621832,-2516.700203,-9178.553681,-2145.067394
495.622154,-1924.535449,-8290.306550,76.609550
495.622477,2220.617826,-9622.677246,0.000000
495.622799,5773.606348,-9844.739029,-2145.067394
495.623122,6513.812290,-8512.368333,-1838.629195
495.623444,4811.338623,-7550.100608,1072.533697
495.623767,3849.070898,-7031.956449,1838.629195
495.624089,4145.153275,-8142.265362,-1225.752797
495.624412,1628.453072,-9474.636058,-4136.915689
495.624734,-3034.844362,-9622.677246,-2221.676944
495.625056,-7254.018232,-8808.450710,153.219100
495.625379,-7328.038826,-10066.800811,-919.314598
495.625701,-4737.318029,-11029.068536,-3217.601092
495.626024,-2442.679609,-10658.965565,-4366.744339
495.626346,-3034.844362,-8364.327145,-1838.629195
495.626669,-2220.617826,-8364.327145,919.314598
495.626991,-296.082377,-10214.842000,-1072.533697
495.627314,1554.432478,-11991.336260,-4443.353888
495.627636,-370.102971,-11029.068536,-3600.648841
495.627959,-1184.329507,-9844.739029,-306.438199
495.628281,0.000000,-9326.594869,-306.438199
495.628604,3034.844362,-9252.574275,-1915.238745
495.628926,4811.338623,-8956.491898,-1685.410096
495.629248,4737.318029,-7476.080014,612.876398
495.629571,4219.173869,-5847.626942,1532.190996
495.629893,3997.112087,-5403.503377,-306.438199
495.630216,2812.782580,-7476.080014,-2834.553343
495.630538,222.061783,-9252.574275,-2757.943793
495.630861,-3330.926739,-8882.471304,-536.266849
495.631183,-6143.709319,-8808.450710,0.000000
495.631506,-5625.565159,-10584.944971,-2451.505594
495.631828,-3478.967927,-11991.336260,-4673.182538
495.632151,-2738.761985,-11103.089130,-3447.429741
495.632473,-3108.864956,-9918.759623,-1072.533697
495.632796,-1924.535449,-10436.903782,-1149.143247
495.633118,370.102971,-11399.171507,-2604.724693
495.633440,740.205942,-10955.047942,-3983.696590
495.633763,-888.247130,-10140.821405,-2528.115143
495.634085,-962.267725,-9400.615463,-153.219100
495.634408,1998.556043,-9030.512492,-1072.533697
495.634730,4663.297435,-8512.368333,-2987.772442
495.635053,5033.400406,-8142.265362,-1532.190996
495.635375,4293.194464,-6439.791695,2068.457845
495.635698,4367.215058,-5625.565159,2374.896044
495.636020,3775.050304,-6513.812290,-1532.190996
495.636343,1924.535449,-8512.368333,-2757.943793
495.636665,-2590.720797,-9622.677246,-1838.629195
495.636987,-7105.977043,-9770.718434,-153.219100
495.637310,-7846.182985,-10436.903782,-612.876398
495.637632,-5033.400406,-12139.377449,-4366.744339
495.637955,-3256.906145,-11843.295072,-6052.154434
495.638277,-3478.967927,-9770.718434,-2987.772442
495.638599,-3034.844362,-9474.636058,-306.438199
495.638922,-1406.391290,-10658.965565,-1685.410096
495.639244,-296.082377,-12805.562797,-3753.867940
495.639567,-1924.535449,-12139.377449,-3447.429741
495.639889,-3330.926739,-9474.636058,-1915.238745
495.640212,-1184.329507,-8956.491898,-1455.581446
495.640534,2960.823768,-9252.574275,-2145.067394
495.640856,5551.544565,-7550.100608,-1455.581446
495.641179,6217.729913,-5699.585753,919.314598
495.641501,5551.544565,-4737.318029,2834.553343
495.641824,4811.338623,-5995.668130,1915.238745
495.642146,3478.967927,-8438.347739,-1149.143247
495.642468,74.020594,-9326.594869,-3064.381992
495.642791,-3923.091493,-9844.739029,-2145.067394
495.643113,-6661.853478,-9844.739029,0.000000
495.643436,-6217.729913,-10955.047942,-1455.581446
495.643758,-4515.256246,-11325.150913,-4519.963438
495.644080,-3701.029710,-11103.089130,-4443.353888
495.644403,-4293.194464,-9474.636058,-1838.629195
495.644725,-3330.926739,-11177.109724,-995.924147
495.645048,-1332.370696,-13323.706956,-2757.943793
495.645370,-1110.308913,-13693.809927,-3370.820191
495.645693,-2886.803174,-10881.027347,-2451.505594
495.646015,-1184.329507,-9474.636058,-919.314598
495.646337,3034.844362,-8586.388927,-1149.143247
495.646660,6809.894666,-7254.018232,-2145.067394
495.646982,7328.038826,-5551.544565,-689.485948
495.647305,6883.915261,-5329.482782,2681.334243
495.647627,6217.729913,-5033.400406,3294.210641
495.647949,5107.421000,-6883.915261,-766.095498
495.648272,2072.576638,-9326.594869,-2911.162892
495.648594,-2294.638420,-10732.986159,-2221.676944
495.648917,-6439.791695,-9474.636058,-536.266849
495.649239,-6883.915261,-9474.636058,-919.314598
495.649562,-4367.215058,-11029.068536,-3753.867940
495.649884,-1850.514855,-11325.150913,-4979.620737
495.650206,-2220.617826,-9844.739029,-2298.286494
495.650529,-2812.782580,-8512.368333,536.266849
495.650851,-1702.473667,-10955.047942,-1378.971896
495.651174,-518.144159,-13323.706956,-4213.525239
495.651496,-2146.597232,-12065.356855,-3907.087040
495.651818,-3923.091493,-9030.512492,-995.924147
495.652141,-1110.308913,-8142.265362,0.000000
495.652463,3627.009116,-7179.997637,-2298.286494
495.652786,6217.729913,-6957.935855,-2451.505594
495.653108,6143.709319,-6439.791695,1149.143247
495.653431,4959.379811,-5403.503377,3753.867940
495.653753,4293.194464,-5921.647536,1685.410096
495.654075,2664.741391,-7994.224174,-2528.115143
495.654398,-814.226536,-9696.697840,-3753.867940
495.654720,-4959.379811,-10140.821405,-1762.019645
495.655043,-6883.915261,-9474.636058,-459.657299
495.655365,-5477.523971,-10955.047942,-1915.238745
495.655687,-2960.823768,-12435.459826,-5132.839837
495.656010,-1332.370696,-11843.295072,-4060.306139
495.656332,-2368.659014,-9770.718434,-1149.143247
495.656655,-1776.494261,-10066.800811,153.219100
495.656977,-444.123565,-12287.418637,-2834.553343
495.657299,-814.226536,-12139.377449,-3983.696590
495.657622,-3330.926739,-9326.594869,-2681.334243
495.657944,-3923.091493,-7328.038826,-383.047749
495.658267,-888.247130,-8142.265362,-689.485948
495.658589,2590.720797,-7994.224174,-2757.943793
495.658912,3849.070898,-7031.956449,-2374.896044
495.659234,3404.947333,-6661.853478,842.705048
495.659556,3478.967927,-6883.915261,2221.676944
495.659879,3627.009116,-7920.203579,-995.924147
495.660201,2072.576638,-9252.574275,-4596.572988
495.660524,-2220.617826,-10066.800811,-3830.477490
495.660846,-6217.729913,-10584.944971,-766.095498
495.661168,-7105.977043,-10584.944971,-459.657299
495.661491,-4737.318029,-11547.212695,-4749.792088
495.661813,-1776.494261,-11917.315666,-6588.421283
495.662136,-962.267725,-10881.027347,-3217.601092
495.662458,-1258.350101,-9474.636058,459.657299
495.662781,296.082377,-10807.006753,0.000000
495.663103,1406.391290,-11843.295072,-2451.505594
495.663425,592.164754,-9696.697840,-3140.991542
495.663748,-518.144159,-7846.182985,-1149.143247
495.664070,1036.288319,-8586.388927,-306.438199
495.664393,3256.906145,-8586.388927,0.000000
495.664715,5181.441594,-7254.018232,-995.924147
495.665037,5329.482782,-5847.626942,0.000000
495.665360,6069.688724,-6069.688724,1225.752797
495.665682,5847.626942,-6809.894666,0.000000
495.666005,4219.173869,-8586.388927,-3064.381992
495.666327,296.082377,-10584.944971,-3140.991542
495.666649,-4589.276840,-10955.047942,-919.314598
495.666972,-6735.874072,-10362.883188,-842.705048
495.667294,-4959.379811,-11399.171507,-4596.572988
495.667617,-1924.535449,-12509.480420,-6435.202183
495.667939,-1110.308913,-11621.233289,-4443.353888
495.668262,-1554.432478,-9474.636058,0.000000
495.668584,-1406.391290,-9252.574275,842.705048
495.668906,-370.102971,-11103.089130,-766.095498
495.669229,-1258.350101,-11177.109724,-2145.067394
495.669551,-3701.029710,-9400.615463,-2528.115143
495.669874,-4515.256246,-7476.080014,-689.485948
495.670196,-1110.308913,-7624.121203,-459.657299
495.670518,3034.844362,-7624.121203,-612.876398
495.670841,5551.544565,-5625.565159,536.266849
495.671163,5329.482782,-4885.359217,2068.457845
495.671486,4441.235652,-5699.585753,2068.457845
495.671808,4441.235652,-8734.430116,-459.657299
495.672131,2146.597232,-11843.295072,-2911.162892
495.672453,-2590.720797,-12065.356855,-2451.505594
495.672775,-7031.956449,-10807.006753,-459.657299
495.673098,-7105.977043,-11029.068536,-1072.533697
495.673420,-4219.173869,-12287.418637,-4443.353888
495.673743,-2886.803174,-10807.006753,-4903.011187
495.674065,-3478.967927,-8364.327145,-1838.629195
495.674387,-2664.741391,-8216.285956,153.219100
495.674710,-1480.411884,-10510.924376,153.219100
495.675032,-1628.453072,-11695.253884,-2374.896044
495.675355,-3775.050304,-10066.800811,-2528.115143
495.675677,-4515.256246,-8364.327145,-689.485948
495.675999,-1480.411884,-6957.935855,-995.924147
495.676322,2516.700203,-7105.977043,-1378.971896
495.676644,4293.194464,-6809.894666,-919.314598
495.676967,4219.173869,-6587.832884,1532.190996
495.677289,4219.173869,-6217.729913,1991.848295
495.677612,4219.173869,-7031.956449,-612.876398
495.677934,2442.679609,-9622.677246,-3447.429741
495.678256,-148.041188,-11621.233289,-4443.353888
495.678579,-4071.132681,-11769.274478,-2451.505594
495.678901,-6587.832884,-10436.903782,-153.219100
495.679224,-5477.523971,-10584.944971,-1915.238745
495.679546,-3256.906145,-10510.924376,-6435.202183
495.679868,-1776.494261,-9548.656652,-6281.983084
495.680191,-2294.638420,-8586.388927,-2068.457845
495.680513,-1258.350101,-10288.862594,536.266849
495.680836,666.185348,-11917.315666,-1455.581446
495.681158,1036.288319,-11769.274478,-3677.258390
495.681481,-370.102971,-10214.842000,-3064.381992
495.681803,-740.205942,-9326.594869,-766.095498
495.682125,2442.679609,-9474.636058,-536.266849
495.682448,5773.606348,-8660.409521,-2757.943793
495.682770,7179.997637,-7105.977043,-2681.334243
495.683093,6439.791695,-6661.853478,919.314598
495.683415,6217.729913,-7328.038826,2451.505594
495.683737,5255.462188,-8142.265362,0.000000
495.684060,2664.741391,-9326.594869,-3907.087040
495.684382,-1184.329507,-10066.800811,-4060.306139
495.684705,-5329.482782,-9548.656652,-1685.410096
495.685027,-6883.915261,-10066.800811,-842.705048
495.685350,-5625.565159,-11547.212695,-3830.477490
495.685672,-3997.112087,-12213.398043,-5898.935335
495.685994,-2738.761985,-10140.821405,-3677.258390
495.686317,-2442.679609,-8438.347739,-306.438199
495.686639,-888.247130,-10362.883188,-1072.533697
495.686962,-1110.308913,-12731.542202,-2221.676944
495.687284,-2960.823768,-10510.924376,-2451.505594
495.687606,-4589.276840,-8438.347739,-2298.286494
495.687929,-2812.782580,-8512.368333,-1838.629195
495.688251,370.102971,-9770.718434,-2221.676944
495.688574,2442.679609,-8808.450710,-1838.629195
495.688896,3034.844362,-6587.832884,1608.800546
495.689218,3923.091493,-5699.585753,3677.258390
495.689541,5551.544565,-6143.709319,919.314598
495.689863,5033.400406,-7476.080014,-2451.505594
495.690186,1406.391290,-8808.450710,-2451.505594
495.690508,-3256.906145,-9474.636058,536.266849
495.690831,-5995.668130,-9104.533087,1302.362347
495.691153,-5329.482782,-9696.697840,-1991.848295
495.691475,-3256.906145,-11251.130318,-4213.525239
495.691798,-2368.659014,-11177.109724,-3294.210641
495.692120,-2590.720797,-8734.430116,306.438199
495.692443,-1776.494261,-9326.594869,1455.581446
495.692765,-518.144159,-12065.356855,-689.485948
495.693087,-1776.494261,-12361.439231,-2145.067394
495.693410,-4663.297435,-9548.656652,-1149.143247
495.693732,-5255.462188,-7920.203579,-766.095498
495.694055,-1924.535449,-8364.327145,-2681.334243
495.694377,1924.535449,-8438.347739,-4136.915689
495.694700,3552.988522,-7846.182985,-1149.143247
495.695022,3997.112087,-7254.018232,2374.896044
495.695344,4367.215058,-6883.915261,2451.505594
495.695667,5329.482782,-7846.182985,-1762.019645
495.695989,3997.112087,-9326.594869,-5822.325785
495.696312,-444.123565,-9696.697840,-3830.477490
495.696634,-5033.400406,-9844.739029,766.095498
495.696956,-6143.709319,-9326.594869,842.705048
495.697279,-3923.091493,-10436.903782,-4903.011187
495.697601,-1258.350101,-12139.377449,-7431.126331
495.697924,-666.185348,-11251.130318,-3600.648841
495.698246,-666.185348,-10584.944971,766.095498
495.698568,1184.329507,-11769.274478,459.657299
495.698891,3034.844362,-13027.624579,-1991.848295
495.699213,1628.453072,-10732.986159,-2451.505594
495.699536,-1628.453072,-7179.997637,-689.485948
495.699858,-1998.556043,-6365.771101,-229.828649
495.700181,1110.308913,-7105.977043,-2221.676944
495.700503,4367.215058,-8142.265362,-3753.867940
495.700825,4293.194464,-7624.121203,536.266849
495.701148,3923.091493,-6957.935855,3600.648841
495.701470,4959.379811,-7846.182985,1762.019645
495.701793,5107.421000,-8882.471304,-2145.067394
495.702115,2516.700203,-9548.656652,-4366.744339
495.702437,-3330.926739,-10807.006753,-3447.429741
495.702760,-7476.080014,-10140.821405,-612.876398
495.703082,-7772.162391,-9844.739029,-1685.410096
495.703405,-4811.338623,-10658.965565,-6435.202183
495.703727,-3478.967927,-11029.068536,-7737.564530
495.704050,-3627.009116,-11325.150913,-2834.553343
495.704372,-3108.864956,-10955.047942,842.705048
495.704694,-1776.494261,-12583.501014,0.000000
495.705017,-1480.411884,-12435.459826,-2451.505594
495.705339,-2368.659014,-9400.615463,-2298.286494
495.705662,-2294.638420,-6217.729913,-1072.533697
495.705984,888.247130,-6735.874072,-995.924147
495.706306,4145.153275,-7772.162391,-995.924147
495.706629,5033.400406,-7550.100608,919.314598
495.706951,4219.173869,-5847.626942,3600.648841
495.707274,4219.173869,-5329.482782,3064.381992
495.707596,4959.379811,-8512.368333,-1762.019645
495.707918,3627.009116,-11991.336260,-4826.401637
495.708241,-1332.370696,-11621.233289,-2451.505594
495.708563,-6069.688724,-9474.636058,842.705048
495.708886,-7031.956449,-8586.388927,-689.485948
495.709208,-4367.215058,-10807.006753,-5056.230287
495.709531,-3849.070898,-11621.233289,-6665.030833
495.709853,-4367.215058,-11029.068536,-3907.087040
495.710175,-4737.318029,-10436.903782,-306.438199
495.710498,-3256.906145,-11917.315666,1455.581446
495.710820,-2590.720797,-11843.295072,-689.485948
495.711143,-4293.194464,-9252.574275,-2604.724693
495.711465,-5477.523971,-6957.935855,-1915.238745
495.711787,-2368.659014,-6143.709319,-1455.581446
495.712110,2294.638420,-6661.853478,-2834.553343
495.712432,5403.503377,-7105.977043,-2145.067394
495.712755,5773.606348,-7624.121203,1991.848295
495.713077,5403.503377,-7994.224174,4060.306139
495.713400,4959.379811,-8512.368333,1378.971896
495.713722,3923.091493,-10584.944971,-3447.429741
495.714044,814.226536,-12287.418637,-5286.058936
495.714367,-3108.864956,-11177.109724,-2757.943793
495.714689,-5699.585753,-7920.203579,229.828649
495.715012,-4293.194464,-8364.327145,-1685.410096
495.715334,-592.164754,-11177.109724,-4290.134789
495.715656,222.061783,-10955.047942,-3600.648841
495.715979,-444.123565,-8290.306550,0.000000
495.716301,-740.205942,-9400.615463,1225.752797
495.716624,814.226536,-11843.295072,306.438199
495.716946,370.102971,-10807.006753,-1991.848295
495.717269,-1628.453072,-8290.306550,-2374.896044
495.717591,-2442.679609,-6661.853478,-306.438199
495.717913,148.041188,-6365.771101,-689.485948
495.718236,3182.885551,-7105.977043,-3370.820191
495.718558,3997.112087,-7772.162391,-2681.334243
495.718881,2960.823768,-9178.553681,995.924147
495.719203,2072.576638,-10288.862594,1455.581446
495.719525,2442.679609,-10732.986159,-1378.971896
495.719848,1184.329507,-11325.150913,-5592.497135
495.720170,-3330.926739,-10436.903782,-4826.401637
495.720493,-7328.038826,-9104.533087,-1455.581446
495.720815,-7846.182985,-8142.265362,-766.095498
495.721137,-4293.194464,-10140.821405,-4443.353888
495.721460,-592.164754,-11695.253884,-6128.763984
495.721782,592.164754,-10732.986159,-2757.943793
495.722105,0.000000,-9474.636058,1302.362347
495.722427,1258.350101,-10881.027347,2681.334243
495.722750,2146.597232,-11843.295072,229.828649
495.723072,888.247130,-10510.924376,-2374.896044
495.723394,-2368.659014,-7624.121203,-1532.190996
495.723717,-2516.700203,-5995.668130,76.609550
495.724039,0.000000,-6809.894666,-1149.143247
495.724362,2886.803174,-8068.244768,-2068.457845
495.724684,4219.173869,-9326.594869,-689.485948
495.725006,3701.029710,-8734.430116,1149.143247
495.725329,4441.235652,-9178.553681,689.485948
495.725651,3775.050304,-10658.965565,-2145.067394
495.725974,814.226536,-11473.192101,-3447.429741
495.726296,-3552.988522,-10362.883188,-1532.190996
495.726619,-6883.915261,-8512.368333,-1685.410096
495.726941,-6069.688724,-9548.656652,-3447.429741
495.727263,-3701.029710,-11029.068536,-5439.278036
495.727586,-2664.741391,-10288.862594,-3907.087040
495.727908,-2960.823768,-8808.450710,0.000000
495.728231,-2368.659014,-9474.636058,1762.019645
495.728553,-1332.370696,-11325.150913,-383.047749
495.728875,-1628.453072,-10881.027347,-3600.648841
495.729198,-3404.947333,-9104.533087,-3830.477490
495.729520,-4071.132681,-7328.038826,-1225.752797
495.729843,-1036.288319,-7402.059420,-842.705048
495.730165,3034.844362,-8808.450710,-2451.505594
495.730487,4885.359217,-8586.388927,-995.924147
495.730810,4811.338623,-7624.121203,2451.505594
495.731132,4737.318029,-6661.853478,2834.553343
495.731455,4515.256246,-7105.977043,-383.047749
495.731777,2886.803174,-9622.677246,-3907.087040
495.732100,-740.205942,-10362.883188,-3370.820191
495.732422,-5329.482782,-9474.636058,-459.657299
495.732744,-7031.956449,-8882.471304,0.000000
495.733067,-5403.503377,-10288.862594,-2528.115143
495.733389,-3404.947333,-10510.924376,-4749.792088
495.733712,-2960.823768,-10066.800811,-3370.820191
495.734034,-4145.153275,-9400.615463,0.000000
495.734356,-4145.153275,-11177.109724,766.095498
495.734679,-3701.029710,-11399.171507,-2068.457845
495.735001,-4219.173869,-9252.574275,-3753.867940
495.735324,-6291.750507,-7402.059420,-3370.820191
495.735646,-5921.647536,-7772.162391,-1608.800546
495.735969,-3034.844362,-8512.368333,-1378.971896
495.736291,592.164754,-8142.265362,-2221.676944
495.736613,3627.009116,-8364.327145,-2757.943793
495.736936,4515.256246,-8956.491898,-612.876398
495.737258,4071.132681,-9474.636058,689.485948
495.737581,3182.885551,-9326.594869,-1608.800546
495.737903,740.205942,-9400.615463,-4443.353888
495.738225,-2960.823768,-10436.903782,-4060.306139
495.738548,-6365.771101,-10436.903782,-2068.457845
495.738870,-8216.285956,-9696.697840,-2987.772442
495.739193,-6587.832884,-10362.883188,-4596.572988
495.739515,-3256.906145,-11843.295072,-3600.648841
495.739837,-1036.288319,-11103.089130,-2145.067394
495.740160,-666.185348,-9696.697840,766.095498
495.740482,-1332.370696,-8438.347739,2145.067394
495.740805,-888.247130,-8068.244768,0.000000
495.741127,-2072.576638,-7179.997637,-3140.991542
495.741449,-4515.256246,-8142.265362,-2911.162892
495.741772,-6217.729913,-9030.512492,-689.485948
495.742094,-6069.688724,-8660.409521,0.000000
495.742417,-2664.741391,-8290.306550,-1685.410096
495.742739,1776.494261,-8882.471304,-1838.629195
495.743062,4441.235652,-9474.636058,-1608.800546
495.743384,4071.132681,-9696.697840,-919.314598
495.743706,2294.638420,-8956.491898,76.609550
495.744029,370.102971,-8808.450710,-766.095498
495.744351,-1480.411884,-8290.306550,-4903.011187
495.744674,-3775.050304,-10807.006753,-5898.935335
495.744996,-6883.915261,-11917.315666,-3830.477490
495.745318,-8882.471304,-11547.212695,-1838.629195
495.745641,-7846.182985,-10732.986159,-842.705048
495.745963,-5921.647536,-9844.739029,-2145.067394
495.746286,-2812.782580,-9474.636058,-3370.820191
495.746608,-1998.556043,-8660.409521,-2068.457845
495.746930,-2072.576638,-7105.977043,919.314598
495.747253,-2146.597232,-5773.606348,383.047749
495.747575,-1480.411884,-6291.750507,-1608.800546
495.747898,-1776.494261,-7994.224174,-2911.162892
495.748220,-3034.844362,-10066.800811,-2451.505594
495.748543,-5107.421000,-11843.295072,-229.828649
495.748865,-5329.482782,-11843.295072,1378.971896
495.749187,-2368.659014,-10288.862594,-1455.581446
495.749510,296.082377,-9844.739029,-4213.525239
495.749832,2146.597232,-9400.615463,-2681.334243
495.750155,1850.514855,-8808.450710,-383.047749
495.750477,296.082377,-7698.141797,766.095498
495.750799,-296.082377,-7476.080014,-459.657299
495.751122,-370.102971,-9178.553681,-2987.772442
495.751444,-1776.494261,-9844.739029,-4213.525239
495.751767,-4145.153275,-10584.944971,-2757.943793
495.752089,-5107.421000,-11029.068536,-1072.533697
495.752411,-5107.421000,-10362.883188,0.000000
495.752734,-4515.256246,-9104.533087,-1225.752797
495.753056,-4811.338623,-7105.977043,-1685.410096
495.753379,-5181.441594,-6735.874072,-2528.115143
495.753701,-5329.482782,-7402.059420,-3217.601092
495.754023,-4737.318029,-8660.409521,-2221.676944
495.754346,-3997.112087,-9400.615463,-2374.896044
495.754668,-2960.823768,-10436.903782,-1608.800546
495.754991,-2220.617826,-10362.883188,-1378.971896
495.755313,-1554.432478,-9622.677246,-1532.190996
495.755636,-1406.391290,-9178.553681,-2068.457845
495.755958,-1258.350101,-9696.697840,-2451.505594
495.756280,-1110.308913,-10732.986159,-1838.629195
495.756603,-1184.329507,-11399.171507,0.000000
495.756925,-1850.514855,-10214.842000,842.705048
495.757248,-2368.659014,-8882.471304,229.828649
495.757570,-2812.782580,-7698.141797,-536.266849
495.757892,-1850.514855,-6809.894666,-1225.752797
495.758215,-592.164754,-5995.668130,-1685.410096
495.758537,666.185348,-6217.729913,-2145.067394
495.758860,1628.453072,-7179.997637,-1302.362347
495.759182,2220.617826,-8216.285956,-1072.533697
495.759504,2442.679609,-9474.636058,-689.485948
495.759827,888.247130,-10288.862594,-2068.457845
495.760149,-1184.329507,-11103.089130,-3524.039291
495.760472,-3182.885551,-12287.418637,-4443.353888
495.760794,-5033.400406,-12879.583391,-3830.477490
495.761117,-6365.771101,-12213.398043,-2374.896044
495.761439,-7476.080014,-11251.130318,-1608.800546
495.761761,-8290.306550,-9474.636058,-1532.190996
495.762084,-7624.121203,-7550.100608,-2145.067394
495.762406,-5847.626942,-7179.997637,-3447.429741
495.762729,-4145.153275,-6735.874072,-2374.896044
495.763051,-1702.473667,-7772.162391,-1149.143247
495.763373,0.000000,-8808.450710,-306.438199
495.763696,1110.308913,-8364.327145,-459.657299
495.764018,2368.659014,-8216.285956,0.000000
495.764341,3997.112087,-9474.636058,-995.924147
495.764663,4367.215058,-10510.924376,-3677.258390
495.764985,2812.782580,-11695.253884,-2604.724693
495.765308,-148.041188,-11177.109724,-306.438199
495.765630,-3108.864956,-10955.047942,-459.657299
495.765953,-5847.626942,-12065.356855,-1838.629195
495.766275,-7920.203579,-11621.233289,-2374.896044
495.766597,-10584.944971,-9474.636058,-2834.553343
495.766920,-11991.336260,-7402.059420,-2528.115143
495.767242,-10362.883188,-8142.265362,-1302.362347
495.767565,-6809.894666,-8068.244768,-995.924147
495.767887,-2960.823768,-6513.812290,-2221.676944
495.768210,444.123565,-4589.276840,-1608.800546
495.768532,2664.741391,-5551.544565,-1378.971896
495.768854,3404.947333,-7994.224174,-1762.019645
495.769177,2664.741391,-10140.821405,-2221.676944
495.769499,1258.350101,-11399.171507,-2451.505594
495.769822,1036.288319,-12879.583391,-2987.772442
495.770144,370.102971,-13545.768739,-3907.087040
495.770466,-518.144159,-12953.603985,-2834.553343
495.770789,-2442.679609,-11251.130318,-995.924147
495.771111,-4515.256246,-9918.759623,0.000000
495.771434,-5477.523971,-9770.718434,-459.657299
495.771756,-6587.832884,-8882.471304,-306.438199
495.772078,-7402.059420,-7031.956449,-2145.067394
495.772401,-7031.956449,-6587.832884,-2298.286494
495.772723,-5107.421000,-7994.224174,153.219100
495.773046,-2812.782580,-8216.285956,1608.800546
495.773368,-666.185348,-6661.853478,842.705048
495.773691,1628.453072,-6439.791695,-612.876398
495.774013,3849.070898,-7476.080014,-2528.115143
495.774335,4811.338623,-8956.491898,-3447.429741
495.774658,3923.091493,-9178.553681,-3294.210641
495.774980,2072.576638,-9252.574275,-2451.505594
495.775303,444.123565,-10732.986159,-4060.306139
495.775625,-2220.617826,-11843.295072,-4519.963438
495.775947,-5255.462188,-13027.624579,-4826.401637
495.776270,-7624.121203,-13989.892304,-4136.915689
495.776592,-7550.100608,-14285.974681,-2987.772442
495.776915,-7402.059420,-12139.377449,-1685.410096
495.777237,-6143.709319,-9770.718434,-842.705048
495.777559,-4885.359217,-7105.977043,-536.266849
495.777882,-3923.091493,-5181.441594,383.047749
495.778204,-2812.782580,-3552.988522,842.705048
495.778527,-2294.638420,-3182.885551,76.609550
495.778849,-2220.617826,-3997.112087,-766.095498
495.779171,-1998.556043,-6809.894666,-1149.143247
495.779494,-1850.514855,-9918.759623,-766.095498
495.779816,-1036.288319,-11917.315666,-1225.752797
495.780139,444.123565,-13249.686362,-2451.505594
495.780461,1776.494261,-14359.995275,-2834.553343
495.780784,1406.391290,-13545.768739,-1532.190996
495.781106,444.123565,-11621.233289,-766.095498
495.781428,-1628.453072,-9992.780217,-995.924147
495.781751,-3256.906145,-9326.594869,-1608.800546
495.782073,-3997.112087,-9178.553681,-2298.286494
495.782396,-5551.544565,-6957.935855,-3140.991542
495.782718,-6143.709319,-5625.565159,-2451.505594
495.783040,-6143.709319,-6291.750507,-1378.971896
495.783363,-5255.462188,-7105.977043,-229.828649
495.783685,-4663.297435,-7105.977043,-766.095498
495.784008,-4219.173869,-7624.121203,-2374.896044
495.784330,-4293.194464,-9030.512492,-3677.258390
495.784652,-3849.070898,-10732.986159,-3830.477490
495.784975,-3404.947333,-11325.150913,-3140.991542
495.785297,-2960.823768,-11917.315666,-2987.772442
495.785620,-1924.535449,-12879.583391,-2834.553343
495.785942,-814.226536,-13101.645173,-2451.505594
495.786264,-222.061783,-11991.336260,-2451.505594
495.786587,0.000000,-11177.109724,-1838.629195
495.786909,0.000000,-10584.944971,-919.314598
495.787232,74.020594,-9474.636058,0.000000
495.787554,0.000000,-7328.038826,0.000000
495.787877,148.041188,-6439.791695,-383.047749
495.788199,370.102971,-6217.729913,-689.485948
495.788521,148.041188,-6291.750507,-383.047749
495.788844,-222.061783,-6735.874072,306.438199
495.789166,-296.082377,-8142.265362,-459.657299
495.789489,-962.267725,-9992.780217,-1302.362347
495.789811,-962.267725,-10881.027347,-1762.019645
495.790133,-1258.350101,-11621.233289,-2221.676944
495.790456,-1924.535449,-11991.336260,-1991.848295
495.790778,-1924.535449,-11843.295072,-1608.800546
495.791101,-2220.617826,-10955.047942,-1302.362347
495.791423,-2886.803174,-10288.862594,-1455.581446
495.791745,-3034.844362,-9992.780217,-1378.971896
495.792068,-3256.906145,-9844.739029,-1302.362347
495.792390,-3849.070898,-9252.574275,-536.266849
495.792713,-3923.091493,-8216.285956,-229.828649
495.793035,-4145.153275,-7550.100608,0.000000
495.793358,-4515.256246,-6439.791695,-536.266849
495.793680,-4959.379811,-5329.482782,-1149.143247
495.794002,-5033.400406,-5181.441594,-2221.676944
495.794325,-4737.318029,-6735.874072,-3370.820191
495.794647,-4515.256246,-8290.306550,-2604.724693
495.794970,-4441.235652,-9844.739029,-1991.848295
495.795292,-3997.112087,-11621.233289,-2221.676944
495.795614,-2442.679609,-13175.665768,-2604.724693
495.795937,-1554.432478,-12879.583391,-2374.896044
495.796259,-1480.411884,-11547.212695,-1302.362347
495.796582,-1110.308913,-9844.739029,-919.314598
495.796904,-1036.288319,-8956.491898,-1532.190996
495.797226,-1776.494261,-8290.306550,-766.095498
495.797549,-2738.761985,-7846.182985,229.828649
495.797871,-4219.173869,-8364.327145,229.828649
495.798194,-4589.276840,-8512.368333,-689.485948
495.798516,-4737.318029,-7920.203579,-995.924147
495.798838,-4589.276840,-7698.141797,-766.095498
495.799161,-3404.947333,-8808.450710,-459.657299
495.799483,-2368.659014,-8512.368333,-1225.752797
495.799806,-1554.432478,-8364.327145,-1915.238745
495.800128,-814.226536,-9474.636058,-2604.724693
495.800451,148.041188,-11991.336260,-3447.429741
495.800773,148.041188,-13323.706956,-2757.943793
495.801095,-222.061783,-13027.624579,-1991.848295
495.801418,-592.164754,-12953.603985,-2298.286494
495.801740,-148.041188,-13693.809927,-2298.286494
495.802063,0.000000,-12953.603985,-1762.019645
495.802385,-962.267725,-10807.006753,306.438199
495.802707,-740.205942,-9178.553681,1302.362347
495.803030,-148.041188,-8438.347739,536.266849
495.803352,740.205942,-7105.977043,1149.143247
495.803675,1406.391290,-5773.606348,1608.800546
495.803997,2294.638420,-6587.832884,1225.752797
495.804319,2960.823768,-7031.956449,1302.362347
495.804642,3256.906145,-7698.141797,995.924147
495.804964,3182.885551,-9474.636058,995.924147
495.805287,2886.803174,-11547.212695,536.266849
495.805609,2368.659014,-12435.459826,689.485948
495.805932,1776.494261,-12065.356855,153.219100
495.806254,1184.329507,-11547.212695,-383.047749
495.806576,1110.308913,-10955.047942,229.828649
495.806899,666.185348,-10436.903782,1455.581446
495.807221,-370.102971,-8734.430116,2068.457845
495.807544,-1184.329507,-7846.182985,1762.019645
495.807866,-1628.453072,-7994.224174,1915.238745
495.808188,-2146.597232,-8068.244768,2374.896044
495.808511,-2442.679609,-7846.182985,2604.724693
495.808833,-2442.679609,-7772.162391,3524.039291
495.809156,-2072.576638,-7328.038826,3447.429741
495.809478,-1776.494261,-7254.018232,2834.553343
495.809800,-1776.494261,-7105.977043,2834.553343
495.810123,-1332.370696,-8512.368333,3140.991542
495.810445,-1332.370696,-9178.553681,2911.162892
495.810768,-1628.453072,-10288.862594,2221.676944
495.811090,-2368.659014,-11399.171507,2681.334243
495.811412,-2368.659014,-11991.336260,2681.334243
495.811735,-2590.720797,-11621.233289,2068.457845
495.812057,-2516.700203,-11547.212695,1915.238745
495.812380,-2294.638420,-11103.089130,1991.848295
495.812702,-2072.576638,-10140.821405,2374.896044
495.813025,-1702.473667,-9548.656652,2911.162892
495.813347,-1184.329507,-8956.491898,3064.381992
495.813669,-1332.370696,-8956.491898,2681.334243
495.813992,-1554.432478,-8660.409521,2221.676944
495.814314,-2146.597232,-8734.430116,1455.581446
495.814637,-2664.741391,-9474.636058,1072.533697
495.814959,-2812.782580,-10066.800811,689.485948
495.815281,-3108.864956,-10288.862594,459.657299
495.815604,-3849.070898,-9918.759623,0.000000
495.815926,-3923.091493,-9622.677246,-919.314598
495.816249,-3256.906145,-9696.697840,-1302.362347
495.816571,-2738.761985,-9252.574275,-1762.019645
495.816893,-2146.597232,-9474.636058,-1225.752797
495.817216,-1406.391290,-9622.677246,-1532.190996
495.817538,-222.061783,-10140.821405,-995.924147
495.817861,1184.329507,-10881.027347,-153.219100
495.818183,2368.659014,-9844.739029,0.000000
495.818506,3997.112087,-8290.306550,-306.438199
495.818828,5477.523971,-7179.997637,-1149.143247
495.819150,6883.915261,-6439.791695,-1532.190996
495.819473,7254.018232,-6513.812290,-1915.238745
495.819795,5773.606348,-7698.141797,-2068.457845
495.820118,2960.823768,-8290.306550,-1302.362347
495.820440,-592.164754,-9400.615463,-1149.143247
495.820762,-3552.988522,-9548.656652,-2604.724693
495.821085,-5477.523971,-11177.109724,-4673.182538
495.821407,-5625.565159,-12287.418637,-5132.839837
495.821730,-4293.194464,-11547.212695,-5132.839837
495.822052,-1480.411884,-11029.068536,-3677.258390
495.822374,1628.453072,-12805.562797,-1302.362347
495.822697,4367.215058,-13841.851115,459.657299
495.823019,5699.585753,-12213.398043,766.095498
495.823342,6217.729913,-10140.821405,1455.581446
495.823664,7254.018232,-9326.594869,2911.162892
495.823986,7476.080014,-7550.100608,1072.533697
495.824309,5847.626942,-6291.750507,689.485948
495.824631,2368.659014,-4663.297435,2451.505594
495.824954,-2072.576638,-3256.906145,2681.334243
495.825276,-5847.626942,-4885.359217,0.000000
495.825599,-8734.430116,-8364.327145,-3140.991542
495.825921,-9474.636058,-11843.295072,-4060.306139
495.826243,-9474.636058,-13249.686362,-5515.887586
495.826566,-7624.121203,-15322.262999,-4213.525239
495.826888,-5033.400406,-15840.407159,-1302.362347
495.827211,-3034.844362,-15470.304188,-459.657299
495.827533,-3182.885551,-13101.645173,-1378.971896
495.827855,-2812.782580,-10510.924376,-2604.724693
495.828178,-3108.864956,-9178.553681,-3447.429741
495.828500,-2960.823768,-8734.430116,-2451.505594
495.828823,-2960.823768,-8216.285956,1072.533697
495.829145,-2294.638420,-9030.512492,3830.477490
495.829467,-1702.473667,-8734.430116,5362.668486
495.829790,-1184.329507,-8512.368333,5592.497135
495.830112,-592.164754,-8808.450710,5515.887586
495.830435,-1480.411884,-8068.244768,5669.106685
495.830757,-2072.576638,-6587.832884,6435.202183
495.831080,-1924.535449,-4663.297435,5056.230287
495.831402,-1036.288319,-3552.988522,3140.991542
495.831724,296.082377,-4293.194464,1225.752797
495.832047,1776.494261,-6069.688724,383.047749
495.832369,2886.803174,-9178.553681,1225.752797
495.832692,4589.276840,-12065.356855,2911.162892
495.833014,5551.544565,-14063.912898,2374.896044
495.833336,5847.626942,-14137.933492,1838.629195
495.833659,4811.338623,-12213.398043,1532.190996
495.833981,3034.844362,-9696.697840,689.485948
495.834304,1628.453072,-8290.306550,-153.219100
495.834626,-1036.288319,-8438.347739,536.266849
495.834948,-4959.379811,-8364.327145,3830.477490
495.835271,-8068.244768,-7476.080014,4903.011187
495.835593,-8438.347739,-10140.821405,2604.724693
495.835916,-5625.565159,-11917.315666,995.924147
495.836239,-1998.556043,-11251.130318,766.095498
495.836561,888.247130,-8734.430116,536.266849
495.836884,5329.482782,-7031.956449,1302.362347
495.837206,9622.677246,-8216.285956,2681.334243
495.837529,10955.047942,-8512.368333,1072.533697
495.837851,7994.224174,-9622.677246,919.314598
495.838173,6439.791695,-9548.656652,3447.429741
495.838496,6069.688724,-10436.903782,-2068.457845
495.838818,6217.729913,-14582.057057,-6894.859482
495.839140,5033.400406,-16432.571912,-2221.676944
495.839463,740.205942,-10807.006753,1838.629195
495.839785,-5699.585753,-7254.018232,919.314598
495.840108,-8660.409521,-11103.089130,1915.238745
495.840430,-11399.171507,-14063.912898,-2298.286494
495.840752,-16728.654289,-12805.562797,-6665.030833
495.841075,-21614.013506,-11917.315666,0.000000
495.841397,-19541.436869,-6513.812290,3524.039291
495.841719,-11843.295072,-4145.153275,-2604.724693
495.842042,-1554.432478,-5551.544565,-5209.449386
495.842364,6143.709319,-4885.359217,-1608.800546
495.842687,8660.409521,-7402.059420,-2451.505594
495.843009,10362.883188,-11917.315666,2681.334243
495.843331,11399.171507,-12139.377449,8886.707777
495.843654,9400.615463,-8068.244768,0.000000
495.843976,6809.894666,-6957.935855,-9422.974625
495.844298,5847.626942,-11177.109724,-4136.915689
495.844621,3404.947333,-11843.295072,1608.800546
495.844943,-2812.782580,-9696.697840,2681.334243
495.845266,-9474.636058,-12287.418637,5898.935335
495.845588,-12287.418637,-12657.521608,6358.592633
495.845910,-10955.047942,-11769.274478,-2145.067394
495.846233,-9252.574275,-9844.739029,-6435.202183
495.846555,-6291.750507,-8290.306550,-153.219100
495.846877,-2368.659014,-1776.494261,4826.401637
495.847200,1776.494261,1184.329507,3753.867940
495.847522,5255.462188,-2072.576638,3677.258390
495.847845,5181.441594,-6661.853478,306.438199
495.848167,3108.864956,-10881.027347,-5132.839837
495.848489,1332.370696,-14804.118840,-2604.724693
495.848812,518.144159,-15470.304188,995.924147
495.849134,1332.370696,-13619.789333,306.438199
495.849456,2664.741391,-11991.336260,0.000000
495.849779,2516.700203,-12509.480420,153.219100
495.850101,-740.205942,-13323.706956,-383.047749
495.850424,-3256.906145,-12213.398043,306.438199
495.850746,-4737.318029,-9178.553681,1532.190996
495.851068,-2960.823768,-6883.915261,536.266849
495.851391,592.164754,-7550.100608,-1072.533697
495.851713,3849.070898,-8734.430116,536.266849
495.852035,5551.544565,-7994.224174,3524.039291
495.852358,5477.523971,-6291.750507,3524.039291
495.852680,4071.132681,-7698.141797,2451.505594
495.853003,962.267725,-9252.574275,1838.629195
495.853325,-1850.514855,-10584.944971,0.000000
495.853647,-2368.659014,-12583.501014,-3064.381992
495.853970,296.082377,-14063.912898,-3217.601092
495.854292,2812.782580,-13471.748144,-1149.143247
495.854614,2072.576638,-10066.800811,2528.115143
495.854937,-962.267725,-9844.739029,4290.134789
495.855259,-2516.700203,-11029.068536,1685.410096
495.855582,-1850.514855,-11695.253884,-2528.115143
495.855904,-2368.659014,-11177.109724,-4213.525239
495.856226,-3997.112087,-9918.759623,-383.047749
495.856549,-4515.256246,-8290.306550,4596.572988
495.856871,-3404.947333,-7698.141797,6435.202183
495.857193,-1184.329507,-8290.306550,4290.134789
495.857516,1184.329507,-6957.935855,1532.190996
495.857838,1776.494261,-3478.967927,-766.095498
495.858161,2368.659014,-2072.576638,-766.095498
495.858483,2664.741391,-3478.967927,76.609550
495.858805,2072.576638,-6439.791695,306.438199
495.859128,666.185348,-9400.615463,0.000000
495.859450,-2072.576638,-10955.047942,-536.266849
495.859772,-5477.523971,-12361.439231,-1762.019645
495.860095,-8512.368333,-14359.995275,-2451.505594
495.860417,-9326.594869,-15914.427753,-1455.581446
495.860740,-8290.306550,-14508.036463,689.485948
495.861062,-5255.462188,-10732.986159,1302.362347
495.861384,-1184.329507,-5995.668130,0.000000
495.861707,3478.967927,-2664.741391,-2298.286494
495.862029,4293.194464,-3108.864956,-2374.896044
495.862351,2442.679609,-7254.018232,995.924147
495.862674,-296.082377,-10658.965565,4826.401637
495.862996,-1850.514855,-11103.089130,3217.601092
495.863319,-148.041188,-8734.430116,-2528.115143
495.863641,4145.153275,-8364.327145,-6128.763984
495.863963,7920.203579,-9104.533087,-4136.915689
495.864286,8734.430116,-10214.842000,995.924147
495.864608,6809.894666,-9918.759623,4060.306139
495.864930,4367.215058,-9844.739029,995.924147
495.865253,1628.453072,-11917.315666,-3830.477490
495.865575,-888.247130,-15988.448347,-6894.859482
495.865898,-4367.215058,-16950.716072,-5822.325785
495.866220,-6291.750507,-14582.057057,-3217.601092
495.866542,-4959.379811,-12065.356855,-766.095498
495.866865,-2590.720797,-11399.171507,919.314598
495.867187,-1110.308913,-12287.418637,2604.724693
495.867509,-2294.638420,-9326.594869,3140.991542
495.867832,-3478.967927,-6143.709319,689.485948
495.868154,-2368.659014,-3849.070898,-2987.772442
495.868477,0.000000,-3849.070898,-2987.772442
495.868799,-148.041188,-5181.441594,76.609550
495.869121,-2442.679609,-6217.729913,2451.505594
495.869444,-2664.741391,-8290.306550,612.876398
495.869766,-814.226536,-11547.212695,-3064.381992
495.870088,1110.308913,-13471.748144,-4443.353888
495.870411,1036.288319,-12435.459826,-2068.457845
495.870733,1258.350101,-9030.512492,0.000000
495.871056,3478.967927,-5255.462188,-1915.238745
495.871378,5847.626942,-5181.441594,-3983.696590
495.871700,3923.091493,-8068.244768,-3294.210641
495.872023,-2146.597232,-10140.821405,0.000000
495.872345,-7698.141797,-10658.965565,995.924147
495.872667,-7402.059420,-10140.821405,-1225.752797
495.872990,-3478.967927,-10658.965565,-4136.915689
495.873312,74.020594,-9474.636058,-2757.943793
495.873635,2072.576638,-5699.585753,1991.848295
495.873957,2442.679609,-1702.473667,3370.820191
495.874279,3256.906145,-2442.679609,1915.238745
495.874602,1406.391290,-6439.791695,-1149.143247
495.874924,-2516.700203,-9400.615463,-2298.286494
495.875246,-5033.400406,-10807.006753,-4136.915689
495.875569,-3034.844362,-11991.336260,-6435.202183
495.875891,2294.638420,-14878.139434,-6435.202183
495.876214,4145.153275,-16062.468941,-2681.334243
495.876536,2738.761985,-14359.995275,1378.971896
495.876858,296.082377,-10955.047942,536.266849
495.877181,0.000000,-9400.615463,-5439.278036
495.877503,-1110.308913,-9474.636058,-9729.412825
495.877825,-4071.132681,-9474.636058,-7660.954980
495.878148,-7476.080014,-9326.594869,-2221.676944
495.878470,-7105.977043,-11399.171507,766.095498
495.878793,-3775.050304,-13101.645173,612.876398
495.879115,-2146.597232,-13027.624579,459.657299
495.879437,-3256.906145,-11325.150913,1991.848295
495.879760,-3108.864956,-7031.956449,2068.457845
495.880082,296.082377,-4515.256246,-1455.581446
495.880404,4367.215058,-4515.256246,-4060.306139
495.880727,4959.379811,-5625.565159,-919.314598
495.881049,3478.967927,-6883.915261,1762.019645
495.881372,2072.576638,-8216.285956,1762.019645
495.881694,3256.906145,-11547.212695,-383.047749
495.882016,4145.153275,-13545.768739,-2221.676944
495.882339,3108.864956,-12731.542202,-1838.629195
495.882661,2738.761985,-9992.780217,0.000000
495.882983,3849.070898,-6587.832884,689.485948
495.883306,5255.462188,-4293.194464,-1149.143247
495.883628,2960.823768,-4663.297435,-1378.971896
495.883951,-2368.659014,-6661.853478,0.000000
495.884273,-6291.750507,-9030.512492,0.000000
495.884595,-6143.709319,-11103.089130,-1762.019645
495.884918,-3849.070898,-13101.645173,-2145.067394
495.885240,-2368.659014,-11621.233289,536.266849
495.885562,-1332.370696,-7402.059420,2451.505594
495.885885,592.164754,-5033.400406,1838.629195
495.886207,2294.638420,-4811.338623,-153.219100
495.886530,1110.308913,-6587.832884,-2757.943793
495.886852,-2812.782580,-8882.471304,-3217.601092
495.887174,-5181.441594,-10436.903782,-2451.505594
495.887497,-3552.988522,-12287.418637,-3677.258390
495.887819,888.247130,-14063.912898,-5515.887586
495.888141,2516.700203,-14952.160028,-3677.258390
495.888464,1628.453072,-11991.336260,-306.438199
495.888786,0.000000,-8142.265362,-306.438199
495.889109,-888.247130,-8216.285956,-3140.991542
495.889431,-1924.535449,-10066.800811,-4903.011187
495.889753,-4663.297435,-9622.677246,-5745.716235
495.890076,-7698.141797,-8956.491898,-4060.306139
495.890398,-6661.853478,-8956.491898,-2757.943793
495.890720,-2368.659014,-9844.739029,-3524.039291
495.891043,518.144159,-11325.150913,-3217.601092
495.891365,0.000000,-10732.986159,459.657299
495.891688,-370.102971,-9918.759623,1302.362347
495.892010,888.247130,-8956.491898,-2451.505594
495.892332,3552.988522,-9474.636058,-5439.278036
495.892655,3404.947333,-9400.615463,-4213.525239
495.892977,1332.370696,-7105.977043,-919.314598
495.893299,1110.308913,-6809.894666,383.047749
495.893622,3627.009116,-9992.780217,-2145.067394
495.893944,4959.379811,-12879.583391,-3140.991542
495.894267,2960.823768,-12287.418637,-1378.971896
495.894589,0.000000,-8808.450710,0.000000
495.894911,74.020594,-5477.523971,-1608.800546
495.895234,2442.679609,-5107.421000,-4979.620737
495.895556,1702.473667,-6587.832884,-6358.592633
495.895878,-3108.864956,-8216.285956,-3217.601092
495.896201,-7402.059420,-9844.739029,-459.657299
495.896523,-8512.368333,-11399.171507,-536.266849
495.896846,-7105.977043,-12879.583391,-2834.553343
495.897168,-6883.915261,-12953.603985,-2987.772442
495.897490,-6069.688724,-9104.533087,-919.314598
495.897813,-1850.514855,-5107.421000,-1302.362347
495.898135,2960.823768,-3997.112087,-3217.601092
495.898457,4737.318029,-7031.956449,-2528.115143
495.898780,1332.370696,-9400.615463,689.485948
495.899102,-2516.700203,-10658.965565,1991.848295
495.899425,-2368.659014,-11547.212695,0.000000
495.899747,1480.411884,-13175.665768,-3524.039291
495.900069,4663.297435,-10732.986159,-3370.820191
495.900392,6513.812290,-7328.038826,-153.219100
495.900714,7328.038826,-4515.256246,2374.896044
495.901036,8290.306550,-5033.400406,1378.971896
495.901359,6957.935855,-7994.224174,-1378.971896
495.901681,1036.288319,-11103.089130,-2298.286494
495.902004,-5329.482782,-13323.706956,-1072.533697
495.902326,-8142.265362,-14137.933492,-1455.581446
495.902648,-5699.585753,-14211.954086,-2681.334243
495.902971,-1924.535449,-13175.665768,-1762.019645
495.903293,370.102971,-10066.800811,1455.581446
495.903615,444.123565,-5625.565159,2451.505594
495.903938,444.123565,-4219.173869,2145.067394
495.904260,222.061783,-6291.750507,-919.314598
495.904583,-2072.576638,-9400.615463,-2528.115143
495.904905,-5181.441594,-11325.150913,-1302.362347
495.905227,-5107.421000,-11991.336260,-306.438199
495.905550,-1998.556043,-12361.439231,-1838.629195
495.905872,814.226536,-12213.398043,-2221.676944
495.906194,1332.370696,-10807.006753,383.047749
495.906517,-296.082377,-7550.100608,1838.629195
495.906839,-1036.288319,-4663.297435,-1532.190996
495.907162,-444.123565,-5699.585753,-4213.525239
495.907484,-962.267725,-9326.594869,-4903.011187
495.907806,-4367.215058,-10955.047942,-2911.162892
495.908129,-7624.121203,-11251.130318,0.000000
495.908451,-6069.688724,-11991.336260,995.924147
495.908773,-2368.659014,-12435.459826,-1225.752797
495.909096,-666.185348,-11029.068536,-1149.143247
495.909418,-222.061783,-8068.244768,1072.533697
495.909741,962.267725,-5181.441594,1455.581446
495.910063,4367.215058,-4441.235652,-689.485948
495.910385,5773.606348,-5921.647536,-1762.019645
495.910708,3627.009116,-6439.791695,-612.876398
495.911030,1184.329507,-7402.059420,766.095498
495.911352,2072.576638,-8438.347739,-1302.362347
495.911675,5255.462188,-11621.233289,-4749.792088
495.911997,6735.874072,-13915.871710,-4596.572988
495.912320,5625.565159,-13989.892304,-1455.581446
495.912642,3108.864956,-9400.615463,919.314598
495.912964,2146.597232,-6439.791695,-1915.238745
495.913287,1184.329507,-6883.915261,-5898.935335
495.913609,-2812.782580,-6957.935855,-7124.688131
495.913931,-7624.121203,-8364.327145,-5286.058936
495.914254,-9992.780217,-11251.130318,-4136.915689
495.914576,-7328.038826,-14285.974681,-4596.572988
495.914899,-4737.318029,-15618.345376,-3524.039291
495.915221,-3923.091493,-13767.830521,-842.705048
495.915543,-3775.050304,-9400.615463,536.266849
495.915866,-1258.350101,-6587.832884,-1608.800546
495.916188,1480.411884,-5625.565159,-4903.011187
495.916510,1480.411884,-5551.544565,-5515.887586
495.916833,-1258.350101,-5847.626942,-4136.915689
495.917155,-2072.576638,-7698.141797,-2757.943793
495.917478,370.102971,-11103.089130,-3294.210641
495.917800,3701.029710,-13989.892304,-3830.477490
495.918122,4959.379811,-14730.098246,-2757.943793
495.918445,4367.215058,-12287.418637,-1225.752797
495.918767,3997.112087,-7772.162391,-383.047749
495.919089,3182.885551,-4663.297435,-1608.800546
495.919412,740.205942,-5921.647536,-3524.039291
495.919734,-3627.009116,-6735.874072,-3370.820191
495.920057,-7550.100608,-7254.018232,-2911.162892
495.920379,-7920.203579,-9474.636058,-3064.381992
495.920701,-4737.318029,-13545.768739,-1915.238745
495.921024,-2368.659014,-14582.057057,1149.143247
495.921346,74.020594,-11177.109724,1991.848295
495.921668,1850.514855,-4367.215058,1685.410096
495.921991,4441.235652,-2738.761985,-383.047749
495.922313,4737.318029,-4737.318029,-2145.067394
495.922636,814.226536,-6957.935855,-1378.971896
495.922958,-3849.070898,-8956.491898,0.000000
495.923280,-2960.823768,-10140.821405,-1532.190996
495.923603,1554.432478,-12065.356855,-4290.134789
495.923925,4071.132681,-12583.501014,-3677.258390
495.924247,2368.659014,-11621.233289,306.438199
495.924570,-740.205942,-8956.491898,2298.286494
495.924892,-2220.617826,-8364.327145,-536.266849
495.925215,-2590.720797,-10288.862594,-4596.572988
495.925537,-4737.318029,-10955.047942,-7048.078582
495.925859,-7624.121203,-9918.759623,-6128.763984
495.926182,-7476.080014,-9252.574275,-3064.381992
495.926504,-3627.009116,-10288.862594,-1302.362347
495.926826,0.000000,-13175.665768,-153.219100
495.927149,222.061783,-14063.912898,2068.457845
495.927471,-1776.494261,-10881.027347,2681.334243
495.927794,-1776.494261,-7846.182985,459.657299
495.928116,1184.329507,-7254.018232,-2604.724693
495.928438,3256.906145,-6661.853478,-2757.943793
495.928761,3627.009116,-4663.297435,76.609550
495.929083,3775.050304,-4071.132681,1915.238745
495.929405,6143.709319,-7328.038826,1225.752797
495.929728,8586.388927,-12879.583391,-2374.896044
495.930050,6809.894666,-16358.551318,-1762.019645
495.930373,2738.761985,-14063.912898,1072.533697
495.930695,-296.082377,-9030.512492,842.705048
495.931017,0.000000,-7031.956449,-1838.629195
495.931340,-592.164754,-6217.729913,-3294.210641
495.931662,-4367.215058,-5107.421000,-2068.457845
495.931984,-8364.327145,-5699.585753,-2068.457845
495.932307,-9030.512492,-9326.594869,-2528.115143
495.932629,-6291.750507,-14508.036463,-3294.210641
495.932952,-4589.276840,-15470.304188,-766.095498
495.933274,-4663.297435,-11991.336260,1225.752797
495.933596,-3552.988522,-7105.977043,1838.629195
495.933919,-148.041188,-3775.050304,-842.705048
495.934241,1554.432478,-2960.823768,-3983.696590
495.934563,-888.247130,-4589.276840,-3447.429741
495.934886,-3552.988522,-7105.977043,-1378.971896
495.935208,-1924.535449,-10510.924376,-1685.410096
495.935531,2368.659014,-13693.809927,-2834.553343
495.935853,5847.626942,-13915.871710,-2068.457845
495.936175,7105.977043,-11917.315666,-383.047749
495.936498,6513.812290,-9178.553681,-689.485948
495.936820,6291.750507,-7105.977043,-1149.143247
495.937142,4071.132681,-6957.935855,-3753.867940
495.937465,0.000000,-8364.327145,-4903.011187
495.937787,-4737.318029,-9474.636058,-3677.258390
495.938109,-6735.874072,-10436.903782,-2528.115143
495.938432,-3701.029710,-12139.377449,-2834.553343
495.938754,-296.082377,-13175.665768,-2145.067394
495.939076,222.061783,-11769.274478,-229.828649
495.939399,0.000000,-8068.244768,1302.362347
495.939721,592.164754,-5699.585753,-306.438199
495.940043,1258.350101,-5477.523971,-3294.210641
495.940366,740.205942,-8290.306550,-4903.011187
495.940688,-1702.473667,-9326.594869,-3600.648841
495.941010,-3034.844362,-9326.594869,-1762.019645
495.941333,-666.185348,-10140.821405,-2145.067394
495.941655,2294.638420,-12361.439231,-2834.553343
495.941977,2590.720797,-12361.439231,-2757.943793
495.942300,-962.267725,-10214.842000,-1225.752797
495.942622,-3404.947333,-7994.224174,-1991.848295
495.942944,-3256.906145,-7550.100608,-4903.011187
495.943267,-3182.885551,-8068.244768,-6665.030833
495.943589,-5033.400406,-8956.491898,-4903.011187
495.943911,-6513.812290,-9844.739029,-2911.162892
495.944234,-4959.379811,-11251.130318,-1302.362347
495.944556,-1924.535449,-12953.603985,-995.924147
495.944878,-814.226536,-13545.768739,229.828649
495.945201,-1480.411884,-10214.842000,1302.362347
495.945523,-1184.329507,-6365.771101,919.314598
495.945845,2146.597232,-4441.235652,-1915.238745
495.946168,4737.318029,-4515.256246,-2911.162892
495.946490,4441.235652,-5181.441594,-919.314598
495.946812,2368.659014,-6809.894666,0.000000
495.947135,2960.823768,-10288.862594,-612.876398
495.947457,5181.441594,-14359.995275,-1915.238745
495.947779,5107.421000,-14804.118840,-1532.190996
495.948102,2368.659014,-11843.295072,0.000000
495.948424,222.061783,-7476.080014,-612.876398
495.948746,-962.267725,-4441.235652,-2681.334243
495.949069,-1628.453072,-5033.400406,-4673.182538
495.949391,-4959.379811,-7772.162391,-4060.306139
495.949713,-8216.285956,-10288.862594,-2374.896044
495.950036,-7772.162391,-12657.521608,-3677.258390
495.950358,-5255.462188,-15248.242405,-2757.943793
495.950680,-3330.926739,-14359.995275,766.095498
495.951003,-3182.885551,-11029.068536,3370.820191
495.951325,-2368.659014,-6957.935855,2145.067394
495.951647,592.164754,-4515.256246,-995.924147
495.951970,2812.782580,-5033.400406,-3907.087040
495.952292,2368.659014,-6217.729913,-2374.896044
495.952614,74.020594,-8660.409521,1455.581446
495.952937,1258.350101,-10732.986159,3447.429741
495.953259,4441.235652,-11695.253884,766.095498
495.953581,6365.771101,-11917.315666,-919.314598
495.953904,5033.400406,-10510.924376,0.000000
495.954226,3627.009116,-8512.368333,1225.752797
495.954548,3330.926739,-5699.585753,-995.924147
495.954871,3404.947333,-4367.215058,-3907.087040
495.955193,1554.432478,-6365.771101,-4060.306139
495.955515,-2220.617826,-9030.512492,-612.876398
495.955838,-5921.647536,-11917.315666,229.828649
495.956160,-6883.915261,-14211.954086,-306.438199
495.956482,-5847.626942,-14730.098246,-1762.019645
495.956805,-4515.256246,-14359.995275,-1302.362347
495.957127,-3849.070898,-10584.944971,306.438199
495.957449,-2442.679609,-5255.462188,536.266849
495.957772,740.205942,-3849.070898,-842.705048
495.958094,2442.679609,-5107.421000,-2145.067394
495.958416,814.226536,-6661.853478,-612.876398
495.958739,-1776.494261,-8290.306550,536.266849
495.959061,-518.144159,-10362.883188,-1455.581446
495.959383,3775.050304,-13693.809927,-3983.696590
495.959706,7105.977043,-14730.098246,-3447.429741
495.960028,5773.606348,-12213.398043,919.314598
495.960350,2368.659014,-8438.347739,2757.943793
495.960673,666.185348,-6587.832884,-612.876398
495.960995,0.000000,-7698.141797,-4903.011187
495.961317,-4219.173869,-8364.327145,-7277.907231
495.961640,-8882.471304,-9474.636058,-4903.011187
495.961962,-9326.594869,-10881.027347,-2604.724693
495.962284,-6513.812290,-12509.480420,-2757.943793
495.962607,-3923.091493,-14211.954086,-1532.190996
495.962929,-4737.318029,-12583.501014,1072.533697
495.963251,-5921.647536,-8290.306550,1455.581446
495.963574,-4441.235652,-5403.503377,-1991.848295
495.963896,-1480.411884,-5699.585753,-4979.620737
495.964218,-296.082377,-7031.956449,-4596.572988
495.964541,-2072.576638,-6883.915261,-383.047749
495.964863,-296.082377,-7624.121203,1762.019645
495.965185,5181.441594,-9030.512492,-1532.190996
495.965508,10881.027347,-10362.883188,-5439.278036
495.965830,11843.295072,-10140.821405,-3294.210641
495.966152,9178.553681,-7846.182985,459.657299
495.966475,5403.503377,-6883.915261,1302.362347
495.966797,3404.947333,-9696.697840,-1225.752797
495.967119,0.000000,-11325.150913,-3370.820191
495.967442,-6069.688724,-10362.883188,-3677.258390
495.967764,-8142.265362,-9474.636058,-2834.553343
495.968086,-5847.626942,-9400.615463,-4443.353888
495.968409,-962.267725,-11473.192101,-4903.011187
495.968731,1036.288319,-10066.800811,0.000000
495.969053,-1184.329507,-6809.894666,2911.162892
495.969376,-3108.864956,-6143.709319,1149.143247
495.969698,-888.247130,-9326.594869,-4366.744339
495.970020,148.041188,-10807.006753,-7890.783629
495.970343,-2516.700203,-10436.903782,-7354.516781
495.970665,-3256.906145,-10807.006753,-1532.190996
495.970987,296.082377,-10881.027347,2451.505594
495.971310,5033.400406,-9030.512492,383.047749
495.971632,7105.977043,-8512.368333,-2298.286494
495.971954,4885.359217,-9770.718434,-2528.115143
495.972277,2738.761985,-11769.274478,-2604.724693
495.972599,2590.720797,-11177.109724,-2298.286494
495.972921,1850.514855,-9178.553681,-2451.505594
495.973244,-1406.391290,-9326.594869,-2145.067394
495.973566,-4441.235652,-10288.862594,766.095498
495.973888,-6069.688724,-9770.718434,1915.238745
495.974211,-5551.544565,-9770.718434,-459.657299
495.974533,-3775.050304,-11399.171507,-1838.629195
495.974855,-2294.638420,-10881.027347,612.876398
495.975178,-1036.288319,-7254.018232,1378.971896
495.975500,518.144159,-4959.379811,995.924147
495.975822,2072.576638,-6217.729913,229.828649
495.976145,962.267725,-7476.080014,-229.828649
495.976467,-2294.638420,-8512.368333,76.609550
495.976789,-3923.091493,-11029.068536,-383.047749
495.977112,-1776.494261,-12435.459826,-2068.457845
495.977434,2220.617826,-13175.665768,-2987.772442
495.977756,3627.009116,-11177.109724,-536.266849
495.978079,1776.494261,-7105.977043,2911.162892
495.978401,-444.123565,-4293.194464,3524.039291
495.978723,-1258.350101,-4293.194464,0.000000
495.979046,-2738.761985,-6735.874072,-3677.258390
495.979368,-5773.606348,-9474.636058,-4673.182538
495.979690,-7846.182985,-10510.924376,-3140.991542
495.980013,-6069.688724,-11251.130318,-1532.190996
495.980335,-2220.617826,-12879.583391,-383.047749
495.980657,-740.205942,-12731.542202,1532.190996
495.980980,-1850.514855,-10214.842000,3140.991542
495.981302,-2368.659014,-6957.935855,1149.143247
495.981624,-296.082377,-4959.379811,-3140.991542
495.981947,2738.761985,-6513.812290,-6588.421283
495.982269,2664.741391,-8586.388927,-4366.744339
495.982591,1184.329507,-9474.636058,1072.533697
495.982914,1554.432478,-9918.759623,2604.724693
495.983236,4219.173869,-12139.377449,-689.485948
495.983558,5847.626942,-13101.645173,-3370.820191
495.983881,4737.318029,-11621.233289,-3753.867940
495.984203,3775.050304,-7920.203579,-3064.381992
495.984525,5255.462188,-5921.647536,-3064.381992
495.984848,5773.606348,-6439.791695,-3600.648841
495.985170,2590.720797,-8438.347739,-2145.067394
495.985492,-3404.947333,-9474.636058,153.219100
495.985815,-6883.915261,-10955.047942,-2374.896044
495.986137,-5921.647536,-13249.686362,-6511.811733
495.986459,-3552.988522,-15174.221811,-6665.030833
495.986782,-1850.514855,-13841.851115,-2221.676944
495.987104,-1406.391290,-8808.450710,1225.752797
495.987426,0.000000,-5847.626942,2068.457845
495.987749,1702.473667,-5551.544565,-1455.581446
495.988071,592.164754,-6291.750507,-4826.401637
495.988393,-3701.029710,-7402.059420,-4519.963438
495.988716,-5625.565159,-9400.615463,-2528.115143
495.989038,-3627.009116,-10807.006753,-2221.676944
495.989360,1258.350101,-12287.418637,-2451.505594
495.989683,4589.276840,-12139.377449,-1532.190996
495.990005,4515.256246,-9992.780217,-842.705048
495.990327,4441.235652,-8290.306550,-1455.581446
495.990650,4071.132681,-7550.100608,-3217.601092
495.990972,1850.514855,-8364.327145,-4519.963438
495.991294,-3034.844362,-9178.553681,-3677.258390
495.991617,-7105.977043,-9252.574275,-1225.752797
495.991939,-7105.977043,-9104.533087,-1149.143247
495.992261,-4441.235652,-10955.047942,-2374.896044
495.992584,-2220.617826,-12509.480420,-1302.362347
495.992906,-3404.947333,-11029.068536,2221.676944
495.993228,-2960.823768,-8216.285956,3600.648841
495.993551,-592.164754,-5995.668130,1225.752797
495.993873,1850.514855,-6957.935855,-1838.629195
495.994195,888.247130,-7179.997637,-2528.115143
495.994518,-1628.453072,-6809.894666,-459.657299
495.994840,-1998.556043,-7550.100608,766.095498
495.995162,740.205942,-10066.800811,-919.314598
495.995485,3182.885551,-12065.356855,-1991.848295
495.995807,1776.494261,-10807.006753,0.000000
495.996129,0.000000,-8734.430116,842.705048
495.996452,-592.164754,-8216.285956,-1072.533697
495.996774,-148.041188,-9326.594869,-2528.115143
495.997096,-1480.411884,-9992.780217,-2757.943793
495.997419,-4441.235652,-8808.450710,-2374.896044
495.997741,-5181.441594,-9030.512492,-1915.238745
495.998063,-2590.720797,-10436.903782,-1302.362347
495.998386,-592.164754,-11621.233289,-919.314598
495.998708,-1036.288319,-11177.109724,1685.410096
495.999030,-1702.473667,-9400.615463,3370.820191
495.999353,-222.061783,-8142.265362,1225.752797
495.999675,1998.556043,-8808.450710,-2604.724693
495.999997,2886.803174,-9178.553681,-2757.943793
496.000320,1628.453072,-7772.162391,-459.657299
496.000642,1702.473667,-5477.523971,76.609550
496.000964,4293.194464,-6735.874072,0.000000
496.001287,6809.894666,-10955.047942,-2145.067394
496.001609,5699.585753,-12583.501014,-1991.848295
496.001931,2368.659014,-11695.253884,-1302.362347
496.002254,1184.329507,-10288.862594,-2528.115143
496.002576,3256.906145,-10066.800811,-5056.230287
496.002898,3256.906145,-9400.615463,-5286.058936
496.003221,-444.123565,-9252.574275,-2604.724693
496.003543,-4737.318029,-9548.656652,76.609550
496.003865,-4959.379811,-10362.883188,-995.924147
496.004188,-3404.947333,-11103.089130,-4519.963438
496.004510,-2590.720797,-12509.480420,-4903.011187
496.004832,-3997.112087,-11177.109724,-612.876398
496.005155,-3330.926739,-8068.244768,1685.410096
496.005477,-370.102971,-5181.441594,76.609550
496.005799,1406.391290,-5181.441594,-2221.676944
496.006122,-518.144159,-5699.585753,-1762.019645
496.006444,-4145.153275,-7105.977043,-995.924147
496.006766,-4663.297435,-9474.636058,-1762.019645
496.007089,-1184.329507,-10881.027347,-4213.525239
496.007411,2442.679609,-11843.295072,-4903.011187
496.007733,2886.803174,-11325.150913,-1455.581446
496.008056,1184.329507,-9622.677246,1455.581446
496.008378,-1036.288319,-7550.100608,0.000000
496.008700,-2146.597232,-7624.121203,-4596.572988
496.009023,-3775.050304,-9326.594869,-6358.592633
496.009345,-6513.812290,-9548.656652,-3983.696590
496.009667,-7105.977043,-9030.512492,-1455.581446
496.009990,-4441.235652,-10658.965565,-2221.676944
496.010312,-962.267725,-13693.809927,-995.924147
496.010634,740.205942,-13471.748144,1991.848295
496.010957,222.061783,-9622.677246,2911.162892
496.011279,814.226536,-5181.441594,1455.581446
496.011601,2664.741391,-4367.215058,-1378.971896
496.011924,3552.988522,-4811.338623,-2834.553343
496.012246,2220.617826,-5403.503377,-536.266849
496.012568,1406.391290,-7624.121203,1149.143247
496.012891,3034.844362,-10732.986159,-612.876398
496.013213,5403.503377,-13693.809927,-3064.381992
496.013535,3849.070898,-13915.871710,-1838.629195
496.013858,296.082377,-11917.315666,0.000000
496.014180,-444.123565,-9252.574275,-1149.143247
496.014502,814.226536,-7031.956449,-4060.306139
496.014825,518.144159,-6735.874072,-6358.592633
496.015147,-3923.091493,-8956.491898,-3907.087040
496.015469,-7698.141797,-11251.130318,-1608.800546
496.015792,-7550.100608,-13545.768739,-2604.724693
496.016114,-4663.297435,-14730.098246,-4673.182538
496.016436,-2516.700203,-13915.871710,-3447.429741
496.016759,-2220.617826,-10436.903782,306.438199
496.017081,-1036.288319,-6883.915261,2681.334243
496.017403,1776.494261,-4589.276840,612.876398
496.017726,3478.967927,-4885.359217,-2604.724693
496.018048,2738.761985,-6439.791695,-2757.943793
496.018370,1110.308913,-7698.141797,-612.876398
496.018693,740.205942,-9252.574275,-995.924147
496.019015,3997.112087,-12065.356855,-919.314598
496.019337,6809.894666,-11843.295072,-536.266849
496.019660,7105.977043,-9178.553681,-153.219100
496.019982,6661.853478,-9104.533087,-1225.752797
496.020304,5625.565159,-8290.306550,-2145.067394
496.020627,3404.947333,-7105.977043,-4443.353888
496.020949,-1258.350101,-6809.894666,-3983.696590
496.021271,-6291.750507,-8364.327145,-1608.800546
496.021594,-8512.368333,-9992.780217,-919.314598
496.021916,-7772.162391,-12065.356855,-2145.067394
496.022238,-5995.668130,-14211.954086,-2681.334243
496.022561,-5403.503377,-12657.521608,-1455.581446
496.022883,-4811.338623,-8586.388927,-306.438199
496.023205,-2072.576638,-4811.338623,-1915.238745
496.023528,592.164754,-3478.967927,-3600.648841
496.023850,0.000000,-5625.565159,-3370.820191
496.024172,-2812.782580,-7846.182985,-459.657299
496.024495,-4145.153275,-9474.636058,766.095498
496.024817,-2442.679609,-11473.192101,-2374.896044
496.025139,444.123565,-13471.748144,-5056.230287
496.025462,2072.576638,-14137.933492,-2528.115143
496.025784,1258.350101,-11251.130318,1302.362347
496.026106,1184.329507,-6661.853478,1302.362347
496.026429,2146.597232,-4737.318029,-2681.334243
496.026751,2368.659014,-6513.812290,-4903.011187
496.027073,-1702.473667,-8586.388927,-3983.696590
496.027396,-5921.647536,-10732.986159,-2221.676944
496.027718,-6143.709319,-13693.809927,-1685.410096
496.028040,-2960.823768,-15988.448347,-2298.286494
496.028363,-518.144159,-15840.407159,-919.314598
496.028685,-888.247130,-11473.192101,1838.629195
496.029007,-1184.329507,-6809.894666,2145.067394
496.029330,1702.473667,-3997.112087,-995.924147
496.029652,3997.112087,-4293.194464,-3600.648841
496.029974,2664.741391,-5107.421000,-2528.115143
496.030296,74.020594,-6883.915261,1225.752797
496.030619,-444.123565,-8142.265362,1225.752797
496.030941,3034.844362,-10658.965565,-1302.362347
496.031263,5699.585753,-12509.480420,-3370.820191
496.031586,5107.421000,-12953.603985,-1532.190996
496.031908,2886.803174,-9548.656652,1838.629195
496.032230,1406.391290,-5921.647536,1225.752797
496.032553,2072.576638,-7031.956449,-3064.381992
496.032875,74.020594,-8142.265362,-4519.963438
496.033197,-4145.153275,-8068.244768,-3064.381992
496.033520,-6883.915261,-7772.162391,-2604.724693
496.033842,-4589.276840,-10732.986159,-3064.381992
496.034164,-1702.473667,-14656.077652,-3753.867940
496.034487,-1184.329507,-14211.954086,-995.924147
496.034809,-2812.782580,-10955.047942,1378.971896
496.035131,-3034.844362,-8808.450710,536.266849
496.035454,-740.205942,-7476.080014,-2374.896044
496.035776,0.000000,-5995.668130,-4903.011187
496.036099,-1776.494261,-3923.091493,-3524.039291
496.036421,-2590.720797,-5625.565159,-1532.190996
496.036743,0.000000,-9326.594869,-1378.971896
496.037066,2960.823768,-12953.603985,-2068.457845
496.037388,4071.132681,-14730.098246,-1608.800546
496.037711,2590.720797,-13767.830521,-536.266849
496.038033,2368.659014,-10288.862594,-536.266849
496.038356,3404.947333,-6217.729913,-2911.162892
496.038678,2886.803174,-4663.297435,-5132.839837
496.039000,-444.123565,-5847.626942,-4060.306139
496.039323,-5033.400406,-7846.182985,-1532.190996
496.039645,-6957.935855,-9548.656652,-1838.629195
496.039968,-5181.441594,-13101.645173,-3600.648841
496.040290,-3404.947333,-15026.180623,-3140.991542
496.040613,-2442.679609,-13767.830521,-612.876398
496.040935,-1110.308913,-8734.430116,1225.752797
496.041257,1332.370696,-5847.626942,0.000000
496.041580,2516.700203,-5107.421000,-1915.238745
496.041902,592.164754,-5329.482782,-2987.772442
496.042225,-3034.844362,-6217.729913,-2451.505594
496.042547,-4293.194464,-8438.347739,-2528.115143
496.042870,-1184.329507,-12139.377449,-3907.087040
496.043192,2368.659014,-14137.933492,-2911.162892
496.043514,2738.761985,-12657.521608,842.705048
496.043837,1554.432478,-9548.656652,2604.724693
496.044159,666.185348,-6513.812290,229.828649
496.044482,148.041188,-6217.729913,-3447.429741
496.044804,-1702.473667,-6809.894666,-5975.544884
496.045127,-4515.256246,-7772.162391,-4903.011187
496.045449,-5107.421000,-9178.553681,-2987.772442
496.045771,-3182.885551,-10955.047942,-1072.533697
496.046094,-148.041188,-14359.995275,766.095498
496.046416,370.102971,-14508.036463,1838.629195
496.046739,-1184.329507,-12435.459826,2451.505594
496.047061,-666.185348,-8142.265362,1072.533697
496.047384,1924.535449,-5181.441594,-2374.896044
496.047706,3256.906145,-4219.173869,-3447.429741
496.048028,1628.453072,-4737.318029,-459.657299
496.048351,0.000000,-6069.688724,2221.676944
496.048673,1258.350101,-9178.553681,919.314598
496.048996,3775.050304,-13027.624579,-2374.896044
496.049318,4071.132681,-15544.324782,-2145.067394
496.049640,1332.370696,-13323.706956,306.438199
496.049963,-222.061783,-8364.327145,995.924147
496.050285,814.226536,-5255.462188,-2451.505594
496.050608,1332.370696,-5181.441594,-5209.449386
496.050930,-2146.597232,-6661.853478,-3983.696590
496.051253,-7254.018232,-7476.080014,-2451.505594
496.051575,-8882.471304,-10362.883188,-2145.067394
496.051897,-5551.544565,-14434.015869,-4136.915689
496.052220,-2294.638420,-16876.695478,-3600.648841
496.052542,-1258.350101,-14434.015869,536.266849
