#time,accel_x,accel_y,accel_z
412.379619,-592.164754,-9474.636058,-1532.190996
412.379941,-518.144159,-9622.677246,-1149.143247
412.380262,-444.123565,-9252.574275,-1378.971896
412.380584,-222.061783,-9400.615463,-1149.143247
412.380906,-222.061783,-9178.553681,-1532.190996
412.381227,-296.082377,-9030.512492,-1685.410096
412.381549,-222.061783,-9326.594869,-1685.410096
412.381870,-592.164754,-9400.615463,-1378.971896
412.382192,0.000000,-9474.636058,-1762.019645
412.382514,-814.226536,-9474.636058,-995.924147
412.382835,-444.123565,-9548.656652,-1225.752797
412.383157,-296.082377,-9326.594869,-1532.190996
412.383478,0.000000,-9178.553681,-1685.410096
412.383800,148.041188,-9030.512492,-2145.067394
412.384121,0.000000,-9178.553681,-1991.848295
412.384443,0.000000,-9400.615463,-1378.971896
412.384765,-296.082377,-9474.636058,-1608.800546
412.385086,0.000000,-9770.718434,-1685.410096
412.385408,0.000000,-9622.677246,-1455.581446
412.385729,0.000000,-9104.533087,-1915.238745
412.386051,0.000000,-9400.615463,-1532.190996
412.386373,0.000000,-9326.594869,-1455.581446
412.386694,-148.041188,-9252.574275,-1378.971896
412.387016,0.000000,-9326.594869,-1838.629195
412.387337,148.041188,-9474.636058,-2298.286494
412.387659,-222.061783,-9030.512492,-1685.410096
412.387981,0.000000,-9622.677246,-1378.971896
412.388302,-296.082377,-9548.656652,-1378.971896
412.388624,-296.082377,-9474.636058,-1532.190996
412.388945,-148.041188,-9474.636058,-1608.800546
412.389267,148.041188,-9104.533087,-1991.848295
412.389589,-444.123565,-9178.553681,-1685.410096
412.389910,-370.102971,-9474.636058,-1685.410096
412.390232,-592.164754,-9474.636058,-1455.581446
412.390553,-592.164754,-9474.636058,-1608.800546
412.390875,-592.164754,-9474.636058,-1685.410096
412.391196,-666.185348,-9178.553681,-1532.190996
412.391518,-592.164754,-9400.615463,-1608.800546
412.391840,-666.185348,-9252.574275,-1608.800546
412.392161,-592.164754,-9326.594869,-1685.410096
412.392483,-592.164754,-9326.594869,-1302.362347
412.392804,-444.123565,-9400.615463,-1225.752797
412.393126,-814.226536,-9252.574275,-1608.800546
412.393448,-740.205942,-9474.636058,-1532.190996
412.393769,-592.164754,-9474.636058,-1225.752797
412.394091,-666.185348,-9474.636058,-1455.581446
412.394412,-814.226536,-9326.594869,-1532.190996
412.394734,-666.185348,-9548.656652,-1378.971896
412.395056,-592.164754,-9400.615463,-1225.752797
412.395377,-592.164754,-9400.615463,-1225.752797
412.395699,-518.144159,-9252.574275,-1378.971896
412.396020,-370.102971,-9326.594869,-1225.752797
412.396342,0.000000,-8956.491898,-1915.238745
412.396664,-444.123565,-9178.553681,-1302.362347
412.396985,-444.123565,-9400.615463,-1302.362347
412.397307,-666.185348,-9622.677246,-1378.971896
412.397628,-444.123565,-9474.636058,-1149.143247
412.397950,0.000000,-9178.553681,-1149.143247
412.398272,1036.288319,-9770.718434,-1762.019645
412.398593,1332.370696,-9474.636058,-995.924147
412.398915,888.247130,-9400.615463,-383.047749
412.399236,444.123565,-9030.512492,-459.657299
412.399558,148.041188,-8660.409521,-1149.143247
412.399879,-444.123565,-9400.615463,-1838.629195
412.400201,-1036.288319,-9326.594869,-1302.362347
412.400523,-962.267725,-8956.491898,-1455.581446
412.400844,-370.102971,-9104.533087,-1838.629195
412.401166,518.144159,-9474.636058,-1685.410096
412.401487,740.205942,-10066.800811,-842.705048
412.401809,0.000000,-9326.594869,-919.314598
412.402131,666.185348,-9104.533087,-1915.238745
412.402452,1924.535449,-9992.780217,-2298.286494
412.402774,1776.494261,-10362.883188,-1225.752797
412.403095,1480.411884,-9474.636058,-229.828649
412.403417,1850.514855,-8512.368333,-229.828649
412.403739,3478.967927,-9474.636058,-1608.800546
412.404060,3923.091493,-9474.636058,-766.095498
412.404382,3108.864956,-8956.491898,-153.219100
412.404703,2368.659014,-7846.182985,-229.828649
412.405025,3775.050304,-8438.347739,-1225.752797
412.405347,3478.967927,-9474.636058,-1302.362347
412.405668,2590.720797,-9104.533087,-1225.752797
412.405990,2812.782580,-8512.368333,-1378.971896
412.406311,3627.009116,-8734.430116,-2221.676944
412.406633,3997.112087,-10214.842000,-2221.676944
412.406954,3701.029710,-10584.944971,-1225.752797
412.407276,3330.926739,-9918.759623,-1608.800546
412.407598,3552.988522,-10066.800811,-2145.067394
412.407919,4293.194464,-10807.006753,-1991.848295
412.408241,4071.132681,-9844.739029,-2451.505594
412.408562,3404.947333,-8734.430116,-2451.505594
412.408884,3478.967927,-9252.574275,-1915.238745
412.409206,4071.132681,-9178.553681,-1762.019645
412.409527,4885.359217,-8956.491898,-2221.676944
412.409849,5329.482782,-8956.491898,-2374.896044
412.410170,5625.565159,-9400.615463,-842.705048
412.410492,5995.668130,-9844.739029,-689.485948
412.410814,5921.647536,-8808.450710,-1225.752797
412.411135,5033.400406,-8364.327145,-1608.800546
412.411457,4071.132681,-8882.471304,-2298.286494
412.411778,2368.659014,-9696.697840,-2834.553343
412.412100,740.205942,-11325.150913,-2757.943793
412.412422,0.000000,-12731.542202,-1532.190996
412.412743,-592.164754,-13397.727550,0.000000
412.413065,-444.123565,-13101.645173,612.876398
412.413386,-296.082377,-11917.315666,995.924147
412.413708,0.000000,-10288.862594,229.828649
412.414029,296.082377,-9104.533087,689.485948
412.414351,0.000000,-7624.121203,1072.533697
412.414673,-592.164754,-6439.791695,995.924147
412.414994,-888.247130,-5181.441594,0.000000
412.415316,-814.226536,-5255.462188,-1302.362347
412.415637,370.102971,-5551.544565,-2528.115143
412.415959,1998.556043,-5773.606348,-3294.210641
412.416281,4145.153275,-6439.791695,-4136.915689
412.416602,5551.544565,-7772.162391,-4290.134789
412.416924,6661.853478,-10214.842000,-3753.867940
412.417245,5921.647536,-11843.295072,-3524.039291
412.417567,5181.441594,-13767.830521,-3064.381992
412.417889,5107.421000,-14730.098246,-2451.505594
412.418210,5033.400406,-14211.954086,-1455.581446
412.418532,3404.947333,-13101.645173,1149.143247
412.418853,2368.659014,-11177.109724,2834.553343
412.419175,1184.329507,-9252.574275,3830.477490
412.419497,1554.432478,-6217.729913,3294.210641
412.419818,1628.453072,-4515.256246,2604.724693
412.420140,1332.370696,-3849.070898,2374.896044
412.420461,592.164754,-3330.926739,1991.848295
412.420783,518.144159,-4885.359217,536.266849
412.421104,1406.391290,-7179.997637,-306.438199
412.421426,1332.370696,-8808.450710,-1685.410096
412.421748,222.061783,-10288.862594,-4213.525239
412.422069,-666.185348,-12879.583391,-4749.792088
412.422391,592.164754,-14656.077652,-5132.839837
412.422712,962.267725,-16136.489536,-5898.935335
412.423034,1184.329507,-16210.510130,-5898.935335
412.423356,1480.411884,-14359.995275,-3447.429741
412.423677,2220.617826,-10881.027347,-2145.067394
412.423999,3034.844362,-8512.368333,-2604.724693
412.424320,4219.173869,-8734.430116,-1532.190996
412.424642,4959.379811,-8660.409521,766.095498
412.424964,5551.544565,-7105.977043,2221.676944
412.425285,7105.977043,-5699.585753,3064.381992
412.425607,9252.574275,-4663.297435,2987.772442
412.425928,9326.594869,-5033.400406,2451.505594
412.426250,6661.853478,-5107.421000,3064.381992
412.426572,4367.215058,-4515.256246,2681.334243
412.426893,3552.988522,-6809.894666,-1685.410096
412.427215,2738.761985,-9696.697840,-4826.401637
412.427536,0.000000,-10732.986159,-3677.258390
412.427858,-1924.535449,-12065.356855,-2757.943793
412.428179,-2294.638420,-15174.221811,-3830.477490
412.428501,-2146.597232,-16432.571912,-4979.620737
412.428823,-2960.823768,-13767.830521,-5515.887586
412.429144,-2516.700203,-10807.006753,-4213.525239
412.429466,-962.267725,-9770.718434,-4060.306139
412.429787,1036.288319,-10066.800811,-4443.353888
412.430109,2886.803174,-8956.491898,-3677.258390
412.430431,5699.585753,-8068.244768,-1378.971896
412.430752,7179.997637,-9030.512492,383.047749
412.431074,7476.080014,-9474.636058,1762.019645
412.431395,7402.059420,-8290.306550,2068.457845
412.431717,6883.915261,-7105.977043,842.705048
412.432039,5847.626942,-7846.182985,0.000000
412.432360,4145.153275,-8956.491898,919.314598
412.432682,666.185348,-7994.224174,842.705048
412.433003,-1480.411884,-7772.162391,766.095498
412.433325,-1702.473667,-9400.615463,229.828649
412.433647,-1036.288319,-11103.089130,-1302.362347
412.433968,-1036.288319,-10362.883188,-2298.286494
412.434290,-592.164754,-9400.615463,-1838.629195
412.434611,1036.288319,-9770.718434,-1302.362347
412.434933,3404.947333,-9474.636058,-2528.115143
412.435255,4441.235652,-8882.471304,-3830.477490
412.435576,4885.359217,-9178.553681,-3600.648841
412.435898,5625.565159,-9548.656652,-2374.896044
412.436219,5033.400406,-9252.574275,-1608.800546
412.436541,3478.967927,-8808.450710,-1072.533697
412.436862,1850.514855,-7994.224174,-612.876398
412.437184,814.226536,-7179.997637,-1149.143247
412.437506,666.185348,-7550.100608,-2145.067394
412.437827,1850.514855,-8956.491898,-2604.724693
412.438149,666.185348,-9992.780217,-1532.190996
412.438470,-222.061783,-9030.512492,2221.676944
412.438792,-740.205942,-7846.182985,2911.162892
412.439114,-148.041188,-9474.636058,-383.047749
412.439435,2146.597232,-11251.130318,-3064.381992
412.439757,3330.926739,-13027.624579,-2451.505594
412.440078,3478.967927,-13989.892304,-1072.533697
412.440400,4515.256246,-13841.851115,1532.190996
412.440722,6143.709319,-12435.459826,1991.848295
412.441043,6883.915261,-10214.842000,459.657299
412.441365,7254.018232,-7105.977043,-766.095498
412.441686,7476.080014,-7031.956449,-3140.991542
412.442008,8808.450710,-9474.636058,-3677.258390
412.442330,9548.656652,-9622.677246,-995.924147
412.442651,8364.327145,-7328.038826,2298.286494
412.442973,6957.935855,-6661.853478,3064.381992
412.443294,4885.359217,-6217.729913,1838.629195
412.443616,1184.329507,-4145.153275,-1608.800546
412.443937,-2590.720797,-3701.029710,-4903.011187
412.444259,-4515.256246,-7105.977043,-4979.620737
412.444581,-4367.215058,-11621.233289,-3524.039291
412.444902,-3701.029710,-12509.480420,-3447.429741
412.445224,-2960.823768,-12435.459826,-2451.505594
412.445545,-1924.535449,-12731.542202,-1149.143247
412.445867,-1258.350101,-12435.459826,-2911.162892
412.446189,-1480.411884,-12065.356855,-4979.620737
412.446510,-296.082377,-10510.924376,-4290.134789
412.446832,1776.494261,-11473.192101,-3677.258390
412.447154,3923.091493,-13323.706956,-2145.067394
412.447475,6513.812290,-13101.645173,459.657299
412.447797,8216.285956,-10732.986159,2374.896044
412.448119,9474.636058,-7105.977043,3524.039291
412.448440,10732.986159,-5847.626942,3140.991542
412.448762,10658.965565,-6143.709319,-459.657299
412.449084,9326.594869,-6883.915261,-2374.896044
412.449406,6661.853478,-6439.791695,229.828649
412.449727,2072.576638,-5551.544565,1915.238745
412.450049,-1184.329507,-6143.709319,689.485948
412.450371,-2442.679609,-8142.265362,-2068.457845
412.450692,-4589.276840,-8512.368333,-3753.867940
412.451014,-6735.874072,-10214.842000,-4749.792088
412.451336,-8364.327145,-11769.274478,-3983.696590
412.451658,-9104.533087,-13397.727550,-3753.867940
412.451979,-9474.636058,-12731.542202,-4366.744339
412.452301,-9844.739029,-11991.336260,-4519.963438
412.452623,-9326.594869,-11991.336260,-4596.572988
412.452945,-7550.100608,-12805.562797,-4826.401637
412.453266,-5033.400406,-11399.171507,-3064.381992
412.453588,-1480.411884,-9770.718434,-842.705048
412.453910,3627.009116,-7994.224174,0.000000
412.454231,7476.080014,-5995.668130,536.266849
412.454553,9326.594869,-4663.297435,1302.362347
412.454875,9030.512492,-3330.926739,1915.238745
412.455197,7698.141797,-4367.215058,2451.505594
412.455518,5625.565159,-5995.668130,536.266849
412.455840,4737.318029,-7772.162391,-1149.143247
412.456162,4663.297435,-9474.636058,-1915.238745
412.456484,4071.132681,-11177.109724,-1302.362347
412.456805,2368.659014,-11917.315666,-766.095498
412.457127,296.082377,-11843.295072,-536.266849
412.457449,-2590.720797,-12657.521608,-1762.019645
412.457770,-5107.421000,-12953.603985,-2604.724693
412.458092,-7179.997637,-12509.480420,-3830.477490
412.458414,-7031.956449,-11843.295072,-4443.353888
412.458736,-5477.523971,-11695.253884,-2987.772442
412.459057,-3849.070898,-10732.986159,0.000000
412.459379,-2368.659014,-9252.574275,1838.629195
412.459701,-370.102971,-8438.347739,1225.752797
412.460023,1480.411884,-7402.059420,-383.047749
412.460344,2146.597232,-6365.771101,-459.657299
412.460666,740.205942,-4515.256246,-229.828649
412.460988,148.041188,-3627.009116,-842.705048
412.461309,1332.370696,-5477.523971,-1915.238745
412.461631,1554.432478,-6661.853478,-2451.505594
412.461953,592.164754,-7105.977043,-2374.896044
412.462275,-222.061783,-8512.368333,-3294.210641
412.462596,814.226536,-14137.933492,-2987.772442
412.462918,74.020594,-17098.757260,-1608.800546
412.463240,-1628.453072,-14952.160028,-1532.190996
412.463562,-1702.473667,-12731.542202,-1685.410096
412.463883,1554.432478,-13101.645173,-2528.115143
412.464205,3330.926739,-13249.686362,-2298.286494
412.464527,2886.803174,-10658.965565,0.000000
412.464848,3404.947333,-8068.244768,3294.210641
412.465170,4885.359217,-7402.059420,3753.867940
412.465492,5773.606348,-7179.997637,2145.067394
412.465814,3997.112087,-5033.400406,1149.143247
412.466135,1924.535449,-3256.906145,-153.219100
412.466457,888.247130,-3256.906145,-1302.362347
412.466779,-1184.329507,-5625.565159,-995.924147
412.467101,-3256.906145,-7105.977043,-1608.800546
412.467422,-5625.565159,-8660.409521,-3217.601092
412.467744,-7328.038826,-9770.718434,-4903.011187
412.468066,-8882.471304,-10807.006753,-5132.839837
412.468387,-9844.739029,-12731.542202,-5898.935335
412.468709,-10140.821405,-14508.036463,-5362.668486
412.469031,-9030.512492,-13915.871710,-4060.306139
412.469353,-5699.585753,-12953.603985,-4136.915689
412.469674,-1258.350101,-12731.542202,-3217.601092
412.469996,1850.514855,-11621.233289,-1608.800546
412.470318,3552.988522,-8808.450710,153.219100
412.470640,5403.503377,-5773.606348,919.314598
412.470961,7550.100608,-5181.441594,1838.629195
412.471283,7772.162391,-5107.421000,842.705048
412.471605,6661.853478,-5477.523971,383.047749
412.471926,5625.565159,-6735.874072,766.095498
412.472248,4959.379811,-7476.080014,766.095498
412.472570,3701.029710,-8364.327145,-1225.752797
412.472892,1998.556043,-9252.574275,-2757.943793
412.473213,-296.082377,-9622.677246,-2451.505594
412.473535,-3108.864956,-10807.006753,-2911.162892
412.473857,-5403.503377,-13323.706956,-3294.210641
412.474178,-6809.894666,-15322.262999,-4443.353888
412.474500,-6735.874072,-14878.139434,-4673.182538
412.474822,-4885.359217,-13545.768739,-4519.963438
412.475144,-1480.411884,-11991.336260,-3983.696590
412.475465,1036.288319,-10584.944971,-2834.553343
412.475787,1702.473667,-9548.656652,-229.828649
412.476109,518.144159,-8364.327145,1685.410096
412.476431,-814.226536,-7920.203579,842.705048
412.476752,-2072.576638,-6957.935855,-919.314598
412.477074,-1332.370696,-6143.709319,-2068.457845
412.477396,-666.185348,-5773.606348,-1149.143247
412.477717,-148.041188,-5033.400406,1685.410096
412.478039,-222.061783,-5625.565159,2451.505594
412.478361,-666.185348,-7328.038826,919.314598
412.478683,-1850.514855,-8216.285956,-1149.143247
412.479004,-3997.112087,-8364.327145,-3217.601092
412.479326,-5477.523971,-10807.006753,-3907.087040
412.479648,-5477.523971,-14359.995275,-2451.505594
412.479970,-2886.803174,-15026.180623,-1532.190996
412.480291,740.205942,-13619.789333,-1149.143247
412.480613,5033.400406,-12657.521608,0.000000
412.480935,7105.977043,-11473.192101,766.095498
412.481256,7698.141797,-8438.347739,1149.143247
412.481578,7105.977043,-6291.750507,919.314598
412.481900,6661.853478,-5181.441594,689.485948
412.482222,5107.421000,-4293.194464,-153.219100
412.482543,2812.782580,-4663.297435,-153.219100
412.482865,370.102971,-6069.688724,612.876398
412.483187,-740.205942,-7254.018232,1455.581446
412.483509,-1776.494261,-8142.265362,0.000000
412.483830,-3404.947333,-8216.285956,-995.924147
412.484152,-5995.668130,-7476.080014,-2221.676944
412.484474,-7772.162391,-9548.656652,-3524.039291
412.484795,-9252.574275,-12139.377449,-4136.915689
412.485117,-9622.677246,-13619.789333,-4673.182538
412.485439,-7402.059420,-13619.789333,-4673.182538
412.485761,-3552.988522,-13027.624579,-4213.525239
412.486082,592.164754,-12583.501014,-3064.381992
412.486404,4515.256246,-12287.418637,-2298.286494
412.486726,7031.956449,-11399.171507,-1915.238745
412.487048,8364.327145,-9400.615463,-842.705048
412.487369,7105.977043,-8068.244768,-612.876398
412.487691,5773.606348,-7254.018232,0.000000
412.488013,5181.441594,-6365.771101,76.609550
412.488334,4219.173869,-6439.791695,-1762.019645
412.488656,2072.576638,-8216.285956,-842.705048
412.488978,-888.247130,-8956.491898,1838.629195
412.489300,-3923.091493,-8586.388927,1378.971896
412.489621,-5181.441594,-9474.636058,-2221.676944
412.489943,-5699.585753,-10807.006753,-3907.087040
412.490265,-7031.956449,-11251.130318,-4213.525239
412.490587,-7402.059420,-12065.356855,-2834.553343
412.490908,-5403.503377,-13471.748144,-1762.019645
412.491230,-2294.638420,-12731.542202,-2068.457845
412.491552,740.205942,-11177.109724,-2068.457845
412.491873,3108.864956,-10732.986159,-1991.848295
412.492195,3034.844362,-9992.780217,-1072.533697
412.492517,2220.617826,-8142.265362,-1762.019645
412.492839,814.226536,-6587.832884,-1378.971896
412.493160,888.247130,-5107.421000,-1225.752797
412.493482,740.205942,-5033.400406,-1915.238745
412.493804,-222.061783,-5995.668130,-1762.019645
412.494126,-2368.659014,-7031.956449,842.705048
412.494447,-3478.967927,-7920.203579,1608.800546
412.494769,-4219.173869,-7550.100608,0.000000
412.495091,-5847.626942,-6661.853478,-995.924147
412.495412,-7698.141797,-7105.977043,-2221.676944
412.495734,-8142.265362,-9918.759623,-2757.943793
412.496056,-6069.688724,-12731.542202,-3370.820191
412.496378,-2960.823768,-13767.830521,-2604.724693
412.496699,740.205942,-13767.830521,-995.924147
412.497021,4737.318029,-12657.521608,383.047749
412.497343,7772.162391,-11177.109724,0.000000
412.497664,9178.553681,-8734.430116,-1608.800546
412.497986,8290.306550,-7179.997637,-2145.067394
412.498308,6735.874072,-6365.771101,-1455.581446
412.498630,4885.359217,-5847.626942,-1302.362347
412.498951,3256.906145,-7476.080014,-2757.943793
412.499273,1184.329507,-8290.306550,-1378.971896
412.499595,-1850.514855,-8882.471304,459.657299
412.499917,-4071.132681,-9178.553681,0.000000
412.500238,-4737.318029,-8956.491898,-2374.896044
412.500560,-5995.668130,-10807.006753,-3677.258390
412.500882,-7698.141797,-12361.439231,-3217.601092
412.501203,-8142.265362,-12065.356855,-1608.800546
412.501525,-6291.750507,-10955.047942,-2374.896044
412.501847,-2738.761985,-10955.047942,-3524.039291
412.502169,1036.288319,-11843.295072,-3140.991542
412.502490,3478.967927,-11621.233289,-1302.362347
412.502812,5255.462188,-11399.171507,-612.876398
412.503134,6291.750507,-10732.986159,-229.828649
412.503456,5921.647536,-9622.677246,0.000000
412.503777,5107.421000,-7698.141797,0.000000
412.504099,4441.235652,-6143.709319,-1149.143247
412.504421,3330.926739,-5403.503377,-1915.238745
412.504742,888.247130,-6735.874072,-612.876398
412.505064,-1998.556043,-7476.080014,1532.190996
412.505386,-4515.256246,-7698.141797,1685.410096
412.505708,-5551.544565,-8438.347739,-1302.362347
412.506029,-6143.709319,-9696.697840,-2987.772442
412.506351,-6143.709319,-10955.047942,-2987.772442
412.506673,-5255.462188,-11325.150913,-1532.190996
412.506995,-3552.988522,-10658.965565,-459.657299
412.507316,-888.247130,-9474.636058,459.657299
412.507638,1184.329507,-8586.388927,-153.219100
412.507960,3478.967927,-9252.574275,-1608.800546
412.508281,4293.194464,-10362.883188,-2681.334243
412.508603,3997.112087,-10066.800811,-1991.848295
412.508925,3552.988522,-9474.636058,-536.266849
412.509247,3627.009116,-8142.265362,536.266849
412.509568,2664.741391,-6439.791695,-383.047749
412.509890,1184.329507,-5847.626942,-1149.143247
412.510212,-1036.288319,-5847.626942,-1072.533697
412.510534,-2516.700203,-7402.059420,-1149.143247
412.510855,-4293.194464,-8216.285956,-1915.238745
412.511177,-6735.874072,-9622.677246,-689.485948
412.511499,-8586.388927,-10214.842000,-536.266849
412.511820,-8216.285956,-10658.965565,-1915.238745
412.512142,-6143.709319,-11769.274478,-4443.353888
412.512464,-3849.070898,-11991.336260,-4903.011187
412.512786,-1628.453072,-12139.377449,-2298.286494
412.513107,1110.308913,-11991.336260,-536.266849
412.513429,3849.070898,-11399.171507,-995.924147
412.513751,5477.523971,-11251.130318,-2681.334243
412.514073,5921.647536,-10658.965565,-3907.087040
412.514394,5255.462188,-9400.615463,-2528.115143
412.514716,3997.112087,-8438.347739,-1762.019645
412.515038,2812.782580,-8068.244768,-1149.143247
412.515359,1702.473667,-8364.327145,-766.095498
412.515681,-222.061783,-8438.347739,0.000000
412.516003,-2516.700203,-9252.574275,-153.219100
412.516325,-4811.338623,-9400.615463,0.000000
412.516646,-5921.647536,-9400.615463,-612.876398
412.516968,-6513.812290,-8808.450710,-1149.143247
412.517290,-5847.626942,-9252.574275,-1532.190996
412.517612,-4145.153275,-9178.553681,-2068.457845
412.517933,-2368.659014,-9474.636058,-1915.238745
412.518255,-592.164754,-9844.739029,-1685.410096
412.518577,1554.432478,-10214.842000,-766.095498
412.518898,2960.823768,-11029.068536,-995.924147
412.519220,3330.926739,-10658.965565,-1455.581446
412.519542,3404.947333,-9548.656652,-1149.143247
412.519864,3627.009116,-8290.306550,-1455.581446
412.520185,3923.091493,-7105.977043,-2145.067394
412.520507,3404.947333,-6291.750507,-1378.971896
412.520829,1702.473667,-5403.503377,153.219100
412.521150,0.000000,-6069.688724,919.314598
412.521472,-1850.514855,-8216.285956,536.266849
412.521794,-3627.009116,-9474.636058,-306.438199
412.522116,-5403.503377,-9178.553681,153.219100
412.522437,-5403.503377,-8586.388927,459.657299
412.522759,-3627.009116,-8734.430116,-1072.533697
412.523081,-1924.535449,-8734.430116,-2451.505594
412.523403,74.020594,-8956.491898,-2604.724693
412.523724,2368.659014,-10066.800811,-1532.190996
412.524046,3997.112087,-11325.150913,-1532.190996
412.524368,4737.318029,-12139.377449,-2451.505594
412.524689,4441.235652,-11769.274478,-2068.457845
412.525011,3627.009116,-11103.089130,-1685.410096
412.525333,3997.112087,-9992.780217,-3217.601092
412.525655,3552.988522,-9104.533087,-4519.963438
412.525976,2294.638420,-8142.265362,-3524.039291
412.526298,0.000000,-8068.244768,-1915.238745
412.526620,-3108.864956,-9104.533087,-766.095498
412.526942,-5477.523971,-10436.903782,-2145.067394
412.527263,-7328.038826,-11843.295072,-2604.724693
412.527585,-7402.059420,-11769.274478,-2681.334243
412.527907,-5847.626942,-10288.862594,-2298.286494
412.528228,-3256.906145,-9178.553681,-2528.115143
412.528550,-740.205942,-9400.615463,-1072.533697
412.528872,888.247130,-9400.615463,229.828649
412.529194,2516.700203,-9770.718434,-383.047749
412.529515,3330.926739,-10732.986159,-2451.505594
412.529837,4071.132681,-11621.233289,-2145.067394
412.530159,2960.823768,-11695.253884,-1608.800546
412.530481,2738.761985,-9622.677246,-995.924147
412.530802,2960.823768,-8734.430116,-1455.581446
412.531124,2220.617826,-7402.059420,-1608.800546
412.531446,74.020594,-7105.977043,-1225.752797
412.531767,-2294.638420,-7105.977043,-995.924147
412.532089,-5033.400406,-7402.059420,-1838.629195
412.532411,-7105.977043,-9104.533087,-1455.581446
412.532733,-7994.224174,-10140.821405,-1072.533697
412.533054,-7179.997637,-9474.636058,-842.705048
412.533376,-5699.585753,-8586.388927,-459.657299
412.533698,-3849.070898,-8142.265362,-1608.800546
412.534020,-2220.617826,-8068.244768,-1225.752797
412.534341,-444.123565,-7846.182985,-383.047749
412.534663,1258.350101,-8586.388927,-459.657299
412.534985,2886.803174,-9252.574275,-1685.410096
412.535306,3552.988522,-9696.697840,-1838.629195
412.535628,2960.823768,-10510.924376,-1225.752797
412.535950,3330.926739,-9548.656652,-459.657299
412.536272,3034.844362,-8734.430116,-1532.190996
412.536593,2516.700203,-7624.121203,-1762.019645
412.536915,888.247130,-7105.977043,-842.705048
412.537237,-888.247130,-7550.100608,-1838.629195
412.537559,-2812.782580,-8808.450710,-2604.724693
412.537880,-4367.215058,-10584.944971,-1455.581446
412.538202,-5403.503377,-11103.089130,-153.219100
412.538524,-4515.256246,-10955.047942,-995.924147
412.538845,-3256.906145,-10881.027347,-2374.896044
412.539167,-1480.411884,-11325.150913,-2298.286494
412.539489,0.000000,-9992.780217,-1685.410096
412.539811,1924.535449,-9400.615463,-2068.457845
412.540132,3627.009116,-9474.636058,-2451.505594
412.540454,4293.194464,-10140.821405,-2451.505594
412.540776,3701.029710,-10214.842000,-2911.162892
412.541098,3775.050304,-9696.697840,-2604.724693
412.541419,4663.297435,-10066.800811,-2604.724693
412.541741,4737.318029,-10140.821405,-3140.991542
412.542063,2960.823768,-8956.491898,-2374.896044
412.542384,740.205942,-9178.553681,-383.047749
412.542706,-1332.370696,-10214.842000,-919.314598
412.543028,-3330.926739,-10955.047942,-1991.848295
412.543350,-5551.544565,-10732.986159,-1685.410096
412.543671,-6143.709319,-9474.636058,-919.314598
412.543993,-4811.338623,-8438.347739,0.000000
412.544315,-2442.679609,-9030.512492,-842.705048
412.544636,-814.226536,-8586.388927,0.000000
412.544958,518.144159,-7476.080014,459.657299
412.545280,2146.597232,-7846.182985,0.000000
412.545602,3108.864956,-7920.203579,-1225.752797
412.545923,2220.617826,-7772.162391,-1991.848295
412.546245,962.267725,-7476.080014,-1378.971896
412.546567,740.205942,-7698.141797,-1838.629195
412.546889,814.226536,-8660.409521,-3140.991542
412.547211,-222.061783,-9104.533087,-3217.601092
412.547533,-2146.597232,-9104.533087,-1378.971896
412.547855,-2960.823768,-9696.697840,-1915.238745
412.548177,-2664.741391,-11029.068536,-2911.162892
412.548499,-3478.967927,-11769.274478,-1608.800546
412.548821,-4811.338623,-9474.636058,459.657299
412.549142,-3701.029710,-8142.265362,-229.828649
412.549464,-1184.329507,-8216.285956,-1991.848295
412.549786,1184.329507,-8882.471304,-2145.067394
412.550108,1554.432478,-8956.491898,-229.828649
412.550430,2886.803174,-8734.430116,1149.143247
412.550752,4663.297435,-8808.450710,536.266849
412.551074,5847.626942,-9622.677246,-1455.581446
412.551396,4737.318029,-9474.636058,-1991.848295
412.551718,3775.050304,-8660.409521,-2145.067394
412.552040,3330.926739,-8660.409521,-3140.991542
412.552362,2590.720797,-10066.800811,-4290.134789
412.552684,0.000000,-10288.862594,-3753.867940
412.553006,-3034.844362,-10658.965565,-2604.724693
412.553328,-4515.256246,-11843.295072,-2911.162892
412.553650,-5255.462188,-12805.562797,-4366.744339
412.553972,-6217.729913,-12361.439231,-3830.477490
412.554294,-6661.853478,-10807.006753,-2374.896044
412.554616,-5847.626942,-10436.903782,-1532.190996
412.554938,-4293.194464,-10510.924376,-1455.581446
412.555260,-2812.782580,-9770.718434,-1072.533697
412.555582,-962.267725,-8512.368333,-995.924147
412.555904,1480.411884,-8068.244768,-766.095498
412.556225,3256.906145,-7772.162391,-1608.800546
412.556547,3552.988522,-7698.141797,-153.219100
412.556869,3256.906145,-7698.141797,229.828649
412.557191,3997.112087,-8438.347739,-995.924147
412.557513,3997.112087,-9548.656652,-2757.943793
412.557835,2294.638420,-10140.821405,-2681.334243
412.558157,-222.061783,-9474.636058,-1685.410096
412.558479,-1184.329507,-9622.677246,-1302.362347
412.558801,-1628.453072,-10732.986159,-2374.896044
412.559123,-3034.844362,-11325.150913,-1838.629195
412.559445,-4885.359217,-9696.697840,-383.047749
412.559767,-5033.400406,-8734.430116,-153.219100
412.560089,-2442.679609,-8734.430116,-842.705048
412.560411,-666.185348,-8660.409521,-1072.533697
412.560733,-592.164754,-7476.080014,306.438199
412.561055,666.185348,-6365.771101,1608.800546
412.561377,2590.720797,-6661.853478,689.485948
412.561699,3108.864956,-6809.894666,-1072.533697
412.562021,2146.597232,-7105.977043,-1378.971896
412.562343,666.185348,-7105.977043,-1378.971896
412.562665,1036.288319,-8364.327145,-1532.190996
412.562987,814.226536,-9104.533087,-2604.724693
412.563308,-444.123565,-9622.677246,-3217.601092
412.563630,-1924.535449,-9474.636058,-2221.676944
412.563952,-2590.720797,-10658.965565,-2374.896044
412.564274,-3552.988522,-12361.439231,-2911.162892
412.564596,-4811.338623,-12657.521608,-2068.457845
412.564918,-5699.585753,-12435.459826,-1608.800546
412.565240,-4145.153275,-11399.171507,-1608.800546
412.565562,-1036.288319,-10510.924376,-1991.848295
412.565884,888.247130,-9770.718434,-1149.143247
412.566206,2072.576638,-7698.141797,383.047749
412.566528,4145.153275,-7476.080014,-383.047749
412.566850,5847.626942,-8586.388927,-1838.629195
412.567172,5181.441594,-9178.553681,-1072.533697
412.567494,2960.823768,-9474.636058,0.000000
412.567816,2812.782580,-9030.512492,-1608.800546
412.568138,3923.091493,-9252.574275,-3983.696590
412.568460,2812.782580,-10510.924376,-4290.134789
412.568782,0.000000,-11103.089130,-2068.457845
412.569104,-2664.741391,-10362.883188,-995.924147
412.569426,-4293.194464,-11103.089130,-2834.553343
412.569748,-5403.503377,-13027.624579,-4136.915689
412.570069,-6957.935855,-12213.398043,-2757.943793
412.570391,-7476.080014,-10066.800811,-2298.286494
412.570713,-5625.565159,-9326.594869,-1455.581446
412.571035,-2516.700203,-9474.636058,-766.095498
412.571357,-740.205942,-8512.368333,-536.266849
412.571679,1110.308913,-6957.935855,919.314598
412.572001,3034.844362,-6957.935855,842.705048
412.572323,4071.132681,-7179.997637,-229.828649
412.572645,3256.906145,-6883.915261,-306.438199
412.572967,2220.617826,-6587.832884,0.000000
412.573289,2960.823768,-6661.853478,-842.705048
412.573611,3404.947333,-7772.162391,-2451.505594
412.573933,2146.597232,-8660.409521,-2298.286494
412.574255,-888.247130,-9178.553681,-766.095498
412.574577,-2220.617826,-10288.862594,-1378.971896
412.574899,-3775.050304,-12361.439231,-2145.067394
412.575221,-5255.462188,-13249.686362,-1608.800546
412.575543,-6883.915261,-11325.150913,-1608.800546
412.575865,-5551.544565,-9326.594869,-2145.067394
412.576187,-2590.720797,-9178.553681,-2298.286494
412.576509,0.000000,-9326.594869,-995.924147
412.576831,1258.350101,-8216.285956,1225.752797
412.577152,3034.844362,-7476.080014,1532.190996
412.577474,4737.318029,-8586.388927,0.000000
412.577796,4737.318029,-8882.471304,-1072.533697
412.578118,2812.782580,-7994.224174,-1915.238745
412.578440,1776.494261,-7402.059420,-1455.581446
412.578762,2590.720797,-7624.121203,-2911.162892
412.579084,1702.473667,-8956.491898,-4060.306139
412.579406,-962.267725,-9548.656652,-3140.991542
412.579728,-3478.967927,-10436.903782,-2068.457845
412.580050,-4811.338623,-11917.315666,-2374.896044
412.580372,-5995.668130,-13101.645173,-3370.820191
412.580694,-7846.182985,-12731.542202,-3217.601092
412.581016,-7698.141797,-11325.150913,-2604.724693
412.581338,-4737.318029,-10362.883188,-2757.943793
412.581660,-888.247130,-10436.903782,-2911.162892
412.581982,1850.514855,-9696.697840,-995.924147
412.582304,3849.070898,-8216.285956,995.924147
412.582626,5107.421000,-8068.244768,1302.362347
412.582948,5699.585753,-8586.388927,459.657299
412.583270,5255.462188,-9030.512492,-612.876398
412.583592,3627.009116,-7402.059420,-766.095498
412.583914,3330.926739,-6513.812290,-1685.410096
412.584235,3256.906145,-6957.935855,-2221.676944
412.584557,1628.453072,-8512.368333,-2145.067394
412.584879,-1850.514855,-8808.450710,-1378.971896
412.585201,-3701.029710,-9844.739029,-1225.752797
412.585523,-5403.503377,-12213.398043,-2757.943793
412.585845,-7105.977043,-12879.583391,-4136.915689
412.586167,-9104.533087,-10881.027347,-2604.724693
412.586489,-8586.388927,-9104.533087,-2221.676944
412.586811,-4737.318029,-9326.594869,-2681.334243
412.587133,-592.164754,-9992.780217,-2068.457845
412.587455,1110.308913,-9474.636058,-153.219100
412.587777,2664.741391,-8660.409521,2068.457845
412.588099,4293.194464,-7846.182985,2298.286494
412.588421,5477.523971,-7476.080014,306.438199
412.588743,4737.318029,-6957.935855,-1072.533697
412.589065,3997.112087,-5329.482782,-612.876398
412.589387,3923.091493,-5551.544565,-842.705048
412.589709,3182.885551,-7254.018232,-1762.019645
412.590031,1110.308913,-8660.409521,-1455.581446
412.590353,-1184.329507,-9252.574275,-536.266849
412.590675,-2886.803174,-10955.047942,-842.705048
412.590997,-4145.153275,-12805.562797,-2374.896044
412.591318,-6069.688724,-13249.686362,-2451.505594
412.591640,-7254.018232,-11399.171507,-2298.286494
412.591962,-5699.585753,-10955.047942,-2451.505594
412.592284,-2664.741391,-11177.109724,-2604.724693
412.592606,0.000000,-10881.027347,-2298.286494
412.592928,1776.494261,-9326.594869,-919.314598
412.593250,4071.132681,-8882.471304,0.000000
412.593572,5255.462188,-9252.574275,-766.095498
412.593894,5033.400406,-9178.553681,-306.438199
412.594216,3330.926739,-8438.347739,306.438199
412.594538,1850.514855,-7698.141797,-689.485948
412.594860,1554.432478,-7031.956449,-2834.553343
412.595182,666.185348,-7698.141797,-2987.772442
412.595504,-1406.391290,-9178.553681,-1991.848295
412.595826,-3478.967927,-9918.759623,-383.047749
412.596148,-4811.338623,-10807.006753,-536.266849
412.596470,-5995.668130,-12583.501014,-2604.724693
412.596792,-6883.915261,-12805.562797,-3830.477490
412.597114,-6513.812290,-11621.233289,-3370.820191
412.597436,-4589.276840,-10436.903782,-2221.676944
412.597758,-1554.432478,-10214.842000,-306.438199
412.598080,444.123565,-8734.430116,0.000000
412.598401,2960.823768,-8216.285956,153.219100
412.598723,5329.482782,-8956.491898,-536.266849
412.599045,5773.606348,-9178.553681,-306.438199
412.599367,4959.379811,-8660.409521,1455.581446
412.599689,3701.029710,-6661.853478,1225.752797
412.600011,2886.803174,-5625.565159,0.000000
412.600333,2220.617826,-6069.688724,-2068.457845
412.600655,0.000000,-6809.894666,-2757.943793
412.600977,-2368.659014,-7105.977043,-2068.457845
412.601299,-4441.235652,-8364.327145,-1532.190996
412.601621,-6143.709319,-11103.089130,-1302.362347
412.601943,-7920.203579,-12065.356855,-1378.971896
412.602265,-9030.512492,-11325.150913,-2451.505594
412.602587,-7698.141797,-10881.027347,-3830.477490
412.602909,-4367.215058,-11251.130318,-3677.258390
412.603231,-2072.576638,-9696.697840,-1991.848295
412.603553,592.164754,-8734.430116,-612.876398
412.603875,3849.070898,-9474.636058,459.657299
412.604197,6069.688724,-9548.656652,-383.047749
412.604519,6513.812290,-8660.409521,-1225.752797
412.604841,5477.523971,-7624.121203,-995.924147
412.605163,4811.338623,-7031.956449,-919.314598
412.605484,4737.318029,-7105.977043,-1532.190996
412.605806,3552.988522,-7624.121203,-1685.410096
412.606128,888.247130,-7624.121203,-1149.143247
412.606450,-1554.432478,-8660.409521,-1455.581446
412.606772,-3478.967927,-10732.986159,-2451.505594
412.607094,-5625.565159,-13397.727550,-2757.943793
412.607416,-7698.141797,-13101.645173,-2757.943793
412.607738,-7328.038826,-11843.295072,-3064.381992
412.608060,-4145.153275,-11547.212695,-2911.162892
412.608382,-1258.350101,-10658.965565,-2221.676944
412.608704,296.082377,-9400.615463,-1685.410096
412.609026,2146.597232,-8882.471304,-1072.533697
412.609348,4663.297435,-10288.862594,-766.095498
412.609670,5477.523971,-10658.965565,0.000000
412.609992,3997.112087,-9326.594869,612.876398
412.610314,2590.720797,-7476.080014,306.438199
412.610636,3034.844362,-6883.915261,-1225.752797
412.610958,2960.823768,-7179.997637,-2681.334243
412.611280,1110.308913,-7105.977043,-1608.800546
412.611602,-1702.473667,-7031.956449,-612.876398
412.611924,-3849.070898,-8216.285956,-995.924147
412.612245,-5181.441594,-11029.068536,-2451.505594
412.612567,-6809.894666,-11991.336260,-2451.505594
412.612889,-8216.285956,-11399.171507,-2757.943793
412.613211,-6661.853478,-10362.883188,-3600.648841
412.613533,-3627.009116,-10140.821405,-1991.848295
412.613855,-814.226536,-10510.924376,-766.095498
412.614177,592.164754,-9030.512492,536.266849
412.614499,2442.679609,-8142.265362,766.095498
412.614821,4663.297435,-9104.533087,0.000000
412.615143,6143.709319,-10140.821405,-995.924147
412.615465,4811.338623,-8660.409521,153.219100
412.615787,3701.029710,-6365.771101,1302.362347
412.616109,4145.153275,-5625.565159,306.438199
412.616431,3701.029710,-6291.750507,-1072.533697
412.616753,1480.411884,-6291.750507,-1225.752797
412.617075,-1110.308913,-7031.956449,-766.095498
412.617397,-2812.782580,-8882.471304,-1455.581446
412.617719,-4441.235652,-11547.212695,-2374.896044
412.618041,-6439.791695,-12583.501014,-2068.457845
412.618363,-8068.244768,-11769.274478,-1915.238745
412.618685,-7105.977043,-11843.295072,-2834.553343
412.619007,-4885.359217,-11251.130318,-4366.744339
412.619328,-2664.741391,-10881.027347,-3753.867940
412.619650,-1184.329507,-10436.903782,-1838.629195
412.619972,1258.350101,-10436.903782,-612.876398
412.620294,3478.967927,-10807.006753,-995.924147
412.620616,4293.194464,-10140.821405,-1762.019645
412.620938,3997.112087,-8660.409521,-995.924147
412.621260,3775.050304,-7698.141797,-153.219100
412.621582,3775.050304,-7550.100608,-919.314598
412.621904,2590.720797,-7031.956449,-995.924147
412.622226,370.102971,-7402.059420,-229.828649
412.622548,-1850.514855,-8882.471304,-766.095498
412.622870,-3997.112087,-10658.965565,-1378.971896
412.623192,-5625.565159,-11769.274478,-2374.896044
412.623514,-6365.771101,-11843.295072,-2604.724693
412.623836,-5699.585753,-11177.109724,-2068.457845
412.624158,-3701.029710,-10510.924376,-2451.505594
412.624480,-1554.432478,-9844.739029,-1991.848295
412.624802,74.020594,-9252.574275,-1762.019645
412.625124,2072.576638,-9178.553681,-1455.581446
412.625446,3701.029710,-10066.800811,-1149.143247
412.625768,4589.276840,-9622.677246,-536.266849
412.626090,3775.050304,-8734.430116,229.828649
412.626411,3552.988522,-7328.038826,229.828649
412.626733,4293.194464,-7105.977043,-612.876398
412.627055,3404.947333,-6439.791695,-766.095498
412.627377,592.164754,-5033.400406,-459.657299
412.627699,-2368.659014,-5551.544565,-383.047749
412.628021,-3404.947333,-7698.141797,-1762.019645
412.628343,-5181.441594,-9770.718434,-2528.115143
412.628665,-7624.121203,-11029.068536,-1762.019645
412.628987,-8364.327145,-10658.965565,-1532.190996
412.629309,-5995.668130,-10955.047942,-2834.553343
412.629631,-2590.720797,-11695.253884,-4213.525239
412.629953,-370.102971,-11177.109724,-2298.286494
412.630275,962.267725,-9770.718434,0.000000
412.630597,3701.029710,-8808.450710,76.609550
412.630919,5847.626942,-9770.718434,-1838.629195
412.631241,6069.688724,-9326.594869,-2374.896044
412.631563,5329.482782,-8660.409521,-1378.971896
412.631885,5773.606348,-8438.347739,-919.314598
412.632207,6587.832884,-8364.327145,-1762.019645
412.632529,5625.565159,-8068.244768,-1762.019645
412.632851,2368.659014,-8660.409521,306.438199
412.633173,-962.267725,-8586.388927,76.609550
412.633494,-3627.009116,-10214.842000,-2221.676944
412.633816,-5847.626942,-11695.253884,-3447.429741
412.634138,-8290.306550,-11251.130318,-2528.115143
412.634460,-8808.450710,-9992.780217,-2221.676944
412.634782,-6217.729913,-11621.233289,-3524.039291
412.635104,-3552.988522,-12361.439231,-3140.991542
412.635426,-1850.514855,-11177.109724,-383.047749
412.635748,-518.144159,-10436.903782,536.266849
412.636070,1184.329507,-9622.677246,-689.485948
412.636392,2368.659014,-9770.718434,-2604.724693
412.636714,2072.576638,-9622.677246,-2298.286494
412.637036,1554.432478,-8364.327145,-766.095498
412.637358,2442.679609,-6735.874072,-689.485948
412.637680,3627.009116,-7179.997637,-1915.238745
412.638002,3108.864956,-8660.409521,-306.438199
412.638324,296.082377,-8808.450710,1149.143247
412.638646,-2368.659014,-8438.347739,153.219100
412.638968,-4293.194464,-10214.842000,-1455.581446
412.639290,-5033.400406,-10881.027347,-2145.067394
412.639612,-6513.812290,-9030.512492,-2068.457845
412.639934,-5255.462188,-8364.327145,-1302.362347
412.640256,-3478.967927,-9030.512492,-229.828649
412.640577,-1480.411884,-8956.491898,459.657299
412.640899,0.000000,-8808.450710,-306.438199
412.641221,1628.453072,-8956.491898,-306.438199
412.641543,2812.782580,-9622.677246,-1149.143247
412.641865,2960.823768,-9474.636058,-229.828649
412.642187,2590.720797,-7624.121203,536.266849
412.642509,3775.050304,-6587.832884,-306.438199
412.642831,4663.297435,-6735.874072,-1838.629195
412.643153,3552.988522,-7550.100608,-2528.115143
412.643475,1036.288319,-7402.059420,-842.705048
412.643797,0.000000,-7476.080014,-1302.362347
412.644119,-740.205942,-9326.594869,-2451.505594
412.644441,-2590.720797,-11325.150913,-2374.896044
412.644763,-5329.482782,-11399.171507,-1532.190996
412.645085,-5773.606348,-10732.986159,-2145.067394
412.645407,-3701.029710,-10881.027347,-3907.087040
412.645729,-1850.514855,-11177.109724,-3907.087040
412.646051,-888.247130,-10214.842000,-1991.848295
412.646373,370.102971,-9326.594869,-766.095498
412.646690,2812.782580,-10066.800811,-1915.238745
412.647012,3923.091493,-10807.006753,-2604.724693
412.647334,3923.091493,-10436.903782,-2221.676944
412.647656,3404.947333,-9770.718434,-1991.848295
412.647978,4515.256246,-9252.574275,-2145.067394
412.648300,4737.318029,-9548.656652,-3217.601092
412.648622,3552.988522,-9844.739029,-1608.800546
412.648944,1332.370696,-9400.615463,-383.047749
412.649266,-1110.308913,-9474.636058,-1302.362347
412.649588,-2886.803174,-10807.006753,-2757.943793
412.649910,-4737.318029,-11917.315666,-3064.381992
412.650232,-6143.709319,-11325.150913,-2451.505594
412.650554,-6069.688724,-9696.697840,-2221.676944
412.650876,-4441.235652,-9474.636058,-2374.896044
412.651198,-2146.597232,-9474.636058,-1915.238745
412.651520,-1110.308913,-9104.533087,-612.876398
412.651842,296.082377,-9252.574275,-153.219100
412.652164,1628.453072,-8956.491898,0.000000
412.652486,2146.597232,-8586.388927,-995.924147
412.652808,1702.473667,-7772.162391,-995.924147
412.653130,1998.556043,-7179.997637,0.000000
412.653451,2960.823768,-6365.771101,-2221.676944
412.653773,2368.659014,-7105.977043,-1991.848295
412.654095,1036.288319,-7772.162391,-536.266849
412.654417,-740.205942,-8586.388927,-306.438199
412.654739,-1998.556043,-9844.739029,-1378.971896
412.655061,-3330.926739,-11547.212695,-689.485948
412.655383,-4885.359217,-11399.171507,-459.657299
412.655705,-5329.482782,-8660.409521,-842.705048
412.656027,-4441.235652,-7920.203579,-1378.971896
412.656349,-3034.844362,-8956.491898,-1302.362347
412.656671,-2294.638420,-8808.450710,-536.266849
412.656993,-1036.288319,-8364.327145,-383.047749
412.657315,1184.329507,-9474.636058,-536.266849
412.657637,2664.741391,-10214.842000,-919.314598
412.657959,2664.741391,-9400.615463,-1608.800546
412.658281,2516.700203,-8586.388927,-1072.533697
412.658603,4145.153275,-9326.594869,-1072.533697
412.658925,4293.194464,-9548.656652,-2987.772442
412.659247,3034.844362,-9252.574275,-2681.334243
412.659569,666.185348,-9326.594869,-1225.752797
412.659891,0.000000,-10584.944971,-1762.019645
412.660213,-1036.288319,-12361.439231,-2987.772442
412.660535,-2812.782580,-12805.562797,-2451.505594
412.660856,-5477.523971,-11251.130318,-842.705048
412.661178,-5033.400406,-10066.800811,-1455.581446
412.661500,-3701.029710,-9548.656652,-2911.162892
412.661822,-2294.638420,-9622.677246,-2757.943793
412.662144,-1924.535449,-8364.327145,229.828649
412.662466,74.020594,-7994.224174,459.657299
412.662788,1850.514855,-9030.512492,-766.095498
412.663110,2516.700203,-9104.533087,-1072.533697
412.663432,2220.617826,-9400.615463,-919.314598
412.663754,2516.700203,-8882.471304,-1072.533697
412.664076,4071.132681,-8660.409521,-2604.724693
412.664398,4441.235652,-8734.430116,-2987.772442
412.664720,2812.782580,-9252.574275,-1149.143247
412.665042,0.000000,-9474.636058,229.828649
412.665364,-1628.453072,-9548.656652,-1072.533697
412.665686,-2886.803174,-11103.089130,-3064.381992
412.666008,-4515.256246,-11695.253884,-2374.896044
412.666330,-5921.647536,-9474.636058,-919.314598
412.666652,-5181.441594,-8364.327145,-536.266849
412.666974,-3034.844362,-7846.182985,-229.828649
412.667296,-1332.370696,-7624.121203,-383.047749
412.667618,-444.123565,-7105.977043,-383.047749
412.667940,518.144159,-6957.935855,-306.438199
412.668261,1110.308913,-8068.244768,-995.924147
412.668583,1110.308913,-8364.327145,-1378.971896
412.668905,1480.411884,-8660.409521,-995.924147
412.669227,2590.720797,-8956.491898,-2221.676944
412.669549,3775.050304,-9178.553681,-2528.115143
412.669871,3478.967927,-9326.594869,-2451.505594
412.670193,2072.576638,-9400.615463,-1685.410096
412.670515,814.226536,-9400.615463,-2681.334243
412.670837,-592.164754,-11029.068536,-3447.429741
412.671159,-2812.782580,-12953.603985,-2757.943793
412.671481,-4811.338623,-11695.253884,-1302.362347
412.671803,-4293.194464,-9474.636058,-2145.067394
412.672125,-2294.638420,-9252.574275,-2911.162892
412.672447,-444.123565,-8956.491898,-2068.457845
412.672769,-370.102971,-8808.450710,-459.657299
412.673091,222.061783,-8068.244768,153.219100
412.673413,1702.473667,-8882.471304,-459.657299
412.673735,2072.576638,-9400.615463,-2374.896044
412.674057,1110.308913,-9252.574275,-3217.601092
412.674379,740.205942,-8882.471304,-2068.457845
412.674701,2072.576638,-9178.553681,-2451.505594
412.675023,2886.803174,-9992.780217,-3447.429741
412.675345,1850.514855,-11251.130318,-2451.505594
412.675667,-740.205942,-11177.109724,-842.705048
412.675988,-2664.741391,-11399.171507,-1302.362347
412.676310,-4071.132681,-12287.418637,-2987.772442
412.676632,-5403.503377,-11843.295072,-2298.286494
412.676954,-6291.750507,-9770.718434,-995.924147
412.677276,-5255.462188,-8142.265362,-1225.752797
412.677598,-2812.782580,-7698.141797,-1072.533697
412.677920,-666.185348,-8142.265362,383.047749
412.678242,444.123565,-8142.265362,1302.362347
412.678564,2072.576638,-7772.162391,766.095498
412.678886,2886.803174,-7550.100608,459.657299
412.679208,2738.761985,-7920.203579,842.705048
412.679530,2516.700203,-6957.935855,0.000000
412.679852,2368.659014,-5995.668130,-1685.410096
412.680174,2960.823768,-7254.018232,-2528.115143
412.680496,2368.659014,-8882.471304,-2068.457845
412.680818,0.000000,-9696.697840,-919.314598
412.681140,-1924.535449,-10510.924376,-766.095498
412.681462,-3034.844362,-13249.686362,-1838.629195
412.681784,-4737.318029,-13693.809927,-2221.676944
412.682106,-6957.935855,-11325.150913,-1991.848295
412.682428,-6587.832884,-9030.512492,-1915.238745
412.682750,-4515.256246,-8734.430116,-1685.410096
412.683072,-3034.844362,-8290.306550,-1455.581446
412.683393,-1702.473667,-7402.059420,536.266849
412.683715,518.144159,-7328.038826,1378.971896
412.684037,3478.967927,-8290.306550,76.609550
412.684359,4663.297435,-8808.450710,-1302.362347
412.684681,4663.297435,-8216.285956,-842.705048
412.685003,4441.235652,-7624.121203,-383.047749
412.685325,4293.194464,-7328.038826,-1762.019645
412.685647,3256.906145,-8290.306550,-2911.162892
412.685969,1110.308913,-9992.780217,-2911.162892
412.686291,-1184.329507,-10807.006753,-3294.210641
412.686613,-2072.576638,-12805.562797,-4060.306139
412.686935,-2664.741391,-14878.139434,-2911.162892
412.687257,-3923.091493,-14434.015869,-1838.629195
412.687579,-4737.318029,-11843.295072,-2221.676944
412.687901,-4441.235652,-10066.800811,-2221.676944
412.688223,-3330.926739,-9030.512492,-1685.410096
412.688545,-2516.700203,-7402.059420,-2221.676944
412.688867,-1628.453072,-6439.791695,-2298.286494
412.689189,1184.329507,-7402.059420,-1302.362347
412.689511,2812.782580,-8808.450710,-306.438199
412.689833,3478.967927,-8734.430116,229.828649
412.690155,2664.741391,-8734.430116,536.266849
412.690477,3256.906145,-7920.203579,-842.705048
412.690798,4293.194464,-7550.100608,-3370.820191
412.691120,3182.885551,-8438.347739,-4136.915689
412.691442,888.247130,-9326.594869,-2451.505594
412.691764,-1184.329507,-10140.821405,-1378.971896
412.692086,-1850.514855,-12361.439231,-2298.286494
412.692408,-2516.700203,-13619.789333,-3140.991542
412.692730,-3923.091493,-12361.439231,-2068.457845
412.693052,-4367.215058,-10658.965565,-995.924147
412.693374,-2960.823768,-10362.883188,-153.219100
412.693696,-444.123565,-9252.574275,-536.266849
412.694018,592.164754,-7105.977043,-153.219100
412.694340,1554.432478,-5699.585753,153.219100
412.694662,3256.906145,-5995.668130,306.438199
412.694984,3552.988522,-6809.894666,-459.657299
412.695306,3108.864956,-7550.100608,-306.438199
412.695628,1702.473667,-7179.997637,229.828649
412.695950,2072.576638,-7846.182985,-1608.800546
412.696272,2294.638420,-9178.553681,-3447.429741
412.696594,888.247130,-10510.924376,-3140.991542
412.696916,-2368.659014,-10140.821405,-1838.629195
412.697238,-4071.132681,-11029.068536,-2757.943793
412.697560,-5255.462188,-12583.501014,-3677.258390
412.697882,-5551.544565,-13841.851115,-3447.429741
412.698203,-5773.606348,-12065.356855,-2834.553343
412.698525,-4293.194464,-9918.759623,-1685.410096
412.698847,-1776.494261,-9918.759623,-612.876398
412.699169,0.000000,-9252.574275,0.000000
412.699491,444.123565,-7254.018232,306.438199
412.699813,1554.432478,-6661.853478,0.000000
412.700135,2960.823768,-7402.059420,-1225.752797
412.700457,3478.967927,-8660.409521,-459.657299
412.700779,1480.411884,-8142.265362,0.000000
412.701101,814.226536,-8290.306550,536.266849
412.701423,1850.514855,-8734.430116,-1455.581446
412.701745,1480.411884,-10214.842000,-3907.087040
412.702067,-148.041188,-10510.924376,-2834.553343
412.702389,-2812.782580,-10955.047942,-1608.800546
412.702711,-4663.297435,-11029.068536,-2298.286494
412.703033,-5995.668130,-12065.356855,-3370.820191
412.703355,-7105.977043,-12731.542202,-3447.429741
412.703677,-7698.141797,-10955.047942,-2528.115143
412.703999,-6069.688724,-9844.739029,-1532.190996
412.704321,-3775.050304,-9474.636058,-1225.752797
412.704643,-1110.308913,-8438.347739,306.438199
412.704965,592.164754,-6735.874072,766.095498
412.705287,2368.659014,-6069.688724,689.485948
412.705608,3627.009116,-7105.977043,383.047749
412.705930,3627.009116,-6439.791695,0.000000
412.706252,3034.844362,-6439.791695,-1455.581446
412.706574,4071.132681,-7105.977043,-689.485948
412.706896,4071.132681,-7550.100608,-1378.971896
412.707218,3108.864956,-8364.327145,-2145.067394
412.707540,666.185348,-9474.636058,-842.705048
412.707862,-1480.411884,-10140.821405,-1608.800546
412.708184,-3330.926739,-11251.130318,-3217.601092
412.708506,-5255.462188,-12287.418637,-3677.258390
412.708828,-6809.894666,-12065.356855,-3140.991542
412.709150,-5403.503377,-10140.821405,-2451.505594
412.709472,-2590.720797,-10214.842000,-2987.772442
412.709794,370.102971,-9918.759623,-1072.533697
412.710116,2072.576638,-8290.306550,1762.019645
412.710438,3404.947333,-6291.750507,1532.190996
412.710760,5329.482782,-7031.956449,-306.438199
412.711082,6291.750507,-8512.368333,-1455.581446
412.711404,4663.297435,-8142.265362,-1302.362347
412.711726,3182.885551,-7476.080014,-842.705048
412.712048,3701.029710,-8586.388927,-1608.800546
412.712370,4219.173869,-9844.739029,-3217.601092
412.712692,2590.720797,-10584.944971,-3983.696590
412.713014,-592.164754,-9770.718434,-2757.943793
412.713335,-2294.638420,-11621.233289,-2834.553343
412.713657,-3330.926739,-14063.912898,-4213.525239
412.713979,-5477.523971,-14508.036463,-4290.134789
412.714301,-7920.203579,-12583.501014,-2528.115143
412.714623,-6217.729913,-12139.377449,-2451.505594
412.714945,-3775.050304,-10881.027347,-2451.505594
412.715267,-962.267725,-9622.677246,-1762.019645
412.715589,666.185348,-7698.141797,-383.047749
412.715911,3256.906145,-6809.894666,1225.752797
412.716233,5403.503377,-6883.915261,459.657299
412.716555,4811.338623,-7105.977043,459.657299
412.716877,3256.906145,-6883.915261,842.705048
412.717199,2442.679609,-6587.832884,-1149.143247
412.717521,2812.782580,-8660.409521,-2834.553343
412.717843,1628.453072,-10214.842000,-2911.162892
412.718165,-1258.350101,-9252.574275,-1455.581446
412.718487,-3923.091493,-9474.636058,-612.876398
412.718809,-4885.359217,-11621.233289,-2068.457845
412.719131,-6587.832884,-12509.480420,-4290.134789
412.719453,-8364.327145,-11621.233289,-3294.210641
412.719775,-8734.430116,-9474.636058,-1762.019645
412.720097,-5921.647536,-9030.512492,-1685.410096
412.720419,-2960.823768,-9326.594869,-2145.067394
412.720740,-1258.350101,-8808.450710,-229.828649
412.721062,0.000000,-7254.018232,1838.629195
412.721384,2590.720797,-6661.853478,1225.752797
412.721706,4071.132681,-7179.997637,0.000000
412.722028,3775.050304,-7105.977043,0.000000
412.722350,2960.823768,-6661.853478,0.000000
412.722672,3552.988522,-7402.059420,-229.828649
412.722994,4293.194464,-8660.409521,-842.705048
412.723316,3108.864956,-9252.574275,-1838.629195
412.723638,0.000000,-9474.636058,-2451.505594
412.723960,-2368.659014,-10732.986159,-2221.676944
412.724282,-4515.256246,-12953.603985,-2911.162892
412.724604,-6513.812290,-12731.542202,-3830.477490
412.724926,-6587.832884,-10584.944971,-4060.306139
412.725248,-3997.112087,-10658.965565,-3907.087040
412.725570,-740.205942,-11769.274478,-3294.210641
412.725892,814.226536,-11399.171507,-766.095498
412.726214,1998.556043,-9252.574275,1762.019645
412.726536,3775.050304,-7624.121203,1532.190996
412.726858,5847.626942,-8586.388927,-919.314598
412.727180,5329.482782,-7476.080014,-1608.800546
412.727502,3404.947333,-6217.729913,-689.485948
412.727824,3034.844362,-5995.668130,-306.438199
412.728145,4663.297435,-8364.327145,-1072.533697
412.728467,3849.070898,-10288.862594,-1991.848295
412.728789,592.164754,-10214.842000,-1915.238745
412.729111,-2442.679609,-9770.718434,-2374.896044
412.729433,-3552.988522,-11621.233289,-3600.648841
412.729755,-5699.585753,-13027.624579,-5056.230287
412.730077,-8734.430116,-12213.398043,-3830.477490
412.730399,-9252.574275,-11251.130318,-2911.162892
412.730721,-6587.832884,-11177.109724,-3294.210641
412.731043,-2516.700203,-11843.295072,-3217.601092
412.731365,0.000000,-10955.047942,-1378.971896
412.731687,2072.576638,-8956.491898,1072.533697
412.732009,4367.215058,-7550.100608,919.314598
412.732331,5921.647536,-7254.018232,612.876398
412.732653,5403.503377,-5921.647536,612.876398
412.732975,4071.132681,-4663.297435,153.219100
412.733297,4367.215058,-4811.338623,-766.095498
412.733619,4219.173869,-7402.059420,-919.314598
412.733941,2294.638420,-9178.553681,-229.828649
412.734263,-740.205942,-8660.409521,459.657299
412.734585,-2294.638420,-8808.450710,-459.657299
412.734907,-3923.091493,-11103.089130,-2834.553343
412.735229,-7105.977043,-12805.562797,-4290.134789
412.735550,-9918.759623,-12139.377449,-4060.306139
412.735872,-9474.636058,-10658.965565,-4290.134789
412.736194,-6069.688724,-11177.109724,-4213.525239
412.736516,-2960.823768,-11547.212695,-2757.943793
412.736838,-888.247130,-9622.677246,-383.047749
412.737160,1332.370696,-7402.059420,536.266849
412.737482,4811.338623,-8364.327145,-1378.971896
412.737804,6291.750507,-9030.512492,-1149.143247
412.738126,4885.359217,-7476.080014,1072.533697
412.738448,3404.947333,-5477.523971,995.924147
412.738770,4071.132681,-6069.688724,-766.095498
412.739092,4589.276840,-8216.285956,-2757.943793
412.739414,2590.720797,-8956.491898,-2451.505594
412.739736,-370.102971,-8512.368333,-1455.581446
412.740058,-1850.514855,-9696.697840,-1532.190996
412.740380,-3330.926739,-12805.562797,-3140.991542
412.740702,-5255.462188,-14656.077652,-3140.991542
412.741024,-7846.182985,-12065.356855,-2604.724693
412.741346,-7105.977043,-10658.965565,-2834.553343
412.741668,-4145.153275,-11251.130318,-3830.477490
412.741990,-1184.329507,-11325.150913,-2834.553343
412.742312,666.185348,-10066.800811,-689.485948
412.742634,2442.679609,-9104.533087,1149.143247
412.742955,4145.153275,-8956.491898,1072.533697
412.743277,4737.318029,-8660.409521,153.219100
412.743599,3775.050304,-6883.915261,-766.095498
412.743921,2886.803174,-5255.462188,0.000000
412.744243,2516.700203,-6291.750507,-383.047749
412.744565,1406.391290,-7476.080014,-383.047749
412.744887,-296.082377,-7772.162391,-1838.629195
412.745209,-2072.576638,-8364.327145,-2221.676944
412.745531,-3404.947333,-11399.171507,-1915.238745
412.745853,-5477.523971,-12879.583391,-2221.676944
412.746175,-7698.141797,-11843.295072,-2604.724693
412.746497,-7550.100608,-10066.800811,-3064.381992
412.746819,-5255.462188,-10214.842000,-3294.210641
412.747141,-2442.679609,-9992.780217,-2604.724693
412.747463,-962.267725,-9030.512492,-1455.581446
412.747785,1702.473667,-8142.265362,-229.828649
412.748107,4737.318029,-8290.306550,459.657299
412.748429,6217.729913,-8660.409521,995.924147
412.748751,5921.647536,-7846.182985,995.924147
412.749073,5699.585753,-6365.771101,0.000000
412.749395,6143.709319,-6291.750507,-842.705048
412.749716,5033.400406,-7920.203579,-459.657299
412.750038,2590.720797,-8290.306550,-383.047749
412.750360,-518.144159,-7994.224174,-1762.019645
412.750682,-2590.720797,-9622.677246,-2068.457845
412.751004,-4885.359217,-12287.418637,-2374.896044
412.751326,-7698.141797,-12583.501014,-3600.648841
412.751647,-8734.430116,-11251.130318,-4136.915689
412.751969,-6957.935855,-10807.006753,-4443.353888
412.752291,-4145.153275,-11325.150913,-3907.087040
412.752613,-1554.432478,-10881.027347,-2298.286494
412.752935,74.020594,-9696.697840,-1378.971896
412.753257,2294.638420,-10214.842000,-766.095498
412.753578,4441.235652,-10362.883188,-229.828649
412.753900,5033.400406,-9548.656652,-536.266849
412.754222,4515.256246,-7846.182985,-842.705048
412.754544,4737.318029,-6439.791695,-919.314598
412.754866,4885.359217,-6513.812290,-1072.533697
412.755188,4515.256246,-7698.141797,-1838.629195
412.755509,2220.617826,-8882.471304,-1532.190996
412.755831,-740.205942,-9326.594869,-1532.190996
412.756153,-3552.988522,-11029.068536,-2145.067394
412.756475,-5995.668130,-12509.480420,-2298.286494
412.756797,-8586.388927,-12065.356855,-3140.991542
412.757119,-9474.636058,-11103.089130,-4366.744339
412.757440,-7698.141797,-11103.089130,-4443.353888
412.757762,-4293.194464,-10955.047942,-3370.820191
412.758084,-1480.411884,-10436.903782,-2604.724693
412.758406,666.185348,-10140.821405,-306.438199
412.758728,2812.782580,-9696.697840,1302.362347
412.759050,3627.009116,-8586.388927,1225.752797
412.759371,3108.864956,-6217.729913,-229.828649
412.759693,2368.659014,-5551.544565,-995.924147
412.760015,2812.782580,-6291.750507,-919.314598
412.760337,2812.782580,-6957.935855,-459.657299
412.760659,1924.535449,-7476.080014,689.485948
412.760981,740.205942,-7624.121203,1072.533697
412.761302,0.000000,-8438.347739,229.828649
412.761624,-1554.432478,-10288.862594,-1378.971896
412.761946,-4663.297435,-11399.171507,-1838.629195
412.762268,-7254.018232,-10362.883188,-1915.238745
412.762590,-7624.121203,-9770.718434,-3217.601092
412.762911,-5995.668130,-10214.842000,-4060.306139
412.763233,-3923.091493,-10510.924376,-3140.991542
412.763555,-2146.597232,-9548.656652,-1225.752797
412.763877,814.226536,-8956.491898,-383.047749
412.764199,4367.215058,-9252.574275,-306.438199
412.764521,6661.853478,-9770.718434,-612.876398
412.764842,6217.729913,-8808.450710,0.000000
412.765164,5403.503377,-7550.100608,536.266849
412.765486,4885.359217,-6883.915261,-689.485948
412.765808,4219.173869,-7031.956449,-2221.676944
412.766130,3034.844362,-8068.244768,-2604.724693
412.766452,370.102971,-8586.388927,-2374.896044
412.766773,-888.247130,-10362.883188,-1302.362347
412.767095,-2738.761985,-12509.480420,-1532.190996
412.767417,-4737.318029,-12879.583391,-2374.896044
412.767739,-6143.709319,-11991.336260,-3447.429741
412.768061,-5403.503377,-11843.295072,-3600.648841
412.768383,-3330.926739,-11843.295072,-4366.744339
412.768704,-1628.453072,-10732.986159,-2757.943793
412.769026,0.000000,-9992.780217,-383.047749
412.769348,1924.535449,-9918.759623,1302.362347
412.769670,3478.967927,-9326.594869,306.438199
412.769992,3701.029710,-8290.306550,-842.705048
412.770314,3404.947333,-7920.203579,-1685.410096
412.770635,3775.050304,-7550.100608,-995.924147
412.770957,3108.864956,-6735.874072,-612.876398
412.771279,2368.659014,-7624.121203,-689.485948
412.771601,1184.329507,-8956.491898,-229.828649
412.771923,-592.164754,-9104.533087,-1991.848295
412.772245,-2960.823768,-9918.759623,-2528.115143
412.772566,-5847.626942,-11621.233289,-2681.334243
412.772888,-7772.162391,-11843.295072,-2068.457845
412.773210,-8586.388927,-11177.109724,-2451.505594
412.773532,-6957.935855,-10140.821405,-2757.943793
412.773854,-4811.338623,-9178.553681,-2451.505594
412.774176,-2516.700203,-7698.141797,-1762.019645
412.774497,-222.061783,-7402.059420,-1149.143247
412.774819,2738.761985,-7402.059420,76.609550
412.775141,4811.338623,-7624.121203,-229.828649
412.775463,4737.318029,-8512.368333,612.876398
412.775785,3849.070898,-8364.327145,1378.971896
412.776107,3775.050304,-7550.100608,229.828649
412.776428,3997.112087,-7994.224174,-1225.752797
412.776750,2960.823768,-8734.430116,-1455.581446
412.777072,1184.329507,-8660.409521,-1455.581446
412.777394,-1184.329507,-9252.574275,-1072.533697
412.777716,-3627.009116,-11769.274478,-1225.752797
412.778038,-5625.565159,-12509.480420,-1532.190996
412.778359,-7105.977043,-11325.150913,-3064.381992
412.778681,-6587.832884,-10288.862594,-4596.572988
412.779003,-5699.585753,-10362.883188,-3524.039291
412.779325,-4737.318029,-9622.677246,-1302.362347
412.779647,-3701.029710,-8586.388927,-612.876398
412.779968,-888.247130,-9030.512492,-919.314598
412.780290,1776.494261,-10214.842000,-919.314598
412.780612,2886.803174,-10140.821405,-1149.143247
412.780934,3034.844362,-9326.594869,-766.095498
412.781256,4515.256246,-8660.409521,-689.485948
412.781578,5921.647536,-9030.512492,-1302.362347
412.781899,5477.523971,-8956.491898,-2221.676944
412.782221,3034.844362,-8586.388927,-1762.019645
412.782543,444.123565,-9474.636058,-1608.800546
412.782865,-1332.370696,-11769.274478,-2451.505594
412.783187,-3404.947333,-13175.665768,-2451.505594
412.783509,-5847.626942,-12213.398043,-1608.800546
412.783830,-5995.668130,-10584.944971,-919.314598
412.784152,-4219.173869,-9622.677246,-1532.190996
412.784474,-2664.741391,-7994.224174,-1838.629195
412.784796,-1850.514855,-6291.750507,-1685.410096
412.785118,0.000000,-6587.832884,-919.314598
412.785440,1628.453072,-8068.244768,-153.219100
412.785761,1998.556043,-8956.491898,0.000000
412.786083,1998.556043,-8956.491898,689.485948
412.786405,2886.803174,-7772.162391,0.000000
412.786727,4885.359217,-7698.141797,-1991.848295
412.787049,5847.626942,-8290.306550,-1915.238745
412.787371,4441.235652,-7698.141797,0.000000
412.787692,1480.411884,-7624.121203,0.000000
412.788014,222.061783,-9474.636058,-1378.971896
412.788336,-1258.350101,-11917.315666,-2604.724693
412.788658,-3849.070898,-11991.336260,-2451.505594
412.788980,-6439.791695,-9992.780217,-2374.896044
412.789302,-6883.915261,-9696.697840,-2451.505594
412.789623,-4811.338623,-9548.656652,-2374.896044
412.789945,-3108.864956,-8290.306550,-1762.019645
412.790267,-1998.556043,-7105.977043,-1378.971896
412.790589,1036.288319,-7624.121203,-842.705048
412.790911,3775.050304,-8956.491898,-1302.362347
412.791233,4367.215058,-9992.780217,-1608.800546
412.791554,3552.988522,-9770.718434,-306.438199
412.791876,3923.091493,-9104.533087,-229.828649
412.792198,4959.379811,-9252.574275,-2604.724693
412.792520,4441.235652,-9326.594869,-3370.820191
412.792842,3108.864956,-9252.574275,-2451.505594
412.793164,592.164754,-9622.677246,-1532.190996
412.793485,-1184.329507,-11251.130318,-1991.848295
412.793807,-3108.864956,-12805.562797,-2528.115143
412.794129,-6439.791695,-12583.501014,-2757.943793
412.794451,-7994.224174,-11177.109724,-2911.162892
412.794773,-7476.080014,-10510.924376,-2604.724693
412.795094,-5033.400406,-9474.636058,-2604.724693
412.795416,-3108.864956,-8364.327145,-1915.238745
412.795738,-1998.556043,-7846.182985,0.000000
412.796060,-222.061783,-8512.368333,1225.752797
412.796382,1480.411884,-9326.594869,-536.266849
412.796704,2146.597232,-9326.594869,-1455.581446
412.797025,2220.617826,-8882.471304,-1225.752797
412.797347,2516.700203,-8290.306550,-1225.752797
412.797669,2664.741391,-8290.306550,-1915.238745
412.797991,2220.617826,-8882.471304,-1149.143247
412.798313,592.164754,-8956.491898,-1302.362347
412.798635,-814.226536,-9918.759623,-2145.067394
412.798956,-2664.741391,-11843.295072,-2221.676944
412.799278,-5995.668130,-12657.521608,-919.314598
412.799600,-8882.471304,-11695.253884,0.000000
412.799922,-9030.512492,-8586.388927,-459.657299
412.800244,-6291.750507,-7994.224174,-2451.505594
412.800566,-3849.070898,-7920.203579,-2528.115143
412.800887,-2960.823768,-6439.791695,0.000000
412.801209,-1924.535449,-5329.482782,2681.334243
412.801531,222.061783,-6809.894666,1685.410096
412.801853,888.247130,-8438.347739,-153.219100
412.802175,-444.123565,-8956.491898,-1149.143247
412.802497,-1332.370696,-7846.182985,-1072.533697
412.802818,-444.123565,-8068.244768,-1608.800546
412.803140,740.205942,-9252.574275,-3140.991542
412.803462,0.000000,-9400.615463,-1608.800546
412.803784,-1924.535449,-9178.553681,-995.924147
412.804106,-3182.885551,-10362.883188,-1991.848295
412.804428,-4367.215058,-12139.377449,-3753.867940
412.804749,-5847.626942,-11769.274478,-4596.572988
412.805071,-7698.141797,-11547.212695,-3600.648841
412.805393,-7994.224174,-10955.047942,-1685.410096
412.805715,-6809.894666,-10510.924376,-1072.533697
412.806037,-4737.318029,-9474.636058,-1532.190996
412.806359,-2664.741391,-7994.224174,229.828649
412.806680,-666.185348,-7105.977043,459.657299
412.807002,1406.391290,-7105.977043,-766.095498
412.807324,2072.576638,-7698.141797,-689.485948
412.807646,1480.411884,-7994.224174,383.047749
412.807968,814.226536,-8142.265362,-306.438199
412.808290,666.185348,-8586.388927,-3753.867940
412.808611,1110.308913,-10066.800811,-4826.401637
412.808933,-370.102971,-11843.295072,-3907.087040
412.809255,-2368.659014,-12213.398043,-1685.410096
412.809577,-4515.256246,-12657.521608,-919.314598
412.809899,-5921.647536,-12805.562797,-1991.848295
412.810221,-7550.100608,-11843.295072,-3677.258390
412.810542,-9844.739029,-9992.780217,-4673.182538
412.810864,-11991.336260,-9030.512492,-3600.648841
412.811186,-13027.624579,-8512.368333,-1302.362347
412.811508,-11695.253884,-8142.265362,-1225.752797
412.811830,-8364.327145,-7402.059420,-1991.848295
412.812151,-5033.400406,-8364.327145,-1149.143247
412.812473,-2442.679609,-8586.388927,76.609550
412.812795,-296.082377,-7328.038826,842.705048
412.813117,2368.659014,-6069.688724,0.000000
412.813439,4293.194464,-5847.626942,-766.095498
412.813761,3701.029710,-6883.915261,-1455.581446
412.814082,740.205942,-7254.018232,-2298.286494
412.814404,-2072.576638,-8956.491898,-2834.553343
412.814726,-3108.864956,-12065.356855,-3064.381992
412.815048,-4589.276840,-13397.727550,-3217.601092
412.815370,-5329.482782,-12213.398043,-2834.553343
412.815692,-5403.503377,-11103.089130,-2374.896044
412.816013,-4959.379811,-10288.862594,-1915.238745
412.816335,-5403.503377,-8882.471304,-995.924147
412.816657,-6513.812290,-7550.100608,-306.438199
412.816979,-6513.812290,-6735.874072,-612.876398
412.817301,-5699.585753,-8438.347739,-1302.362347
412.817623,-5329.482782,-9992.780217,-536.266849
412.817944,-4811.338623,-10955.047942,1455.581446
412.818266,-3478.967927,-9696.697840,2298.286494
412.818588,-1036.288319,-8734.430116,766.095498
412.818910,222.061783,-8068.244768,-766.095498
412.819232,814.226536,-7105.977043,-2068.457845
412.819554,148.041188,-6661.853478,-2298.286494
412.819875,0.000000,-7698.141797,-2451.505594
412.820197,0.000000,-8956.491898,-3370.820191
412.820519,-444.123565,-9696.697840,-4060.306139
412.820841,-1850.514855,-11029.068536,-4136.915689
412.821163,-2960.823768,-11547.212695,-3677.258390
412.821485,-3775.050304,-11621.233289,-4136.915689
412.821806,-3849.070898,-11843.295072,-4366.744339
412.822128,-4663.297435,-12583.501014,-3907.087040
412.822450,-4811.338623,-11843.295072,-2221.676944
412.822772,-4811.338623,-9844.739029,-1915.238745
412.823094,-4293.194464,-8808.450710,-995.924147
412.823416,-3478.967927,-7846.182985,0.000000
412.823737,-3256.906145,-7402.059420,766.095498
412.824059,-2960.823768,-7772.162391,1072.533697
412.824381,-2072.576638,-8660.409521,1991.848295
412.824703,-814.226536,-8290.306550,1762.019645
412.825025,518.144159,-7179.997637,1072.533697
412.825347,2442.679609,-6439.791695,76.609550
412.825668,4737.318029,-7402.059420,-2298.286494
412.825990,4219.173869,-9622.677246,-3830.477490
412.826312,2442.679609,-10881.027347,-2681.334243
412.826634,-814.226536,-12805.562797,-1455.581446
412.826956,-5699.585753,-14804.118840,-1378.971896
412.827277,-9696.697840,-13915.871710,-1915.238745
412.827599,-12139.377449,-10584.944971,-4366.744339
412.827921,-12953.603985,-8512.368333,-6665.030833
412.828243,-13101.645173,-8068.244768,-5286.058936
412.828565,-13545.768739,-6291.750507,-2068.457845
412.828887,-11991.336260,-4885.359217,-1072.533697
412.829208,-9030.512492,-5921.647536,-2068.457845
412.829530,-5699.585753,-9178.553681,-2221.676944
412.829852,-3775.050304,-10288.862594,-1225.752797
412.830174,-2886.803174,-9474.636058,536.266849
412.830496,-740.205942,-8512.368333,306.438199
412.830818,2812.782580,-8734.430116,-1149.143247
412.831139,4737.318029,-8142.265362,-1991.848295
412.831461,3849.070898,-7179.997637,-1608.800546
412.831783,2442.679609,-6809.894666,-1225.752797
412.832105,592.164754,-9178.553681,-1838.629195
412.832427,-1332.370696,-11843.295072,-2298.286494
412.832749,-4145.153275,-13027.624579,-1149.143247
412.833070,-6069.688724,-13323.706956,-1072.533697
412.833392,-7105.977043,-11843.295072,-1149.143247
412.833714,-7550.100608,-10066.800811,-919.314598
412.834036,-7772.162391,-7846.182985,0.000000
412.834358,-6883.915261,-6143.709319,-995.924147
412.834680,-5699.585753,-5329.482782,-2911.162892
412.835001,-4515.256246,-6143.709319,-2911.162892
412.835323,-3701.029710,-6883.915261,-1378.971896
412.835645,-3552.988522,-7105.977043,-2068.457845
412.835967,-2516.700203,-9474.636058,-4290.134789
412.836289,-1628.453072,-12879.583391,-3983.696590
412.836611,-1628.453072,-14211.954086,-3370.820191
412.836932,-2294.638420,-13249.686362,-2221.676944
412.837254,-2146.597232,-12953.603985,-1149.143247
412.837576,-1554.432478,-12805.562797,-1149.143247
412.837898,-2812.782580,-10288.862594,-689.485948
412.838220,-3849.070898,-8734.430116,-306.438199
412.838542,-4589.276840,-6957.935855,0.000000
412.838863,-4663.297435,-5921.647536,-766.095498
412.839185,-4589.276840,-5921.647536,-1838.629195
412.839507,-3182.885551,-6143.709319,-1608.800546
412.839829,-2220.617826,-7994.224174,-1378.971896
412.840151,-1332.370696,-9252.574275,-1915.238745
412.840473,-1258.350101,-10066.800811,-1378.971896
412.840794,-1776.494261,-9918.759623,-1378.971896
412.841116,-2590.720797,-10658.965565,-2451.505594
412.841438,-3849.070898,-12139.377449,-3294.210641
412.841760,-3997.112087,-14211.954086,-2757.943793
412.842082,-4071.132681,-15026.180623,-1072.533697
412.842404,-3108.864956,-13841.851115,536.266849
412.842725,-1628.453072,-11917.315666,2298.286494
412.843047,296.082377,-9696.697840,2757.943793
412.843369,592.164754,-8142.265362,2911.162892
412.843691,370.102971,-7179.997637,3064.381992
412.844013,0.000000,-5995.668130,3140.991542
412.844334,-1850.514855,-4885.359217,3294.210641
412.844656,-4737.318029,-3701.029710,4136.915689
412.844978,-7476.080014,-2738.761985,2987.772442
412.845300,-8142.265362,-3256.906145,-842.705048
412.845622,-7105.977043,-4441.235652,-5286.058936
412.845944,-6439.791695,-5551.544565,-5822.325785
412.846265,-6439.791695,-8142.265362,-4979.620737
412.846587,-5847.626942,-13175.665768,-3600.648841
412.846909,-5625.565159,-17024.736666,-2681.334243
412.847231,-5773.606348,-16506.592507,-3753.867940
412.847553,-4589.276840,-15840.407159,-4826.401637
412.847875,-2516.700203,-14582.057057,-2911.162892
412.848196,-2368.659014,-11325.150913,-536.266849
412.848518,-2368.659014,-7624.121203,2145.067394
412.848840,-1924.535449,-4811.338623,4749.792088
412.849162,-1332.370696,-4145.153275,3983.696590
412.849484,-592.164754,-4145.153275,1455.581446
412.849806,-296.082377,-6069.688724,383.047749
412.850128,-962.267725,-8512.368333,2221.676944
412.850449,-1406.391290,-10214.842000,3907.087040
412.850771,-148.041188,-10881.027347,2911.162892
412.851093,1776.494261,-9770.718434,-766.095498
412.851415,2664.741391,-8512.368333,-3753.867940
412.851737,2294.638420,-9696.697840,-4826.401637
412.852059,1036.288319,-13989.892304,-3753.867940
412.852381,296.082377,-16876.695478,-3140.991542
412.852703,740.205942,-17246.798449,-2757.943793
412.853025,1628.453072,-17098.757260,-1149.143247
412.853346,2368.659014,-15470.304188,612.876398
412.853668,1480.411884,-11473.192101,1072.533697
412.853990,-370.102971,-7624.121203,1838.629195
412.854312,-888.247130,-4293.194464,3370.820191
412.854634,-222.061783,-2516.700203,3140.991542
412.854956,74.020594,-1110.308913,842.705048
412.855278,962.267725,-814.226536,842.705048
412.855600,1628.453072,-3923.091493,1915.238745
412.855922,1406.391290,-7402.059420,3217.601092
412.856243,814.226536,-8660.409521,2757.943793
412.856565,1406.391290,-10807.006753,-1532.190996
412.856887,1850.514855,-12657.521608,-5362.668486
412.857209,740.205942,-12435.459826,-4290.134789
412.857531,-962.267725,-13397.727550,-2451.505594
412.857853,-2368.659014,-15766.386565,-842.705048
412.858175,-2368.659014,-16506.592507,0.000000
412.858497,-2886.803174,-14730.098246,153.219100
412.858819,-2886.803174,-13767.830521,1915.238745
412.859140,-2812.782580,-12657.521608,4290.134789
412.859462,-3034.844362,-9918.759623,5286.058936
412.859784,-3701.029710,-7105.977043,6435.202183
412.860106,-3034.844362,-5625.565159,6971.469032
412.860428,-3034.844362,-5699.585753,5592.497135
412.860750,-3923.091493,-6365.771101,4826.401637
412.861072,-3478.967927,-6957.935855,5592.497135
412.861394,-296.082377,-7105.977043,4290.134789
412.861716,3552.988522,-6587.832884,1455.581446
412.862037,4959.379811,-4293.194464,1378.971896
412.862359,3701.029710,-3849.070898,1302.362347
412.862681,2072.576638,-7994.224174,-766.095498
412.863003,222.061783,-11991.336260,-3524.039291
412.863325,-2812.782580,-14211.954086,-4749.792088
412.863647,-7105.977043,-16728.654289,-3294.210641
412.863969,-10140.821405,-19023.292709,383.047749
412.864291,-11843.295072,-17394.839637,4136.915689
412.864613,-11621.233289,-12953.603985,4136.915689
412.864934,-9030.512492,-10658.965565,4060.306139
412.865256,-6809.894666,-9474.636058,4903.011187
412.865578,-5107.421000,-8290.306550,7048.078582
412.865900,-3997.112087,-4515.256246,9806.022374
412.866222,-1036.288319,-296.082377,12180.918418
412.866544,3478.967927,2072.576638,9039.926876
412.866866,8142.265362,370.102971,2911.162892
412.867188,9770.718434,-2516.700203,536.266849
412.867510,8216.285956,-6217.729913,2757.943793
412.867831,5551.544565,-11251.130318,5132.839837
412.868153,3552.988522,-18135.045579,4136.915689
412.868475,962.267725,-20281.642811,-153.219100
412.868797,-1998.556043,-18653.189738,-3830.477490
412.869119,-3330.926739,-17246.798449,-3370.820191
412.869441,-3182.885551,-14952.160028,-766.095498
412.869763,-3256.906145,-9252.574275,0.000000
412.870085,-3108.864956,-3997.112087,0.000000
412.870407,-2220.617826,-4885.359217,2221.676944
412.870728,-2072.576638,-7402.059420,3370.820191
412.871050,-3478.967927,-6809.894666,1915.238745
412.871372,-3182.885551,-7179.997637,2757.943793
412.871694,222.061783,-8586.388927,4673.182538
412.872016,2738.761985,-10436.903782,6205.373534
412.872338,2886.803174,-7994.224174,7737.564530
412.872660,5403.503377,-3108.864956,5132.839837
412.872982,9918.759623,-4589.276840,-3830.477490
412.873303,11695.253884,-5921.647536,-6741.640382
412.873625,6587.832884,-6661.853478,-3370.820191
412.873947,222.061783,-10955.047942,-689.485948
412.874269,-3478.967927,-18801.230927,-1225.752797
412.874591,-5995.668130,-22354.219448,-3677.258390
412.874913,-7254.018232,-20651.745782,-7354.516781
412.875235,-6217.729913,-16062.468941,-7048.078582
412.875557,-3034.844362,-12213.398043,-3217.601092
412.875879,-592.164754,-8660.409521,0.000000
412.876200,592.164754,-5773.606348,2911.162892
412.876522,2442.679609,-5033.400406,3677.258390
412.876844,2442.679609,-7550.100608,1072.533697
412.877166,962.267725,-9400.615463,842.705048
412.877488,888.247130,-7772.162391,3677.258390
412.877810,2664.741391,-5625.565159,1225.752797
412.878132,6143.709319,-7698.141797,-459.657299
412.878454,6587.832884,-10436.903782,842.705048
412.878776,1628.453072,-10288.862594,2528.115143
412.879097,-5773.606348,-10066.800811,2528.115143
412.879419,-9548.656652,-10436.903782,1302.362347
412.879741,-10362.883188,-10362.883188,-5209.449386
412.880063,-11177.109724,-8882.471304,-10189.070123
412.880385,-11843.295072,-9622.677246,-8120.612279
412.880707,-10066.800811,-12657.521608,-1991.848295
412.881029,-6217.729913,-14285.974681,459.657299
412.881351,-3256.906145,-13915.871710,1608.800546
412.881673,-2442.679609,-14211.954086,2068.457845
412.881994,-1776.494261,-11621.233289,3524.039291
412.882316,518.144159,-5995.668130,2757.943793
412.882638,4737.318029,-962.267725,689.485948
412.882960,8586.388927,2072.576638,1149.143247
412.883282,9844.739029,-666.185348,5132.839837
412.883604,6661.853478,-5403.503377,8503.660028
412.883926,1998.556043,-10066.800811,9039.926876
412.884248,-1332.370696,-14359.995275,6358.592633
412.884570,-3330.926739,-16580.613101,2221.676944
412.884891,-3997.112087,-13989.892304,306.438199
412.885213,-2590.720797,-9622.677246,459.657299
412.885535,-740.205942,-6513.812290,1225.752797
412.885857,370.102971,-6365.771101,3064.381992
412.886179,-1258.350101,-8290.306550,3907.087040
412.886501,-3923.091493,-10066.800811,1532.190996
412.886823,-5847.626942,-12731.542202,-153.219100
412.887145,-6513.812290,-14508.036463,0.000000
412.887467,-4441.235652,-12731.542202,1685.410096
412.887788,-1110.308913,-9918.759623,3524.039291
412.888110,2146.597232,-7994.224174,3830.477490
412.888432,3775.050304,-7920.203579,5132.839837
412.888754,3552.988522,-8142.265362,5975.544884
412.889076,2812.782580,-7624.121203,4519.963438
412.889398,3330.926739,-7328.038826,1762.019645
412.889720,4219.173869,-7846.182985,459.657299
412.890042,4071.132681,-8586.388927,2145.067394
412.890364,2220.617826,-9696.697840,4366.744339
412.890685,-444.123565,-10732.986159,3830.477490
412.891007,-2442.679609,-12435.459826,1072.533697
412.891329,-3849.070898,-14656.077652,-689.485948
412.891651,-3923.091493,-14952.160028,-383.047749
412.891973,-2812.782580,-13101.645173,612.876398
412.892295,0.000000,-10732.986159,1838.629195
412.892617,2664.741391,-9178.553681,2987.772442
412.892939,3182.885551,-7624.121203,3753.867940
412.893261,1332.370696,-6809.894666,2757.943793
412.893582,-1258.350101,-7772.162391,2374.896044
412.893904,-3330.926739,-8364.327145,1072.533697
412.894226,-2664.741391,-8808.450710,612.876398
412.894548,148.041188,-8068.244768,995.924147
412.894870,2886.803174,-7402.059420,1608.800546
412.895192,3552.988522,-7105.977043,2528.115143
412.895514,3256.906145,-7254.018232,2374.896044
412.895836,1332.370696,-7031.956449,-459.657299
412.896158,-1480.411884,-8216.285956,-3447.429741
412.896479,-5033.400406,-9696.697840,-4673.182538
412.896801,-6883.915261,-11177.109724,-3983.696590
412.897123,-7772.162391,-10955.047942,-3830.477490
412.897445,-6069.688724,-11547.212695,-3830.477490
412.897767,-4145.153275,-13175.665768,-3677.258390
412.898089,-2886.803174,-14285.974681,-1991.848295
412.898411,-2368.659014,-13545.768739,229.828649
412.898733,-1702.473667,-11547.212695,1532.190996
412.899055,-296.082377,-8734.430116,1302.362347
412.899376,592.164754,-5033.400406,0.000000
412.899698,1702.473667,-3108.864956,-1455.581446
412.900020,3478.967927,-3701.029710,-1685.410096
412.900342,5403.503377,-6587.832884,-1149.143247
412.900664,5847.626942,-10214.842000,0.000000
412.900986,5403.503377,-12287.418637,1225.752797
412.901308,3997.112087,-12805.562797,766.095498
412.901630,1258.350101,-11103.089130,-1225.752797
412.901951,-1702.473667,-7031.956449,-3524.039291
412.902273,-4145.153275,-3849.070898,-7584.345430
412.902595,-5773.606348,-4811.338623,-9959.241474
412.902917,-7624.121203,-9178.553681,-8503.660028
412.903239,-8660.409521,-13175.665768,-5286.058936
412.903561,-9104.533087,-16876.695478,-3677.258390
412.903883,-7624.121203,-19541.436869,-2834.553343
412.904205,-5773.606348,-18135.045579,-1762.019645
412.904527,-4589.276840,-12435.459826,-1762.019645
412.904848,-3108.864956,-5921.647536,-2068.457845
412.905170,-222.061783,-2516.700203,-1685.410096
412.905492,2590.720797,-2664.741391,-306.438199
412.905814,5181.441594,-4367.215058,1225.752797
412.906136,6735.874072,-6957.935855,2987.772442
412.906458,8660.409521,-9178.553681,3524.039291
412.906780,10807.006753,-11399.171507,1608.800546
412.907102,11103.089130,-11991.336260,-766.095498
412.907424,9326.594869,-10510.924376,-153.219100
412.907745,5995.668130,-7772.162391,-383.047749
412.908067,2368.659014,-7846.182985,-1915.238745
412.908389,-1110.308913,-9696.697840,-3983.696590
412.908711,-4219.173869,-11473.192101,-4903.011187
412.909033,-6365.771101,-13397.727550,-4136.915689
412.909355,-6439.791695,-15766.386565,-1072.533697
412.909677,-5625.565159,-14656.077652,459.657299
412.909999,-5107.421000,-10732.986159,995.924147
412.910321,-5255.462188,-8364.327145,1532.190996
412.910642,-5255.462188,-7105.977043,1838.629195
412.910964,-5773.606348,-5107.421000,1302.362347
412.911286,-4145.153275,-3552.988522,229.828649
412.911608,-1850.514855,-3997.112087,766.095498
412.911930,962.267725,-5625.565159,2987.772442
412.912252,2590.720797,-6513.812290,4136.915689
412.912574,3627.009116,-7179.997637,2451.505594
412.912896,3627.009116,-7254.018232,0.000000
412.913218,3182.885551,-8512.368333,-2145.067394
412.913539,740.205942,-10362.883188,-2757.943793
412.913861,-1850.514855,-11695.253884,-2528.115143
412.914183,-2516.700203,-11991.336260,-2374.896044
412.914505,-1258.350101,-13027.624579,-3447.429741
412.914827,-222.061783,-14211.954086,-2604.724693
412.915149,-296.082377,-13397.727550,-612.876398
412.915471,-1406.391290,-10732.986159,1225.752797
412.915793,-1554.432478,-8364.327145,1991.848295
412.916115,370.102971,-7402.059420,1608.800546
412.916436,1702.473667,-5995.668130,459.657299
412.916758,3108.864956,-4441.235652,-306.438199
412.917080,4367.215058,-4959.379811,76.609550
412.917402,4959.379811,-7698.141797,2068.457845
412.917724,3330.926739,-9474.636058,3140.991542
412.918046,1628.453072,-10362.883188,1302.362347
412.918368,-518.144159,-9992.780217,-2374.896044
412.918690,-1924.535449,-9474.636058,-4903.011187
412.919012,-3552.988522,-10436.903782,-6511.811733
412.919333,-4959.379811,-11251.130318,-5362.668486
412.919655,-6143.709319,-12065.356855,-5286.058936
412.919977,-5699.585753,-14285.974681,-4903.011187
412.920299,-6217.729913,-16210.510130,-4673.182538
412.920621,-6957.935855,-16580.613101,-3830.477490
412.920943,-7328.038826,-13915.871710,-3677.258390
412.921265,-5625.565159,-10732.986159,-2451.505594
412.921587,-2812.782580,-7698.141797,-1455.581446
412.921909,-370.102971,-5107.421000,0.000000
412.922230,2368.659014,-4293.194464,689.485948
412.922552,5403.503377,-5699.585753,1225.752797
412.922874,7105.977043,-7254.018232,2068.457845
412.923196,6735.874072,-7105.977043,2451.505594
412.923518,4959.379811,-5773.606348,1685.410096
412.923840,4219.173869,-5995.668130,-842.705048
412.924162,3404.947333,-7254.018232,-3753.867940
412.924484,1480.411884,-7772.162391,-5056.230287
412.924806,-1554.432478,-9252.574275,-5132.839837
412.925127,-3627.009116,-12361.439231,-3600.648841
412.925449,-4737.318029,-15174.221811,-2374.896044
412.925771,-5847.626942,-14952.160028,-3140.991542
412.926093,-5551.544565,-11621.233289,-4519.963438
412.926415,-2960.823768,-8882.471304,-5132.839837
412.926737,-296.082377,-6957.935855,-3370.820191
412.927059,666.185348,-5625.565159,-1225.752797
412.927381,740.205942,-5107.421000,1149.143247
412.927702,2220.617826,-5995.668130,2681.334243
412.928024,5255.462188,-6809.894666,1149.143247
412.928346,6957.935855,-6735.874072,-1149.143247
412.928668,6587.832884,-6587.832884,-1225.752797
412.928990,5699.585753,-6735.874072,459.657299
412.929312,4885.359217,-7550.100608,153.219100
412.929634,3034.844362,-9770.718434,-1838.629195
412.929956,296.082377,-11547.212695,-3294.210641
412.930278,-3256.906145,-13545.768739,-4136.915689
412.930599,-5403.503377,-14656.077652,-4826.401637
412.930921,-5921.647536,-15322.262999,-4290.134789
412.931243,-5625.565159,-14063.912898,-3600.648841
412.931565,-5477.523971,-10955.047942,-3370.820191
412.931887,-4959.379811,-10214.842000,-2834.553343
412.932209,-3997.112087,-10140.821405,-1302.362347
412.932531,-3404.947333,-9770.718434,-536.266849
412.932853,-2146.597232,-7920.203579,0.000000
412.933175,1036.288319,-5921.647536,842.705048
412.933496,5255.462188,-4737.318029,229.828649
412.933818,7328.038826,-5403.503377,-1225.752797
412.934140,6735.874072,-7476.080014,-536.266849
412.934462,3997.112087,-8586.388927,1378.971896
412.934784,1628.453072,-10140.821405,0.000000
412.935106,-370.102971,-13397.727550,-3524.039291
412.935428,-2590.720797,-13915.871710,-4443.353888
412.935750,-4515.256246,-12583.501014,-4290.134789
412.936072,-4589.276840,-13101.645173,-3140.991542
412.936393,-4145.153275,-14285.974681,-842.705048
412.936715,-4293.194464,-12435.459826,76.609550
412.937037,-5255.462188,-9178.553681,153.219100
412.937359,-3923.091493,-7846.182985,0.000000
412.937681,-1110.308913,-7254.018232,459.657299
412.938003,1628.453072,-5033.400406,-306.438199
412.938325,4145.153275,-3701.029710,459.657299
412.938647,7105.977043,-4071.132681,3064.381992
412.938969,7402.059420,-7031.956449,4979.620737
412.939290,5107.421000,-7254.018232,4136.915689
412.939612,1924.535449,-7179.997637,1608.800546
412.939934,814.226536,-7994.224174,-1608.800546
412.940256,296.082377,-8364.327145,-3830.477490
412.940578,-1702.473667,-7846.182985,-3370.820191
412.940900,-3849.070898,-9252.574275,-2068.457845
412.941222,-4737.318029,-11769.274478,-1991.848295
412.941544,-6217.729913,-14508.036463,-2604.724693
412.941866,-8660.409521,-14730.098246,-2451.505594
412.942187,-10288.862594,-12805.562797,-2528.115143
412.942509,-8956.491898,-9844.739029,-2987.772442
412.942831,-5329.482782,-8142.265362,-2757.943793
412.943153,-1702.473667,-5921.647536,-995.924147
412.943475,2220.617826,-3923.091493,153.219100
412.943797,5255.462188,-4367.215058,2068.457845
412.944119,8142.265362,-6735.874072,2068.457845
412.944441,8882.471304,-7624.121203,612.876398
412.944763,8808.450710,-7846.182985,-612.876398
412.945084,9104.533087,-9030.512492,-2451.505594
412.945406,9474.636058,-11399.171507,-3447.429741
412.945728,6883.915261,-11991.336260,-3370.820191
412.946050,2516.700203,-11695.253884,-2068.457845
412.946372,-1406.391290,-13249.686362,-1838.629195
412.946694,-3701.029710,-15618.345376,-3753.867940
412.947016,-6291.750507,-15248.242405,-5515.887586
412.947338,-7476.080014,-12805.562797,-5132.839837
412.947660,-7031.956449,-10881.027347,-3064.381992
412.947981,-4737.318029,-9326.594869,-1532.190996
412.948303,-2812.782580,-7550.100608,-1072.533697
412.948625,-2072.576638,-7031.956449,-1149.143247
412.948947,-666.185348,-6439.791695,-995.924147
412.949269,1036.288319,-7105.977043,-2068.457845
412.949591,2220.617826,-8586.388927,-2451.505594
412.949913,2368.659014,-8660.409521,-1378.971896
412.950235,1628.453072,-7476.080014,-842.705048
412.950557,1776.494261,-7846.182985,-2528.115143
412.950879,962.267725,-9104.533087,-4749.792088
412.951200,-1332.370696,-10658.965565,-6205.373534
412.951522,-3552.988522,-11399.171507,-5439.278036
412.951844,-5107.421000,-13323.706956,-3064.381992
412.952166,-5477.523971,-15026.180623,-1608.800546
412.952488,-5847.626942,-13397.727550,-2221.676944
412.952810,-4959.379811,-9696.697840,-2604.724693
412.953132,-3552.988522,-8142.265362,-1455.581446
412.953454,-1184.329507,-6735.874072,0.000000
412.953776,518.144159,-5255.462188,153.219100
412.954098,3478.967927,-4737.318029,1685.410096
412.954420,6809.894666,-5625.565159,3294.210641
412.954741,9326.594869,-6513.812290,2451.505594
412.955063,10066.800811,-6143.709319,1378.971896
412.955385,9400.615463,-5329.482782,995.924147
412.955707,6957.935855,-5107.421000,229.828649
412.956029,4589.276840,-7031.956449,-995.924147
412.956351,1406.391290,-9844.739029,-3294.210641
412.956673,-2220.617826,-11917.315666,-3753.867940
412.956995,-5921.647536,-13397.727550,-3600.648841
412.957317,-8290.306550,-14285.974681,-2528.115143
412.957639,-8956.491898,-13989.892304,-2451.505594
412.957961,-8586.388927,-11621.233289,-3753.867940
412.958282,-7772.162391,-9696.697840,-4060.306139
412.958604,-7105.977043,-9400.615463,-1762.019645
412.958926,-6069.688724,-9030.512492,459.657299
412.959248,-4515.256246,-8660.409521,612.876398
412.959570,-1850.514855,-7920.203579,459.657299
412.959892,2738.761985,-7476.080014,612.876398
412.960214,6661.853478,-7402.059420,766.095498
412.960536,8290.306550,-6661.853478,229.828649
412.960858,9326.594869,-6957.935855,76.609550
412.961180,9474.636058,-8882.471304,0.000000
412.961502,7920.203579,-11029.068536,-1608.800546
412.961823,3478.967927,-12287.418637,-2757.943793
412.962145,-666.185348,-13767.830521,-2834.553343
412.962467,-3034.844362,-15470.304188,-2834.553343
412.962789,-4737.318029,-16358.551318,-3217.601092
412.963111,-5773.606348,-14508.036463,-2681.334243
412.963433,-6513.812290,-11843.295072,-1225.752797
412.963755,-5921.647536,-9474.636058,-536.266849
412.964077,-4959.379811,-7772.162391,-383.047749
412.964399,-4293.194464,-6883.915261,76.609550
412.964721,-3034.844362,-4959.379811,459.657299
412.965042,-814.226536,-4145.153275,766.095498
412.965364,1998.556043,-4737.318029,919.314598
412.965686,4071.132681,-6069.688724,1915.238745
412.966008,4441.235652,-7179.997637,1762.019645
412.966330,4811.338623,-7179.997637,536.266849
412.966652,5329.482782,-7624.121203,-1991.848295
412.966974,4959.379811,-8586.388927,-3064.381992
412.967296,2368.659014,-9770.718434,-2987.772442
412.967618,-962.267725,-11325.150913,-2145.067394
412.967940,-3330.926739,-12435.459826,-1991.848295
412.968262,-5107.421000,-13027.624579,-2987.772442
412.968583,-6587.832884,-12435.459826,-2528.115143
412.968905,-7105.977043,-10510.924376,-1378.971896
412.969227,-5921.647536,-8068.244768,-1991.848295
412.969549,-3552.988522,-7624.121203,-995.924147
412.969871,-1850.514855,-6217.729913,995.924147
412.970193,148.041188,-4885.359217,2145.067394
412.970515,1776.494261,-4071.132681,1072.533697
412.970837,4071.132681,-5181.441594,-383.047749
412.971159,5255.462188,-6217.729913,-2528.115143
412.971481,4811.338623,-6143.709319,-3370.820191
412.971803,4737.318029,-7031.956449,-3294.210641
412.972124,4367.215058,-10214.842000,-4903.011187
412.972446,2220.617826,-12731.542202,-5898.935335
412.972768,-1554.432478,-14063.912898,-5286.058936
412.973090,-4959.379811,-15544.324782,-4903.011187
412.973412,-6365.771101,-16284.530724,-6588.421283
412.973734,-6883.915261,-15100.201217,-7354.516781
412.974056,-6291.750507,-11991.336260,-5515.887586
412.974378,-5625.565159,-9696.697840,-3294.210641
412.974700,-3330.926739,-9400.615463,-1915.238745
412.975022,-1406.391290,-9770.718434,-766.095498
412.975344,222.061783,-9992.780217,153.219100
412.975665,1850.514855,-9178.553681,1455.581446
412.975987,4515.256246,-7772.162391,1455.581446
412.976309,6513.812290,-6217.729913,1149.143247
412.976631,8142.265362,-3404.947333,229.828649
412.976953,9178.553681,-3256.906145,-1685.410096
412.977275,7624.121203,-6883.915261,-1991.848295
412.977597,3701.029710,-10955.047942,-2451.505594
412.977919,-1554.432478,-13693.809927,-2834.553343
412.978241,-5699.585753,-15766.386565,-3294.210641
412.978563,-6883.915261,-15840.407159,-3217.601092
412.978885,-7328.038826,-14063.912898,-4979.620737
412.979206,-7550.100608,-11029.068536,-5669.106685
412.979528,-7698.141797,-9622.677246,-2987.772442
412.979850,-7179.997637,-8660.409521,-306.438199
412.980172,-7105.977043,-8290.306550,612.876398
412.980494,-7031.956449,-7179.997637,842.705048
412.980816,-4737.318029,-7179.997637,1685.410096
412.981138,-1036.288319,-5551.544565,842.705048
412.981460,4219.173869,-3923.091493,1532.190996
412.981782,8290.306550,-2294.638420,2834.553343
412.982104,9918.759623,-2072.576638,3600.648841
412.982426,9844.739029,-3552.988522,3217.601092
412.982747,8956.491898,-7105.977043,153.219100
412.983069,6735.874072,-10807.006753,-2987.772442
412.983391,4589.276840,-12879.583391,-3370.820191
412.983713,1776.494261,-12435.459826,-2528.115143
412.984035,222.061783,-13027.624579,-1915.238745
412.984357,-2516.700203,-14211.954086,-2068.457845
412.984679,-4737.318029,-14137.933492,-2528.115143
412.985001,-7550.100608,-13175.665768,-3140.991542
412.985323,-8290.306550,-12657.521608,-2451.505594
412.985645,-7105.977043,-11325.150913,-1072.533697
412.985967,-4737.318029,-9252.574275,0.000000
412.986288,-1332.370696,-5329.482782,1302.362347
412.986610,2590.720797,-2960.823768,536.266849
412.986932,5033.400406,-4145.153275,-995.924147
412.987254,3849.070898,-6291.750507,306.438199
412.987576,1110.308913,-7031.956449,1378.971896
412.987898,-740.205942,-9474.636058,-1532.190996
412.988220,-296.082377,-13397.727550,-5286.058936
412.988542,-666.185348,-14508.036463,-6205.373534
412.988864,-2664.741391,-13545.768739,-4749.792088
412.989186,-4737.318029,-13989.892304,-2528.115143
412.989508,-5255.462188,-15840.407159,-2451.505594
412.989829,-6069.688724,-15174.221811,-3983.696590
412.990151,-7550.100608,-12065.356855,-4443.353888
412.990473,-7328.038826,-10066.800811,-3447.429741
412.990795,-5033.400406,-9548.656652,-2068.457845
412.991117,-2294.638420,-9104.533087,-842.705048
412.991439,148.041188,-6661.853478,2604.724693
412.991761,2960.823768,-5107.421000,3600.648841
412.992083,5847.626942,-5033.400406,2451.505594
412.992405,7772.162391,-4737.318029,1762.019645
412.992727,8142.265362,-3478.967927,1225.752797
412.993049,7550.100608,-3330.926739,153.219100
412.993370,6217.729913,-5551.544565,153.219100
412.993692,4515.256246,-8216.285956,-459.657299
412.994014,1628.453072,-11029.068536,-2528.115143
412.994336,-1480.411884,-11177.109724,-3753.867940
412.994658,-3256.906145,-11399.171507,-3524.039291
412.994980,-4885.359217,-12953.603985,-4213.525239
412.995302,-6069.688724,-13767.830521,-3907.087040
412.995624,-7031.956449,-11991.336260,-2298.286494
412.995946,-6957.935855,-9474.636058,-1378.971896
412.996268,-5773.606348,-8512.368333,229.828649
412.996590,-4737.318029,-7920.203579,919.314598
412.996911,-3330.926739,-6217.729913,919.314598
412.997233,-296.082377,-4589.276840,536.266849
412.997555,3849.070898,-3627.009116,383.047749
412.997877,6291.750507,-4441.235652,1455.581446
412.998199,5699.585753,-5329.482782,2298.286494
412.998521,4737.318029,-5847.626942,842.705048
412.998843,4219.173869,-8216.285956,-3677.258390
412.999165,3256.906145,-11325.150913,-6741.640382
412.999487,1110.308913,-12805.562797,-5515.887586
412.999809,-2294.638420,-13767.830521,-4596.572988
413.000130,-4589.276840,-16506.592507,-3907.087040
413.000452,-6069.688724,-17912.983796,-3524.039291
413.000774,-7031.956449,-16580.613101,-4519.963438
413.001096,-6735.874072,-12805.562797,-5515.887586
413.001418,-5255.462188,-10214.842000,-5362.668486
413.001740,-3034.844362,-9326.594869,-3370.820191
413.002062,-962.267725,-8364.327145,-766.095498
413.002384,1554.432478,-7254.018232,1455.581446
413.002706,3627.009116,-7328.038826,2221.676944
413.003028,4885.359217,-7550.100608,1685.410096
413.003350,5107.421000,-6883.915261,-153.219100
413.003671,4515.256246,-6439.791695,-1378.971896
413.003993,4071.132681,-7105.977043,-1378.971896
413.004315,3478.967927,-7994.224174,-1532.190996
413.004637,2812.782580,-9918.759623,-2911.162892
413.004959,1110.308913,-10066.800811,-4213.525239
413.005281,-1480.411884,-11843.295072,-4366.744339
413.005603,-4811.338623,-15100.201217,-2911.162892
413.005925,-7698.141797,-15988.448347,-2451.505594
413.006247,-9030.512492,-13841.851115,-3064.381992
413.006569,-7994.224174,-11103.089130,-3907.087040
413.006891,-5847.626942,-9030.512492,-1072.533697
413.007212,-4515.256246,-6217.729913,842.705048
413.007534,-3108.864956,-3775.050304,2068.457845
413.007856,0.000000,-3478.967927,2374.896044
413.008178,2886.803174,-3256.906145,2298.286494
413.008500,4219.173869,-3182.885551,612.876398
413.008822,4071.132681,-3849.070898,612.876398
413.009144,3923.091493,-5403.503377,1149.143247
413.009466,4071.132681,-7254.018232,153.219100
413.009788,3923.091493,-9548.656652,-2145.067394
413.010110,3404.947333,-10436.903782,-3217.601092
413.010432,1406.391290,-10955.047942,-3600.648841
413.010753,-888.247130,-11547.212695,-2681.334243
413.011075,-2960.823768,-13545.768739,-1532.190996
413.011397,-4293.194464,-13693.809927,-2757.943793
413.011719,-5329.482782,-11621.233289,-5209.449386
413.012041,-4441.235652,-11991.336260,-3524.039291
413.012363,-3404.947333,-11843.295072,383.047749
413.012685,-1924.535449,-9548.656652,1685.410096
413.013007,888.247130,-7402.059420,306.438199
413.013329,3627.009116,-6291.750507,0.000000
413.013651,4811.338623,-5847.626942,229.828649
413.013973,4737.318029,-5847.626942,1072.533697
413.014294,3627.009116,-6069.688724,1072.533697
413.014616,2812.782580,-7402.059420,-842.705048
413.014938,2072.576638,-10214.842000,-3983.696590
413.015260,888.247130,-12287.418637,-4519.963438
413.015582,-1480.411884,-12953.603985,-4290.134789
413.015904,-4071.132681,-14508.036463,-4213.525239
413.016226,-6143.709319,-17468.860231,-3753.867940
413.016548,-7402.059420,-17246.798449,-3830.477490
413.016870,-8364.327145,-14063.912898,-5209.449386
413.017192,-8142.265362,-11251.130318,-5209.449386
413.017514,-6513.812290,-9770.718434,-2834.553343
413.017835,-4737.318029,-7772.162391,-766.095498
413.018157,-2072.576638,-6439.791695,689.485948
413.018479,1480.411884,-6365.771101,2068.457845
413.018801,4663.297435,-6439.791695,2298.286494
413.019123,5107.421000,-6217.729913,2757.943793
413.019445,4885.359217,-5107.421000,2987.772442
413.019767,5033.400406,-4811.338623,2145.067394
413.020089,5107.421000,-4737.318029,689.485948
413.020411,4737.318029,-5329.482782,-766.095498
413.020733,3627.009116,-7772.162391,-2604.724693
413.021055,1628.453072,-9030.512492,-2681.334243
413.021376,-814.226536,-11547.212695,-2068.457845
413.021698,-2812.782580,-14730.098246,-1225.752797
413.022020,-5107.421000,-15322.262999,-2145.067394
413.022342,-6513.812290,-13101.645173,-4749.792088
413.022664,-5995.668130,-10362.883188,-4519.963438
413.022986,-4219.173869,-9178.553681,-1685.410096
413.023308,-2886.803174,-7105.977043,0.000000
413.023630,-1258.350101,-5403.503377,0.000000
413.023952,666.185348,-5033.400406,0.000000
413.024274,2738.761985,-5773.606348,1149.143247
413.024596,3108.864956,-5625.565159,612.876398
413.024917,2516.700203,-5477.523971,612.876398
413.025239,2516.700203,-5625.565159,-229.828649
413.025561,2812.782580,-6587.832884,-2451.505594
413.025883,2516.700203,-8216.285956,-3907.087040
413.026205,1480.411884,-10510.924376,-4443.353888
413.026527,-888.247130,-12509.480420,-4596.572988
413.026849,-3627.009116,-15692.365970,-3830.477490
413.027171,-6291.750507,-17246.798449,-3064.381992
413.027493,-6809.894666,-16136.489536,-4903.011187
413.027815,-6291.750507,-12731.542202,-6971.469032
413.028137,-3478.967927,-11029.068536,-6052.154434
413.028458,-1110.308913,-9770.718434,-3294.210641
413.028780,74.020594,-8808.450710,-153.219100
413.029102,1554.432478,-8290.306550,2068.457845
413.029424,3701.029710,-7550.100608,2374.896044
413.029746,4663.297435,-6439.791695,76.609550
413.030068,5403.503377,-4293.194464,-1455.581446
413.030390,5477.523971,-4219.173869,-2451.505594
413.030712,4663.297435,-7328.038826,-2068.457845
413.031034,2294.638420,-10140.821405,-229.828649
413.031356,-296.082377,-12657.521608,0.000000
413.031678,-2516.700203,-14211.954086,-2528.115143
413.031999,-3330.926739,-13249.686362,-5056.230287
413.032321,-3923.091493,-12287.418637,-5975.544884
413.032643,-4663.297435,-11251.130318,-4903.011187
413.032965,-4885.359217,-10436.903782,-3753.867940
413.033287,-5107.421000,-10436.903782,-2068.457845
413.033609,-5403.503377,-10140.821405,-459.657299
413.033931,-5255.462188,-9844.739029,766.095498
413.034253,-3108.864956,-8216.285956,612.876398
413.034575,1036.288319,-6883.915261,-1072.533697
413.034897,4589.276840,-4737.318029,-306.438199
413.035218,6439.791695,-3552.988522,2528.115143
413.035540,7105.977043,-3923.091493,4136.915689
413.035862,5773.606348,-5181.441594,2987.772442
413.036184,3108.864956,-6513.812290,1072.533697
413.036506,1554.432478,-8512.368333,-1762.019645
413.036828,740.205942,-9770.718434,-3294.210641
413.037150,-148.041188,-10510.924376,-3830.477490
413.037472,-1110.308913,-11991.336260,-1991.848295
413.037794,-3256.906145,-12361.439231,0.000000
413.038116,-4885.359217,-11843.295072,-1378.971896
413.038438,-5921.647536,-11251.130318,-3753.867940
413.038759,-6291.750507,-10807.006753,-4903.011187
413.039081,-5995.668130,-9622.677246,-3830.477490
413.039403,-3627.009116,-8068.244768,-1838.629195
413.039725,0.000000,-7179.997637,-995.924147
413.040047,3034.844362,-7254.018232,-689.485948
413.040369,3997.112087,-8290.306550,0.000000
413.040691,2516.700203,-9696.697840,76.609550
413.041013,888.247130,-9622.677246,-766.095498
413.041335,1036.288319,-9178.553681,-2987.772442
413.041657,1628.453072,-9474.636058,-4673.182538
413.041979,1850.514855,-9622.677246,-4213.525239
413.042300,666.185348,-9918.759623,-2987.772442
413.042622,-962.267725,-11917.315666,-2604.724693
413.042944,-2220.617826,-14730.098246,-3370.820191
413.043266,-3182.885551,-15692.365970,-4290.134789
413.043588,-4811.338623,-14952.160028,-4213.525239
413.043910,-4885.359217,-13101.645173,-3753.867940
413.044232,-2590.720797,-11473.192101,-2451.505594
413.044554,-222.061783,-9104.533087,-1378.971896
413.044876,2368.659014,-6365.771101,-689.485948
413.045198,4145.153275,-6439.791695,-536.266849
413.045520,4441.235652,-7550.100608,842.705048
413.045841,3034.844362,-7698.141797,1685.410096
413.046163,1554.432478,-6587.832884,1532.190996
413.046485,1036.288319,-5699.585753,153.219100
413.046807,1110.308913,-6587.832884,-1302.362347
413.047129,0.000000,-6587.832884,-1608.800546
413.047451,-1554.432478,-6957.935855,-919.314598
413.047773,-2886.803174,-8364.327145,-1149.143247
413.048095,-3034.844362,-11177.109724,-1378.971896
413.048417,-4071.132681,-12879.583391,-1072.533697
413.048739,-5773.606348,-11843.295072,-536.266849
413.049061,-6217.729913,-9622.677246,-842.705048
413.049382,-4811.338623,-7698.141797,-1532.190996
413.049704,-2664.741391,-6735.874072,-1302.362347
413.050026,-666.185348,-6143.709319,-383.047749
413.050348,1628.453072,-6587.832884,383.047749
413.050670,3701.029710,-8142.265362,1838.629195
413.050992,4959.379811,-8660.409521,2757.943793
413.051314,5625.565159,-8142.265362,2298.286494
413.051636,5921.647536,-7105.977043,383.047749
413.051958,5995.668130,-6513.812290,-1302.362347
413.052280,4959.379811,-7402.059420,-2834.553343
413.052601,2368.659014,-8438.347739,-2681.334243
413.052923,-222.061783,-10140.821405,-1608.800546
413.053245,-2368.659014,-12879.583391,-1838.629195
413.053567,-3923.091493,-15544.324782,-2834.553343
413.053889,-5995.668130,-15322.262999,-3447.429741
413.054211,-6513.812290,-13101.645173,-4213.525239
413.054533,-5921.647536,-10732.986159,-5056.230287
413.054855,-4367.215058,-9992.780217,-4213.525239
413.055176,-2886.803174,-8734.430116,-2681.334243
413.055498,-1258.350101,-8956.491898,-1991.848295
413.055820,222.061783,-9992.780217,-1991.848295
413.056142,2146.597232,-11473.192101,-1762.019645
413.056464,2664.741391,-11621.233289,-1072.533697
413.056786,2516.700203,-9696.697840,-459.657299
413.057108,2664.741391,-8586.388927,-919.314598
413.057430,3034.844362,-7698.141797,-1455.581446
413.057751,2294.638420,-7624.121203,-2987.772442
413.058073,0.000000,-8290.306550,-3140.991542
413.058395,-2294.638420,-9770.718434,-2451.505594
413.058717,-2516.700203,-12361.439231,-1685.410096
413.059039,-2442.679609,-13249.686362,-2451.505594
413.059361,-3627.009116,-11695.253884,-2681.334243
413.059683,-4145.153275,-9770.718434,-2221.676944
413.060005,-3330.926739,-9030.512492,-1608.800546
413.060326,-2812.782580,-8660.409521,-1225.752797
413.060648,-2368.659014,-8290.306550,-995.924147
413.060970,-1184.329507,-7624.121203,-306.438199
413.061292,1406.391290,-7179.997637,-229.828649
413.061614,4219.173869,-6069.688724,0.000000
413.061936,6217.729913,-5107.421000,0.000000
413.062258,6809.894666,-4737.318029,-536.266849
413.062580,5995.668130,-5329.482782,-1149.143247
413.062901,3775.050304,-8290.306550,-1225.752797
413.063223,0.000000,-10732.986159,-1685.410096
413.063545,-3552.988522,-11769.274478,-1608.800546
413.063867,-5181.441594,-11103.089130,-2298.286494
413.064189,-4811.338623,-9918.759623,-2604.724693
413.064511,-3627.009116,-8586.388927,-3370.820191
413.064833,-2886.803174,-7328.038826,-2911.162892
413.065155,-2886.803174,-7846.182985,-2528.115143
413.065477,-3256.906145,-10584.944971,-1149.143247
413.065798,-3701.029710,-11917.315666,306.438199
413.066120,-2960.823768,-11251.130318,76.609550
413.066442,0.000000,-9104.533087,-1302.362347
413.066764,3775.050304,-7254.018232,-1915.238745
413.067086,6513.812290,-7105.977043,-1762.019645
413.067408,7624.121203,-7328.038826,-689.485948
413.067730,5847.626942,-6883.915261,153.219100
413.068052,3923.091493,-9474.636058,-459.657299
413.068373,814.226536,-12435.459826,-1455.581446
413.068695,-2294.638420,-13915.871710,-3447.429741
413.069017,-5107.421000,-13767.830521,-4673.182538
413.069339,-6217.729913,-13767.830521,-4366.744339
413.069661,-5921.647536,-13693.809927,-2221.676944
413.069983,-5477.523971,-11547.212695,-1915.238745
413.070305,-5181.441594,-9474.636058,-2451.505594
413.070627,-4737.318029,-9400.615463,-2451.505594
413.070948,-4219.173869,-9992.780217,-2451.505594
413.071270,-3849.070898,-9548.656652,-766.095498
413.071592,-1480.411884,-8734.430116,0.000000
413.071914,2368.659014,-6957.935855,0.000000
413.072236,5699.585753,-6809.894666,-612.876398
413.072558,7698.141797,-7772.162391,153.219100
413.072880,7772.162391,-6735.874072,1455.581446
413.073202,5773.606348,-7476.080014,459.657299
413.073523,3849.070898,-9770.718434,-766.095498
413.073845,1406.391290,-10955.047942,-1302.362347
413.074167,-1332.370696,-9178.553681,-1838.629195
413.074489,-2442.679609,-7846.182985,-2681.334243
413.074811,-2960.823768,-9548.656652,-1915.238745
413.075133,-3627.009116,-10510.924376,-1378.971896
413.075455,-5107.421000,-9918.759623,-1455.581446
413.075777,-6513.812290,-11029.068536,-842.705048
413.076098,-5921.647536,-11251.130318,689.485948
413.076420,-4885.359217,-9178.553681,842.705048
413.076742,-2072.576638,-6439.791695,-536.266849
413.077064,1480.411884,-3923.091493,-1532.190996
413.077386,4737.318029,-3330.926739,-1608.800546
413.077708,6291.750507,-5625.565159,229.828649
413.078030,5699.585753,-8216.285956,2068.457845
413.078352,4441.235652,-9104.533087,153.219100
413.078673,3849.070898,-10732.986159,-2298.286494
413.078995,2220.617826,-12065.356855,-3217.601092
413.079317,0.000000,-11251.130318,-2911.162892
413.079639,-1702.473667,-9474.636058,-3447.429741
413.079961,-2294.638420,-10881.027347,-3140.991542
413.080283,-3997.112087,-12583.501014,-2068.457845
413.080605,-6513.812290,-12509.480420,-1915.238745
413.080927,-7994.224174,-11695.253884,-1838.629195
413.081248,-7179.997637,-11177.109724,-1991.848295
413.081570,-5329.482782,-9474.636058,-1532.190996
413.081892,-2368.659014,-7920.203579,-2451.505594
413.082214,962.267725,-6883.915261,-1762.019645
413.082536,3256.906145,-7920.203579,-612.876398
413.082858,4219.173869,-9400.615463,76.609550
413.083180,4589.276840,-8882.471304,1455.581446
413.083502,5477.523971,-7994.224174,-842.705048
413.083823,6069.688724,-7698.141797,-4060.306139
413.084145,5329.482782,-9252.574275,-4443.353888
413.084467,2960.823768,-10881.027347,-2604.724693
413.084789,592.164754,-11547.212695,-1915.238745
413.085111,-2516.700203,-13767.830521,-1378.971896
413.085433,-4071.132681,-15914.427753,-1149.143247
413.085755,-5699.585753,-13915.871710,-1302.362347
413.086077,-5551.544565,-9622.677246,-3140.991542
413.086398,-4071.132681,-7772.162391,-3294.210641
413.086720,-2146.597232,-6809.894666,-919.314598
413.087042,-2220.617826,-6587.832884,1302.362347
413.087364,-2442.679609,-6883.915261,2681.334243
413.087686,-1258.350101,-7402.059420,2145.067394
413.088008,814.226536,-8142.265362,0.000000
413.088330,1998.556043,-7772.162391,-1302.362347
413.088652,2960.823768,-6291.750507,-995.924147
413.088973,4737.318029,-5995.668130,-1149.143247
413.089295,5773.606348,-7550.100608,-1915.238745
413.089617,3997.112087,-10140.821405,-1991.848295
413.089939,444.123565,-10881.027347,-1915.238745
413.090261,-2146.597232,-11251.130318,-1455.581446
413.090583,-3404.947333,-11695.253884,-3140.991542
413.090905,-4071.132681,-11769.274478,-3217.601092
413.091227,-4515.256246,-10140.821405,-1915.238745
413.091548,-4589.276840,-8660.409521,229.828649
413.091870,-5033.400406,-8586.388927,1072.533697
413.092192,-4071.132681,-8734.430116,1225.752797
413.092514,-2960.823768,-7772.162391,995.924147
413.092836,-148.041188,-5847.626942,0.000000
413.093158,3256.906145,-5033.400406,-842.705048
413.093480,6809.894666,-5773.606348,-306.438199
413.093802,7031.956449,-6957.935855,0.000000
413.094123,6217.729913,-8660.409521,459.657299
413.094445,4663.297435,-10214.842000,-995.924147
413.094767,2738.761985,-12805.562797,-3753.867940
413.095089,296.082377,-14211.954086,-5132.839837
413.095411,-2220.617826,-13397.727550,-5056.230287
413.095733,-2886.803174,-12509.480420,-4290.134789
413.096055,-2516.700203,-13101.645173,-4443.353888
413.096377,-3478.967927,-13471.748144,-3294.210641
413.096698,-6069.688724,-12731.542202,-1838.629195
413.097020,-8290.306550,-11547.212695,-612.876398
413.097342,-8068.244768,-11251.130318,-1762.019645
413.097664,-6513.812290,-9178.553681,-1455.581446
413.097986,-4071.132681,-7031.956449,-306.438199
413.098308,-1258.350101,-5477.523971,383.047749
413.098630,2368.659014,-5181.441594,1685.410096
413.098952,4219.173869,-5921.647536,1685.410096
413.099273,5551.544565,-6069.688724,919.314598
413.099595,6217.729913,-6217.729913,-1532.190996
413.099917,6439.791695,-8142.265362,-4060.306139
413.100239,5033.400406,-9918.759623,-3677.258390
413.100561,2368.659014,-11769.274478,-2068.457845
413.100883,-296.082377,-13175.665768,-2298.286494
413.101205,-2294.638420,-13915.871710,-2528.115143
413.101527,-3997.112087,-14137.933492,-2987.772442
413.101848,-6217.729913,-12583.501014,-2757.943793
413.102170,-5995.668130,-9548.656652,-1991.848295
413.102492,-3701.029710,-7105.977043,-919.314598
413.102814,-1480.411884,-5625.565159,-689.485948
413.103136,-370.102971,-4663.297435,383.047749
413.103458,592.164754,-4737.318029,1915.238745
413.103780,1258.350101,-6217.729913,2911.162892
413.104102,2294.638420,-8512.368333,1149.143247
413.104423,2812.782580,-8660.409521,459.657299
413.104745,4145.153275,-6809.894666,-383.047749
413.105067,5995.668130,-5699.585753,-1608.800546
413.105389,7550.100608,-6587.832884,-2987.772442
413.105711,5551.544565,-8364.327145,-3907.087040
413.106033,1480.411884,-10881.027347,-2987.772442
413.106355,-2368.659014,-14730.098246,-2298.286494
413.106677,-4885.359217,-17987.004391,-2987.772442
413.106998,-7550.100608,-17542.880825,-3524.039291
413.107320,-8808.450710,-12805.562797,-2834.553343
413.107642,-8068.244768,-9400.615463,-1991.848295
413.107964,-5699.585753,-6735.874072,-1915.238745
413.108286,-3627.009116,-4737.318029,-1455.581446
413.108608,-2664.741391,-4959.379811,76.609550
413.108930,-1924.535449,-7846.182985,1685.410096
413.109252,-592.164754,-9548.656652,1455.581446
413.109573,1406.391290,-9918.759623,306.438199
413.109895,3404.947333,-9400.615463,-919.314598
413.110217,5033.400406,-7179.997637,-1302.362347
413.110539,6365.771101,-6661.853478,-2834.553343
413.110861,5625.565159,-8290.306550,-3753.867940
413.111183,2738.761985,-10881.027347,-3217.601092
413.111505,-296.082377,-12361.439231,-2681.334243
413.111827,-2516.700203,-14952.160028,-3064.381992
413.112148,-4071.132681,-16062.468941,-2987.772442
413.112470,-5033.400406,-13323.706956,-3447.429741
413.112792,-4441.235652,-8882.471304,-3294.210641
413.113114,-3330.926739,-7846.182985,-1915.238745
413.113436,-2590.720797,-7846.182985,0.000000
413.113758,-3330.926739,-7920.203579,1532.190996
413.114080,-3034.844362,-7772.162391,2681.334243
413.114402,-740.205942,-7624.121203,1762.019645
413.114723,2516.700203,-6809.894666,536.266849
413.115045,5181.441594,-4811.338623,-536.266849
413.115367,6735.874072,-2812.782580,-306.438199
413.115689,7698.141797,-3478.967927,0.000000
413.116011,7328.038826,-6735.874072,-1072.533697
413.116333,4959.379811,-11103.089130,-2145.067394
413.116655,1036.288319,-14063.912898,-2987.772442
413.116977,-2220.617826,-16062.468941,-2451.505594
413.117299,-3923.091493,-15914.427753,-2451.505594
413.117620,-4515.256246,-13397.727550,-3370.820191
413.117942,-4293.194464,-9992.780217,-3600.648841
413.118264,-4071.132681,-7920.203579,-2298.286494
413.118586,-4811.338623,-7550.100608,-842.705048
413.118908,-5995.668130,-8216.285956,229.828649
413.119230,-5625.565159,-8438.347739,689.485948
413.119552,-3182.885551,-7994.224174,1302.362347
413.119874,370.102971,-7105.977043,76.609550
413.120195,2738.761985,-6513.812290,-612.876398
413.120517,3849.070898,-5699.585753,383.047749
413.120839,4737.318029,-5551.544565,919.314598
413.121161,5477.523971,-7476.080014,-1225.752797
413.121483,4737.318029,-9696.697840,-3830.477490
413.121805,1924.535449,-10955.047942,-5209.449386
413.122127,-592.164754,-12361.439231,-4673.182538
413.122449,-1480.411884,-14804.118840,-4749.792088
413.122770,-2368.659014,-16580.613101,-5132.839837
413.123092,-4737.318029,-16654.633695,-4136.915689
413.123414,-7031.956449,-14508.036463,-2374.896044
413.123736,-7105.977043,-12213.398043,-919.314598
413.124058,-5255.462188,-9474.636058,-1838.629195
413.124380,-3034.844362,-6957.935855,-2374.896044
413.124702,-962.267725,-4515.256246,0.000000
413.125024,1850.514855,-3627.009116,2681.334243
413.125345,5033.400406,-5181.441594,2528.115143
413.125667,6365.771101,-7254.018232,1532.190996
413.125989,5477.523971,-8364.327145,1072.533697
413.126311,4367.215058,-7402.059420,919.314598
413.126633,4293.194464,-8216.285956,-1608.800546
413.126955,4219.173869,-10066.800811,-4826.401637
413.127277,2368.659014,-10066.800811,-4213.525239
413.127599,-518.144159,-9770.718434,-2451.505594
413.127920,-2960.823768,-12509.480420,-1685.410096
413.128242,-4589.276840,-15470.304188,-2068.457845
413.128564,-6883.915261,-14582.057057,-3294.210641
413.128886,-7994.224174,-10881.027347,-3294.210641
413.129208,-6735.874072,-8364.327145,-1991.848295
413.129530,-4293.194464,-7105.977043,-229.828649
413.129852,-3849.070898,-4515.256246,229.828649
413.130174,-2442.679609,-3034.844362,1532.190996
413.130495,-444.123565,-4441.235652,842.705048
413.130817,1554.432478,-7846.182985,383.047749
413.131139,1924.535449,-9770.718434,1149.143247
413.131461,1998.556043,-8142.265362,1915.238745
413.131783,4441.235652,-6069.688724,-383.047749
413.132105,7179.997637,-7031.956449,-2987.772442
413.132427,7105.977043,-7920.203579,-4979.620737
413.132749,3701.029710,-8364.327145,-4290.134789
413.133070,888.247130,-10658.965565,-3907.087040
413.133392,-296.082377,-16136.489536,-3294.210641
413.133714,-2294.638420,-18801.230927,-3294.210641
413.134036,-5329.482782,-16580.613101,-2221.676944
413.134358,-6291.750507,-12805.562797,-1608.800546
413.134680,-4589.276840,-10510.924376,-1685.410096
413.135002,-2220.617826,-7920.203579,-995.924147
413.135324,-518.144159,-4737.318029,536.266849
413.135645,888.247130,-3478.967927,842.705048
413.135967,3108.864956,-5625.565159,1762.019645
413.136289,3701.029710,-8586.388927,1685.410096
413.136611,2738.761985,-9030.512492,536.266849
413.136933,1998.556043,-7698.141797,-229.828649
413.137255,2294.638420,-8808.450710,-2528.115143
413.137577,2294.638420,-10732.986159,-4060.306139
413.137899,148.041188,-10362.883188,-3600.648841
413.138220,-1776.494261,-10436.903782,-3447.429741
413.138542,-2368.659014,-13027.624579,-4443.353888
413.138864,-3478.967927,-15544.324782,-4366.744339
413.139186,-5625.565159,-15396.283594,-3217.601092
413.139508,-7254.018232,-12361.439231,-2528.115143
413.139830,-6735.874072,-10066.800811,-1608.800546
413.140152,-4367.215058,-8956.491898,-919.314598
413.140474,-3701.029710,-6883.915261,0.000000
413.140795,-2738.761985,-4737.318029,2068.457845
413.141117,-518.144159,-4367.215058,2757.943793
413.141439,2590.720797,-5181.441594,2221.676944
413.141761,4219.173869,-6291.750507,1762.019645
413.142083,4293.194464,-5477.523971,2681.334243
413.142405,4663.297435,-4071.132681,1149.143247
413.142727,5995.668130,-5625.565159,-2221.676944
413.143049,5921.647536,-8808.450710,-4366.744339
413.143370,3552.988522,-10288.862594,-3830.477490
413.143692,888.247130,-11029.068536,-3217.601092
413.144014,-592.164754,-14656.077652,-3447.429741
413.144336,-2812.782580,-17172.777854,-2221.676944
413.144658,-5773.606348,-14804.118840,-3294.210641
413.144980,-5773.606348,-10955.047942,-3753.867940
413.145302,-4071.132681,-9326.594869,-2604.724693
413.145624,-2442.679609,-7920.203579,-842.705048
413.145945,-1998.556043,-5477.523971,0.000000
413.146267,-592.164754,-4071.132681,2068.457845
413.146589,2146.597232,-5477.523971,1991.848295
413.146911,3552.988522,-8290.306550,-459.657299
413.147233,2442.679609,-9252.574275,0.000000
413.147555,1406.391290,-7846.182985,919.314598
413.147877,2146.597232,-7846.182985,-1225.752797
413.148199,3997.112087,-9844.739029,-4136.915689
413.148520,3627.009116,-10288.862594,-4366.744339
413.148842,1258.350101,-9918.759623,-3830.477490
413.149164,-962.267725,-11843.295072,-4443.353888
413.149486,-2368.659014,-17320.819043,-3753.867940
413.149808,-4885.359217,-18505.148550,-2528.115143
413.150130,-6883.915261,-14804.118840,-2987.772442
413.150452,-6809.894666,-10955.047942,-3447.429741
413.150774,-4441.235652,-9326.594869,-1915.238745
413.151095,-3108.864956,-8068.244768,-689.485948
413.151417,-2590.720797,-5033.400406,306.438199
413.151739,-740.205942,-4293.194464,1455.581446
413.152061,2146.597232,-6883.915261,1838.629195
413.152383,3034.844362,-7624.121203,995.924147
413.152704,3108.864956,-6217.729913,0.000000
413.153026,3108.864956,-5995.668130,-919.314598
413.153348,4589.276840,-7994.224174,-1302.362347
413.153670,4441.235652,-9474.636058,-2911.162892
413.153992,2590.720797,-9622.677246,-4213.525239
413.154313,592.164754,-10140.821405,-3447.429741
413.154635,-1184.329507,-12065.356855,-2604.724693
413.154957,-2960.823768,-14804.118840,-3064.381992
413.155279,-4737.318029,-13027.624579,-2451.505594
413.155600,-4515.256246,-9474.636058,-2987.772442
413.155922,-3330.926739,-8068.244768,-2911.162892
413.156244,-1998.556043,-8956.491898,-536.266849
413.156566,-2220.617826,-7179.997637,459.657299
413.156887,-1924.535449,-5921.647536,1455.581446
413.157209,740.205942,-6365.771101,2374.896044
413.157531,3701.029710,-6513.812290,1378.971896
413.157853,4293.194464,-5329.482782,-995.924147
413.158174,3997.112087,-4959.379811,-383.047749
413.158496,4145.153275,-6439.791695,-536.266849
413.158818,4367.215058,-8808.450710,-2298.286494
413.159140,1998.556043,-10658.965565,-4213.525239
413.159461,-1184.329507,-11473.192101,-3677.258390
413.159783,-3552.988522,-13175.665768,-4443.353888
413.160105,-4885.359217,-15396.283594,-5439.278036
413.160427,-6217.729913,-16136.489536,-5209.449386
413.160749,-7254.018232,-13989.892304,-4673.182538
413.161070,-7254.018232,-11251.130318,-3907.087040
413.161392,-5625.565159,-10658.965565,-2374.896044
413.161714,-4663.297435,-9474.636058,0.000000
413.162036,-2738.761985,-7254.018232,-229.828649
413.162357,222.061783,-5699.585753,76.609550
413.162679,3997.112087,-6439.791695,1302.362347
413.163001,5699.585753,-6957.935855,1149.143247
413.163323,6143.709319,-6957.935855,2451.505594
413.163644,5551.544565,-7105.977043,2528.115143
413.163966,5181.441594,-8216.285956,842.705048
413.164288,3923.091493,-10288.862594,-2451.505594
413.164610,1998.556043,-10510.924376,-3217.601092
413.164931,74.020594,-10362.883188,-2757.943793
413.165253,-1332.370696,-11769.274478,-2987.772442
413.165575,-1924.535449,-13767.830521,-2451.505594
413.165897,-3552.988522,-13175.665768,-2221.676944
413.166218,-5181.441594,-11103.089130,-3830.477490
413.166540,-5699.585753,-10510.924376,-3370.820191
