#time,accel_x,accel_y,accel_z
236.257719,-444.123565,-9622.677246,-1608.800546
236.258042,-370.102971,-9474.636058,-1838.629195
236.258364,-518.144159,-8734.430116,-1378.971896
236.258687,-148.041188,-9104.533087,-1915.238745
236.259009,-222.061783,-9252.574275,-1608.800546
236.259332,-296.082377,-9400.615463,-1838.629195
236.259654,-370.102971,-9400.615463,-1762.019645
236.259977,-592.164754,-9474.636058,-1532.190996
236.260299,-518.144159,-9400.615463,-1915.238745
236.260622,-444.123565,-9622.677246,-1762.019645
236.260944,-444.123565,-9326.594869,-1532.190996
236.261267,-444.123565,-9178.553681,-1762.019645
236.261589,-74.020594,-9326.594869,-1378.971896
236.261912,0.000000,-9178.553681,-1608.800546
236.262235,-444.123565,-9474.636058,-1378.971896
236.262557,-444.123565,-9474.636058,-1378.971896
236.262880,-592.164754,-9474.636058,-1685.410096
236.263202,-592.164754,-9474.636058,-1532.190996
236.263525,-592.164754,-9326.594869,-1608.800546
236.263847,-148.041188,-9400.615463,-1302.362347
236.264170,-370.102971,-9030.512492,-1455.581446
236.264492,-370.102971,-9178.553681,-1378.971896
236.264815,-222.061783,-9252.574275,-1455.581446
236.265137,-222.061783,-9326.594869,-919.314598
236.265460,-740.205942,-9474.636058,-1915.238745
236.265782,-518.144159,-9474.636058,-1378.971896
236.266105,-518.144159,-9326.594869,-1302.362347
236.266427,-444.123565,-9104.533087,-1302.362347
236.266750,-296.082377,-9104.533087,-995.924147
236.267072,-222.061783,-9030.512492,-1685.410096
236.267395,-370.102971,-9252.574275,-1225.752797
236.267717,-370.102971,-9400.615463,-1378.971896
236.268040,-444.123565,-9474.636058,-1455.581446
236.268362,-444.123565,-9252.574275,-1302.362347
236.268685,-148.041188,-9548.656652,-1532.190996
236.269007,-518.144159,-9326.594869,-995.924147
236.269330,-296.082377,-9178.553681,-1532.190996
236.269653,-222.061783,-9178.553681,-1532.190996
236.269975,-296.082377,-9252.574275,-1378.971896
236.270298,-444.123565,-9400.615463,-1685.410096
236.270620,-296.082377,-9474.636058,-1225.752797
236.270943,-592.164754,-9548.656652,-1685.410096
236.271265,-518.144159,-9400.615463,-1455.581446
236.271588,-296.082377,-9252.574275,-1532.190996
236.271910,-222.061783,-9104.533087,-1532.190996
236.272233,-74.020594,-9252.574275,-1072.533697
236.272555,-296.082377,-9474.636058,-1455.581446
236.272878,-370.102971,-9548.656652,-1532.190996
236.273200,222.061783,-9548.656652,-1915.238745
236.273523,1924.535449,-9770.718434,-2374.896044
236.273845,2368.659014,-9844.739029,-1149.143247
236.274168,2368.659014,-8808.450710,-383.047749
236.274490,1184.329507,-8438.347739,-383.047749
236.274813,296.082377,-8956.491898,-1838.629195
236.275135,-962.267725,-9178.553681,-2528.115143
236.275458,-2590.720797,-9178.553681,-2221.676944
236.275780,-3923.091493,-9178.553681,-2145.067394
236.276103,-3849.070898,-9770.718434,-2911.162892
236.276425,-1776.494261,-9622.677246,-3677.258390
236.276748,1406.391290,-11103.089130,-2528.115143
236.277071,3552.988522,-11843.295072,-1149.143247
236.277393,3997.112087,-10881.027347,0.000000
236.277716,2960.823768,-8882.471304,306.438199
236.278038,2442.679609,-8660.409521,-1149.143247
236.278361,2664.741391,-9400.615463,-2681.334243
236.278683,2072.576638,-9400.615463,-2451.505594
236.279006,444.123565,-8142.265362,-612.876398
236.279328,-814.226536,-6809.894666,153.219100
236.279651,518.144159,-7920.203579,-1225.752797
236.279973,1776.494261,-9918.759623,-2528.115143
236.280296,0.000000,-9918.759623,-919.314598
236.280618,-2294.638420,-8956.491898,-229.828649
236.280941,-2368.659014,-9104.533087,-2757.943793
236.281263,-666.185348,-9474.636058,-4979.620737
236.281586,370.102971,-9918.759623,-3753.867940
236.281908,814.226536,-11103.089130,-1762.019645
236.282231,1702.473667,-10955.047942,-1532.190996
236.282553,3256.906145,-9918.759623,-2068.457845
236.282876,4663.297435,-10658.965565,-1225.752797
236.283198,4589.276840,-11769.274478,-383.047749
236.283521,3330.926739,-10955.047942,-689.485948
236.283843,1776.494261,-8142.265362,-1072.533697
236.284166,1850.514855,-7105.977043,-919.314598
236.284489,2146.597232,-7179.997637,-919.314598
236.284811,1554.432478,-7328.038826,-842.705048
236.285134,666.185348,-6735.874072,-306.438199
236.285456,592.164754,-8142.265362,-383.047749
236.285779,1554.432478,-10732.986159,-459.657299
236.286101,1998.556043,-10807.006753,-995.924147
236.286424,1628.453072,-9622.677246,-1991.848295
236.286746,1184.329507,-10066.800811,-1838.629195
236.287069,2072.576638,-9992.780217,-1225.752797
236.287391,2368.659014,-9474.636058,-2145.067394
236.287714,2442.679609,-9548.656652,-2987.772442
236.288036,1702.473667,-9844.739029,-1225.752797
236.288359,2072.576638,-10288.862594,-536.266849
236.288681,1998.556043,-9622.677246,-1149.143247
236.289004,1258.350101,-9696.697840,-1915.238745
236.289326,1036.288319,-9474.636058,-919.314598
236.289649,888.247130,-7402.059420,-383.047749
236.289971,-296.082377,-6587.832884,-689.485948
236.290294,-962.267725,-7031.956449,-1838.629195
236.290616,-1184.329507,-8364.327145,-1455.581446
236.290939,-962.267725,-9548.656652,-1149.143247
236.291261,-962.267725,-10584.944971,-1072.533697
236.291584,-444.123565,-11621.233289,-1302.362347
236.291907,148.041188,-11547.212695,-1455.581446
236.292229,592.164754,-11325.150913,-536.266849
236.292552,518.144159,-10658.965565,-1225.752797
236.292874,740.205942,-10066.800811,-1762.019645
236.293197,296.082377,-9770.718434,-2145.067394
236.293519,0.000000,-9178.553681,-1072.533697
236.293842,-296.082377,-8956.491898,-689.485948
236.294164,-148.041188,-8808.450710,-1225.752797
236.294487,-296.082377,-8808.450710,-1149.143247
236.294809,-962.267725,-8438.347739,-459.657299
236.295132,-2072.576638,-7624.121203,-919.314598
236.295454,-2664.741391,-7105.977043,-1838.629195
236.295777,-3256.906145,-7105.977043,-2374.896044
236.296099,-3256.906145,-8142.265362,-2604.724693
236.296422,-2368.659014,-9030.512492,-2604.724693
236.296744,-1850.514855,-9030.512492,-2911.162892
236.297067,-666.185348,-10140.821405,-2681.334243
236.297389,222.061783,-10510.924376,-2374.896044
236.297712,518.144159,-10362.883188,-2068.457845
236.298034,444.123565,-9622.677246,-2451.505594
236.298357,148.041188,-9622.677246,-3064.381992
236.298679,-296.082377,-10140.821405,-2681.334243
236.299002,-962.267725,-10140.821405,-2145.067394
236.299325,-1332.370696,-9918.759623,-1455.581446
236.299647,-1406.391290,-9326.594869,-1072.533697
236.299970,-1258.350101,-8956.491898,-1072.533697
236.300292,-962.267725,-8512.368333,-1072.533697
236.300615,-1110.308913,-8512.368333,-1072.533697
236.300937,-1184.329507,-9030.512492,-919.314598
236.301260,-888.247130,-9622.677246,-1149.143247
236.301582,0.000000,-10584.944971,-1532.190996
236.301905,-222.061783,-10362.883188,-1225.752797
236.302227,-222.061783,-10658.965565,-1455.581446
236.302550,296.082377,-10362.883188,-1455.581446
236.302872,740.205942,-10066.800811,-1991.848295
236.303195,1036.288319,-9548.656652,-2451.505594
236.303517,962.267725,-9104.533087,-2221.676944
236.303840,666.185348,-8882.471304,-2451.505594
236.304162,518.144159,-9030.512492,-2757.943793
236.304485,518.144159,-9104.533087,-2834.553343
236.304807,0.000000,-9178.553681,-2987.772442
236.305130,296.082377,-8882.471304,-1838.629195
236.305452,592.164754,-9104.533087,-1991.848295
236.305775,296.082377,-9252.574275,-1915.238745
236.306097,296.082377,-8882.471304,-1455.581446
236.306420,814.226536,-8956.491898,-1302.362347
236.306743,1036.288319,-8734.430116,-229.828649
236.307065,1110.308913,-9030.512492,-459.657299
236.307388,666.185348,-9104.533087,0.000000
236.307710,0.000000,-8956.491898,153.219100
236.308033,0.000000,-8956.491898,0.000000
236.308355,0.000000,-9252.574275,-306.438199
236.308678,74.020594,-9474.636058,-306.438199
236.309000,-444.123565,-8882.471304,0.000000
236.309323,-740.205942,-8660.409521,-306.438199
236.309645,-962.267725,-8512.368333,-459.657299
236.309968,-1258.350101,-8808.450710,-1225.752797
236.310290,-1998.556043,-9178.553681,-2068.457845
236.310613,-2886.803174,-9622.677246,-1838.629195
236.310935,-3256.906145,-9844.739029,-2451.505594
236.311258,-2812.782580,-9992.780217,-2757.943793
236.311580,-2146.597232,-10436.903782,-2681.334243
236.311903,-1258.350101,-10140.821405,-3140.991542
236.312225,-296.082377,-9622.677246,-2604.724693
236.312548,370.102971,-9844.739029,-2145.067394
236.312870,740.205942,-9474.636058,-1991.848295
236.313193,518.144159,-9326.594869,-1915.238745
236.313515,518.144159,-9474.636058,-1762.019645
236.313838,518.144159,-9474.636058,-1455.581446
236.314161,0.000000,-9474.636058,-1225.752797
236.314483,-296.082377,-9474.636058,-919.314598
236.314806,-370.102971,-9474.636058,-689.485948
236.315128,-444.123565,-8956.491898,-842.705048
236.315451,-592.164754,-8882.471304,-1455.581446
236.315773,-666.185348,-8660.409521,-1072.533697
236.316096,-1110.308913,-9474.636058,-1302.362347
236.316418,-1184.329507,-9844.739029,-1455.581446
236.316741,-962.267725,-9918.759623,-1762.019645
236.317063,-1184.329507,-9992.780217,-1762.019645
236.317386,-1258.350101,-10214.842000,-1378.971896
236.317708,-740.205942,-10140.821405,-2068.457845
236.318031,-740.205942,-9622.677246,-1991.848295
236.318353,-592.164754,-9326.594869,-1762.019645
236.318676,-740.205942,-8734.430116,-2145.067394
236.318998,-444.123565,-8216.285956,-1838.629195
236.319321,-370.102971,-8290.306550,-2221.676944
236.319643,-592.164754,-8438.347739,-2145.067394
236.319966,-222.061783,-8364.327145,-2145.067394
236.320288,222.061783,-8364.327145,-2221.676944
236.320611,962.267725,-8364.327145,-1532.190996
236.320933,1702.473667,-9474.636058,-1762.019645
236.321256,1184.329507,-9252.574275,-1302.362347
236.321579,962.267725,-9474.636058,-1225.752797
236.321901,962.267725,-9622.677246,-1532.190996
236.322224,814.226536,-9844.739029,-1378.971896
236.322546,444.123565,-9548.656652,-1072.533697
236.322869,148.041188,-9326.594869,-1072.533697
236.323191,370.102971,-9770.718434,-995.924147
236.323514,74.020594,-9844.739029,-842.705048
236.323836,0.000000,-9696.697840,-766.095498
236.324158,-592.164754,-8882.471304,0.000000
236.324481,-1258.350101,-8808.450710,-1302.362347
236.324803,-1480.411884,-8734.430116,-1378.971896
236.325126,-2072.576638,-8512.368333,-1991.848295
236.325448,-2590.720797,-8586.388927,-2145.067394
236.325770,-3108.864956,-8734.430116,-2451.505594
236.326093,-3256.906145,-9104.533087,-2987.772442
236.326415,-3182.885551,-9696.697840,-3140.991542
236.326738,-2960.823768,-9992.780217,-3140.991542
236.327060,-2368.659014,-10436.903782,-3447.429741
236.327382,-2220.617826,-10807.006753,-2987.772442
236.327705,-962.267725,-10362.883188,-2604.724693
236.328027,-296.082377,-10362.883188,-3217.601092
236.328350,518.144159,-9844.739029,-2451.505594
236.328672,1110.308913,-9474.636058,-1762.019645
236.328994,1184.329507,-9326.594869,-1532.190996
236.329317,1332.370696,-9252.574275,-995.924147
236.329639,1776.494261,-9474.636058,-919.314598
236.329962,1332.370696,-9326.594869,-229.828649
236.330284,1110.308913,-9252.574275,0.000000
236.330606,740.205942,-8586.388927,-153.219100
236.330929,666.185348,-8364.327145,-229.828649
236.331251,518.144159,-8734.430116,-842.705048
236.331574,148.041188,-8438.347739,-536.266849
236.331896,-370.102971,-8956.491898,-612.876398
236.332218,-148.041188,-9992.780217,-1149.143247
236.332541,-222.061783,-10584.944971,-1532.190996
236.332863,0.000000,-11029.068536,-1378.971896
236.333186,-296.082377,-10436.903782,-1532.190996
236.333508,-666.185348,-10288.862594,-1225.752797
236.333830,-814.226536,-9474.636058,-1455.581446
236.334153,-888.247130,-8364.327145,-1685.410096
236.334475,-740.205942,-7920.203579,-2374.896044
236.334798,222.061783,-7846.182985,-1915.238745
236.335120,740.205942,-8068.244768,-1685.410096
236.335442,962.267725,-7994.224174,-1302.362347
236.335765,1258.350101,-8512.368333,-766.095498
236.336087,1628.453072,-9178.553681,-842.705048
236.336410,1998.556043,-9252.574275,-1149.143247
236.336732,1628.453072,-8438.347739,-1378.971896
236.337054,888.247130,-9400.615463,-1302.362347
236.337377,814.226536,-9770.718434,-1455.581446
236.337699,666.185348,-9770.718434,-1072.533697
236.338022,666.185348,-10066.800811,-995.924147
236.338344,0.000000,-9696.697840,-919.314598
236.338666,0.000000,-9770.718434,-995.924147
236.338989,-148.041188,-9622.677246,-1225.752797
236.339311,-666.185348,-9696.697840,-1225.752797
236.339634,-740.205942,-9474.636058,-689.485948
236.339956,-1258.350101,-9178.553681,-689.485948
236.340278,-1480.411884,-8956.491898,-1302.362347
236.340601,-1924.535449,-8882.471304,-1685.410096
236.340923,-2664.741391,-8734.430116,-1915.238745
236.341246,-3330.926739,-9104.533087,-2374.896044
236.341568,-3775.050304,-9252.574275,-2528.115143
236.341890,-4589.276840,-9326.594869,-3524.039291
236.342213,-4145.153275,-9622.677246,-3600.648841
236.342535,-3627.009116,-9770.718434,-3600.648841
236.342858,-2886.803174,-10066.800811,-3753.867940
236.343180,-2294.638420,-9992.780217,-3600.648841
236.343502,-1480.411884,-9696.697840,-2911.162892
236.343825,-518.144159,-10436.903782,-2374.896044
236.344147,0.000000,-10066.800811,-1991.848295
236.344470,148.041188,-9548.656652,-1762.019645
236.344792,592.164754,-9474.636058,-1378.971896
236.345114,740.205942,-8734.430116,-1072.533697
236.345437,592.164754,-8586.388927,-306.438199
236.345759,74.020594,-8660.409521,0.000000
236.346082,-222.061783,-8364.327145,0.000000
236.346404,-222.061783,-7920.203579,-536.266849
236.346726,-74.020594,-8290.306550,-995.924147
236.347049,-148.041188,-8364.327145,-842.705048
236.347371,0.000000,-9178.553681,-1378.971896
236.347694,0.000000,-9474.636058,-1149.143247
236.348016,0.000000,-9474.636058,-1838.629195
236.348338,0.000000,-10436.903782,-2145.067394
236.348661,148.041188,-10881.027347,-1915.238745
236.348983,-1036.288319,-10362.883188,-1915.238745
236.349306,-1036.288319,-9474.636058,-2068.457845
236.349628,-888.247130,-8956.491898,-2451.505594
236.349950,-296.082377,-9104.533087,-2451.505594
236.350273,0.000000,-8956.491898,-2374.896044
236.350595,148.041188,-8142.265362,-1302.362347
236.350918,222.061783,-8660.409521,-1378.971896
236.351240,962.267725,-8660.409521,-995.924147
236.351562,1702.473667,-8586.388927,-842.705048
236.351885,1702.473667,-8364.327145,-842.705048
236.352207,1480.411884,-8660.409521,-689.485948
236.352530,1628.453072,-9326.594869,-842.705048
236.352852,1406.391290,-10066.800811,-766.095498
236.353174,1332.370696,-10214.842000,-919.314598
236.353497,962.267725,-10214.842000,-383.047749
236.353819,814.226536,-10066.800811,-306.438199
236.354142,666.185348,-10658.965565,-842.705048
236.354464,370.102971,-10214.842000,-383.047749
236.354786,-444.123565,-9474.636058,-306.438199
236.355109,-814.226536,-9178.553681,-919.314598
236.355431,-888.247130,-8512.368333,-842.705048
236.355754,-1480.411884,-8734.430116,-1149.143247
236.356076,-2368.659014,-8956.491898,-1608.800546
236.356398,-2960.823768,-9326.594869,-1302.362347
236.356721,-3256.906145,-9622.677246,-1991.848295
236.357043,-3478.967927,-9474.636058,-2528.115143
236.357366,-3182.885551,-9622.677246,-2681.334243
236.357688,-2738.761985,-9622.677246,-3217.601092
236.358010,-2590.720797,-9770.718434,-3064.381992
236.358333,-1776.494261,-9252.574275,-2681.334243
236.358655,-1036.288319,-8956.491898,-2604.724693
236.358978,-444.123565,-9474.636058,-2298.286494
236.359300,148.041188,-9696.697840,-2528.115143
236.359622,370.102971,-10066.800811,-1532.190996
236.359945,518.144159,-9770.718434,-1378.971896
236.360267,962.267725,-9696.697840,-995.924147
236.360590,1036.288319,-9770.718434,-1072.533697
236.360912,666.185348,-9474.636058,0.000000
236.361234,-148.041188,-8438.347739,0.000000
236.361557,-814.226536,-8216.285956,-536.266849
236.361879,-1184.329507,-8438.347739,-766.095498
236.362202,-1406.391290,-8438.347739,-1225.752797
236.362524,-2220.617826,-8586.388927,-1225.752797
236.362846,-1702.473667,-9326.594869,-1532.190996
236.363169,-962.267725,-10066.800811,-1762.019645
236.363491,-370.102971,-10732.986159,-2451.505594
236.363814,0.000000,-10584.944971,-2145.067394
236.364136,-444.123565,-9844.739029,-1838.629195
236.364458,-370.102971,-9548.656652,-1991.848295
236.364781,-74.020594,-9548.656652,-2834.553343
236.365103,222.061783,-9104.533087,-2987.772442
236.365426,814.226536,-8808.450710,-2604.724693
236.365748,1184.329507,-8364.327145,-2374.896044
236.366070,2220.617826,-7994.224174,-1532.190996
236.366393,2738.761985,-8142.265362,-1378.971896
236.366715,2516.700203,-8364.327145,-1455.581446
236.367038,2220.617826,-8660.409521,-1762.019645
236.367360,1702.473667,-9326.594869,-1762.019645
236.367682,1554.432478,-9400.615463,-1838.629195
236.368005,1332.370696,-9844.739029,-1378.971896
236.368327,962.267725,-9696.697840,-1149.143247
236.368650,814.226536,-9770.718434,-995.924147
236.368972,592.164754,-9844.739029,-766.095498
236.369294,222.061783,-10214.842000,-689.485948
236.369617,0.000000,-10436.903782,-919.314598
236.369939,-888.247130,-9992.780217,-689.485948
236.370262,-1332.370696,-10140.821405,-1149.143247
236.370584,-1776.494261,-9474.636058,-1378.971896
236.370906,-2220.617826,-8882.471304,-1532.190996
236.371229,-2294.638420,-8660.409521,-1072.533697
236.371551,-2368.659014,-8882.471304,-1302.362347
236.371874,-2960.823768,-8660.409521,-1455.581446
236.372196,-3404.947333,-8734.430116,-1991.848295
236.372518,-3478.967927,-9326.594869,-2834.553343
236.372841,-2368.659014,-9548.656652,-2681.334243
236.373163,-1924.535449,-10140.821405,-2911.162892
236.373486,-1184.329507,-9622.677246,-2757.943793
236.373808,-518.144159,-9474.636058,-2604.724693
236.374130,222.061783,-9622.677246,-2221.676944
236.374453,518.144159,-9622.677246,-1532.190996
236.374775,666.185348,-9992.780217,-1302.362347
236.375098,518.144159,-9992.780217,-1685.410096
236.375420,74.020594,-9622.677246,-1378.971896
236.375742,-370.102971,-9474.636058,-536.266849
236.376065,-740.205942,-9104.533087,0.000000
236.376387,-1332.370696,-8808.450710,0.000000
236.376710,-1702.473667,-8142.265362,-229.828649
236.377032,-1998.556043,-8068.244768,-689.485948
236.377354,-2072.576638,-8438.347739,-1149.143247
236.377677,-1998.556043,-8956.491898,-1532.190996
236.377999,-1554.432478,-9844.739029,-1455.581446
236.378322,-1110.308913,-10066.800811,-1608.800546
236.378644,-814.226536,-9992.780217,-1838.629195
236.378966,-518.144159,-10140.821405,-2374.896044
236.379289,-444.123565,-10584.944971,-2451.505594
236.379611,-592.164754,-10362.883188,-2374.896044
236.379934,-370.102971,-10214.842000,-1991.848295
236.380256,-296.082377,-9992.780217,-2221.676944
236.380578,148.041188,-9474.636058,-2298.286494
236.380901,296.082377,-9178.553681,-1532.190996
236.381223,592.164754,-8512.368333,-1378.971896
236.381546,1036.288319,-7920.203579,-1149.143247
236.381868,1110.308913,-7105.977043,-1378.971896
236.382190,1628.453072,-7846.182985,-1149.143247
236.382513,1480.411884,-8142.265362,-919.314598
236.382835,1110.308913,-8882.471304,-1225.752797
236.383158,666.185348,-9474.636058,-1149.143247
236.383480,1110.308913,-10066.800811,-1149.143247
236.383802,1184.329507,-10584.944971,-1608.800546
236.384125,740.205942,-10584.944971,-1378.971896
236.384447,444.123565,-10288.862594,-1608.800546
236.384770,222.061783,-9770.718434,-1532.190996
236.385092,0.000000,-9696.697840,-1532.190996
236.385414,-740.205942,-9474.636058,-1532.190996
236.385737,-1036.288319,-9326.594869,-1378.971896
236.386059,-1480.411884,-9178.553681,-1532.190996
236.386382,-1628.453072,-8882.471304,-1532.190996
236.386704,-1702.473667,-8808.450710,-1838.629195
236.387026,-1702.473667,-9104.533087,-2068.457845
236.387349,-2294.638420,-8364.327145,-1532.190996
236.387671,-2220.617826,-8290.306550,-1838.629195
236.387994,-2146.597232,-8956.491898,-2451.505594
236.388316,-1850.514855,-9326.594869,-2757.943793
236.388638,-1554.432478,-9474.636058,-2834.553343
236.388961,-962.267725,-9770.718434,-2604.724693
236.389283,-148.041188,-9474.636058,-2604.724693
236.389606,592.164754,-9918.759623,-2681.334243
236.389928,1036.288319,-10288.862594,-2604.724693
236.390250,1184.329507,-10066.800811,-2145.067394
236.390573,888.247130,-9992.780217,-1149.143247
236.390895,296.082377,-10066.800811,-1378.971896
236.391218,296.082377,-10066.800811,-1455.581446
236.391540,0.000000,-9548.656652,-1072.533697
236.391862,-888.247130,-8808.450710,-383.047749
236.392185,-740.205942,-8438.347739,-459.657299
236.392507,-1332.370696,-8438.347739,-766.095498
236.392830,-1258.350101,-8956.491898,-1225.752797
236.393152,-1332.370696,-9326.594869,-1225.752797
236.393474,-1258.350101,-9770.718434,-1149.143247
236.393797,-1110.308913,-9992.780217,-1455.581446
236.394119,-592.164754,-10584.944971,-1608.800546
236.394442,-444.123565,-10288.862594,-1608.800546
236.394764,-222.061783,-9844.739029,-1685.410096
236.395086,-148.041188,-9770.718434,-1991.848295
236.395409,444.123565,-9548.656652,-2451.505594
236.395731,666.185348,-9474.636058,-2374.896044
236.396054,1036.288319,-9252.574275,-1915.238745
236.396376,1628.453072,-8956.491898,-1455.581446
236.396698,1554.432478,-8364.327145,-1225.752797
236.397021,1628.453072,-7402.059420,-1378.971896
236.397343,1702.473667,-7105.977043,-1149.143247
236.397666,1480.411884,-7550.100608,-1149.143247
236.397988,1036.288319,-8438.347739,-1225.752797
236.398310,296.082377,-8660.409521,-1149.143247
236.398633,0.000000,-9326.594869,-842.705048
236.398955,0.000000,-9622.677246,-919.314598
236.399278,74.020594,-9992.780217,-919.314598
236.399600,0.000000,-10214.842000,-919.314598
236.399922,-444.123565,-10288.862594,-1072.533697
236.400245,-740.205942,-9918.759623,-766.095498
236.400567,-962.267725,-9844.739029,-1302.362347
236.400890,-666.185348,-10066.800811,-1762.019645
236.401212,-1554.432478,-9548.656652,-995.924147
236.401534,-1554.432478,-9548.656652,-1532.190996
236.401857,-1628.453072,-9474.636058,-1378.971896
236.402179,-1628.453072,-9252.574275,-1149.143247
236.402502,-1998.556043,-8660.409521,-1378.971896
236.402824,-2442.679609,-8290.306550,-1838.629195
236.403146,-2516.700203,-8364.327145,-2757.943793
236.403469,-2442.679609,-8660.409521,-3140.991542
236.403791,-1998.556043,-9400.615463,-2911.162892
236.404114,-1924.535449,-9474.636058,-2374.896044
236.404436,-888.247130,-9548.656652,-2528.115143
236.404758,-518.144159,-10214.842000,-2451.505594
236.405081,148.041188,-10214.842000,-2451.505594
236.405403,444.123565,-10436.903782,-2298.286494
236.405726,148.041188,-9918.759623,-2145.067394
236.406048,0.000000,-9326.594869,-1685.410096
236.406370,-666.185348,-9474.636058,-1532.190996
236.406693,-1036.288319,-9252.574275,-1149.143247
236.407015,-1480.411884,-9104.533087,-919.314598
236.407338,-1628.453072,-9178.553681,-612.876398
236.407660,-1554.432478,-9104.533087,-842.705048
236.407982,-1628.453072,-8290.306550,-995.924147
236.408305,-1480.411884,-9030.512492,-1225.752797
236.408627,-1184.329507,-9474.636058,-1378.971896
236.408950,-962.267725,-9178.553681,-1608.800546
236.409272,-444.123565,-9548.656652,-1608.800546
236.409594,222.061783,-10214.842000,-1915.238745
236.409917,518.144159,-10510.924376,-1915.238745
236.410239,370.102971,-10732.986159,-1608.800546
236.410562,370.102971,-10732.986159,-1685.410096
236.410884,814.226536,-10066.800811,-1762.019645
236.411206,1036.288319,-9178.553681,-1685.410096
236.411529,1110.308913,-8512.368333,-1608.800546
236.411851,962.267725,-7698.141797,-1225.752797
236.412174,1110.308913,-7254.018232,-1149.143247
236.412496,888.247130,-7105.977043,-1302.362347
236.412818,1184.329507,-7698.141797,-689.485948
236.413141,518.144159,-7994.224174,-1072.533697
236.413463,592.164754,-9104.533087,-1302.362347
236.413786,296.082377,-9696.697840,-1302.362347
236.414108,222.061783,-10066.800811,-1149.143247
236.414430,444.123565,-10510.924376,-1225.752797
236.414753,0.000000,-9918.759623,-1302.362347
236.415075,-370.102971,-9992.780217,-1302.362347
236.415398,-74.020594,-10214.842000,-1532.190996
236.415720,0.000000,-10214.842000,-1225.752797
236.416042,-444.123565,-10066.800811,-1149.143247
236.416365,-814.226536,-9622.677246,-1225.752797
236.416687,-592.164754,-9474.636058,-1532.190996
236.417010,-592.164754,-9252.574275,-995.924147
236.417332,-962.267725,-8882.471304,-1149.143247
236.417654,-1480.411884,-8364.327145,-1072.533697
236.417977,-1850.514855,-8216.285956,-919.314598
236.418299,-1924.535449,-8586.388927,-1608.800546
236.418622,-1924.535449,-8512.368333,-2374.896044
236.418944,-1702.473667,-9252.574275,-2298.286494
236.419266,-1480.411884,-9474.636058,-2681.334243
236.419589,-1184.329507,-9770.718434,-2604.724693
236.419911,-740.205942,-9844.739029,-2604.724693
236.420234,0.000000,-9918.759623,-2757.943793
236.420556,0.000000,-9992.780217,-2451.505594
236.420878,148.041188,-9992.780217,-2374.896044
236.421201,74.020594,-9770.718434,-2145.067394
236.421523,148.041188,-9918.759623,-1915.238745
236.421845,0.000000,-9770.718434,-1072.533697
236.422168,-296.082377,-9622.677246,-766.095498
236.422490,-740.205942,-9178.553681,-842.705048
236.422813,-1406.391290,-8512.368333,-612.876398
236.423135,-1332.370696,-8364.327145,-1149.143247
236.423457,-1036.288319,-8956.491898,-1455.581446
236.423780,-1184.329507,-8808.450710,-1225.752797
236.424102,-1332.370696,-9252.574275,-1302.362347
236.424424,-1110.308913,-9696.697840,-1302.362347
236.424747,-444.123565,-10140.821405,-1378.971896
236.425069,74.020594,-10658.965565,-1608.800546
236.425392,296.082377,-10658.965565,-1838.629195
236.425714,444.123565,-10436.903782,-1608.800546
236.426036,666.185348,-9918.759623,-1762.019645
236.426359,1036.288319,-9252.574275,-1991.848295
236.426681,1554.432478,-8808.450710,-1762.019645
236.427003,1850.514855,-7920.203579,-1915.238745
236.427326,1998.556043,-7846.182985,-1455.581446
236.427648,2294.638420,-7624.121203,-1378.971896
236.427971,1924.535449,-7846.182985,-1149.143247
236.428293,1702.473667,-8142.265362,-1072.533697
236.428615,962.267725,-7846.182985,-1302.362347
236.428938,740.205942,-8438.347739,-1378.971896
236.429260,0.000000,-9252.574275,-1915.238745
236.429582,-222.061783,-9622.677246,-1532.190996
236.429905,0.000000,-10288.862594,-1455.581446
236.430227,-592.164754,-10584.944971,-1378.971896
236.430550,-740.205942,-10436.903782,-1302.362347
236.430872,-740.205942,-10510.924376,-1072.533697
236.431194,-888.247130,-10288.862594,-1225.752797
236.431517,-1110.308913,-9844.739029,-1302.362347
236.431839,-1332.370696,-9696.697840,-1072.533697
236.432161,-1184.329507,-9400.615463,-919.314598
236.432484,-1480.411884,-8586.388927,-1225.752797
236.432806,-1406.391290,-8734.430116,-1915.238745
236.433129,-1702.473667,-8734.430116,-1378.971896
236.433451,-1850.514855,-8808.450710,-1378.971896
236.433773,-2146.597232,-8660.409521,-2068.457845
236.434096,-2146.597232,-8734.430116,-2528.115143
236.434418,-1850.514855,-9252.574275,-3064.381992
236.434741,-1702.473667,-9844.739029,-2757.943793
236.435063,-1036.288319,-10066.800811,-3217.601092
236.435385,-888.247130,-9770.718434,-2911.162892
236.435708,-444.123565,-9770.718434,-2068.457845
236.436030,0.000000,-10362.883188,-2374.896044
236.436352,0.000000,-10362.883188,-1915.238745
236.436675,-740.205942,-9770.718434,-1608.800546
236.436997,-1480.411884,-9474.636058,-1608.800546
236.437320,-1554.432478,-8956.491898,-1302.362347
236.437642,-1702.473667,-8660.409521,-995.924147
236.437964,-1924.535449,-9030.512492,-766.095498
236.438287,-2146.597232,-8734.430116,-612.876398
236.438609,-1924.535449,-8734.430116,-459.657299
236.438931,-1702.473667,-8956.491898,-842.705048
236.439254,-888.247130,-9178.553681,-1685.410096
236.439576,-518.144159,-9400.615463,-1455.581446
236.439899,-296.082377,-9474.636058,-1608.800546
236.440221,74.020594,-9548.656652,-1608.800546
236.440543,518.144159,-9918.759623,-2068.457845
236.440866,444.123565,-9770.718434,-2298.286494
236.441188,592.164754,-10510.924376,-1991.848295
236.441510,592.164754,-10362.883188,-1685.410096
236.441833,296.082377,-9844.739029,-2145.067394
236.442155,592.164754,-9474.636058,-1685.410096
236.442478,814.226536,-8068.244768,-1378.971896
236.442800,1036.288319,-7179.997637,-1225.752797
236.443122,962.267725,-6883.915261,-1455.581446
236.443445,1184.329507,-7105.977043,-1225.752797
236.443767,740.205942,-7994.224174,-1072.533697
236.444089,370.102971,-8882.471304,-1608.800546
236.444412,148.041188,-9104.533087,-842.705048
236.444734,-222.061783,-10066.800811,-1378.971896
236.445057,-222.061783,-10362.883188,-1455.581446
236.445379,0.000000,-10658.965565,-1532.190996
236.445701,148.041188,-10140.821405,-1378.971896
236.446024,74.020594,-9622.677246,-1378.971896
236.446346,148.041188,-9622.677246,-1685.410096
236.446668,0.000000,-10066.800811,-1149.143247
236.446991,-666.185348,-10214.842000,-1149.143247
236.447313,-888.247130,-10066.800811,-1302.362347
236.447636,-740.205942,-9696.697840,-1302.362347
236.447958,-814.226536,-8808.450710,-1608.800546
236.448280,-592.164754,-8660.409521,-1225.752797
236.448603,-888.247130,-8290.306550,-919.314598
236.448925,-962.267725,-8290.306550,-1378.971896
236.449248,-814.226536,-8068.244768,-1915.238745
236.449570,-1258.350101,-8512.368333,-1915.238745
236.449892,-1184.329507,-9178.553681,-2374.896044
236.450215,-962.267725,-9770.718434,-2374.896044
236.450537,-888.247130,-10214.842000,-2451.505594
236.450859,-666.185348,-9992.780217,-2528.115143
236.451182,-592.164754,-9844.739029,-2834.553343
236.451504,-296.082377,-9918.759623,-2681.334243
236.451827,-296.082377,-9992.780217,-2374.896044
236.452149,-444.123565,-9992.780217,-2068.457845
236.452471,-666.185348,-9992.780217,-1608.800546
236.452794,-814.226536,-9844.739029,-1608.800546
236.453116,-888.247130,-9622.677246,-1685.410096
236.453438,-1332.370696,-9252.574275,-1149.143247
236.453761,-1628.453072,-8956.491898,-1149.143247
236.454083,-1480.411884,-8660.409521,-1149.143247
236.454406,-1110.308913,-9178.553681,-1608.800546
236.454728,-888.247130,-9030.512492,-1378.971896
236.455050,-518.144159,-9252.574275,-1608.800546
236.455373,-148.041188,-9992.780217,-1378.971896
236.455695,370.102971,-10510.924376,-1762.019645
236.456017,666.185348,-10732.986159,-1532.190996
236.456340,814.226536,-10658.965565,-1455.581446
236.456662,888.247130,-10362.883188,-1302.362347
236.456985,1036.288319,-10140.821405,-1608.800546
236.457307,1332.370696,-9326.594869,-1378.971896
236.457629,1480.411884,-8364.327145,-1149.143247
236.457952,1776.494261,-7624.121203,-1302.362347
236.458274,1850.514855,-6587.832884,-1225.752797
236.458596,1184.329507,-7031.956449,-1149.143247
236.458919,592.164754,-7254.018232,-1149.143247
236.459241,0.000000,-8142.265362,-1149.143247
236.459564,-666.185348,-9178.553681,-1532.190996
236.459886,-1480.411884,-9400.615463,-919.314598
236.460208,-1554.432478,-10510.924376,-1608.800546
236.460531,-1628.453072,-10362.883188,-1149.143247
236.460853,-1480.411884,-10362.883188,-1455.581446
236.461176,-1184.329507,-9918.759623,-1302.362347
236.461498,-962.267725,-9622.677246,-1149.143247
236.461820,-666.185348,-9622.677246,-1378.971896
236.462143,-1036.288319,-9844.739029,-1378.971896
236.462465,-888.247130,-10066.800811,-1072.533697
236.462787,-1110.308913,-9770.718434,-842.705048
236.463110,-962.267725,-9400.615463,-459.657299
236.463432,-1184.329507,-8660.409521,-995.924147
236.463755,-666.185348,-8290.306550,-1072.533697
236.464077,-962.267725,-8068.244768,-1149.143247
236.464399,-1258.350101,-7846.182985,-1608.800546
236.464722,-1332.370696,-8216.285956,-2221.676944
236.465044,-1110.308913,-8290.306550,-2221.676944
236.465366,-740.205942,-9474.636058,-2757.943793
236.465689,-1036.288319,-9992.780217,-3140.991542
236.466011,-1184.329507,-10510.924376,-2681.334243
236.466334,-962.267725,-10807.006753,-2987.772442
236.466656,-370.102971,-10362.883188,-2298.286494
236.466978,-592.164754,-9992.780217,-2221.676944
236.467301,-888.247130,-9992.780217,-2451.505594
236.467623,-888.247130,-9696.697840,-2145.067394
236.467945,-1184.329507,-9474.636058,-1532.190996
236.468268,-1332.370696,-9474.636058,-1149.143247
236.468590,-1480.411884,-9252.574275,-612.876398
236.468913,-1850.514855,-9178.553681,-1302.362347
236.469235,-1850.514855,-8808.450710,-1149.143247
236.469557,-1332.370696,-8808.450710,-1072.533697
236.469880,-740.205942,-8808.450710,-1302.362347
236.470202,-444.123565,-9178.553681,-1072.533697
236.470524,148.041188,-8882.471304,-1149.143247
236.470847,148.041188,-9178.553681,-1378.971896
236.471169,518.144159,-9918.759623,-1608.800546
236.471492,888.247130,-10658.965565,-1762.019645
236.471814,740.205942,-10732.986159,-1608.800546
236.472136,666.185348,-10214.842000,-1072.533697
236.472459,592.164754,-9548.656652,-1608.800546
236.472781,814.226536,-8956.491898,-1532.190996
236.473103,1258.350101,-8142.265362,-1608.800546
236.473426,1036.288319,-7550.100608,-1455.581446
236.473748,888.247130,-7031.956449,-842.705048
236.474071,1184.329507,-7624.121203,-1608.800546
236.474393,518.144159,-7994.224174,-1302.362347
236.474715,222.061783,-8808.450710,-995.924147
236.475038,-296.082377,-9400.615463,-1072.533697
236.475360,-814.226536,-9474.636058,-1225.752797
236.475683,-962.267725,-9770.718434,-1608.800546
236.476005,-962.267725,-10140.821405,-1532.190996
236.476327,-1184.329507,-10288.862594,-1532.190996
236.476650,-1036.288319,-9992.780217,-1455.581446
236.476972,-962.267725,-10066.800811,-1378.971896
236.477294,-518.144159,-10066.800811,-1302.362347
236.477617,-518.144159,-10658.965565,-1532.190996
236.477939,-888.247130,-10066.800811,-842.705048
236.478262,-592.164754,-9696.697840,-995.924147
236.478584,-592.164754,-8956.491898,-842.705048
236.478906,-222.061783,-8882.471304,-766.095498
236.479229,-296.082377,-8808.450710,-1149.143247
236.479551,-814.226536,-8364.327145,-1378.971896
236.479873,-962.267725,-8364.327145,-1608.800546
236.480196,-1258.350101,-8882.471304,-1915.238745
236.480518,-1332.370696,-9178.553681,-2068.457845
236.480841,-1258.350101,-9474.636058,-2221.676944
236.481163,-1480.411884,-9622.677246,-2451.505594
236.481485,-1184.329507,-9474.636058,-2298.286494
236.481808,-1036.288319,-9622.677246,-2528.115143
236.482130,-666.185348,-9548.656652,-2451.505594
236.482452,-370.102971,-9770.718434,-2298.286494
236.482775,-592.164754,-9548.656652,-2221.676944
236.483097,-1110.308913,-9918.759623,-1608.800546
236.483420,-1184.329507,-9548.656652,-1302.362347
236.483742,-1406.391290,-9548.656652,-1302.362347
236.484064,-1332.370696,-9030.512492,-766.095498
236.484387,-1332.370696,-8808.450710,-1455.581446
236.484709,-1776.494261,-8586.388927,-1302.362347
236.485031,-1036.288319,-8808.450710,-1532.190996
236.485354,-592.164754,-8882.471304,-1762.019645
236.485676,-444.123565,-9252.574275,-1378.971896
236.485999,148.041188,-9770.718434,-1378.971896
236.486321,666.185348,-10066.800811,-1762.019645
236.486643,1332.370696,-10362.883188,-1608.800546
236.486966,1776.494261,-10436.903782,-1532.190996
236.487288,1924.535449,-10140.821405,-1225.752797
236.487611,1776.494261,-9474.636058,-842.705048
236.487933,2294.638420,-9104.533087,-1685.410096
236.488255,2072.576638,-8142.265362,-1455.581446
236.488578,2368.659014,-7920.203579,-1378.971896
236.488900,2220.617826,-7402.059420,-1378.971896
236.489222,1850.514855,-7031.956449,-1532.190996
236.489545,1184.329507,-7402.059420,-1225.752797
236.489867,518.144159,-8512.368333,-1302.362347
236.490190,0.000000,-8956.491898,-1915.238745
236.490512,-888.247130,-9474.636058,-2145.067394
236.490834,-1554.432478,-10066.800811,-2221.676944
236.491157,-1332.370696,-10584.944971,-2451.505594
236.491479,-1924.535449,-10288.862594,-1685.410096
236.491801,-1480.411884,-10658.965565,-1838.629195
236.492124,-1184.329507,-10362.883188,-1762.019645
236.492446,-962.267725,-10288.862594,-1608.800546
236.492769,-666.185348,-10436.903782,-1532.190996
236.493091,-740.205942,-10584.944971,-1608.800546
236.493413,-1110.308913,-10140.821405,-1302.362347
236.493736,-1110.308913,-9696.697840,-536.266849
236.494058,-814.226536,-8882.471304,-689.485948
236.494380,-814.226536,-8734.430116,-1072.533697
236.494703,-518.144159,-8068.244768,-1762.019645
236.495025,-962.267725,-7994.224174,-1455.581446
236.495348,-1110.308913,-8290.306550,-1762.019645
236.495670,-1184.329507,-8956.491898,-2298.286494
236.495992,-1406.391290,-9474.636058,-2528.115143
236.496315,-1406.391290,-9844.739029,-2681.334243
236.496637,-1480.411884,-9844.739029,-3217.601092
236.496959,-1554.432478,-10436.903782,-2757.943793
236.497282,-1332.370696,-10584.944971,-2757.943793
236.497604,-1332.370696,-10436.903782,-2298.286494
236.497927,-1406.391290,-9918.759623,-2145.067394
236.498249,-1702.473667,-9622.677246,-1685.410096
236.498571,-2146.597232,-9548.656652,-1532.190996
236.498894,-2146.597232,-9400.615463,-1225.752797
236.499216,-2072.576638,-9326.594869,-612.876398
236.499538,-2072.576638,-9178.553681,-842.705048
236.499861,-1998.556043,-8364.327145,-459.657299
236.500183,-1554.432478,-8142.265362,-766.095498
236.500506,-1110.308913,-8216.285956,-612.876398
236.500828,-666.185348,-8586.388927,-1072.533697
236.501150,-222.061783,-8734.430116,-1225.752797
236.501473,148.041188,-9178.553681,-919.314598
236.501795,592.164754,-9918.759623,-1532.190996
236.502118,1036.288319,-10584.944971,-1532.190996
236.502440,1332.370696,-10881.027347,-1685.410096
236.502762,1258.350101,-10288.862594,-1685.410096
236.503085,1406.391290,-9992.780217,-1608.800546
236.503407,1924.535449,-8734.430116,-1302.362347
236.503729,1628.453072,-8438.347739,-1608.800546
236.504052,1776.494261,-7920.203579,-1532.190996
236.504374,1554.432478,-7476.080014,-1378.971896
236.504697,1184.329507,-7402.059420,-1455.581446
236.505019,962.267725,-7772.162391,-766.095498
236.505341,666.185348,-8364.327145,-1302.362347
236.505664,148.041188,-8956.491898,-1225.752797
236.505986,-296.082377,-9252.574275,-1915.238745
236.506308,-666.185348,-9696.697840,-1838.629195
236.506631,-740.205942,-9474.636058,-1378.971896
236.506953,-444.123565,-10214.842000,-1838.629195
236.507276,-518.144159,-9992.780217,-1685.410096
236.507598,-444.123565,-10436.903782,-1838.629195
236.507920,-296.082377,-10584.944971,-1532.190996
236.508243,-296.082377,-10807.006753,-1302.362347
236.508565,-222.061783,-10807.006753,-1532.190996
236.508887,-370.102971,-10066.800811,-1302.362347
236.509210,0.000000,-9622.677246,-1225.752797
236.509532,-148.041188,-8808.450710,-1225.752797
236.509855,-370.102971,-8364.327145,-1149.143247
236.510177,-518.144159,-8142.265362,-919.314598
236.510499,-888.247130,-8068.244768,-1532.190996
236.510822,-1480.411884,-7994.224174,-1991.848295
236.511144,-1850.514855,-8882.471304,-2451.505594
236.511466,-1628.453072,-9474.636058,-2528.115143
236.511789,-1628.453072,-9400.615463,-2528.115143
236.512111,-1258.350101,-9104.533087,-2681.334243
236.512434,-1036.288319,-9474.636058,-2987.772442
236.512756,-518.144159,-9622.677246,-2757.943793
236.513078,-592.164754,-9992.780217,-2528.115143
236.513401,-962.267725,-9918.759623,-2298.286494
236.513723,-1036.288319,-10066.800811,-1991.848295
236.514045,-1258.350101,-10140.821405,-2068.457845
236.514368,-1554.432478,-10288.862594,-1532.190996
236.514690,-1554.432478,-9844.739029,-1302.362347
236.515013,-1924.535449,-9104.533087,-1072.533697
236.515335,-2294.638420,-8216.285956,-842.705048
236.515657,-1554.432478,-8808.450710,-1762.019645
236.515980,-1332.370696,-8808.450710,-1225.752797
236.516302,-1110.308913,-9104.533087,-1225.752797
236.516625,-740.205942,-9474.636058,-1378.971896
236.516947,0.000000,-9844.739029,-1532.190996
236.517269,666.185348,-10362.883188,-1608.800546
236.517592,1406.391290,-10732.986159,-1455.581446
236.517914,1924.535449,-11029.068536,-1149.143247
236.518236,1924.535449,-10436.903782,-1225.752797
236.518559,2368.659014,-9770.718434,-1378.971896
236.518881,2516.700203,-9178.553681,-1225.752797
236.519204,2738.761985,-8142.265362,-1762.019645
236.519526,2738.761985,-7624.121203,-1378.971896
236.519848,2442.679609,-7254.018232,-1225.752797
236.520171,2146.597232,-7254.018232,-1149.143247
236.520493,1480.411884,-7624.121203,-995.924147
236.520815,888.247130,-8438.347739,-1225.752797
236.521138,-222.061783,-9030.512492,-1149.143247
236.521460,-1110.308913,-9622.677246,-1762.019645
236.521783,-1480.411884,-10140.821405,-1608.800546
236.522105,-1554.432478,-10214.842000,-1532.190996
236.522427,-1258.350101,-10066.800811,-1149.143247
236.522750,-1184.329507,-9770.718434,-1762.019645
236.523072,-1332.370696,-9770.718434,-1532.190996
236.523394,-1184.329507,-9918.759623,-1225.752797
236.523717,-1184.329507,-10066.800811,-1532.190996
236.524039,-1406.391290,-10066.800811,-689.485948
236.524361,-1406.391290,-9844.739029,-919.314598
236.524683,-1332.370696,-9400.615463,-919.314598
236.525006,-1258.350101,-9178.553681,-1149.143247
236.525328,-1036.288319,-8660.409521,-995.924147
236.525650,-888.247130,-8364.327145,-1302.362347
236.525972,-740.205942,-8142.265362,-1915.238745
236.526295,-1110.308913,-7920.203579,-2068.457845
236.526617,-962.267725,-8734.430116,-2298.286494
236.526939,-888.247130,-9474.636058,-2451.505594
236.527261,-592.164754,-9992.780217,-2374.896044
236.527583,-740.205942,-9844.739029,-2451.505594
236.527906,-370.102971,-9622.677246,-2604.724693
236.528228,-222.061783,-10066.800811,-2374.896044
236.528550,-592.164754,-10140.821405,-2145.067394
236.528872,-888.247130,-9918.759623,-1762.019645
236.529195,-1850.514855,-9178.553681,-1991.848295
236.529517,-2146.597232,-9104.533087,-1608.800546
236.529839,-2664.741391,-9474.636058,-1608.800546
236.530161,-2738.761985,-9770.718434,-1532.190996
236.530484,-3256.906145,-9104.533087,-1455.581446
236.530806,-3256.906145,-8734.430116,-1302.362347
236.531128,-1998.556043,-8438.347739,-1455.581446
236.531450,-1850.514855,-8586.388927,-1915.238745
236.531773,-1184.329507,-9178.553681,-2068.457845
236.532095,-814.226536,-9474.636058,-1838.629195
236.532417,0.000000,-9696.697840,-2221.676944
236.532739,444.123565,-10288.862594,-1915.238745
236.533062,1554.432478,-10510.924376,-2221.676944
236.533384,1480.411884,-10732.986159,-1915.238745
236.533706,1850.514855,-10584.944971,-1608.800546
236.534028,1998.556043,-9844.739029,-1608.800546
236.534351,2220.617826,-9178.553681,-1762.019645
236.534673,2516.700203,-8512.368333,-1072.533697
236.534995,2516.700203,-7698.141797,-1149.143247
236.535317,2294.638420,-7476.080014,-1225.752797
236.535640,2072.576638,-7624.121203,-1149.143247
236.535962,1628.453072,-8216.285956,-1149.143247
236.536284,1184.329507,-8882.471304,-842.705048
236.536606,0.000000,-9326.594869,-1455.581446
236.536929,-740.205942,-9844.739029,-1378.971896
236.537251,-740.205942,-10288.862594,-1608.800546
236.537573,-1258.350101,-10362.883188,-1608.800546
236.537895,-1036.288319,-10288.862594,-1685.410096
236.538218,-888.247130,-10362.883188,-2068.457845
236.538540,-1036.288319,-10436.903782,-1915.238745
236.538862,-962.267725,-10510.924376,-1378.971896
236.539184,-1036.288319,-10214.842000,-1378.971896
236.539507,-1110.308913,-10066.800811,-1225.752797
236.539829,-814.226536,-9548.656652,-995.924147
236.540151,-1036.288319,-9030.512492,-842.705048
236.540473,-814.226536,-8808.450710,-766.095498
236.540795,-444.123565,-8142.265362,-919.314598
236.541118,-296.082377,-7846.182985,-1072.533697
236.541440,74.020594,-7698.141797,-1378.971896
236.541762,0.000000,-7994.224174,-1378.971896
236.542084,0.000000,-8290.306550,-1762.019645
236.542407,-296.082377,-9030.512492,-1991.848295
236.542729,-222.061783,-9770.718434,-2068.457845
236.543051,-444.123565,-9548.656652,-2068.457845
236.543373,0.000000,-9992.780217,-2068.457845
236.543696,-370.102971,-9844.739029,-2374.896044
236.544018,-444.123565,-9548.656652,-2451.505594
236.544340,-518.144159,-9770.718434,-2298.286494
236.544662,-1110.308913,-9622.677246,-1991.848295
236.544985,-1332.370696,-9918.759623,-1608.800546
236.545307,-1924.535449,-10066.800811,-1378.971896
236.545629,-3034.844362,-9844.739029,-1302.362347
236.545951,-3182.885551,-9252.574275,-1378.971896
236.546274,-2886.803174,-8660.409521,-1608.800546
236.546596,-2886.803174,-8438.347739,-1225.752797
236.546918,-2146.597232,-8586.388927,-1378.971896
236.547240,-1702.473667,-9030.512492,-1532.190996
236.547563,-740.205942,-9548.656652,-1838.629195
236.547885,0.000000,-10288.862594,-2221.676944
236.548207,740.205942,-10807.006753,-1915.238745
236.548529,1628.453072,-10881.027347,-2068.457845
236.548852,1406.391290,-10436.903782,-1608.800546
236.549174,2220.617826,-9844.739029,-1532.190996
236.549496,2960.823768,-9178.553681,-1915.238745
236.549818,3182.885551,-8290.306550,-1838.629195
236.550141,3478.967927,-8216.285956,-1378.971896
236.550463,3182.885551,-7698.141797,-1455.581446
236.550785,2664.741391,-8142.265362,-1225.752797
236.551107,2146.597232,-7994.224174,-1072.533697
236.551430,1184.329507,-8438.347739,-1302.362347
236.551752,296.082377,-9030.512492,-1532.190996
236.552074,-222.061783,-9252.574275,-2068.457845
236.552396,-888.247130,-9474.636058,-1838.629195
236.552719,-1332.370696,-9696.697840,-1608.800546
236.553041,-1628.453072,-9992.780217,-1685.410096
236.553363,-1776.494261,-10436.903782,-1378.971896
236.553685,-1924.535449,-10807.006753,-1302.362347
236.554007,-2294.638420,-10140.821405,-1302.362347
236.554330,-2146.597232,-9992.780217,-1378.971896
236.554652,-1850.514855,-9844.739029,-1532.190996
236.554974,-1554.432478,-9252.574275,-1302.362347
236.555296,-1184.329507,-9104.533087,-1149.143247
236.555619,-370.102971,-8586.388927,-842.705048
236.555941,-296.082377,-8956.491898,-1149.143247
236.556263,-148.041188,-8956.491898,-1149.143247
236.556585,-444.123565,-8512.368333,-1302.362347
236.556908,-814.226536,-8364.327145,-1532.190996
236.557230,-592.164754,-8586.388927,-1991.848295
236.557552,-740.205942,-8808.450710,-2604.724693
236.557874,-592.164754,-9326.594869,-2528.115143
236.558197,-296.082377,-9696.697840,-2451.505594
236.558519,-592.164754,-9918.759623,-2451.505594
236.558841,-148.041188,-10510.924376,-2145.067394
236.559163,-518.144159,-10436.903782,-2145.067394
236.559486,-1036.288319,-10362.883188,-2145.067394
236.559808,-1850.514855,-9844.739029,-2068.457845
236.560130,-2368.659014,-9474.636058,-1838.629195
236.560452,-3034.844362,-9400.615463,-1302.362347
236.560775,-2516.700203,-9844.739029,-1608.800546
236.561097,-3256.906145,-9474.636058,-995.924147
236.561419,-3404.947333,-9474.636058,-1149.143247
236.561741,-2960.823768,-9252.574275,-1378.971896
236.562064,-2368.659014,-9326.594869,-1149.143247
236.562386,-1406.391290,-9326.594869,-1072.533697
236.562708,-1110.308913,-8956.491898,-995.924147
236.563030,-518.144159,-9030.512492,-1762.019645
236.563353,222.061783,-9474.636058,-1685.410096
236.563675,888.247130,-10140.821405,-1915.238745
236.563997,1332.370696,-10288.862594,-1608.800546
236.564319,1554.432478,-10436.903782,-1532.190996
236.564642,1850.514855,-9770.718434,-1149.143247
236.564964,2294.638420,-9030.512492,-1225.752797
236.565286,2294.638420,-7846.182985,-1225.752797
236.565608,2368.659014,-7254.018232,-1149.143247
236.565931,2294.638420,-6735.874072,-1225.752797
236.566253,1628.453072,-7031.956449,-1072.533697
236.566575,1332.370696,-7624.121203,-1072.533697
236.566897,814.226536,-8808.450710,-1378.971896
236.567219,370.102971,-9474.636058,-1302.362347
236.567542,-222.061783,-9770.718434,-1225.752797
236.567864,-444.123565,-9992.780217,-1608.800546
236.568186,-518.144159,-10140.821405,-1455.581446
236.568508,-666.185348,-10066.800811,-1685.410096
236.568831,-1110.308913,-9918.759623,-1685.410096
236.569153,-1924.535449,-9770.718434,-1838.629195
236.569475,-1184.329507,-9992.780217,-1762.019645
236.569797,-1184.329507,-10288.862594,-1378.971896
236.570120,-1184.329507,-10510.924376,-1225.752797
236.570442,-740.205942,-9918.759623,-1225.752797
236.570764,-370.102971,-9400.615463,-1225.752797
236.571086,-148.041188,-9030.512492,-1915.238745
236.571409,148.041188,-8586.388927,-1532.190996
236.571731,-222.061783,-8290.306550,-1838.629195
236.572053,-296.082377,-8290.306550,-2068.457845
236.572375,-370.102971,-8808.450710,-2451.505594
236.572698,-518.144159,-9400.615463,-2374.896044
236.573020,0.000000,-10066.800811,-2374.896044
236.573342,-222.061783,-9918.759623,-2528.115143
236.573664,-222.061783,-9992.780217,-2451.505594
236.573987,-592.164754,-9770.718434,-2451.505594
236.574309,-444.123565,-9696.697840,-2528.115143
236.574631,-592.164754,-9400.615463,-2834.553343
236.574953,-1036.288319,-9104.533087,-2604.724693
236.575276,-1258.350101,-9252.574275,-2221.676944
236.575598,-1554.432478,-9622.677246,-1685.410096
236.575920,-2146.597232,-9918.759623,-1302.362347
236.576242,-2294.638420,-9992.780217,-1225.752797
236.576565,-3108.864956,-9474.636058,-1302.362347
236.576887,-3256.906145,-9474.636058,-1685.410096
236.577209,-2812.782580,-9252.574275,-1762.019645
236.577531,-2220.617826,-9326.594869,-1838.629195
236.577854,-1554.432478,-9252.574275,-1225.752797
236.578176,-962.267725,-9326.594869,-1072.533697
236.578498,-296.082377,-9622.677246,-1378.971896
236.578820,666.185348,-10436.903782,-1685.410096
236.579143,1110.308913,-10807.006753,-1225.752797
236.579465,1406.391290,-10732.986159,-689.485948
236.579787,1702.473667,-9918.759623,-766.095498
236.580109,2368.659014,-9178.553681,-919.314598
236.580431,3256.906145,-8438.347739,-995.924147
236.580754,3478.967927,-7698.141797,-919.314598
236.581076,3330.926739,-7031.956449,-612.876398
236.581398,2960.823768,-6883.915261,-842.705048
236.581720,2220.617826,-6883.915261,-536.266849
236.582043,1554.432478,-8068.244768,-995.924147
236.582365,370.102971,-8512.368333,-995.924147
236.582687,-666.185348,-9252.574275,-1455.581446
236.583009,-1332.370696,-9474.636058,-1685.410096
236.583332,-1850.514855,-10066.800811,-1532.190996
236.583654,-2146.597232,-10362.883188,-1608.800546
236.583976,-2368.659014,-10362.883188,-1608.800546
236.584298,-2146.597232,-10362.883188,-1608.800546
236.584621,-2072.576638,-10288.862594,-1302.362347
236.584943,-1924.535449,-9992.780217,-1149.143247
236.585265,-1924.535449,-9770.718434,-1225.752797
236.585587,-1702.473667,-9770.718434,-1072.533697
236.585910,-1110.308913,-9474.636058,-995.924147
236.586232,-814.226536,-9030.512492,-1072.533697
236.586554,-592.164754,-8512.368333,-1685.410096
236.586876,-444.123565,-8290.306550,-1225.752797
236.587199,74.020594,-8364.327145,-1072.533697
236.587521,0.000000,-8364.327145,-1608.800546
236.587843,-222.061783,-8438.347739,-2451.505594
236.588165,-296.082377,-8882.471304,-2834.553343
236.588488,222.061783,-9474.636058,-2068.457845
236.588810,148.041188,-10140.821405,-2604.724693
236.589132,148.041188,-10140.821405,-2834.553343
236.589454,0.000000,-10140.821405,-2528.115143
236.589777,0.000000,-9918.759623,-2374.896044
236.590099,-518.144159,-9844.739029,-1608.800546
236.590421,-962.267725,-9548.656652,-2068.457845
236.590743,-1924.535449,-9104.533087,-2221.676944
236.591066,-2368.659014,-9178.553681,-1838.629195
236.591388,-2812.782580,-9252.574275,-1762.019645
236.591710,-3108.864956,-9400.615463,-1072.533697
236.592032,-3330.926739,-8808.450710,-919.314598
236.592355,-3182.885551,-8808.450710,-1378.971896
236.592677,-2738.761985,-8956.491898,-1378.971896
236.592999,-2146.597232,-8882.471304,-1838.629195
236.593321,-1702.473667,-9030.512492,-1991.848295
236.593643,-666.185348,-9474.636058,-2145.067394
236.593966,-296.082377,-9622.677246,-2298.286494
236.594288,148.041188,-9992.780217,-2374.896044
236.594610,1036.288319,-10881.027347,-2221.676944
236.594932,1258.350101,-10881.027347,-1608.800546
236.595255,1628.453072,-10066.800811,-919.314598
236.595577,1998.556043,-9474.636058,-1302.362347
236.595899,2294.638420,-9178.553681,-1378.971896
236.596221,2590.720797,-8142.265362,-1608.800546
236.596544,2738.761985,-7698.141797,-1225.752797
236.596866,2516.700203,-7105.977043,-995.924147
236.597188,2664.741391,-7920.203579,-995.924147
236.597510,1924.535449,-8438.347739,-766.095498
236.597833,1110.308913,-9252.574275,-842.705048
236.598155,222.061783,-9696.697840,-1149.143247
236.598477,-592.164754,-9992.780217,-1225.752797
236.598799,-962.267725,-10066.800811,-1685.410096
236.599122,-1258.350101,-9992.780217,-1455.581446
236.599444,-1776.494261,-10140.821405,-1532.190996
236.599766,-1850.514855,-10214.842000,-1455.581446
236.600088,-1924.535449,-10214.842000,-1532.190996
236.600411,-1702.473667,-10584.944971,-995.924147
236.600733,-1850.514855,-9844.739029,-1072.533697
236.601055,-1776.494261,-10214.842000,-1072.533697
236.601377,-1702.473667,-9622.677246,-995.924147
236.601700,-1480.411884,-9178.553681,-612.876398
236.602022,-1110.308913,-8660.409521,-919.314598
236.602344,-666.185348,-8290.306550,-1915.238745
236.602666,-444.123565,-7772.162391,-1302.362347
236.602989,-222.061783,-7994.224174,-1302.362347
236.603311,0.000000,-8290.306550,-1149.143247
236.603633,0.000000,-8660.409521,-1302.362347
236.603955,0.000000,-8956.491898,-2298.286494
236.604278,0.000000,-9400.615463,-1532.190996
236.604600,0.000000,-9548.656652,-1991.848295
236.604922,-296.082377,-9622.677246,-2298.286494
236.605244,-296.082377,-9770.718434,-2068.457845
236.605567,-296.082377,-9474.636058,-2145.067394
236.605889,-296.082377,-9400.615463,-1838.629195
236.606211,-666.185348,-9474.636058,-1608.800546
236.606533,-1036.288319,-9696.697840,-1378.971896
236.606855,-1850.514855,-9622.677246,-1378.971896
236.607178,-2368.659014,-9474.636058,-1378.971896
236.607500,-2590.720797,-8956.491898,-1532.190996
236.607822,-2664.741391,-8956.491898,-1838.629195
236.608144,-2442.679609,-8882.471304,-1915.238745
236.608467,-2072.576638,-9104.533087,-1838.629195
236.608789,-1480.411884,-9104.533087,-1532.190996
236.609111,-666.185348,-9474.636058,-1685.410096
236.609433,222.061783,-9474.636058,-1915.238745
236.609756,740.205942,-10288.862594,-2221.676944
236.610078,962.267725,-10658.965565,-1532.190996
236.610400,1258.350101,-10362.883188,-1225.752797
236.610722,1776.494261,-9474.636058,-1762.019645
236.611045,2368.659014,-8882.471304,-1608.800546
236.611367,3552.988522,-8438.347739,-1762.019645
236.611689,3404.947333,-7920.203579,-1685.410096
236.612011,3552.988522,-7624.121203,-1378.971896
236.612334,3330.926739,-7254.018232,-1532.190996
236.612656,2886.803174,-8216.285956,-1225.752797
236.612978,1776.494261,-8290.306550,-1225.752797
236.613300,592.164754,-9400.615463,-1838.629195
236.613623,-518.144159,-9622.677246,-1915.238745
236.613945,-1036.288319,-10066.800811,-2221.676944
236.614267,-1258.350101,-10214.842000,-1685.410096
236.614589,-1628.453072,-9992.780217,-2145.067394
236.614912,-1850.514855,-10510.924376,-1838.629195
236.615234,-2072.576638,-10584.944971,-1762.019645
236.615556,-2220.617826,-10288.862594,-1455.581446
236.615878,-2146.597232,-10362.883188,-1838.629195
236.616201,-2146.597232,-10214.842000,-1302.362347
236.616523,-2146.597232,-9992.780217,-1225.752797
236.616845,-1850.514855,-9696.697840,-1072.533697
236.617167,-1480.411884,-8956.491898,-1225.752797
236.617490,-1184.329507,-8438.347739,-1302.362347
236.617812,-1110.308913,-8438.347739,-1378.971896
236.618134,-1036.288319,-8364.327145,-1608.800546
236.618456,-1702.473667,-8364.327145,-1685.410096
236.618779,-1628.453072,-8882.471304,-2068.457845
236.619101,-1110.308913,-9326.594869,-2451.505594
236.619423,-592.164754,-9400.615463,-2374.896044
236.619745,-740.205942,-9622.677246,-1915.238745
236.620067,-148.041188,-9992.780217,-1991.848295
236.620390,-444.123565,-9770.718434,-1762.019645
236.620712,0.000000,-10066.800811,-1685.410096
236.621034,-592.164754,-9770.718434,-1838.629195
236.621356,-1628.453072,-9326.594869,-1532.190996
236.621679,-1480.411884,-9474.636058,-995.924147
236.622001,-2220.617826,-9770.718434,-919.314598
236.622323,-2368.659014,-9770.718434,-612.876398
236.622645,-2516.700203,-9400.615463,-766.095498
236.622968,-2664.741391,-8882.471304,-459.657299
236.623285,-2146.597232,-8660.409521,-383.047749
236.623607,-1554.432478,-8956.491898,-1072.533697
236.623930,-814.226536,-9030.512492,-1225.752797
236.624252,-444.123565,-8882.471304,-1225.752797
236.624575,0.000000,-9252.574275,-1149.143247
236.624897,518.144159,-9474.636058,-1685.410096
236.625219,888.247130,-10288.862594,-1608.800546
236.625542,888.247130,-10732.986159,-1378.971896
236.625864,1110.308913,-10584.944971,-1149.143247
236.626187,1258.350101,-9474.636058,-1225.752797
236.626509,2072.576638,-8216.285956,-1149.143247
236.626832,1850.514855,-7846.182985,-1608.800546
236.627154,2294.638420,-7179.997637,-1608.800546
236.627476,2146.597232,-7105.977043,-1378.971896
236.627799,1924.535449,-7105.977043,-1225.752797
236.628121,1554.432478,-7994.224174,-995.924147
236.628444,1702.473667,-9030.512492,-1302.362347
236.628766,888.247130,-10140.821405,-1532.190996
236.629088,74.020594,-10214.842000,-1532.190996
236.629411,-444.123565,-9992.780217,-1455.581446
236.629733,-296.082377,-10140.821405,-1608.800546
236.630056,0.000000,-9992.780217,-1762.019645
236.630378,-666.185348,-9474.636058,-1762.019645
236.630701,-740.205942,-9770.718434,-1608.800546
236.631023,-666.185348,-10288.862594,-1532.190996
236.631345,-962.267725,-10288.862594,-1378.971896
236.631668,-888.247130,-10140.821405,-1762.019645
236.631990,-1036.288319,-10066.800811,-1225.752797
236.632313,-962.267725,-9622.677246,-1225.752797
236.632635,-814.226536,-8882.471304,-1225.752797
236.632958,-666.185348,-8142.265362,-1991.848295
236.633280,-888.247130,-7920.203579,-2068.457845
236.633602,-1036.288319,-8068.244768,-1838.629195
236.633925,-1628.453072,-8290.306550,-2604.724693
236.634247,-2072.576638,-9252.574275,-2757.943793
236.634570,-2072.576638,-10140.821405,-3064.381992
236.634892,-2072.576638,-10214.842000,-3370.820191
236.635215,-1998.556043,-9992.780217,-3064.381992
236.635537,-1554.432478,-9548.656652,-3294.210641
236.635859,-962.267725,-9548.656652,-3064.381992
236.636182,-592.164754,-9400.615463,-2681.334243
236.636504,-1036.288319,-9474.636058,-2451.505594
236.636827,-1110.308913,-9326.594869,-1762.019645
236.637149,-1332.370696,-9548.656652,-1685.410096
236.637472,-1554.432478,-10214.842000,-1455.581446
236.637794,-1850.514855,-10140.821405,-1149.143247
236.638116,-1924.535449,-9622.677246,-766.095498
236.638439,-1924.535449,-9178.553681,-995.924147
236.638761,-1036.288319,-8882.471304,-1225.752797
236.639084,-1110.308913,-8586.388927,-1378.971896
236.639406,-814.226536,-9104.533087,-1149.143247
236.639728,-222.061783,-9474.636058,-995.924147
236.640051,0.000000,-9770.718434,-1455.581446
236.640373,1184.329507,-10807.006753,-1608.800546
236.640696,1554.432478,-10658.965565,-1532.190996
236.641018,1702.473667,-10807.006753,-1072.533697
236.641341,1924.535449,-10140.821405,-612.876398
236.641663,2146.597232,-9474.636058,-919.314598
236.641985,2368.659014,-8660.409521,-1072.533697
236.642308,2368.659014,-7994.224174,-995.924147
236.642630,2960.823768,-7550.100608,-1072.533697
236.642953,2368.659014,-7105.977043,-689.485948
236.643275,2146.597232,-7105.977043,-689.485948
236.643598,1480.411884,-7550.100608,-536.266849
236.643920,1036.288319,-8068.244768,-842.705048
236.644242,0.000000,-8512.368333,-842.705048
236.644565,-888.247130,-9770.718434,-1302.362347
236.644887,-1184.329507,-10140.821405,-995.924147
236.645210,-1184.329507,-10436.903782,-1072.533697
236.645532,-1258.350101,-10066.800811,-919.314598
236.645855,-962.267725,-9844.739029,-689.485948
236.646177,-962.267725,-10288.862594,-1149.143247
236.646499,-814.226536,-9992.780217,-1072.533697
236.646822,-1036.288319,-9992.780217,-1072.533697
236.647144,-888.247130,-10066.800811,-995.924147
236.647467,-740.205942,-10140.821405,-1072.533697
236.647789,-592.164754,-9474.636058,-1149.143247
236.648112,-814.226536,-9252.574275,-995.924147
236.648434,-666.185348,-8808.450710,-995.924147
236.648756,-666.185348,-8068.244768,-1302.362347
236.649079,-888.247130,-7846.182985,-1608.800546
236.649401,-1258.350101,-7846.182985,-2068.457845
236.649724,-1406.391290,-8364.327145,-2528.115143
236.650046,-1554.432478,-9326.594869,-2528.115143
236.650368,-1258.350101,-9622.677246,-2757.943793
236.650691,-1332.370696,-9548.656652,-3217.601092
236.651013,-1406.391290,-9844.739029,-2911.162892
236.651336,-1184.329507,-10288.862594,-2528.115143
236.651658,-1332.370696,-10140.821405,-2451.505594
236.651981,-1776.494261,-9844.739029,-2451.505594
236.652303,-2368.659014,-9474.636058,-2528.115143
236.652625,-2812.782580,-9252.574275,-2145.067394
236.652948,-2368.659014,-9918.759623,-2298.286494
236.653270,-2960.823768,-9770.718434,-1608.800546
236.653593,-3034.844362,-9474.636058,-1378.971896
236.653915,-2738.761985,-9178.553681,-1532.190996
236.654238,-1924.535449,-9030.512492,-1149.143247
236.654560,-1850.514855,-8808.450710,-1532.190996
236.654882,-962.267725,-8956.491898,-1608.800546
236.655205,-370.102971,-9178.553681,-1838.629195
236.655527,592.164754,-9400.615463,-1915.238745
236.655850,1332.370696,-10140.821405,-1915.238745
236.656172,1850.514855,-10436.903782,-1915.238745
236.656495,1776.494261,-10214.842000,-1991.848295
236.656817,1998.556043,-10066.800811,-1915.238745
236.657139,2368.659014,-9696.697840,-1915.238745
236.657462,2516.700203,-8956.491898,-1762.019645
236.657784,2368.659014,-8660.409521,-2221.676944
236.658107,1998.556043,-7772.162391,-1302.362347
236.658429,1998.556043,-7624.121203,-1762.019645
236.658752,1480.411884,-8142.265362,-1378.971896
236.659074,1332.370696,-8808.450710,-1378.971896
236.659396,370.102971,-8956.491898,-1378.971896
236.659719,-518.144159,-9178.553681,-1378.971896
236.660041,-518.144159,-9622.677246,-1378.971896
236.660364,-1036.288319,-9696.697840,-1455.581446
236.660686,-1110.308913,-9992.780217,-1455.581446
236.661008,-1258.350101,-9548.656652,-1302.362347
236.661331,-1406.391290,-9844.739029,-766.095498
236.661653,-1258.350101,-9696.697840,-1532.190996
236.661976,-962.267725,-10288.862594,-1072.533697
236.662298,-666.185348,-10214.842000,-995.924147
236.662621,-444.123565,-9992.780217,-536.266849
236.662943,-888.247130,-9474.636058,-229.828649
236.663265,-592.164754,-8956.491898,-459.657299
236.663588,-666.185348,-8808.450710,-459.657299
236.663910,-962.267725,-8882.471304,-766.095498
236.664233,-1110.308913,-8660.409521,-1149.143247
236.664555,-1110.308913,-8290.306550,-1302.362347
236.664878,-666.185348,-8734.430116,-1915.238745
236.665200,-666.185348,-8956.491898,-1302.362347
236.665522,-666.185348,-9178.553681,-1608.800546
236.665845,-888.247130,-9104.533087,-1608.800546
236.666167,-888.247130,-9326.594869,-2068.457845
236.666490,-740.205942,-9474.636058,-2068.457845
236.666812,-592.164754,-9474.636058,-1915.238745
236.667135,-1258.350101,-9474.636058,-1915.238745
236.667457,-1332.370696,-9622.677246,-1762.019645
236.667779,-1406.391290,-9622.677246,-1532.190996
236.668102,-1332.370696,-9622.677246,-1225.752797
236.668424,-1628.453072,-9474.636058,-1532.190996
236.668747,-2368.659014,-9474.636058,-1302.362347
236.669069,-2738.761985,-9178.553681,-1378.971896
236.669392,-2368.659014,-8956.491898,-1532.190996
236.669714,-1850.514855,-9030.512492,-1915.238745
236.670036,-1406.391290,-9326.594869,-1532.190996
236.670359,-740.205942,-8512.368333,-1608.800546
236.670681,0.000000,-9548.656652,-1455.581446
236.671004,962.267725,-10066.800811,-1762.019645
236.671326,1702.473667,-10510.924376,-1532.190996
236.671648,2146.597232,-10510.924376,-1149.143247
236.671971,2146.597232,-10066.800811,-1378.971896
236.672293,2368.659014,-9474.636058,-1455.581446
236.672616,2812.782580,-8808.450710,-1762.019645
236.672938,3182.885551,-8216.285956,-1838.629195
236.673261,3330.926739,-7772.162391,-1378.971896
236.673583,3404.947333,-7254.018232,-1225.752797
236.673905,2664.741391,-7698.141797,-1608.800546
236.674228,1776.494261,-8290.306550,-1685.410096
236.674550,962.267725,-9400.615463,-1378.971896
236.674873,0.000000,-9696.697840,-1991.848295
236.675195,-962.267725,-10066.800811,-1685.410096
236.675518,-1776.494261,-9844.739029,-1915.238745
236.675840,-1776.494261,-10214.842000,-2068.457845
236.676162,-1554.432478,-10140.821405,-2068.457845
236.676485,-1258.350101,-10140.821405,-2145.067394
236.676807,-1332.370696,-10288.862594,-1532.190996
236.677130,-1184.329507,-10584.944971,-1608.800546
236.677452,-1258.350101,-10436.903782,-1455.581446
236.677775,-1332.370696,-10214.842000,-1455.581446
236.678097,-1110.308913,-9622.677246,-1378.971896
236.678419,-1036.288319,-9326.594869,-1225.752797
236.678742,-1036.288319,-8586.388927,-842.705048
236.679064,-1406.391290,-7920.203579,-1378.971896
236.679387,-1258.350101,-8216.285956,-1225.752797
236.679709,-1554.432478,-8364.327145,-1838.629195
236.680032,-1850.514855,-8438.347739,-2221.676944
236.680354,-1776.494261,-8808.450710,-2451.505594
236.680676,-1628.453072,-9770.718434,-2757.943793
236.680999,-1776.494261,-9992.780217,-2451.505594
236.681321,-1702.473667,-10066.800811,-2451.505594
236.681644,-1850.514855,-9844.739029,-2528.115143
236.681966,-1258.350101,-9918.759623,-2528.115143
236.682288,-962.267725,-10140.821405,-1915.238745
236.682611,-1480.411884,-10066.800811,-1991.848295
236.682933,-2072.576638,-9696.697840,-1378.971896
236.683256,-2516.700203,-9400.615463,-1302.362347
236.683578,-2442.679609,-9622.677246,-689.485948
236.683901,-2516.700203,-9030.512492,-766.095498
236.684223,-3034.844362,-8882.471304,-766.095498
236.684545,-2960.823768,-8364.327145,-689.485948
236.684868,-2072.576638,-8068.244768,-995.924147
236.685190,-1110.308913,-8438.347739,-995.924147
236.685513,-592.164754,-8660.409521,-1378.971896
236.685835,222.061783,-9252.574275,-766.095498
236.686158,222.061783,-9622.677246,-1149.143247
236.686480,1184.329507,-10288.862594,-1378.971896
236.686802,1258.350101,-10658.965565,-1685.410096
236.687125,1332.370696,-10955.047942,-1608.800546
236.687447,1702.473667,-9992.780217,-995.924147
236.687770,1776.494261,-9696.697840,-919.314598
236.688092,2368.659014,-8882.471304,-1225.752797
236.688415,2590.720797,-8438.347739,-1455.581446
236.688737,2368.659014,-7698.141797,-1302.362347
236.689059,1776.494261,-7105.977043,-229.828649
236.689382,1924.535449,-7550.100608,-842.705048
236.689704,1702.473667,-7994.224174,-919.314598
236.690027,1036.288319,-8512.368333,-1072.533697
236.690349,370.102971,-8956.491898,-1149.143247
236.690672,0.000000,-9326.594869,-1378.971896
236.690994,0.000000,-9622.677246,-1608.800546
236.691316,-296.082377,-10066.800811,-1608.800546
236.691639,-296.082377,-10214.842000,-1838.629195
236.691961,-518.144159,-10288.862594,-1991.848295
236.692284,-962.267725,-10288.862594,-1762.019645
236.692606,-518.144159,-10658.965565,-2145.067394
236.692928,-888.247130,-10955.047942,-1608.800546
236.693251,-1036.288319,-10510.924376,-1378.971896
236.693573,-962.267725,-9696.697840,-1608.800546
236.693896,-740.205942,-9474.636058,-1378.971896
236.694218,-592.164754,-8882.471304,-1302.362347
236.694541,-444.123565,-8660.409521,-1302.362347
236.694863,-592.164754,-8438.347739,-1378.971896
236.695185,-814.226536,-8364.327145,-1762.019645
236.695508,-888.247130,-8660.409521,-2145.067394
236.695830,-1036.288319,-8882.471304,-2604.724693
236.696153,-962.267725,-9548.656652,-2604.724693
236.696475,-1184.329507,-9844.739029,-2604.724693
236.696798,-1184.329507,-9844.739029,-2528.115143
236.697120,-1110.308913,-9696.697840,-2834.553343
236.697442,-1036.288319,-9992.780217,-2834.553343
236.697765,-1110.308913,-9770.718434,-2987.772442
236.698087,-1406.391290,-9696.697840,-2528.115143
236.698410,-1850.514855,-9992.780217,-2374.896044
236.698732,-1850.514855,-10140.821405,-1762.019645
236.699055,-2368.659014,-10140.821405,-1685.410096
236.699377,-2590.720797,-9770.718434,-1915.238745
236.699699,-2516.700203,-9030.512492,-1149.143247
236.700022,-2590.720797,-9030.512492,-1378.971896
236.700344,-2294.638420,-8808.450710,-1455.581446
236.700667,-1998.556043,-8882.471304,-1302.362347
236.700989,-1480.411884,-9030.512492,-1072.533697
236.701312,-814.226536,-9400.615463,-1149.143247
236.701634,-444.123565,-9770.718434,-1072.533697
236.701956,814.226536,-10214.842000,-1532.190996
236.702279,1628.453072,-10658.965565,-1302.362347
236.702601,1702.473667,-10140.821405,-612.876398
236.702924,2442.679609,-9474.636058,-842.705048
236.703246,3034.844362,-9178.553681,-1378.971896
236.703569,2812.782580,-8438.347739,-1378.971896
236.703891,2886.803174,-8142.265362,-919.314598
236.704213,2886.803174,-7550.100608,-842.705048
236.704536,2368.659014,-7254.018232,-766.095498
236.704858,1776.494261,-7772.162391,-919.314598
236.705181,1480.411884,-8142.265362,-689.485948
236.705503,666.185348,-8734.430116,-842.705048
236.705825,0.000000,-9104.533087,-1225.752797
236.706148,-814.226536,-9548.656652,-1149.143247
236.706470,-1184.329507,-9622.677246,-689.485948
236.706793,-1184.329507,-9844.739029,-1149.143247
236.707115,-1480.411884,-9992.780217,-1455.581446
236.707438,-1480.411884,-10288.862594,-1302.362347
236.707760,-1480.411884,-10140.821405,-1302.362347
236.708082,-1258.350101,-9844.739029,-1685.410096
236.708405,-1184.329507,-10288.862594,-1532.190996
236.708727,-1110.308913,-10214.842000,-995.924147
236.709050,-592.164754,-9918.759623,-1302.362347
236.709372,-444.123565,-9474.636058,-1149.143247
236.709695,0.000000,-9030.512492,-1225.752797
236.710017,296.082377,-8364.327145,-1149.143247
236.710339,0.000000,-8216.285956,-1762.019645
236.710662,-518.144159,-7994.224174,-1991.848295
236.710984,-962.267725,-8438.347739,-2451.505594
236.711307,-666.185348,-8882.471304,-2681.334243
236.711629,-888.247130,-9252.574275,-2528.115143
236.711952,-740.205942,-9474.636058,-3064.381992
236.712274,-888.247130,-9548.656652,-2604.724693
236.712596,-740.205942,-9992.780217,-2604.724693
236.712919,-592.164754,-9992.780217,-2528.115143
236.713241,-888.247130,-9844.739029,-2451.505594
236.713564,-1554.432478,-9474.636058,-2068.457845
236.713886,-2442.679609,-9474.636058,-2145.067394
236.714209,-2886.803174,-9622.677246,-1915.238745
236.714531,-3256.906145,-9918.759623,-1532.190996
236.714853,-3627.009116,-9622.677246,-1608.800546
236.715176,-3627.009116,-9030.512492,-1532.190996
236.715498,-2960.823768,-8956.491898,-1991.848295
236.715821,-2738.761985,-9104.533087,-1532.190996
236.716143,-2294.638420,-9252.574275,-1608.800546
236.716465,-1480.411884,-9178.553681,-1608.800546
236.716788,-888.247130,-9400.615463,-1915.238745
236.717110,148.041188,-9844.739029,-1991.848295
236.717433,1184.329507,-10436.903782,-2221.676944
236.717755,1628.453072,-10955.047942,-1838.629195
236.718078,1998.556043,-10584.944971,-1378.971896
236.718400,2146.597232,-9918.759623,-1225.752797
236.718722,2960.823768,-9770.718434,-1225.752797
236.719045,2960.823768,-8438.347739,-1991.848295
236.719367,2812.782580,-8142.265362,-1685.410096
236.719690,2516.700203,-7994.224174,-1225.752797
236.720012,2294.638420,-7402.059420,-1072.533697
236.720335,1850.514855,-7402.059420,-612.876398
236.720657,1184.329507,-8142.265362,-842.705048
236.720979,592.164754,-9252.574275,-1225.752797
236.721302,-444.123565,-9400.615463,-1149.143247
236.721624,-1480.411884,-9844.739029,-1378.971896
236.721947,-1924.535449,-10214.842000,-1532.190996
236.722269,-2072.576638,-10362.883188,-1838.629195
236.722592,-2146.597232,-10066.800811,-1532.190996
236.722914,-2220.617826,-9992.780217,-1608.800546
236.723236,-1924.535449,-10066.800811,-1378.971896
236.723559,-1776.494261,-10510.924376,-1455.581446
236.723881,-1702.473667,-10288.862594,-1302.362347
236.724204,-1628.453072,-10288.862594,-919.314598
236.724526,-1480.411884,-9918.759623,-1072.533697
236.724849,-962.267725,-9400.615463,-995.924147
236.725171,-592.164754,-8586.388927,-1149.143247
236.725493,-222.061783,-8068.244768,-766.095498
236.725816,0.000000,-8068.244768,-1225.752797
236.726138,148.041188,-7698.141797,-1302.362347
236.726461,370.102971,-8512.368333,-1225.752797
236.726783,222.061783,-9030.512492,-1225.752797
236.727106,0.000000,-9474.636058,-1608.800546
236.727428,0.000000,-9326.594869,-1302.362347
236.727750,148.041188,-9178.553681,-2298.286494
236.728073,148.041188,-9326.594869,-2221.676944
236.728395,222.061783,-9326.594869,-2068.457845
236.728718,0.000000,-8956.491898,-1991.848295
236.729040,0.000000,-8734.430116,-1378.971896
236.729363,-888.247130,-9770.718434,-1991.848295
236.729685,-1184.329507,-10584.944971,-1455.581446
236.730007,-1924.535449,-10436.903782,-1302.362347
236.730330,-2368.659014,-9992.780217,-995.924147
236.730652,-2664.741391,-9030.512492,-1378.971896
236.730975,-2368.659014,-8734.430116,-1762.019645
236.731297,-2072.576638,-8438.347739,-1915.238745
236.731620,-1850.514855,-8512.368333,-1608.800546
236.731942,-1406.391290,-9178.553681,-1455.581446
236.732264,-1036.288319,-9474.636058,-1455.581446
236.732587,0.000000,-9770.718434,-2068.457845
236.732909,296.082377,-10584.944971,-2298.286494
236.733232,740.205942,-10881.027347,-1762.019645
236.733554,1406.391290,-9992.780217,-1455.581446
236.733877,1998.556043,-8956.491898,-1991.848295
236.734199,2664.741391,-8364.327145,-2221.676944
236.734521,3404.947333,-8734.430116,-2451.505594
236.734844,3404.947333,-8438.347739,-2145.067394
236.735166,2812.782580,-8660.409521,-1762.019645
236.735489,2368.659014,-8734.430116,-1685.410096
236.735811,2072.576638,-8882.471304,-1608.800546
236.736134,1480.411884,-8882.471304,-2221.676944
236.736456,444.123565,-8956.491898,-2068.457845
236.736778,-296.082377,-9252.574275,-1762.019645
236.737101,-1036.288319,-9474.636058,-1762.019645
236.737423,-1406.391290,-10066.800811,-1762.019645
236.737746,-1554.432478,-10140.821405,-1532.190996
236.738068,-1850.514855,-10214.842000,-1608.800546
236.738391,-2072.576638,-10658.965565,-1532.190996
236.738713,-1998.556043,-10436.903782,-1149.143247
236.739035,-1702.473667,-9770.718434,-1302.362347
236.739358,-1776.494261,-9622.677246,-842.705048
236.739680,-1702.473667,-8808.450710,-689.485948
236.740003,-1554.432478,-9104.533087,-995.924147
236.740325,-1628.453072,-9030.512492,-1378.971896
236.740648,-1406.391290,-9252.574275,-1378.971896
236.740970,-1332.370696,-9030.512492,-1532.190996
236.741292,-1332.370696,-9030.512492,-1685.410096
236.741615,-1628.453072,-8512.368333,-1762.019645
236.741937,-1184.329507,-8882.471304,-2221.676944
236.742260,-888.247130,-9178.553681,-2451.505594
236.742582,-666.185348,-9622.677246,-2374.896044
236.742905,-296.082377,-9622.677246,-2298.286494
236.743227,0.000000,-10066.800811,-1991.848295
236.743550,0.000000,-10066.800811,-1762.019645
236.743872,370.102971,-9770.718434,-1455.581446
236.744194,370.102971,-9622.677246,-1378.971896
236.744517,0.000000,-9326.594869,-1072.533697
236.744839,-888.247130,-8808.450710,-995.924147
236.745162,-1332.370696,-9474.636058,-842.705048
236.745484,-1776.494261,-9622.677246,-919.314598
236.745807,-2146.597232,-9696.697840,-842.705048
236.746129,-2294.638420,-9400.615463,-842.705048
236.746451,-1702.473667,-8956.491898,-1225.752797
236.746774,-1036.288319,-8734.430116,-1225.752797
236.747096,-888.247130,-8808.450710,-1455.581446
236.747419,-740.205942,-8882.471304,-1685.410096
236.747741,-444.123565,-9104.533087,-1838.629195
236.748064,0.000000,-9844.739029,-2221.676944
236.748386,148.041188,-10436.903782,-2374.896044
236.748708,296.082377,-10732.986159,-1915.238745
236.749031,222.061783,-10436.903782,-1685.410096
236.749353,666.185348,-9696.697840,-1762.019645
236.749676,1258.350101,-9030.512492,-1915.238745
236.749998,1998.556043,-7846.182985,-2068.457845
236.750321,1702.473667,-7031.956449,-1532.190996
236.750643,1554.432478,-6809.894666,-1302.362347
236.750965,1480.411884,-7624.121203,-1225.752797
236.751288,1554.432478,-8512.368333,-1225.752797
236.751610,1184.329507,-8956.491898,-1225.752797
236.751933,1036.288319,-9622.677246,-1378.971896
236.752255,518.144159,-10288.862594,-1072.533697
236.752578,518.144159,-10066.800811,-1072.533697
236.752900,444.123565,-9992.780217,-1302.362347
236.753222,222.061783,-9770.718434,-1302.362347
236.753545,-296.082377,-9548.656652,-1532.190996
236.753867,-888.247130,-9844.739029,-1378.971896
236.754190,-1332.370696,-10214.842000,-1302.362347
236.754512,-1480.411884,-10214.842000,-1532.190996
236.754835,-1480.411884,-10066.800811,-1378.971896
236.755157,-1258.350101,-9844.739029,-1302.362347
236.755479,-1184.329507,-8882.471304,-1455.581446
236.755802,-1110.308913,-8734.430116,-1302.362347
236.756124,-1332.370696,-8586.388927,-1378.971896
236.756447,-1554.432478,-8290.306550,-1915.238745
236.756769,-2146.597232,-8142.265362,-2374.896044
236.757092,-1850.514855,-8808.450710,-2911.162892
236.757414,-2072.576638,-9252.574275,-3140.991542
236.757736,-1702.473667,-9918.759623,-3064.381992
236.758059,-1110.308913,-9844.739029,-3064.381992
236.758381,-1110.308913,-9844.739029,-3064.381992
236.758704,-296.082377,-9844.739029,-3140.991542
236.759026,-148.041188,-10214.842000,-2451.505594
236.759349,0.000000,-9918.759623,-2451.505594
236.759671,0.000000,-9696.697840,-2068.457845
236.759993,-222.061783,-9400.615463,-1838.629195
236.760316,-518.144159,-9770.718434,-1685.410096
236.760638,-740.205942,-9844.739029,-1225.752797
236.760961,-1332.370696,-10214.842000,-689.485948
236.761283,-1628.453072,-9844.739029,-842.705048
236.761606,-1628.453072,-9548.656652,-995.924147
236.761928,-1258.350101,-9548.656652,-842.705048
236.762250,-666.185348,-9548.656652,-919.314598
236.762573,-1110.308913,-9252.574275,-1149.143247
236.762895,-666.185348,-9178.553681,-1072.533697
236.763218,-222.061783,-9400.615463,-1455.581446
236.763540,444.123565,-9918.759623,-1685.410096
236.763863,592.164754,-10436.903782,-1608.800546
236.764185,888.247130,-10732.986159,-995.924147
236.764507,888.247130,-10288.862594,-842.705048
236.764830,1258.350101,-9474.636058,-1072.533697
236.765152,1776.494261,-8660.409521,-1455.581446
236.765475,1850.514855,-7624.121203,-919.314598
236.765797,1998.556043,-6439.791695,-536.266849
236.766120,1924.535449,-6513.812290,-842.705048
236.766442,1332.370696,-6957.935855,-612.876398
236.766764,1258.350101,-7772.162391,-536.266849
236.767087,296.082377,-8808.450710,-536.266849
236.767409,0.000000,-9326.594869,-612.876398
236.767732,-888.247130,-9992.780217,-1302.362347
236.768054,-1184.329507,-9918.759623,-1072.533697
236.768377,-740.205942,-10066.800811,-1149.143247
236.768699,-296.082377,-9844.739029,-1302.362347
236.769022,-444.123565,-9400.615463,-1455.581446
236.769344,-592.164754,-9918.759623,-766.095498
236.769666,-888.247130,-10066.800811,-1072.533697
236.769989,-1184.329507,-10362.883188,-1302.362347
236.770311,-962.267725,-10436.903782,-1149.143247
236.770634,-740.205942,-9622.677246,-1149.143247
236.770956,-444.123565,-8882.471304,-1072.533697
236.771279,0.000000,-8660.409521,-1072.533697
236.771601,-518.144159,-8068.244768,-1225.752797
236.771923,-962.267725,-8068.244768,-1608.800546
236.772246,-1258.350101,-8216.285956,-1991.848295
236.772568,-1258.350101,-8882.471304,-2911.162892
236.772891,-1628.453072,-9474.636058,-3370.820191
236.773213,-1406.391290,-9696.697840,-3370.820191
236.773536,-888.247130,-9918.759623,-3064.381992
236.773858,-518.144159,-9696.697840,-2604.724693
236.774180,-148.041188,-9400.615463,-2451.505594
236.774503,-370.102971,-9030.512492,-2987.772442
236.774825,-814.226536,-9770.718434,-2987.772442
236.775148,-1554.432478,-9844.739029,-2681.334243
236.775470,-2294.638420,-9770.718434,-2221.676944
236.775793,-2294.638420,-9844.739029,-2068.457845
236.776115,-2368.659014,-9622.677246,-1608.800546
236.776437,-2516.700203,-9770.718434,-1378.971896
236.776760,-2516.700203,-9548.656652,-1532.190996
236.777082,-2664.741391,-9548.656652,-1455.581446
236.777405,-2294.638420,-9622.677246,-1762.019645
236.777727,-1628.453072,-9622.677246,-2298.286494
236.778050,-1628.453072,-9474.636058,-1762.019645
236.778372,-592.164754,-9474.636058,-1685.410096
236.778694,666.185348,-9844.739029,-1455.581446
236.779017,1480.411884,-9918.759623,-1532.190996
236.779339,2072.576638,-9992.780217,-1149.143247
236.779662,2220.617826,-9844.739029,-1762.019645
236.779984,1776.494261,-9474.636058,-1532.190996
236.780307,1850.514855,-9030.512492,-1608.800546
236.780629,1702.473667,-8512.368333,-1915.238745
236.780951,1628.453072,-7846.182985,-1762.019645
236.781274,1554.432478,-7846.182985,-1455.581446
236.781596,1110.308913,-7254.018232,-1072.533697
236.781919,962.267725,-7772.162391,-995.924147
236.782241,666.185348,-8512.368333,-1225.752797
236.782564,-148.041188,-8808.450710,-1302.362347
236.782886,-666.185348,-9400.615463,-1532.190996
236.783208,-1628.453072,-9548.656652,-1532.190996
236.783531,-1702.473667,-10288.862594,-1302.362347
236.783853,-1850.514855,-10436.903782,-1608.800546
236.784176,-1702.473667,-10436.903782,-1532.190996
236.784498,-1258.350101,-10288.862594,-995.924147
236.784821,-962.267725,-10362.883188,-1378.971896
236.785143,-592.164754,-10436.903782,-995.924147
236.785465,-666.185348,-10288.862594,-612.876398
236.785788,-518.144159,-9844.739029,-306.438199
236.786110,-444.123565,-9474.636058,-459.657299
236.786433,0.000000,-8512.368333,-919.314598
236.786755,0.000000,-8290.306550,-536.266849
236.787078,222.061783,-8364.327145,-766.095498
236.787400,148.041188,-8290.306550,-995.924147
236.787722,0.000000,-8290.306550,-1072.533697
236.788045,0.000000,-9178.553681,-1378.971896
236.788367,-296.082377,-9030.512492,-1762.019645
236.788690,-592.164754,-9548.656652,-2374.896044
236.789012,-888.247130,-9622.677246,-2451.505594
236.789335,-740.205942,-9400.615463,-2451.505594
236.789657,-444.123565,-9326.594869,-2451.505594
236.789979,-370.102971,-8956.491898,-2451.505594
236.790302,-370.102971,-9178.553681,-2221.676944
236.790624,-740.205942,-9326.594869,-2068.457845
236.790947,-1184.329507,-9844.739029,-1762.019645
236.791269,-1554.432478,-9844.739029,-1455.581446
236.791592,-1776.494261,-9770.718434,-919.314598
236.791914,-1924.535449,-9400.615463,-1455.581446
236.792236,-2368.659014,-9104.533087,-1225.752797
236.792559,-2220.617826,-8882.471304,-1302.362347
236.792881,-1850.514855,-8882.471304,-1302.362347
236.793204,-1480.411884,-9104.533087,-1149.143247
236.793526,-740.205942,-9474.636058,-1225.752797
236.793849,-148.041188,-9548.656652,-1532.190996
236.794171,592.164754,-10066.800811,-1762.019645
236.794494,1258.350101,-10288.862594,-1915.238745
236.794816,1702.473667,-10288.862594,-1378.971896
236.795138,2220.617826,-9770.718434,-1685.410096
236.795461,2294.638420,-9548.656652,-1991.848295
236.795783,2220.617826,-9104.533087,-1991.848295
236.796106,2368.659014,-8586.388927,-1685.410096
236.796428,2368.659014,-8142.265362,-1915.238745
236.796751,1924.535449,-7698.141797,-1378.971896
236.797073,1480.411884,-7402.059420,-1762.019645
236.797395,1110.308913,-8068.244768,-1532.190996
236.797718,296.082377,-8660.409521,-1762.019645
236.798040,-592.164754,-9104.533087,-2068.457845
236.798363,-1480.411884,-9178.553681,-2528.115143
236.798685,-1628.453072,-10510.924376,-2451.505594
236.799008,-2294.638420,-10807.006753,-1915.238745
236.799330,-1998.556043,-10881.027347,-1762.019645
236.799652,-1924.535449,-10510.924376,-1455.581446
236.799975,-1776.494261,-10214.842000,-1225.752797
236.800297,-1406.391290,-9548.656652,-1608.800546
236.800620,-1480.411884,-9770.718434,-1302.362347
236.800942,-1332.370696,-9770.718434,-1225.752797
236.801265,-1036.288319,-9474.636058,-1149.143247
236.801587,-592.164754,-9474.636058,-995.924147
236.801909,-74.020594,-9030.512492,-995.924147
236.802232,0.000000,-8956.491898,-1225.752797
236.802554,-518.144159,-8364.327145,-1225.752797
236.802877,-1036.288319,-8216.285956,-1608.800546
236.803199,-1554.432478,-8068.244768,-2298.286494
236.803522,-1776.494261,-8438.347739,-2834.553343
236.803844,-1258.350101,-9104.533087,-3447.429741
236.804166,-1110.308913,-9622.677246,-2834.553343
236.804489,-592.164754,-10214.842000,-2604.724693
236.804811,-296.082377,-10510.924376,-2374.896044
236.805134,222.061783,-10214.842000,-1762.019645
236.805456,370.102971,-10288.862594,-1762.019645
236.805779,-296.082377,-9844.739029,-1532.190996
236.806101,-592.164754,-9400.615463,-1608.800546
236.806423,-1332.370696,-8956.491898,-1302.362347
236.806746,-1480.411884,-9178.553681,-766.095498
236.807068,-1850.514855,-9252.574275,-689.485948
236.807391,-2146.597232,-9178.553681,-459.657299
236.807713,-2442.679609,-9252.574275,-153.219100
236.808036,-2294.638420,-9178.553681,-383.047749
236.808358,-1924.535449,-9030.512492,-766.095498
236.808680,-1332.370696,-9030.512492,-1302.362347
236.809003,-1480.411884,-8068.244768,-1915.238745
236.809325,-370.102971,-8882.471304,-1302.362347
236.809648,74.020594,-9770.718434,-1532.190996
236.809970,592.164754,-10436.903782,-1608.800546
236.810293,666.185348,-10510.924376,-1608.800546
236.810615,1110.308913,-10955.047942,-1532.190996
236.810937,1258.350101,-9622.677246,-1608.800546
236.811260,1628.453072,-9252.574275,-1762.019645
236.811582,1998.556043,-8290.306550,-1762.019645
236.811905,1776.494261,-7550.100608,-1838.629195
236.812227,1702.473667,-7105.977043,-1302.362347
236.812550,1258.350101,-7328.038826,-1225.752797
236.812872,814.226536,-7994.224174,-1149.143247
236.813194,74.020594,-8956.491898,-1302.362347
236.813517,-296.082377,-9326.594869,-1608.800546
236.813839,-740.205942,-9696.697840,-1608.800546
236.814162,-888.247130,-9770.718434,-1378.971896
236.814484,-888.247130,-9622.677246,-1608.800546
236.814807,-962.267725,-10066.800811,-1378.971896
236.815129,-962.267725,-10066.800811,-1302.362347
236.815451,-888.247130,-10214.842000,-1378.971896
236.815774,-666.185348,-10732.986159,-1149.143247
236.816096,-814.226536,-10584.944971,-612.876398
236.816419,-592.164754,-10214.842000,-1072.533697
236.816741,-666.185348,-9474.636058,-995.924147
236.817064,0.000000,-9178.553681,-1302.362347
236.817386,-222.061783,-8956.491898,-1608.800546
236.817708,-888.247130,-8586.388927,-1608.800546
236.818031,-1036.288319,-8290.306550,-1378.971896
236.818353,-1406.391290,-8364.327145,-1838.629195
236.818676,-1554.432478,-8364.327145,-2757.943793
236.818998,-1110.308913,-8956.491898,-2987.772442
236.819321,-814.226536,-9918.759623,-2757.943793
236.819643,-592.164754,-9400.615463,-2987.772442
236.819966,-592.164754,-9474.636058,-2604.724693
236.820288,-296.082377,-9696.697840,-2757.943793
236.820610,-148.041188,-9918.759623,-2681.334243
236.820933,0.000000,-9918.759623,-2604.724693
236.821255,-148.041188,-10066.800811,-1915.238745
236.821578,-148.041188,-9770.718434,-2145.067394
236.821900,0.000000,-9770.718434,-1532.190996
236.822223,-518.144159,-9844.739029,-1225.752797
236.822545,-888.247130,-9696.697840,-995.924147
236.822867,-1628.453072,-9474.636058,-1072.533697
236.823190,-2072.576638,-9474.636058,-1072.533697
236.823512,-1776.494261,-9474.636058,-1072.533697
236.823834,-1258.350101,-9326.594869,-1378.971896
236.824157,-888.247130,-9400.615463,-766.095498
236.824479,0.000000,-9622.677246,-612.876398
236.824801,666.185348,-9178.553681,-459.657299
236.825124,1036.288319,-9696.697840,-1302.362347
236.825446,1258.350101,-10214.842000,-1149.143247
236.825768,962.267725,-9918.759623,-995.924147
236.826091,888.247130,-9918.759623,-1302.362347
236.826413,1036.288319,-9400.615463,-1608.800546
236.826735,1702.473667,-8660.409521,-1608.800546
236.827058,1850.514855,-8068.244768,-1378.971896
236.827380,1702.473667,-7254.018232,-1762.019645
236.827702,1702.473667,-6957.935855,-1378.971896
236.828025,1258.350101,-7179.997637,-1532.190996
236.828347,1110.308913,-8438.347739,-689.485948
236.828669,0.000000,-9178.553681,-1455.581446
236.828992,-1036.288319,-9474.636058,-1685.410096
236.829314,-1554.432478,-10066.800811,-1608.800546
236.829636,-1406.391290,-10140.821405,-1378.971896
236.829958,-1036.288319,-9770.718434,-1225.752797
236.830281,-1110.308913,-9474.636058,-1225.752797
236.830603,-888.247130,-9474.636058,-842.705048
236.830925,-962.267725,-9622.677246,-689.485948
236.831248,-962.267725,-10066.800811,-842.705048
236.831570,-888.247130,-10140.821405,-842.705048
236.831892,-1036.288319,-9770.718434,-1225.752797
236.832215,-740.205942,-9548.656652,-842.705048
236.832537,-444.123565,-8734.430116,-1149.143247
236.832859,-444.123565,-8512.368333,-1225.752797
236.833182,-296.082377,-8586.388927,-1225.752797
236.833504,-666.185348,-8290.306550,-2221.676944
236.833826,-1332.370696,-8586.388927,-2451.505594
236.834149,-1702.473667,-9030.512492,-3064.381992
236.834471,-1702.473667,-9252.574275,-3217.601092
236.834793,-1036.288319,-9770.718434,-3140.991542
236.835116,-1036.288319,-9844.739029,-2604.724693
236.835438,-740.205942,-9548.656652,-2604.724693
236.835760,-518.144159,-9696.697840,-2681.334243
236.836083,-370.102971,-9844.739029,-2528.115143
236.836405,-814.226536,-9844.739029,-2528.115143
236.836727,-1258.350101,-9918.759623,-2528.115143
236.837050,-1702.473667,-9474.636058,-2221.676944
236.837372,-1998.556043,-9622.677246,-1762.019645
236.837694,-1998.556043,-9474.636058,-1455.581446
236.838017,-2146.597232,-9622.677246,-1225.752797
236.838339,-2220.617826,-9326.594869,-842.705048
236.838661,-1998.556043,-8956.491898,-919.314598
236.838984,-1628.453072,-9548.656652,-1455.581446
236.839306,-1184.329507,-9622.677246,-1455.581446
236.839628,-592.164754,-9622.677246,-1532.190996
236.839950,74.020594,-9474.636058,-1685.410096
236.840273,518.144159,-9474.636058,-1455.581446
236.840595,962.267725,-9770.718434,-1838.629195
236.840917,1258.350101,-9918.759623,-1378.971896
236.841240,1184.329507,-9918.759623,-1762.019645
236.841562,1184.329507,-9474.636058,-1685.410096
236.841884,1702.473667,-9474.636058,-1991.848295
236.842207,1776.494261,-8660.409521,-1915.238745
236.842529,1628.453072,-7994.224174,-1608.800546
236.842851,1406.391290,-7476.080014,-1378.971896
236.843174,1110.308913,-7402.059420,-919.314598
236.843496,592.164754,-7698.141797,-1302.362347
236.843818,74.020594,-8142.265362,-1378.971896
236.844141,-740.205942,-8734.430116,-1608.800546
236.844463,-1258.350101,-9622.677246,-1455.581446
236.844785,-1628.453072,-10214.842000,-1149.143247
236.845108,-1480.411884,-10436.903782,-1072.533697
236.845430,-1554.432478,-10436.903782,-1225.752797
236.845752,-1110.308913,-10436.903782,-1225.752797
236.846075,-1184.329507,-10214.842000,-919.314598
236.846397,-1110.308913,-10436.903782,-919.314598
236.846719,-740.205942,-10066.800811,-919.314598
236.847042,-444.123565,-9474.636058,-383.047749
236.847364,0.000000,-9770.718434,-383.047749
236.847686,-370.102971,-9178.553681,-536.266849
236.848009,-222.061783,-8956.491898,-995.924147
236.848331,0.000000,-8586.388927,-1072.533697
236.848653,-222.061783,-8364.327145,-842.705048
236.848976,-222.061783,-8808.450710,-1838.629195
236.849298,-666.185348,-8364.327145,-1762.019645
236.849620,-740.205942,-8808.450710,-2145.067394
236.849942,-888.247130,-9178.553681,-2374.896044
236.850265,-1110.308913,-9252.574275,-2221.676944
236.850587,-1036.288319,-9474.636058,-2757.943793
236.850909,-888.247130,-9326.594869,-2834.553343
236.851232,-740.205942,-9770.718434,-2604.724693
236.851554,-740.205942,-9622.677246,-2451.505594
236.851876,-666.185348,-9474.636058,-2451.505594
236.852199,-592.164754,-9400.615463,-1991.848295
236.852521,-370.102971,-9400.615463,-2068.457845
236.852843,-444.123565,-9992.780217,-1455.581446
236.853166,-962.267725,-9696.697840,-1378.971896
236.853488,-1036.288319,-9622.677246,-919.314598
236.853810,-1184.329507,-9474.636058,-995.924147
236.854133,-888.247130,-9474.636058,-1532.190996
236.854455,-814.226536,-9400.615463,-1762.019645
236.854777,-666.185348,-9326.594869,-1302.362347
236.855100,-296.082377,-9326.594869,-1225.752797
236.855422,222.061783,-9400.615463,-1302.362347
236.855744,888.247130,-9622.677246,-1225.752797
236.856067,962.267725,-9696.697840,-1225.752797
236.856389,1258.350101,-9844.739029,-1225.752797
236.856711,1480.411884,-9770.718434,-1455.581446
236.857034,1628.453072,-9326.594869,-1762.019645
236.857356,1850.514855,-8734.430116,-2068.457845
236.857678,2146.597232,-8438.347739,-2068.457845
236.858001,1702.473667,-8364.327145,-1762.019645
236.858323,1480.411884,-8068.244768,-1685.410096
236.858645,814.226536,-8142.265362,-1991.848295
236.858968,444.123565,-8512.368333,-2068.457845
236.859290,222.061783,-9030.512492,-1991.848295
236.859612,-444.123565,-9104.533087,-1762.019645
236.859934,-1332.370696,-9548.656652,-1838.629195
236.860257,-1480.411884,-10066.800811,-1608.800546
236.860579,-1554.432478,-10214.842000,-1072.533697
236.860901,-1480.411884,-10214.842000,-995.924147
236.861224,-1702.473667,-9770.718434,-1378.971896
236.861546,-1702.473667,-10066.800811,-919.314598
236.861868,-1332.370696,-9770.718434,-919.314598
236.862191,-518.144159,-9844.739029,-995.924147
236.862513,-222.061783,-9992.780217,-995.924147
236.862835,0.000000,-9992.780217,-1378.971896
236.863158,-444.123565,-9326.594869,-459.657299
236.863480,-740.205942,-8956.491898,-1072.533697
236.863802,-666.185348,-8882.471304,-1378.971896
236.864125,-1184.329507,-8586.388927,-1915.238745
236.864447,-1628.453072,-8438.347739,-1915.238745
236.864769,-1924.535449,-8142.265362,-1915.238745
236.865092,-1998.556043,-8956.491898,-2451.505594
236.865414,-1850.514855,-9474.636058,-2604.724693
236.865736,-1702.473667,-9770.718434,-2451.505594
236.866059,-1480.411884,-9770.718434,-2451.505594
236.866381,-1258.350101,-9474.636058,-2681.334243
236.866703,-1184.329507,-9474.636058,-2374.896044
236.867026,-740.205942,-9474.636058,-1608.800546
236.867348,-962.267725,-9400.615463,-1532.190996
236.867670,-1480.411884,-9252.574275,-1455.581446
236.867993,-1480.411884,-9622.677246,-1225.752797
236.868315,-1702.473667,-9474.636058,-842.705048
236.868637,-1850.514855,-9696.697840,-612.876398
236.868960,-1702.473667,-9548.656652,-536.266849
236.869282,-1776.494261,-9178.553681,-689.485948
236.869604,-1628.453072,-8956.491898,-766.095498
236.869926,-1036.288319,-8882.471304,-1378.971896
236.870249,-740.205942,-9030.512492,-1072.533697
236.870571,-592.164754,-9030.512492,-1532.190996
236.870893,0.000000,-9252.574275,-1608.800546
236.871216,222.061783,-9844.739029,-1608.800546
236.871538,888.247130,-10140.821405,-1838.629195
236.871860,1036.288319,-10066.800811,-1762.019645
236.872183,1110.308913,-10066.800811,-1915.238745
236.872505,1258.350101,-9400.615463,-1991.848295
236.872827,1554.432478,-8364.327145,-1991.848295
236.873150,1850.514855,-7994.224174,-1991.848295
236.873472,1776.494261,-7476.080014,-2068.457845
236.873794,1702.473667,-7624.121203,-2068.457845
236.874117,1554.432478,-7994.224174,-1838.629195
236.874439,1406.391290,-8882.471304,-1225.752797
236.874761,1258.350101,-9178.553681,-1455.581446
236.875084,1036.288319,-9326.594869,-1532.190996
236.875406,222.061783,-9696.697840,-1302.362347
236.875728,-370.102971,-9548.656652,-1378.971896
236.876051,-370.102971,-9918.759623,-1838.629195
236.876373,-444.123565,-9844.739029,-1532.190996
236.876695,-666.185348,-9474.636058,-1149.143247
236.877018,-888.247130,-9548.656652,-919.314598
236.877340,-962.267725,-10362.883188,-1378.971896
236.877662,-888.247130,-10584.944971,-995.924147
236.877985,-1332.370696,-10214.842000,-1225.752797
236.878307,-1554.432478,-9696.697840,-919.314598
236.878629,-1332.370696,-9030.512492,-1225.752797
236.878952,-1332.370696,-8660.409521,-1838.629195
236.879274,-1332.370696,-8660.409521,-1838.629195
236.879596,-1184.329507,-8808.450710,-1915.238745
236.879918,-1258.350101,-8956.491898,-2221.676944
236.880241,-814.226536,-9622.677246,-2374.896044
236.880563,-740.205942,-9844.739029,-2374.896044
236.880885,-740.205942,-9992.780217,-2298.286494
236.881208,-888.247130,-9622.677246,-2374.896044
236.881530,-296.082377,-9252.574275,-2451.505594
236.881852,-296.082377,-8438.347739,-1838.629195
236.882175,592.164754,-8512.368333,-2221.676944
236.882497,592.164754,-8808.450710,-1838.629195
236.882819,444.123565,-9326.594869,-1608.800546
236.883142,74.020594,-9696.697840,-919.314598
236.883464,-370.102971,-10584.944971,-612.876398
236.883786,-1184.329507,-9844.739029,-842.705048
236.884109,-1850.514855,-10066.800811,-1072.533697
236.884431,-2516.700203,-9474.636058,-919.314598
236.884753,-2738.761985,-9030.512492,-995.924147
236.885076,-2590.720797,-8956.491898,-1302.362347
236.885398,-2220.617826,-9252.574275,-1225.752797
236.885720,-2146.597232,-9252.574275,-1378.971896
236.886043,-1406.391290,-9622.677246,-1455.581446
236.886365,-592.164754,-9992.780217,-1455.581446
236.886687,0.000000,-10362.883188,-1532.190996
236.887010,814.226536,-10288.862594,-1455.581446
236.887332,814.226536,-9696.697840,-1378.971896
236.887654,962.267725,-9178.553681,-1685.410096
236.887977,1554.432478,-8734.430116,-1838.629195
236.888299,2294.638420,-8364.327145,-1991.848295
236.888621,2960.823768,-8216.285956,-1685.410096
236.888944,2590.720797,-8142.265362,-919.314598
236.889266,2738.761985,-7920.203579,-1072.533697
236.889588,2442.679609,-7772.162391,-1072.533697
236.889910,2072.576638,-8438.347739,-1225.752797
236.890233,1406.391290,-8734.430116,-1378.971896
236.890555,296.082377,-9030.512492,-1302.362347
236.890877,-814.226536,-9696.697840,-1302.362347
236.891200,-1110.308913,-10214.842000,-1225.752797
236.891522,-962.267725,-10214.842000,-1378.971896
236.891844,-1184.329507,-10436.903782,-1225.752797
236.892167,-1332.370696,-10436.903782,-1072.533697
236.892489,-1184.329507,-9622.677246,-612.876398
236.892811,-1628.453072,-9622.677246,-1302.362347
236.893134,-1702.473667,-9474.636058,-1455.581446
236.893456,-1850.514855,-9400.615463,-1685.410096
236.893778,-1776.494261,-9400.615463,-1991.848295
236.894101,-1850.514855,-9030.512492,-1302.362347
236.894423,-1480.411884,-9474.636058,-1838.629195
236.894745,-1554.432478,-9030.512492,-1762.019645
236.895068,-1480.411884,-8586.388927,-1838.629195
236.895390,-1628.453072,-8290.306550,-2451.505594
236.895712,-1332.370696,-8438.347739,-2681.334243
236.896035,-1480.411884,-9178.553681,-2834.553343
236.896357,-1036.288319,-9400.615463,-2834.553343
236.896679,-814.226536,-9622.677246,-2681.334243
236.897002,-222.061783,-9696.697840,-2451.505594
236.897324,296.082377,-9770.718434,-2528.115143
236.897646,592.164754,-9696.697840,-1762.019645
236.897969,518.144159,-10140.821405,-1915.238745
236.898291,0.000000,-9696.697840,-1532.190996
236.898613,-592.164754,-9548.656652,-1302.362347
236.898936,-1258.350101,-9474.636058,-1378.971896
236.899258,-1850.514855,-9474.636058,-919.314598
236.899580,-1850.514855,-9992.780217,-995.924147
236.899902,-2442.679609,-9622.677246,-995.924147
236.900225,-2664.741391,-9030.512492,-1149.143247
236.900547,-2590.720797,-9104.533087,-1225.752797
236.900869,-2294.638420,-8734.430116,-1302.362347
236.901192,-1702.473667,-8882.471304,-1608.800546
236.901514,-1184.329507,-8956.491898,-1915.238745
236.901836,-666.185348,-9548.656652,-1991.848295
236.902159,0.000000,-10140.821405,-1838.629195
236.902481,74.020594,-10288.862594,-1762.019645
236.902803,148.041188,-9918.759623,-1378.971896
236.903126,592.164754,-9918.759623,-1685.410096
236.903448,1480.411884,-9548.656652,-1915.238745
236.903770,1924.535449,-9030.512492,-1915.238745
236.904093,2368.659014,-8142.265362,-1608.800546
236.904415,2442.679609,-7476.080014,-689.485948
236.904737,2220.617826,-7550.100608,-842.705048
236.905060,1998.556043,-7624.121203,-1072.533697
236.905382,1628.453072,-8586.388927,-689.485948
236.905704,962.267725,-9252.574275,-842.705048
236.906027,444.123565,-8956.491898,-842.705048
236.906349,74.020594,-9548.656652,-229.828649
236.906671,-296.082377,-9992.780217,-536.266849
236.906994,-296.082377,-10140.821405,-766.095498
236.907316,-814.226536,-9770.718434,-919.314598
236.907638,-888.247130,-9548.656652,-1455.581446
236.907961,-962.267725,-9548.656652,-1302.362347
236.908283,-1110.308913,-10066.800811,-1225.752797
236.908605,-1554.432478,-10066.800811,-995.924147
236.908928,-1702.473667,-9992.780217,-1225.752797
236.909250,-1924.535449,-9622.677246,-1608.800546
236.909572,-1702.473667,-9178.553681,-1838.629195
236.909894,-1480.411884,-8734.430116,-1685.410096
236.910217,-1702.473667,-8216.285956,-1455.581446
236.910539,-1406.391290,-7846.182985,-1915.238745
236.910861,-1184.329507,-7846.182985,-2298.286494
236.911184,-962.267725,-8512.368333,-1838.629195
236.911506,-370.102971,-8956.491898,-2604.724693
236.911828,-444.123565,-9400.615463,-2451.505594
236.912151,-222.061783,-9548.656652,-2451.505594
236.912473,0.000000,-9622.677246,-2298.286494
236.912795,666.185348,-9622.677246,-2451.505594
236.913118,962.267725,-9400.615463,-2451.505594
236.913440,1036.288319,-9548.656652,-2451.505594
236.913762,666.185348,-9696.697840,-1838.629195
236.914085,296.082377,-10140.821405,-1608.800546
236.914407,-296.082377,-10362.883188,-1302.362347
236.914729,-1110.308913,-10510.924376,-1608.800546
236.915052,-1702.473667,-9696.697840,-1225.752797
236.915374,-1998.556043,-9696.697840,-1149.143247
236.915696,-2072.576638,-9252.574275,-1455.581446
236.916019,-2072.576638,-9030.512492,-1532.190996
236.916341,-2146.597232,-8956.491898,-1455.581446
236.916663,-1406.391290,-8956.491898,-1455.581446
236.916986,-1628.453072,-9252.574275,-1991.848295
236.917308,-1036.288319,-9548.656652,-2451.505594
236.917630,-222.061783,-10140.821405,-2221.676944
236.917953,148.041188,-10436.903782,-1838.629195
236.918275,740.205942,-9992.780217,-1455.581446
236.918597,1554.432478,-10066.800811,-1762.019645
236.918920,1924.535449,-9104.533087,-2451.505594
236.919242,2516.700203,-8586.388927,-1915.238745
236.919564,2590.720797,-7920.203579,-1915.238745
236.919887,2738.761985,-7328.038826,-1608.800546
236.920209,2516.700203,-7624.121203,-1302.362347
236.920531,1924.535449,-8142.265362,-995.924147
236.920853,1258.350101,-8660.409521,-1225.752797
236.921176,370.102971,-9104.533087,-1378.971896
236.921498,-518.144159,-9622.677246,-1608.800546
236.921820,-370.102971,-9770.718434,-1532.190996
236.922143,-1110.308913,-9770.718434,-995.924147
236.922465,-1258.350101,-9844.739029,-766.095498
236.922787,-888.247130,-9992.780217,-1225.752797
236.923110,-814.226536,-10140.821405,-995.924147
236.923432,-1332.370696,-9770.718434,-689.485948
236.923754,-1628.453072,-9844.739029,-536.266849
236.924077,-1332.370696,-10140.821405,-919.314598
236.924399,-1480.411884,-10066.800811,-919.314598
236.924721,-1628.453072,-9548.656652,-1072.533697
236.925044,-1776.494261,-9178.553681,-1378.971896
236.925366,-1924.535449,-9178.553681,-1455.581446
236.925688,-1850.514855,-8364.327145,-1532.190996
236.926011,-1998.556043,-8438.347739,-1838.629195
236.926333,-1998.556043,-8660.409521,-2451.505594
236.926655,-1776.494261,-8882.471304,-2451.505594
236.926978,-1406.391290,-9474.636058,-2451.505594
236.927300,-1036.288319,-9844.739029,-2604.724693
236.927622,-1110.308913,-9696.697840,-2298.286494
236.927945,-518.144159,-9622.677246,-2451.505594
236.928267,-222.061783,-10066.800811,-2374.896044
236.928589,370.102971,-9770.718434,-1762.019645
236.928911,148.041188,-9252.574275,-766.095498
236.929234,-296.082377,-9400.615463,-1532.190996
236.929556,-666.185348,-9474.636058,-1225.752797
236.929878,-962.267725,-9918.759623,-612.876398
236.930201,-1702.473667,-9696.697840,-536.266849
236.930523,-2072.576638,-9030.512492,-153.219100
236.930845,-2072.576638,-8956.491898,-842.705048
236.931168,-1776.494261,-8882.471304,-995.924147
236.931490,-1628.453072,-8882.471304,-766.095498
236.931812,-1628.453072,-8660.409521,-1225.752797
236.932135,-1480.411884,-8660.409521,-1915.238745
236.932457,-740.205942,-8956.491898,-2145.067394
236.932779,-296.082377,-9622.677246,-2145.067394
236.933102,-148.041188,-9992.780217,-2221.676944
236.933424,148.041188,-9844.739029,-2451.505594
236.933746,444.123565,-9918.759623,-2221.676944
236.934069,888.247130,-9474.636058,-1915.238745
236.934391,1480.411884,-9178.553681,-2528.115143
236.934713,1628.453072,-8512.368333,-2681.334243
236.935036,1702.473667,-8216.285956,-2604.724693
236.935358,1850.514855,-7846.182985,-2145.067394
236.935680,1924.535449,-7920.203579,-1302.362347
236.936002,1924.535449,-8660.409521,-1378.971896
236.936325,1628.453072,-8808.450710,-1532.190996
236.936647,1184.329507,-9252.574275,-1455.581446
236.936969,592.164754,-9696.697840,-1225.752797
236.937292,296.082377,-9844.739029,-995.924147
236.937614,296.082377,-9918.759623,-689.485948
236.937936,-148.041188,-9992.780217,-1302.362347
236.938259,-222.061783,-10140.821405,-995.924147
236.938581,-296.082377,-10140.821405,-1225.752797
236.938903,-740.205942,-10362.883188,-1149.143247
236.939226,-1184.329507,-10214.842000,-1072.533697
236.939548,-1332.370696,-10214.842000,-1225.752797
236.939870,-1628.453072,-9992.780217,-1532.190996
236.940193,-1776.494261,-9548.656652,-1532.190996
236.940515,-1702.473667,-9400.615463,-1685.410096
236.940837,-1998.556043,-9030.512492,-1991.848295
236.941160,-1702.473667,-9252.574275,-2145.067394
236.941482,-1998.556043,-8882.471304,-2298.286494
236.941804,-1850.514855,-9030.512492,-2374.896044
236.942127,-1628.453072,-9178.553681,-2221.676944
236.942449,-888.247130,-9252.574275,-2374.896044
236.942771,-444.123565,-9326.594869,-1838.629195
236.943093,74.020594,-9400.615463,-1762.019645
236.943416,888.247130,-9400.615463,-1532.190996
236.943738,888.247130,-9326.594869,-1302.362347
236.944060,1184.329507,-8808.450710,-1532.190996
236.944383,1110.308913,-8956.491898,-1149.143247
236.944705,814.226536,-9474.636058,-689.485948
236.945027,222.061783,-9622.677246,-536.266849
236.945350,-222.061783,-9844.739029,-766.095498
236.945672,-1184.329507,-9770.718434,-842.705048
236.945994,-1332.370696,-9622.677246,0.000000
236.946317,-1776.494261,-9474.636058,-383.047749
236.946639,-2072.576638,-9400.615463,-1072.533697
236.946961,-1998.556043,-9474.636058,-1072.533697
236.947284,-1776.494261,-9326.594869,-1225.752797
236.947606,-1332.370696,-9474.636058,-1378.971896
236.947928,-666.185348,-9030.512492,-2068.457845
236.948251,-518.144159,-9992.780217,-2068.457845
236.948573,0.000000,-10214.842000,-1838.629195
236.948895,370.102971,-10140.821405,-1685.410096
236.949218,962.267725,-9474.636058,-1838.629195
236.949540,1628.453072,-8956.491898,-2068.457845
236.949862,2072.576638,-8142.265362,-1762.019645
236.950184,2220.617826,-7846.182985,-1838.629195
236.950507,2294.638420,-7550.100608,-1762.019645
236.950829,2294.638420,-7402.059420,-1762.019645
236.951151,2072.576638,-7698.141797,-1762.019645
236.951474,1554.432478,-8660.409521,-2298.286494
236.951796,444.123565,-9252.574275,-1915.238745
236.952118,-222.061783,-9622.677246,-1915.238745
236.952441,-740.205942,-10214.842000,-1685.410096
236.952763,-1036.288319,-10510.924376,-1838.629195
236.953085,-592.164754,-10584.944971,-1915.238745
236.953408,-888.247130,-10510.924376,-1608.800546
236.953730,-1480.411884,-10436.903782,-1072.533697
236.954052,-1554.432478,-9992.780217,-1302.362347
236.954375,-1480.411884,-9696.697840,-1532.190996
236.954697,-1406.391290,-9548.656652,-1225.752797
236.955019,-1924.535449,-9474.636058,-919.314598
236.955342,-1850.514855,-9474.636058,-1302.362347
236.955664,-1776.494261,-9326.594869,-1378.971896
236.955986,-1628.453072,-9178.553681,-1608.800546
236.956309,-1628.453072,-8660.409521,-1685.410096
236.956631,-1702.473667,-8438.347739,-2528.115143
236.956953,-1480.411884,-8438.347739,-2604.724693
236.957275,-1776.494261,-8882.471304,-2681.334243
236.957598,-1554.432478,-9178.553681,-2681.334243
236.957920,-1406.391290,-9474.636058,-2987.772442
236.958242,-1036.288319,-9770.718434,-3217.601092
236.958565,-1036.288319,-9622.677246,-2528.115143
236.958887,-148.041188,-9770.718434,-2374.896044
236.959209,518.144159,-9696.697840,-1915.238745
236.959532,444.123565,-9326.594869,-1455.581446
236.959854,666.185348,-8882.471304,-1532.190996
236.960176,0.000000,-8956.491898,-1608.800546
236.960499,-296.082377,-9252.574275,-995.924147
236.960821,-962.267725,-9474.636058,-459.657299
236.961143,-1480.411884,-9474.636058,-306.438199
236.961466,-1702.473667,-9400.615463,-383.047749
236.961788,-1406.391290,-9252.574275,-229.828649
236.962110,-1406.391290,-9252.574275,-766.095498
236.962433,-1258.350101,-9326.594869,-842.705048
236.962755,-1184.329507,-9178.553681,-1072.533697
236.963077,-888.247130,-9178.553681,-1608.800546
236.963400,-296.082377,-9696.697840,-1838.629195
236.963722,-518.144159,-9548.656652,-1455.581446
236.964044,0.000000,-10436.903782,-2068.457845
236.964366,0.000000,-10362.883188,-1762.019645
236.964689,592.164754,-9918.759623,-2068.457845
236.965011,1332.370696,-9400.615463,-2221.676944
236.965333,2072.576638,-8956.491898,-2374.896044
236.965656,1998.556043,-8364.327145,-1762.019645
236.965978,2294.638420,-8068.244768,-1225.752797
236.966300,2368.659014,-8364.327145,-1225.752797
236.966623,2368.659014,-8290.306550,-1072.533697
236.966945,1998.556043,-8068.244768,-919.314598
236.967267,1406.391290,-8734.430116,-536.266849
236.967590,666.185348,-9326.594869,-919.314598
236.967912,370.102971,-9696.697840,-842.705048
236.968234,-222.061783,-10066.800811,-536.266849
236.968557,-666.185348,-9918.759623,-1225.752797
236.968879,-888.247130,-9918.759623,-766.095498
236.969201,-1480.411884,-9992.780217,-766.095498
236.969524,-1406.391290,-10066.800811,-919.314598
236.969846,-1480.411884,-9992.780217,-1149.143247
236.970168,-1850.514855,-9696.697840,-1072.533697
236.970491,-2146.597232,-9252.574275,-1149.143247
236.970813,-2368.659014,-9400.615463,-1455.581446
236.971135,-1998.556043,-9400.615463,-1762.019645
236.971457,-2368.659014,-9252.574275,-1762.019645
236.971780,-2368.659014,-8882.471304,-1685.410096
236.972102,-2146.597232,-8438.347739,-2298.286494
236.972424,-1850.514855,-8216.285956,-2298.286494
236.972747,-1480.411884,-8586.388927,-2451.505594
236.973069,-1184.329507,-8882.471304,-2374.896044
236.973391,-1036.288319,-9030.512492,-2374.896044
236.973714,-592.164754,-9178.553681,-2604.724693
236.974036,0.000000,-9178.553681,-3370.820191
236.974358,148.041188,-9474.636058,-2145.067394
236.974681,814.226536,-9474.636058,-1915.238745
236.975003,888.247130,-9252.574275,-1915.238745
236.975325,666.185348,-9104.533087,-1915.238745
236.975648,962.267725,-9474.636058,-1072.533697
236.975970,444.123565,-10140.821405,-1762.019645
236.976292,0.000000,-10140.821405,-1455.581446
236.976615,-1110.308913,-9844.739029,-1149.143247
236.976937,-1702.473667,-9622.677246,-1149.143247
236.977259,-1776.494261,-9770.718434,-1532.190996
236.977582,-1850.514855,-9622.677246,-1608.800546
236.977904,-2146.597232,-9696.697840,-1762.019645
236.978226,-2072.576638,-9474.636058,-1608.800546
236.978548,-1110.308913,-9474.636058,-2145.067394
236.978871,-296.082377,-9622.677246,-2374.896044
236.979193,0.000000,-9622.677246,-2221.676944
236.979515,666.185348,-9770.718434,-2221.676944
236.979838,814.226536,-10140.821405,-2145.067394
236.980160,1332.370696,-9918.759623,-2145.067394
236.980482,1924.535449,-9252.574275,-2451.505594
236.980805,2442.679609,-8660.409521,-2604.724693
236.981127,2886.803174,-7920.203579,-1991.848295
236.981449,2960.823768,-7624.121203,-1762.019645
236.981772,2738.761985,-7624.121203,-1378.971896
236.982094,2516.700203,-8068.244768,-1302.362347
236.982416,1776.494261,-8882.471304,-1302.362347
236.982739,962.267725,-9252.574275,-1455.581446
236.983061,74.020594,-9622.677246,-1378.971896
236.983383,-518.144159,-9844.739029,-919.314598
236.983706,-444.123565,-10214.842000,-919.314598
236.984028,-666.185348,-10214.842000,-842.705048
236.984350,-1258.350101,-9474.636058,-383.047749
236.984673,-1554.432478,-9622.677246,-842.705048
236.984995,-1924.535449,-9918.759623,-766.095498
236.985317,-1998.556043,-10066.800811,-995.924147
236.985639,-2146.597232,-10214.842000,-1149.143247
236.985962,-1850.514855,-10214.842000,-995.924147
236.986284,-1036.288319,-9030.512492,-995.924147
236.986606,-1332.370696,-8882.471304,-919.314598
236.986929,-1258.350101,-8882.471304,-1149.143247
236.987251,-1628.453072,-8586.388927,-1608.800546
236.987573,-2072.576638,-8660.409521,-1915.238745
236.987896,-2442.679609,-8216.285956,-2068.457845
236.988218,-2146.597232,-8882.471304,-2604.724693
236.988540,-1628.453072,-9252.574275,-2528.115143
236.988863,-1258.350101,-9400.615463,-2221.676944
236.989185,-814.226536,-9252.574275,-1991.848295
236.989507,-518.144159,-9030.512492,-1378.971896
236.989830,0.000000,-9696.697840,-1915.238745
236.990152,-296.082377,-9696.697840,-1608.800546
236.990474,-592.164754,-9622.677246,-1685.410096
236.990797,-888.247130,-9696.697840,-1455.581446
236.991119,-814.226536,-9400.615463,-919.314598
236.991441,-888.247130,-10214.842000,-1225.752797
236.991764,-1480.411884,-9770.718434,-919.314598
236.992086,-2072.576638,-9622.677246,-766.095498
236.992408,-2146.597232,-9622.677246,-766.095498
236.992730,-2442.679609,-9474.636058,-919.314598
236.993053,-2220.617826,-9178.553681,-1378.971896
236.993375,-1924.535449,-9400.615463,-2145.067394
236.993697,-1406.391290,-9178.553681,-1915.238745
236.994020,-740.205942,-9400.615463,-1991.848295
236.994342,-518.144159,-9622.677246,-1991.848295
236.994664,-222.061783,-9844.739029,-2298.286494
236.994987,0.000000,-9992.780217,-2757.943793
236.995309,0.000000,-9918.759623,-2451.505594
236.995631,444.123565,-9622.677246,-2528.115143
236.995954,962.267725,-9030.512492,-2834.553343
236.996276,1776.494261,-8660.409521,-2681.334243
236.996598,1850.514855,-8142.265362,-1838.629195
236.996921,2294.638420,-8068.244768,-1762.019645
236.997243,2294.638420,-8512.368333,-1685.410096
236.997565,1850.514855,-8808.450710,-1455.581446
236.997888,1480.411884,-9030.512492,-1532.190996
236.998210,518.144159,-8956.491898,-1302.362347
236.998532,592.164754,-9548.656652,-1685.410096
236.998854,296.082377,-9696.697840,-1225.752797
236.999177,296.082377,-9548.656652,-995.924147
236.999499,0.000000,-9548.656652,-766.095498
236.999821,0.000000,-9400.615463,-689.485948
237.000144,-222.061783,-9844.739029,-1149.143247
237.000466,-740.205942,-10214.842000,-919.314598
237.000788,-1184.329507,-10436.903782,-1225.752797
237.001111,-1406.391290,-10214.842000,-1072.533697
237.001433,-1776.494261,-9622.677246,-1378.971896
237.001755,-1332.370696,-9104.533087,-2451.505594
237.002078,-1406.391290,-8808.450710,-1532.190996
237.002400,-1332.370696,-8882.471304,-1838.629195
237.002722,-1554.432478,-8734.430116,-1991.848295
237.003045,-1480.411884,-8956.491898,-2298.286494
237.003367,-1258.350101,-9178.553681,-2451.505594
237.003689,-666.185348,-9474.636058,-2451.505594
237.004012,-814.226536,-9548.656652,-2374.896044
237.004334,-518.144159,-9252.574275,-2374.896044
237.004656,222.061783,-9104.533087,-2298.286494
237.004979,518.144159,-8512.368333,-1915.238745
237.005301,814.226536,-8364.327145,-1455.581446
237.005623,814.226536,-8586.388927,-1455.581446
237.005945,888.247130,-9178.553681,-1378.971896
237.006268,592.164754,-9844.739029,-766.095498
237.006590,0.000000,-9696.697840,-612.876398
237.006912,-296.082377,-9918.759623,-689.485948
237.007235,-592.164754,-9992.780217,-995.924147
237.007557,-1776.494261,-9548.656652,-459.657299
237.007879,-2072.576638,-9622.677246,-612.876398
237.008202,-2294.638420,-9548.656652,-689.485948
237.008524,-2442.679609,-9696.697840,-1225.752797
237.008846,-1924.535449,-9992.780217,-1532.190996
237.009169,-1850.514855,-9918.759623,-1225.752797
237.009491,-1110.308913,-9844.739029,-1608.800546
237.009813,-444.123565,-9622.677246,-1915.238745
237.010136,-148.041188,-9844.739029,-1378.971896
237.010458,-296.082377,-9326.594869,-1838.629195
237.010780,0.000000,-9030.512492,-1685.410096
237.011103,518.144159,-8882.471304,-1991.848295
237.011425,1110.308913,-8734.430116,-1838.629195
237.011747,1924.535449,-8512.368333,-1685.410096
237.012070,2072.576638,-7994.224174,-1378.971896
237.012392,2294.638420,-7476.080014,-1608.800546
237.012714,1850.514855,-7550.100608,-1455.581446
237.013036,1258.350101,-8364.327145,-1302.362347
237.013359,666.185348,-9326.594869,-1378.971896
237.013681,-518.144159,-9252.574275,-1608.800546
237.014003,-592.164754,-9992.780217,-1072.533697
237.014326,-1184.329507,-10214.842000,-1225.752797
237.014648,-888.247130,-10584.944971,-995.924147
237.014970,-962.267725,-9992.780217,-919.314598
237.015293,-1110.308913,-9844.739029,-995.924147
237.015615,-814.226536,-9474.636058,-919.314598
237.015937,-888.247130,-9548.656652,-1378.971896
237.016260,-1332.370696,-9622.677246,-1532.190996
237.016582,-1628.453072,-9770.718434,-1378.971896
237.016904,-1924.535449,-9474.636058,-1532.190996
237.017227,-2072.576638,-9474.636058,-1149.143247
237.017549,-1554.432478,-9178.553681,-1838.629195
237.017871,-1258.350101,-8808.450710,-2221.676944
237.018194,-1406.391290,-8660.409521,-2604.724693
237.018516,-1258.350101,-8660.409521,-2451.505594
237.018838,-1258.350101,-8882.471304,-2681.334243
237.019161,-962.267725,-9474.636058,-2757.943793
237.019483,-888.247130,-9400.615463,-3064.381992
237.019805,-666.185348,-9770.718434,-2528.115143
237.020127,0.000000,-10066.800811,-2528.115143
237.020450,518.144159,-9992.780217,-2221.676944
237.020772,888.247130,-9770.718434,-1685.410096
237.021094,962.267725,-9104.533087,-1685.410096
237.021417,518.144159,-9326.594869,-1532.190996
237.021739,-148.041188,-9474.636058,-1378.971896
237.022061,-888.247130,-9474.636058,-1072.533697
237.022384,-1554.432478,-9696.697840,-612.876398
237.022706,-1850.514855,-9252.574275,-842.705048
237.023028,-2368.659014,-9252.574275,-842.705048
237.023351,-2146.597232,-9104.533087,-995.924147
237.023673,-1702.473667,-9252.574275,-1072.533697
237.023995,-1480.411884,-9252.574275,-1225.752797
237.024317,-592.164754,-9474.636058,-1455.581446
237.024640,-1258.350101,-8956.491898,-1838.629195
237.024962,-888.247130,-9622.677246,-1762.019645
237.025284,-518.144159,-9844.739029,-1991.848295
237.025607,74.020594,-9622.677246,-2145.067394
237.025929,0.000000,-9548.656652,-1915.238745
237.026251,814.226536,-8882.471304,-2451.505594
237.026573,1406.391290,-8808.450710,-1532.190996
237.026896,1702.473667,-8660.409521,-1532.190996
237.027218,1776.494261,-8586.388927,-1685.410096
237.027540,1554.432478,-8290.306550,-1608.800546
237.027863,1258.350101,-8438.347739,-1302.362347
237.028185,1480.411884,-8216.285956,-1149.143247
237.028507,1184.329507,-8882.471304,-919.314598
237.028829,666.185348,-8882.471304,-842.705048
237.029152,370.102971,-9474.636058,-612.876398
237.029474,222.061783,-9696.697840,-919.314598
237.029796,-444.123565,-9992.780217,-612.876398
237.030119,-888.247130,-10066.800811,-919.314598
237.030441,-1332.370696,-10140.821405,-766.095498
237.030763,-1332.370696,-10214.842000,-995.924147
237.031086,-1110.308913,-10584.944971,-995.924147
237.031408,-1480.411884,-9918.759623,-612.876398
237.031730,-1776.494261,-9696.697840,-1149.143247
237.032052,-1924.535449,-9474.636058,-1762.019645
237.032375,-1924.535449,-9400.615463,-1915.238745
237.032697,-1850.514855,-9326.594869,-2145.067394
237.033019,-1776.494261,-9474.636058,-1455.581446
237.033342,-1702.473667,-9178.553681,-2068.457845
237.033664,-1776.494261,-9030.512492,-2451.505594
237.033986,-1036.288319,-8956.491898,-2604.724693
237.034308,-888.247130,-8956.491898,-2528.115143
237.034631,-518.144159,-9252.574275,-2298.286494
237.034953,-370.102971,-9104.533087,-1762.019645
237.035275,148.041188,-9326.594869,-2528.115143
237.035598,666.185348,-9474.636058,-2145.067394
237.035920,1110.308913,-9326.594869,-1915.238745
237.036242,1184.329507,-9030.512492,-1838.629195
237.036564,1850.514855,-8956.491898,-1685.410096
237.036887,1184.329507,-9252.574275,-1532.190996
237.037209,518.144159,-9326.594869,-1302.362347
237.037531,-148.041188,-9844.739029,-995.924147
237.037854,-1036.288319,-10140.821405,-919.314598
237.038176,-1850.514855,-9992.780217,-766.095498
237.038498,-2442.679609,-10066.800811,-995.924147
237.038820,-2664.741391,-9918.759623,-1378.971896
237.039143,-2516.700203,-9474.636058,-1685.410096
237.039465,-1924.535449,-9474.636058,-1608.800546
237.039787,-1480.411884,-9030.512492,-1838.629195
237.040110,-666.185348,-9178.553681,-1532.190996
237.040432,0.000000,-9770.718434,-1991.848295
237.040754,296.082377,-10288.862594,-1991.848295
237.041076,888.247130,-10436.903782,-1762.019645
237.041399,1184.329507,-9918.759623,-1838.629195
237.041721,1628.453072,-9030.512492,-1991.848295
237.042043,2368.659014,-8512.368333,-2145.067394
237.042366,2812.782580,-8290.306550,-1991.848295
237.042688,2738.761985,-7772.162391,-1378.971896
237.043010,2590.720797,-7402.059420,-1455.581446
237.043332,2516.700203,-7920.203579,-1072.533697
237.043655,1924.535449,-8512.368333,-1225.752797
237.043977,1036.288319,-9030.512492,-1149.143247
237.044299,148.041188,-9400.615463,-1532.190996
237.044622,-444.123565,-9622.677246,-1225.752797
237.044944,-370.102971,-9770.718434,-1378.971896
237.045266,-888.247130,-9844.739029,-766.095498
237.045588,-740.205942,-10362.883188,-689.485948
