#time,accel_x,accel_y,accel_z
564.782311,-518.144159,-9326.594869,-1378.971896
564.782634,-222.061783,-9474.636058,-1225.752797
564.782956,0.000000,-9104.533087,-1378.971896
564.783278,-444.123565,-8956.491898,-842.705048
564.783600,-296.082377,-8956.491898,-1225.752797
564.783923,0.000000,-8956.491898,-1455.581446
564.784245,-222.061783,-8956.491898,-1455.581446
564.784567,0.000000,-9030.512492,-1532.190996
564.784889,-444.123565,-9178.553681,-1302.362347
564.785212,-518.144159,-9400.615463,-1225.752797
564.785534,-518.144159,-9326.594869,-1532.190996
564.785856,-222.061783,-9104.533087,-1532.190996
564.786178,-444.123565,-9030.512492,-1685.410096
564.786501,-592.164754,-8956.491898,-1685.410096
564.786823,-370.102971,-9400.615463,-1378.971896
564.787145,-444.123565,-9400.615463,-1915.238745
564.787467,-518.144159,-9326.594869,-1685.410096
564.787789,-518.144159,-9548.656652,-1762.019645
564.788112,-296.082377,-9548.656652,-1762.019645
564.788434,-666.185348,-9400.615463,-1915.238745
564.788756,-518.144159,-9400.615463,-1685.410096
564.789078,-296.082377,-9326.594869,-1838.629195
564.789401,-370.102971,-9474.636058,-2068.457845
564.789723,-370.102971,-9770.718434,-1608.800546
564.790045,-518.144159,-9252.574275,-1685.410096
564.790367,-296.082377,-9622.677246,-2145.067394
564.790690,-296.082377,-9622.677246,-1991.848295
564.791012,-148.041188,-9696.697840,-2068.457845
564.791334,-370.102971,-9548.656652,-1838.629195
564.791656,-444.123565,-9326.594869,-1302.362347
564.791979,-296.082377,-9400.615463,-1915.238745
564.792301,-370.102971,-9474.636058,-2068.457845
564.792623,-296.082377,-9474.636058,-2298.286494
564.792945,-296.082377,-9474.636058,-1991.848295
564.793268,-666.185348,-9252.574275,-1915.238745
564.793590,-740.205942,-9400.615463,-1378.971896
564.793912,-518.144159,-9326.594869,-1838.629195
564.794234,-222.061783,-9326.594869,-1762.019645
564.794556,-296.082377,-9178.553681,-1762.019645
564.794879,-370.102971,-9252.574275,-1378.971896
564.795201,0.000000,-9400.615463,-1685.410096
564.795523,-296.082377,-9252.574275,-1762.019645
564.795845,-370.102971,-9400.615463,-1762.019645
564.796168,-444.123565,-9474.636058,-1455.581446
564.796490,-518.144159,-9474.636058,-1378.971896
564.796812,-666.185348,-9030.512492,-995.924147
564.797134,-666.185348,-9326.594869,-1149.143247
564.797457,-370.102971,-9104.533087,-1302.362347
564.797779,-370.102971,-9030.512492,-1685.410096
564.798101,-296.082377,-9252.574275,-1455.581446
564.798423,-296.082377,-9326.594869,-1378.971896
564.798746,0.000000,-9178.553681,-1378.971896
564.799068,-370.102971,-9474.636058,-1455.581446
564.799390,-370.102971,-9400.615463,-1302.362347
564.799712,-296.082377,-9474.636058,-1149.143247
564.800035,-518.144159,-9400.615463,-1149.143247
564.800357,-296.082377,-9474.636058,-1302.362347
564.800679,-370.102971,-9326.594869,-1225.752797
564.801001,-222.061783,-9474.636058,-1608.800546
564.801323,-444.123565,-9474.636058,-1378.971896
564.801646,-666.185348,-9548.656652,-1302.362347
564.801968,-666.185348,-9844.739029,-1072.533697
564.802290,-444.123565,-9474.636058,-612.876398
564.802612,-222.061783,-9252.574275,-1378.971896
564.802935,-370.102971,-9104.533087,-1608.800546
564.803257,-518.144159,-9252.574275,-1302.362347
564.803579,-518.144159,-9400.615463,-1455.581446
564.803901,-148.041188,-9252.574275,-919.314598
564.804224,-444.123565,-9474.636058,-1608.800546
564.804546,-592.164754,-9474.636058,-1532.190996
564.804868,-666.185348,-9474.636058,-1302.362347
564.805190,-444.123565,-9326.594869,-1378.971896
564.805513,-148.041188,-8734.430116,-1455.581446
564.805835,148.041188,-9252.574275,-1991.848295
564.806157,888.247130,-9104.533087,-2221.676944
564.806479,1850.514855,-9474.636058,-2221.676944
564.806802,2220.617826,-9696.697840,-1072.533697
564.807124,1998.556043,-8586.388927,-306.438199
564.807446,1036.288319,-8364.327145,-153.219100
564.807768,222.061783,-8808.450710,-2068.457845
564.808091,-1184.329507,-9178.553681,-2528.115143
564.808413,-2442.679609,-9252.574275,-2221.676944
564.808735,-3552.988522,-9474.636058,-1915.238745
564.809057,-3404.947333,-9252.574275,-2681.334243
564.809379,-1924.535449,-9548.656652,-2681.334243
564.809702,1110.308913,-10658.965565,-2451.505594
564.810024,2590.720797,-10807.006753,-995.924147
564.810346,2664.741391,-9696.697840,0.000000
564.810668,1850.514855,-8068.244768,0.000000
564.810991,1850.514855,-8438.347739,-1762.019645
564.811313,2886.803174,-9622.677246,-2987.772442
564.811635,1924.535449,-9474.636058,-1991.848295
564.811957,148.041188,-8216.285956,-459.657299
564.812280,0.000000,-7476.080014,0.000000
564.812602,1258.350101,-8808.450710,-2374.896044
564.812924,2146.597232,-10584.944971,-3064.381992
564.813246,296.082377,-10214.842000,-1072.533697
564.813569,-1332.370696,-9178.553681,-229.828649
564.813891,-888.247130,-8882.471304,-2834.553343
564.814213,148.041188,-9400.615463,-4366.744339
564.814535,592.164754,-9696.697840,-2911.162892
564.814858,1036.288319,-10955.047942,-1302.362347
564.815180,1776.494261,-10658.965565,-1915.238745
564.815502,3182.885551,-9770.718434,-1991.848295
564.815824,4219.173869,-10436.903782,-842.705048
564.816146,4293.194464,-11251.130318,0.000000
564.816469,3404.947333,-10288.862594,-919.314598
564.816791,2368.659014,-8364.327145,-1532.190996
564.817113,2220.617826,-8216.285956,-919.314598
564.817435,2146.597232,-8438.347739,-1302.362347
564.817758,1702.473667,-7698.141797,-1072.533697
564.818080,740.205942,-7624.121203,-1532.190996
564.818402,1332.370696,-9474.636058,-766.095498
564.818724,2072.576638,-10732.986159,-689.485948
564.819047,2516.700203,-10066.800811,-1225.752797
564.819369,1924.535449,-9030.512492,-1685.410096
564.819691,2516.700203,-9622.677246,-1532.190996
564.820013,2886.803174,-9400.615463,-995.924147
564.820336,2960.823768,-9252.574275,-2068.457845
564.820658,2664.741391,-9104.533087,-1991.848295
564.820980,2590.720797,-10288.862594,-1378.971896
564.821302,3849.070898,-9622.677246,-229.828649
564.821625,3182.885551,-9326.594869,-1225.752797
564.821947,2664.741391,-9326.594869,-1455.581446
564.822269,2368.659014,-8956.491898,-536.266849
564.822591,2146.597232,-7920.203579,0.000000
564.822913,1258.350101,-7402.059420,-1455.581446
564.823236,74.020594,-8068.244768,-1378.971896
564.823558,-222.061783,-9400.615463,-919.314598
564.823880,-444.123565,-10288.862594,-536.266849
564.824202,-444.123565,-10732.986159,-689.485948
564.824525,74.020594,-11399.171507,-842.705048
564.824847,888.247130,-11029.068536,-383.047749
564.825169,1406.391290,-10066.800811,-153.219100
564.825491,1702.473667,-9474.636058,-459.657299
564.825814,2146.597232,-8660.409521,-1532.190996
564.826136,1850.514855,-7772.162391,-1685.410096
564.826458,1628.453072,-7994.224174,-1532.190996
564.826780,1258.350101,-8734.430116,-1455.581446
564.827103,962.267725,-9030.512492,-1608.800546
564.827425,1110.308913,-8956.491898,-1532.190996
564.827747,1110.308913,-9030.512492,-1685.410096
564.828069,1480.411884,-7846.182985,-2221.676944
564.828392,1850.514855,-7402.059420,-2681.334243
564.828714,1776.494261,-8290.306550,-2604.724693
564.829036,1776.494261,-9622.677246,-1915.238745
564.829358,1480.411884,-10066.800811,-1915.238745
564.829681,1184.329507,-10955.047942,-2451.505594
564.830003,518.144159,-11103.089130,-1532.190996
564.830325,296.082377,-11399.171507,-1685.410096
564.830647,444.123565,-10807.006753,-1378.971896
564.830969,962.267725,-10436.903782,-1838.629195
564.831292,1332.370696,-9918.759623,-1608.800546
564.831614,1776.494261,-9104.533087,-919.314598
564.831936,2146.597232,-8808.450710,-1072.533697
564.832258,2664.741391,-8512.368333,-1762.019645
564.832581,3627.009116,-8142.265362,-2451.505594
564.832903,4959.379811,-8290.306550,-2834.553343
564.833225,5181.441594,-8586.388927,-2221.676944
564.833547,5403.503377,-9252.574275,-1608.800546
564.833870,4663.297435,-9770.718434,-1302.362347
564.834192,3997.112087,-10732.986159,-1991.848295
564.834514,2886.803174,-11473.192101,-3294.210641
564.834836,1924.535449,-11695.253884,-3064.381992
564.835159,1036.288319,-11621.233289,-2068.457845
564.835481,370.102971,-10362.883188,-689.485948
564.835803,0.000000,-9030.512492,-536.266849
564.836125,-148.041188,-7772.162391,0.000000
564.836448,-148.041188,-7031.956449,-383.047749
564.836770,-222.061783,-6735.874072,-1072.533697
564.837092,0.000000,-6513.812290,-995.924147
564.837414,370.102971,-6661.853478,-919.314598
564.837736,814.226536,-8142.265362,-919.314598
564.838059,666.185348,-9400.615463,-766.095498
564.838381,444.123565,-9474.636058,-1378.971896
564.838703,222.061783,-10066.800811,-2068.457845
564.839025,518.144159,-10584.944971,-3064.381992
564.839348,1184.329507,-10362.883188,-3524.039291
564.839670,1184.329507,-10362.883188,-3217.601092
564.839992,740.205942,-11029.068536,-2528.115143
564.840314,518.144159,-12287.418637,-1608.800546
564.840637,-592.164754,-12583.501014,-1149.143247
564.840959,-1702.473667,-11991.336260,-1072.533697
564.841281,-1850.514855,-11029.068536,-689.485948
564.841603,-1406.391290,-10140.821405,-153.219100
564.841926,-222.061783,-8586.388927,153.219100
564.842248,592.164754,-7105.977043,536.266849
564.842570,1850.514855,-6143.709319,536.266849
564.842892,3552.988522,-5921.647536,76.609550
564.843215,5107.421000,-6661.853478,-1149.143247
564.843537,5995.668130,-7994.224174,-1378.971896
564.843859,5625.565159,-7994.224174,-153.219100
564.844181,5403.503377,-8364.327145,-995.924147
564.844503,4885.359217,-9326.594869,-2451.505594
564.844826,4811.338623,-11325.150913,-3370.820191
564.845148,3478.967927,-12213.398043,-3294.210641
564.845470,962.267725,-11473.192101,-1302.362347
564.845792,-1184.329507,-11029.068536,-766.095498
564.846115,-2590.720797,-11547.212695,-1149.143247
564.846437,-3923.091493,-10881.027347,-1915.238745
564.846759,-4811.338623,-8808.450710,-459.657299
564.847081,-5699.585753,-6439.791695,-842.705048
564.847404,-5403.503377,-6217.729913,-1762.019645
564.847726,-2812.782580,-7402.059420,-995.924147
564.848048,1110.308913,-7254.018232,-1608.800546
564.848370,4811.338623,-8364.327145,-3447.429741
564.848693,8808.450710,-10436.903782,-2221.676944
564.849015,12361.439231,-11547.212695,229.828649
564.849337,13545.768739,-10732.986159,0.000000
564.849659,14359.995275,-9770.718434,-1302.362347
564.849982,13471.748144,-9400.615463,-1991.848295
564.850304,11177.109724,-9844.739029,-3140.991542
564.850626,7105.977043,-10510.924376,-1838.629195
564.850948,1554.432478,-9474.636058,-689.485948
564.851271,-2516.700203,-10288.862594,-1915.238745
564.851593,-4959.379811,-12583.501014,-2145.067394
564.851915,-6439.791695,-12953.603985,383.047749
564.852237,-10362.883188,-8438.347739,1991.848295
564.852559,-10881.027347,-5329.482782,153.219100
564.852882,-8808.450710,-4811.338623,-1302.362347
564.853204,-3627.009116,-5255.462188,-2757.943793
564.853526,888.247130,-5255.462188,-4596.572988
564.853848,3775.050304,-8068.244768,-3983.696590
564.854171,7031.956449,-11103.089130,-1838.629195
564.854493,9992.780217,-13175.665768,-1455.581446
564.854815,11399.171507,-12879.583391,-2068.457845
564.855137,10362.883188,-11769.274478,-2911.162892
564.855451,7328.038826,-11103.089130,-4826.401637
564.855773,4589.276840,-10658.965565,-4826.401637
564.856096,1628.453072,-8068.244768,-3524.039291
564.856418,-1702.473667,-7698.141797,-2911.162892
564.856740,-3404.947333,-10807.006753,-842.705048
564.857062,-6661.853478,-11991.336260,766.095498
564.857384,-7550.100608,-11325.150913,1838.629195
564.857706,-8216.285956,-9178.553681,1149.143247
564.858028,-6143.709319,-6883.915261,-995.924147
564.858351,-1702.473667,-8290.306550,-1225.752797
564.858673,4737.318029,-7031.956449,-766.095498
564.858995,9326.594869,-4885.359217,-2145.067394
564.859317,11547.212695,-7328.038826,-2911.162892
564.859639,11991.336260,-13027.624579,842.705048
564.859961,10140.821405,-13767.830521,2911.162892
564.860283,6439.791695,-10881.027347,-1225.752797
564.860605,2368.659014,-10955.047942,-6435.202183
564.860928,-518.144159,-12509.480420,-6052.154434
564.861250,-3478.967927,-12213.398043,-2145.067394
564.861572,-6883.915261,-6883.915261,919.314598
564.861894,-8956.491898,-4737.318029,-229.828649
564.862216,-7179.997637,-5847.626942,-1685.410096
564.862538,-3775.050304,-7105.977043,-1378.971896
564.862860,-2738.761985,-7624.121203,-689.485948
564.863183,-1554.432478,-8660.409521,1378.971896
564.863505,518.144159,-8586.388927,2451.505594
564.863827,3775.050304,-7920.203579,1838.629195
564.864149,4219.173869,-7179.997637,306.438199
564.864471,2294.638420,-7402.059420,-2374.896044
564.864793,1628.453072,-10436.903782,-4213.525239
564.865115,3552.988522,-12213.398043,-3600.648841
564.865438,5181.441594,-11547.212695,-3447.429741
564.865760,5625.565159,-10658.965565,-3677.258390
564.866082,6365.771101,-10732.986159,-2451.505594
564.866404,5699.585753,-11991.336260,-536.266849
564.866726,2960.823768,-11695.253884,306.438199
564.867048,-444.123565,-10881.027347,-2298.286494
564.867370,-2812.782580,-11103.089130,-4443.353888
564.867693,-2812.782580,-11843.295072,-1762.019645
564.868015,-1480.411884,-10881.027347,2298.286494
564.868337,1258.350101,-8660.409521,2145.067394
564.868659,5921.647536,-6661.853478,459.657299
564.868981,9844.739029,-5403.503377,689.485948
564.869303,10807.006753,-5329.482782,1838.629195
564.869625,8956.491898,-5699.585753,1685.410096
564.869948,6439.791695,-5699.585753,-536.266849
564.870270,5329.482782,-7550.100608,-3447.429741
564.870592,4367.215058,-8956.491898,-4903.011187
564.870914,1628.453072,-9918.759623,-5132.839837
564.871236,-3330.926739,-10955.047942,-4749.792088
564.871558,-6365.771101,-11843.295072,-2374.896044
564.871880,-6069.688724,-11473.192101,-2068.457845
564.872202,-4367.215058,-11399.171507,-6128.763984
564.872525,-3627.009116,-12879.583391,-7890.783629
564.872847,-2738.761985,-12583.501014,-4903.011187
564.873169,-592.164754,-10510.924376,153.219100
564.873491,3108.864956,-10214.842000,1608.800546
564.873813,6291.750507,-11325.150913,76.609550
564.874135,7105.977043,-10140.821405,-153.219100
564.874457,6735.874072,-7624.121203,1838.629195
564.874780,6365.771101,-6587.832884,3830.477490
564.875102,7179.997637,-5995.668130,3064.381992
564.875424,8956.491898,-4515.256246,-153.219100
564.875746,9696.697840,-3775.050304,-2221.676944
564.876068,9326.594869,-6439.791695,-459.657299
564.876390,7031.956449,-8882.471304,2068.457845
564.876712,3182.885551,-9622.677246,2145.067394
564.877035,-1554.432478,-11473.192101,-2221.676944
564.877357,-5551.544565,-11843.295072,-4443.353888
564.877679,-8290.306550,-10436.903782,-5286.058936
564.878001,-8290.306550,-10214.842000,-5592.497135
564.878323,-7550.100608,-11917.315666,-5898.935335
564.878645,-5995.668130,-13915.871710,-4366.744339
564.878967,-5847.626942,-11103.089130,-306.438199
564.879290,-5329.482782,-9030.512492,919.314598
564.879612,-3849.070898,-11695.253884,-2145.067394
564.879934,-2294.638420,-13249.686362,-4136.915689
564.880256,-2220.617826,-10362.883188,-3447.429741
564.880578,-740.205942,-7254.018232,306.438199
564.880900,3182.885551,-6587.832884,2757.943793
564.881222,7031.956449,-5329.482782,1302.362347
564.881544,9400.615463,-4367.215058,-306.438199
564.881867,10288.862594,-4885.359217,229.828649
564.882189,10140.821405,-9104.533087,1532.190996
564.882511,8142.265362,-11547.212695,842.705048
564.882833,4145.153275,-11103.089130,-919.314598
564.883155,74.020594,-10436.903782,-1302.362347
564.883477,-1332.370696,-10214.842000,-612.876398
564.883799,0.000000,-10732.986159,-2834.553343
564.884122,-296.082377,-10362.883188,-5362.668486
564.884444,-1628.453072,-9696.697840,-3677.258390
564.884766,-2738.761985,-10214.842000,153.219100
564.885088,-2294.638420,-13101.645173,766.095498
564.885410,-3330.926739,-13619.789333,-1149.143247
564.885732,-4663.297435,-10658.965565,-2987.772442
564.886054,-4071.132681,-6439.791695,-2604.724693
564.886377,962.267725,-5403.503377,-2374.896044
564.886699,5847.626942,-6069.688724,-3217.601092
564.887021,7179.997637,-6735.874072,-1608.800546
564.887343,8216.285956,-7031.956449,2374.896044
564.887665,8438.347739,-7105.977043,2834.553343
564.887987,8068.244768,-9030.512492,-1378.971896
564.888309,5255.462188,-9770.718434,-3677.258390
564.888632,1924.535449,-8438.347739,-1991.848295
564.888954,1036.288319,-7402.059420,-1915.238745
564.889276,2368.659014,-8586.388927,-3447.429741
564.889598,2072.576638,-9770.718434,-3830.477490
564.889920,444.123565,-10214.842000,-1915.238745
564.890242,0.000000,-12731.542202,-229.828649
564.890564,-148.041188,-15840.407159,-459.657299
564.890887,-1628.453072,-16728.654289,-1378.971896
564.891209,-444.123565,-14285.974681,0.000000
564.891531,3256.906145,-9844.739029,-1225.752797
564.891853,7846.182985,-5773.606348,-2911.162892
564.892175,10362.883188,-3627.009116,-1685.410096
564.892497,10362.883188,-3849.070898,1608.800546
564.892819,8364.327145,-5403.503377,2451.505594
564.893141,5477.523971,-8216.285956,-153.219100
564.893464,1406.391290,-10807.006753,-2834.553343
564.893786,-2368.659014,-12435.459826,-3677.258390
564.894108,-5477.523971,-10658.965565,-3830.477490
564.894430,-6735.874072,-9104.533087,-3907.087040
564.894752,-6883.915261,-8142.265362,-4060.306139
564.895074,-5699.585753,-10214.842000,-3294.210641
564.895396,-6587.832884,-10362.883188,-306.438199
564.895719,-6217.729913,-11843.295072,1378.971896
564.896041,-4441.235652,-12435.459826,-1149.143247
564.896363,444.123565,-12065.356855,-3600.648841
564.896685,4367.215058,-10881.027347,-2298.286494
564.897007,6365.771101,-7624.121203,2298.286494
564.897329,6735.874072,-5477.523971,3907.087040
564.897651,6957.935855,-3923.091493,2145.067394
564.897974,5107.421000,-4811.338623,-383.047749
564.898296,2738.761985,-7105.977043,-2145.067394
564.898618,74.020594,-9252.574275,-3217.601092
564.898940,-2812.782580,-9622.677246,-3600.648841
564.899262,-4145.153275,-9178.553681,-2451.505594
564.899584,-3627.009116,-10066.800811,-2145.067394
564.899906,-3404.947333,-11325.150913,-4213.525239
564.900229,-3997.112087,-13101.645173,-3983.696590
564.900551,-4811.338623,-12953.603985,-2451.505594
564.900873,-3849.070898,-12879.583391,-1608.800546
564.901195,-1258.350101,-13249.686362,-1225.752797
564.901517,1776.494261,-12953.603985,-612.876398
564.901839,4811.338623,-9992.780217,-383.047749
564.902161,7179.997637,-8068.244768,689.485948
564.902484,8660.409521,-5329.482782,3677.258390
564.902806,9252.574275,-3552.988522,2451.505594
564.903128,6735.874072,-5033.400406,-229.828649
564.903450,1850.514855,-5773.606348,-995.924147
564.903772,-3997.112087,-5995.668130,-612.876398
564.904094,-7698.141797,-8290.306550,-3447.429741
564.904416,-7254.018232,-9622.677246,-5209.449386
564.904738,-5625.565159,-9770.718434,-6358.592633
564.905061,-2738.761985,-11843.295072,-5898.935335
564.905383,-1554.432478,-12361.439231,-1378.971896
564.905705,-592.164754,-12805.562797,1685.410096
564.906027,1184.329507,-12287.418637,-612.876398
564.906349,3404.947333,-11843.295072,-3677.258390
564.906671,3627.009116,-11103.089130,-4519.963438
564.906993,3108.864956,-9696.697840,-995.924147
564.907316,2960.823768,-8290.306550,1838.629195
564.907638,2590.720797,-8586.388927,689.485948
564.907960,888.247130,-7476.080014,1302.362347
564.908282,-2590.720797,-3923.091493,1532.190996
564.908604,-5403.503377,-2442.679609,-2451.505594
564.908926,-5181.441594,-5699.585753,-4903.011187
564.909248,-3923.091493,-8586.388927,-5286.058936
564.909571,-3256.906145,-9992.780217,-2911.162892
564.909893,-3404.947333,-10436.903782,-1455.581446
564.910215,-2590.720797,-12065.356855,-689.485948
564.910537,-592.164754,-13545.768739,-3140.991542
564.910859,1184.329507,-12953.603985,-4673.182538
564.911181,2368.659014,-12361.439231,-2987.772442
564.911503,3627.009116,-13027.624579,-2374.896044
564.911826,5181.441594,-12879.583391,-1302.362347
564.912148,4737.318029,-11399.171507,1378.971896
564.912470,1554.432478,-8882.471304,3140.991542
564.912792,-2146.597232,-4885.359217,1532.190996
564.913114,-5181.441594,-3256.906145,-1915.238745
564.913436,-5403.503377,-3997.112087,-3447.429741
564.913758,-5403.503377,-5403.503377,-2528.115143
564.914081,-3997.112087,-7476.080014,-1302.362347
564.914403,-2368.659014,-7698.141797,-153.219100
564.914725,0.000000,-9030.512492,-766.095498
564.915047,1184.329507,-11325.150913,-1762.019645
564.915369,1332.370696,-11769.274478,-2145.067394
564.915691,666.185348,-11399.171507,-3447.429741
564.916013,592.164754,-12213.398043,-4519.963438
564.916335,222.061783,-13323.706956,-2987.772442
564.916658,-740.205942,-12065.356855,-766.095498
564.916980,-1554.432478,-11177.109724,-2221.676944
564.917302,-814.226536,-10288.862594,-2374.896044
564.917624,592.164754,-9474.636058,-1455.581446
564.917946,962.267725,-7994.224174,536.266849
564.918268,74.020594,-7254.018232,1608.800546
564.918590,74.020594,-6513.812290,1072.533697
564.918913,222.061783,-5107.421000,766.095498
564.919235,222.061783,-4737.318029,-1225.752797
564.919557,-1258.350101,-6291.750507,-2911.162892
564.919879,-2072.576638,-8512.368333,-1991.848295
564.920201,-444.123565,-10807.006753,-1685.410096
564.920523,740.205942,-13545.768739,-1838.629195
564.920845,444.123565,-14211.954086,-1915.238745
564.921168,-962.267725,-13027.624579,-2681.334243
564.921490,-1628.453072,-10955.047942,-3753.867940
564.921812,-1184.329507,-10510.924376,-3907.087040
564.922134,-74.020594,-10066.800811,-3217.601092
564.922456,296.082377,-9622.677246,-3140.991542
564.922778,370.102971,-9474.636058,-1455.581446
564.923100,148.041188,-9252.574275,995.924147
564.923423,222.061783,-8660.409521,2068.457845
564.923745,1480.411884,-7772.162391,-383.047749
564.924067,1924.535449,-6513.812290,-1455.581446
564.924389,1184.329507,-5181.441594,-229.828649
564.924711,222.061783,-5255.462188,919.314598
564.925033,-1184.329507,-7402.059420,153.219100
564.925355,-4071.132681,-9474.636058,-2451.505594
564.925678,-6291.750507,-11029.068536,-3600.648841
564.926000,-7254.018232,-11029.068536,-4749.792088
564.926322,-4959.379811,-11991.336260,-5209.449386
564.926644,-370.102971,-13397.727550,-4826.401637
564.926966,3849.070898,-12731.542202,-3217.601092
564.927288,5255.462188,-11399.171507,-306.438199
564.927610,5403.503377,-9844.739029,1991.848295
564.927932,4737.318029,-8734.430116,536.266849
564.928255,3034.844362,-7328.038826,-2604.724693
564.928577,814.226536,-7179.997637,-1991.848295
564.928899,222.061783,-7105.977043,-1532.190996
564.929221,148.041188,-8734.430116,-383.047749
564.929543,-518.144159,-9104.533087,1378.971896
564.929865,-2368.659014,-8882.471304,2451.505594
564.930187,-4071.132681,-6661.853478,383.047749
564.930510,-4293.194464,-6217.729913,-2911.162892
564.930832,-4145.153275,-6957.935855,-4749.792088
564.931154,-3478.967927,-8956.491898,-5132.839837
564.931476,-3034.844362,-9696.697840,-3140.991542
564.931798,-2220.617826,-10881.027347,-1149.143247
564.932120,296.082377,-12509.480420,-2145.067394
564.932442,1258.350101,-13175.665768,-3524.039291
564.932765,1184.329507,-13471.748144,-2911.162892
564.933087,1406.391290,-11177.109724,-2145.067394
564.933409,1702.473667,-9178.553681,-2987.772442
564.933731,1332.370696,-8142.265362,-1608.800546
564.934053,-814.226536,-7698.141797,229.828649
564.934375,-3034.844362,-7328.038826,-229.828649
564.934697,-4071.132681,-8068.244768,-1991.848295
564.935020,-3478.967927,-7698.141797,-2298.286494
564.935342,-1924.535449,-8660.409521,-1915.238745
564.935664,-518.144159,-9622.677246,-919.314598
564.935986,1332.370696,-9178.553681,536.266849
564.936308,3256.906145,-8068.244768,459.657299
564.936630,4441.235652,-9474.636058,-1149.143247
564.936952,3997.112087,-10955.047942,-1302.362347
564.937275,1702.473667,-9696.697840,-1455.581446
564.937597,592.164754,-10140.821405,-2757.943793
564.937919,-148.041188,-12139.377449,-2528.115143
564.938241,-1554.432478,-12065.356855,-1532.190996
564.938563,-4589.276840,-10066.800811,-1225.752797
564.938885,-5995.668130,-8068.244768,-2068.457845
564.939207,-4441.235652,-8290.306550,-2834.553343
564.939529,-2960.823768,-8512.368333,-3447.429741
564.939852,-2146.597232,-8512.368333,-1685.410096
564.940174,-2368.659014,-7550.100608,-459.657299
564.940496,-1776.494261,-7402.059420,306.438199
564.940818,-370.102971,-8216.285956,0.000000
564.941140,0.000000,-8882.471304,-2451.505594
564.941462,0.000000,-9474.636058,-2604.724693
564.941784,148.041188,-9326.594869,-1225.752797
564.942107,1332.370696,-8512.368333,-689.485948
564.942429,1702.473667,-9474.636058,-1302.362347
564.942751,888.247130,-10288.862594,-1225.752797
564.943073,-444.123565,-9548.656652,-2068.457845
564.943395,0.000000,-9844.739029,-3064.381992
564.943717,666.185348,-10510.924376,-2374.896044
564.944039,888.247130,-11251.130318,-842.705048
564.944362,666.185348,-10066.800811,-459.657299
564.944684,666.185348,-8956.491898,-459.657299
564.945006,1480.411884,-9104.533087,76.609550
564.945328,3404.947333,-9252.574275,-919.314598
564.945650,3923.091493,-7402.059420,-2451.505594
564.945972,2368.659014,-7476.080014,-1302.362347
564.946294,666.185348,-8808.450710,459.657299
564.946617,0.000000,-11029.068536,-153.219100
564.946939,-1998.556043,-10881.027347,-2681.334243
564.947261,-4515.256246,-9548.656652,-4213.525239
564.947583,-6587.832884,-8660.409521,-4673.182538
564.947905,-6661.853478,-9474.636058,-3677.258390
564.948227,-5403.503377,-9474.636058,-2757.943793
564.948549,-4071.132681,-10807.006753,-2834.553343
564.948872,-1628.453072,-10881.027347,-3447.429741
564.949194,1258.350101,-10066.800811,-1991.848295
564.949516,4071.132681,-9104.533087,-995.924147
564.949838,5551.544565,-8808.450710,-1532.190996
564.950160,5181.441594,-8068.244768,-459.657299
564.950482,3182.885551,-7031.956449,1302.362347
564.950804,1036.288319,-7476.080014,536.266849
564.951126,-1480.411884,-9474.636058,-1455.581446
564.951449,-4515.256246,-9326.594869,-2451.505594
564.951771,-6513.812290,-9326.594869,-2374.896044
564.952093,-5033.400406,-9696.697840,-1608.800546
564.952415,-3478.967927,-8808.450710,-1072.533697
564.952737,0.000000,-9030.512492,-1149.143247
564.953059,1554.432478,-7920.203579,-1685.410096
564.953381,2220.617826,-8364.327145,-2068.457845
564.953704,2886.803174,-9918.759623,-1991.848295
564.954026,3182.885551,-11621.233289,-2911.162892
564.954348,3330.926739,-13101.645173,-3217.601092
564.954670,3849.070898,-12509.480420,-1762.019645
564.954992,3552.988522,-10140.821405,459.657299
564.955314,3552.988522,-9178.553681,536.266849
564.955636,2294.638420,-8438.347739,-229.828649
564.955959,-666.185348,-7105.977043,-383.047749
564.956281,-3627.009116,-6513.812290,-1532.190996
564.956603,-5107.421000,-6661.853478,-766.095498
564.956925,-5551.544565,-6587.832884,-1149.143247
564.957247,-4441.235652,-8364.327145,-2451.505594
564.957569,-2960.823768,-9252.574275,-1685.410096
564.957891,-1998.556043,-9400.615463,1072.533697
564.958214,-1184.329507,-9400.615463,459.657299
564.958536,888.247130,-10140.821405,-3064.381992
564.958858,1628.453072,-11325.150913,-3830.477490
564.959180,1184.329507,-10436.903782,-1225.752797
564.959502,-222.061783,-10140.821405,-459.657299
564.959824,-2516.700203,-12139.377449,-2681.334243
564.960146,-4367.215058,-10881.027347,-2068.457845
564.960469,-5255.462188,-10584.944971,-3447.429741
564.960791,-4737.318029,-10214.842000,-3677.258390
564.961113,-3627.009116,-10066.800811,-2604.724693
564.961435,-2146.597232,-7624.121203,-1762.019645
564.961757,0.000000,-8142.265362,-766.095498
564.962079,1110.308913,-8586.388927,536.266849
564.962401,1924.535449,-6883.915261,306.438199
564.962723,2294.638420,-6661.853478,-2757.943793
564.963046,2960.823768,-8290.306550,-2604.724693
564.963368,3404.947333,-10362.883188,0.000000
564.963690,2812.782580,-10584.944971,689.485948
564.964012,1850.514855,-11029.068536,-306.438199
564.964334,518.144159,-11917.315666,-1302.362347
564.964656,-518.144159,-11251.130318,-1991.848295
564.964978,-2146.597232,-9326.594869,-2451.505594
564.965301,-3997.112087,-7846.182985,-1838.629195
564.965623,-4515.256246,-7402.059420,-2528.115143
564.965945,-3108.864956,-7624.121203,-2451.505594
564.966267,-2146.597232,-7179.997637,-2068.457845
564.966589,-1850.514855,-7476.080014,-1991.848295
564.966911,-740.205942,-9104.533087,-1838.629195
564.967233,592.164754,-10584.944971,-2374.896044
564.967556,1184.329507,-10732.986159,-2374.896044
564.967878,1406.391290,-9844.739029,-612.876398
564.968200,1258.350101,-9474.636058,-459.657299
564.968522,370.102971,-9474.636058,-2145.067394
564.968844,-592.164754,-9474.636058,-2987.772442
564.969166,-1924.535449,-8586.388927,-2068.457845
564.969488,-2442.679609,-8586.388927,-2221.676944
564.969811,-1628.453072,-9178.553681,-1378.971896
564.970133,-1036.288319,-8734.430116,-1149.143247
564.970455,-814.226536,-8142.265362,-2298.286494
564.970777,0.000000,-8068.244768,-1685.410096
564.971099,2220.617826,-9548.656652,-1225.752797
564.971421,4515.256246,-10732.986159,-2604.724693
564.971743,5255.462188,-9622.677246,-2681.334243
564.972066,5403.503377,-9474.636058,459.657299
564.972388,4737.318029,-10510.924376,1915.238745
564.972710,3552.988522,-11695.253884,689.485948
564.973032,0.000000,-10140.821405,-1455.581446
564.973354,-3701.029710,-9326.594869,-3217.601092
564.973676,-5773.606348,-9400.615463,-3524.039291
564.973998,-5625.565159,-8808.450710,-1532.190996
564.974320,-5255.462188,-7624.121203,-2145.067394
564.974643,-3478.967927,-8586.388927,-3524.039291
564.974965,-1036.288319,-9400.615463,-3524.039291
564.975287,740.205942,-10066.800811,-1762.019645
564.975609,1110.308913,-9770.718434,-229.828649
564.975931,1850.514855,-10066.800811,-1685.410096
564.976253,1184.329507,-9400.615463,-2681.334243
564.976575,1258.350101,-9548.656652,-1838.629195
564.976898,1184.329507,-10066.800811,-1608.800546
564.977220,740.205942,-10510.924376,-1915.238745
564.977542,-1036.288319,-9178.553681,-919.314598
564.977864,-2960.823768,-7920.203579,-689.485948
564.978186,-3478.967927,-9326.594869,-1225.752797
564.978508,-3775.050304,-9696.697840,-153.219100
564.978830,-3997.112087,-8364.327145,-1762.019645
564.979153,-2516.700203,-7698.141797,-2681.334243
564.979475,-1184.329507,-7402.059420,-1302.362347
564.979797,814.226536,-7402.059420,383.047749
564.980119,1628.453072,-8660.409521,-383.047749
564.980441,1628.453072,-10436.903782,-1378.971896
564.980763,1480.411884,-10955.047942,-383.047749
564.981085,1480.411884,-11029.068536,-1225.752797
564.981408,888.247130,-11103.089130,-3140.991542
564.981730,-296.082377,-11917.315666,-2911.162892
564.982052,-2368.659014,-11103.089130,-1149.143247
564.982374,-3701.029710,-7994.224174,-306.438199
564.982696,-4293.194464,-7846.182985,-2298.286494
564.983018,-2812.782580,-8734.430116,-3370.820191
564.983340,-888.247130,-8512.368333,-2757.943793
564.983663,592.164754,-7846.182985,-1838.629195
564.983985,1628.453072,-8438.347739,0.000000
564.984307,3775.050304,-9030.512492,919.314598
564.984629,4589.276840,-9104.533087,-536.266849
564.984951,4219.173869,-8068.244768,-306.438199
564.985273,3108.864956,-8216.285956,-306.438199
564.985595,2146.597232,-9400.615463,-1149.143247
564.985917,518.144159,-10436.903782,-1991.848295
564.986240,-1924.535449,-11399.171507,-1378.971896
564.986562,-4737.318029,-10807.006753,-1149.143247
564.986884,-4219.173869,-10140.821405,-1762.019645
564.987206,-3923.091493,-8808.450710,-3294.210641
564.987528,-2294.638420,-8290.306550,-3294.210641
564.987850,-1332.370696,-7624.121203,-3217.601092
564.988172,-1036.288319,-8882.471304,-2757.943793
564.988495,222.061783,-9474.636058,-306.438199
564.988817,1406.391290,-9844.739029,-995.924147
564.989139,2368.659014,-10584.944971,-3447.429741
564.989461,3034.844362,-11251.130318,-2528.115143
564.989783,3330.926739,-11399.171507,-612.876398
564.990105,1998.556043,-10066.800811,383.047749
564.990427,74.020594,-9400.615463,153.219100
564.990750,-2294.638420,-8734.430116,-1072.533697
564.991072,-4589.276840,-7254.018232,-2681.334243
564.991394,-6217.729913,-6587.832884,-2451.505594
564.991716,-4589.276840,-7254.018232,-2528.115143
564.992038,-740.205942,-9622.677246,-2987.772442
564.992360,1110.308913,-9770.718434,-1838.629195
564.992682,1184.329507,-8734.430116,1991.848295
564.993005,1924.535449,-9326.594869,2221.676944
564.993327,3404.947333,-10732.986159,-2221.676944
564.993649,3627.009116,-10510.924376,-3830.477490
564.993971,2294.638420,-9252.574275,-2145.067394
564.994293,370.102971,-8882.471304,-842.705048
564.994615,-888.247130,-9844.739029,-766.095498
564.994937,-3330.926739,-10881.027347,-1608.800546
564.995260,-6069.688724,-10658.965565,-2451.505594
564.995582,-7846.182985,-9548.656652,-3370.820191
564.995904,-6661.853478,-8808.450710,-4366.744339
564.996226,-4293.194464,-7920.203579,-4060.306139
564.996548,-1184.329507,-9178.553681,-3753.867940
564.996870,518.144159,-9400.615463,-1149.143247
564.997192,2812.782580,-8290.306550,689.485948
564.997514,3701.029710,-8142.265362,-842.705048
564.997837,4071.132681,-9622.677246,-2528.115143
564.998159,4367.215058,-9622.677246,-1455.581446
564.998481,3330.926739,-9622.677246,-536.266849
564.998803,2368.659014,-9992.780217,-689.485948
564.999125,1036.288319,-11251.130318,-919.314598
564.999447,-518.144159,-9548.656652,-919.314598
564.999769,-1776.494261,-8586.388927,-1302.362347
565.000092,-3256.906145,-8290.306550,-2604.724693
565.000414,-3182.885551,-8734.430116,-1762.019645
565.000736,-2368.659014,-7846.182985,-2145.067394
565.001058,-1924.535449,-7994.224174,-2757.943793
565.001380,-740.205942,-9474.636058,-1685.410096
565.001702,814.226536,-10436.903782,-153.219100
565.002024,1332.370696,-10066.800811,-1762.019645
565.002347,666.185348,-10436.903782,-2451.505594
565.002669,518.144159,-11325.150913,-1378.971896
565.002991,592.164754,-10288.862594,-2145.067394
565.003313,444.123565,-10658.965565,-2834.553343
565.003635,-962.267725,-10881.027347,-1302.362347
565.003957,-2442.679609,-9918.759623,-1302.362347
565.004279,-2368.659014,-8438.347739,-1685.410096
565.004602,-888.247130,-7328.038826,-1915.238745
565.004924,1628.453072,-8216.285956,-1532.190996
565.005246,2146.597232,-8512.368333,-1685.410096
565.005568,1332.370696,-6439.791695,1302.362347
565.005890,592.164754,-6661.853478,1608.800546
565.006212,1036.288319,-10066.800811,-919.314598
565.006534,1406.391290,-12139.377449,-1302.362347
565.006857,814.226536,-9770.718434,306.438199
565.007179,592.164754,-7920.203579,-612.876398
565.007501,1998.556043,-8734.430116,-1225.752797
565.007823,1924.535449,-9770.718434,229.828649
565.008145,-222.061783,-9548.656652,1149.143247
565.008467,-2886.803174,-8734.430116,-1838.629195
565.008789,-4441.235652,-8882.471304,-3753.867940
565.009111,-3997.112087,-10436.903782,-4213.525239
565.009434,-2072.576638,-10658.965565,-4060.306139
565.009756,-1406.391290,-10140.821405,-2834.553343
565.010078,-962.267725,-8438.347739,-383.047749
565.010400,518.144159,-9400.615463,229.828649
565.010722,814.226536,-9030.512492,-1378.971896
565.011044,-148.041188,-9030.512492,-1762.019645
565.011366,-1258.350101,-8586.388927,-2221.676944
565.011689,-740.205942,-9326.594869,-3830.477490
565.012011,-370.102971,-10658.965565,-1378.971896
565.012333,-1110.308913,-10214.842000,689.485948
565.012655,-2368.659014,-9400.615463,536.266849
565.012977,-2738.761985,-8290.306550,-995.924147
565.013299,-1850.514855,-8068.244768,-1532.190996
565.013621,-1184.329507,-8364.327145,-2374.896044
565.013944,-1850.514855,-8808.450710,-3983.696590
565.014266,-2368.659014,-8586.388927,-2068.457845
565.014588,-1480.411884,-8586.388927,-229.828649
565.014910,962.267725,-10955.047942,-1762.019645
565.015232,1258.350101,-11843.295072,-2221.676944
565.015554,444.123565,-9474.636058,-995.924147
565.015876,0.000000,-9030.512492,-1302.362347
565.016199,1332.370696,-10881.027347,-2145.067394
565.016521,370.102971,-10510.924376,-1532.190996
565.016843,-3182.885551,-7920.203579,-2451.505594
565.017165,-6587.832884,-6883.915261,-3524.039291
565.017487,-6735.874072,-7698.141797,-3677.258390
565.017809,-4811.338623,-9548.656652,-4366.744339
565.018131,-2442.679609,-10288.862594,-5592.497135
565.018454,-814.226536,-9992.780217,-3370.820191
565.018776,1850.514855,-10066.800811,-229.828649
565.019098,5477.523971,-11251.130318,766.095498
565.019420,6069.688724,-11547.212695,76.609550
565.019742,4737.318029,-10584.944971,-306.438199
565.020064,3478.967927,-8142.265362,-919.314598
565.020386,3034.844362,-7402.059420,-1915.238745
565.020708,1998.556043,-7698.141797,-842.705048
565.021031,222.061783,-7402.059420,0.000000
565.021353,-740.205942,-6439.791695,-536.266849
565.021675,-1480.411884,-7031.956449,-1991.848295
565.021997,-1110.308913,-9844.739029,-1072.533697
565.022319,-1850.514855,-10955.047942,-919.314598
565.022641,-1998.556043,-9770.718434,-2681.334243
565.022963,-1998.556043,-10214.842000,-2451.505594
565.023286,-666.185348,-10881.027347,-1072.533697
565.023608,-370.102971,-10140.821405,-995.924147
565.023930,-888.247130,-9474.636058,-1915.238745
565.024252,-1184.329507,-9400.615463,-2451.505594
565.024574,0.000000,-9548.656652,-2528.115143
565.024896,814.226536,-10066.800811,-2604.724693
565.025218,0.000000,-9400.615463,-1149.143247
565.025541,-962.267725,-8734.430116,-919.314598
565.025863,-1628.453072,-8216.285956,-1762.019645
565.026185,-814.226536,-8512.368333,-229.828649
565.026507,-888.247130,-8290.306550,229.828649
565.026829,-740.205942,-8660.409521,-1762.019645
565.027151,74.020594,-9696.697840,-2145.067394
565.027473,2072.576638,-10288.862594,842.705048
565.027796,3552.988522,-10955.047942,612.876398
565.028118,3478.967927,-10214.842000,-383.047749
565.028440,1554.432478,-8438.347739,76.609550
565.028762,518.144159,-7624.121203,-842.705048
565.029084,296.082377,-9252.574275,-2451.505594
565.029406,666.185348,-10362.883188,-3140.991542
565.029728,-814.226536,-9918.759623,-2911.162892
565.030051,-2368.659014,-10214.842000,-2374.896044
565.030373,-3478.967927,-10510.924376,0.000000
565.030695,-3849.070898,-10881.027347,229.828649
565.031017,-2886.803174,-10955.047942,-2757.943793
565.031339,-1850.514855,-9326.594869,-4749.792088
565.031661,-1110.308913,-8142.265362,-3983.696590
565.031983,0.000000,-8068.244768,-1608.800546
565.032305,666.185348,-7846.182985,-995.924147
565.032628,666.185348,-8734.430116,-995.924147
565.032950,518.144159,-9622.677246,-1608.800546
565.033272,-518.144159,-9622.677246,-1608.800546
565.033594,-1998.556043,-9770.718434,-1991.848295
565.033916,-3923.091493,-9252.574275,-1455.581446
565.034238,-4441.235652,-8586.388927,-1149.143247
565.034560,-3701.029710,-8364.327145,-2911.162892
565.034883,-3701.029710,-7920.203579,-2068.457845
565.035205,-2072.576638,-8734.430116,-1149.143247
565.035527,-444.123565,-9104.533087,-2221.676944
565.035849,888.247130,-10140.821405,-2221.676944
565.036171,2294.638420,-10140.821405,-766.095498
565.036493,2590.720797,-10214.842000,-919.314598
565.036815,3034.844362,-10658.965565,-2221.676944
565.037138,2220.617826,-9030.512492,-1225.752797
565.037460,1258.350101,-7179.997637,-1072.533697
565.037782,962.267725,-7624.121203,-2374.896044
565.038104,0.000000,-8660.409521,-3447.429741
565.038426,-2738.761985,-9770.718434,-1915.238745
565.038748,-4515.256246,-10436.903782,-766.095498
565.039070,-4367.215058,-9696.697840,-1302.362347
565.039393,-2960.823768,-10066.800811,-2528.115143
565.039715,-962.267725,-9992.780217,-3677.258390
565.040037,444.123565,-9030.512492,-2757.943793
565.040359,888.247130,-8882.471304,-1149.143247
565.040681,2516.700203,-9178.553681,536.266849
565.041003,3034.844362,-9844.739029,-612.876398
565.041325,2812.782580,-9104.533087,-2221.676944
565.041648,2368.659014,-8808.450710,-2145.067394
565.041970,2738.761985,-9252.574275,-612.876398
565.042292,1850.514855,-9178.553681,-766.095498
565.042614,74.020594,-9178.553681,-536.266849
565.042936,-1110.308913,-9770.718434,-919.314598
565.043258,-2368.659014,-10066.800811,-2374.896044
565.043580,-3775.050304,-9696.697840,-1532.190996
565.043902,-3701.029710,-11177.109724,-1378.971896
565.044225,-2516.700203,-9696.697840,-1915.238745
565.044547,-1702.473667,-7624.121203,-1685.410096
565.044869,0.000000,-7920.203579,-612.876398
565.045191,1036.288319,-9622.677246,-153.219100
565.045513,814.226536,-10066.800811,-1149.143247
565.045835,-222.061783,-8142.265362,-1838.629195
565.046157,0.000000,-8364.327145,-1915.238745
565.046480,0.000000,-10214.842000,-2221.676944
565.046802,-962.267725,-11251.130318,-1302.362347
565.047124,-1924.535449,-9696.697840,-536.266849
565.047446,-2590.720797,-9474.636058,-2221.676944
565.047768,-2368.659014,-10288.862594,-1762.019645
565.048090,-2220.617826,-9178.553681,306.438199
565.048412,-2294.638420,-7698.141797,-766.095498
565.048735,-1702.473667,-7105.977043,-1991.848295
565.049057,-666.185348,-7920.203579,-1302.362347
565.049379,-148.041188,-8216.285956,-536.266849
565.049701,296.082377,-9474.636058,-995.924147
565.050023,74.020594,-10436.903782,-1225.752797
565.050345,592.164754,-9474.636058,-1378.971896
565.050667,1184.329507,-8142.265362,-2298.286494
565.050990,1998.556043,-8438.347739,-2451.505594
565.051312,1406.391290,-9030.512492,-2221.676944
565.051634,-740.205942,-9696.697840,-1915.238745
565.051956,-2294.638420,-10362.883188,-2298.286494
565.052278,-3849.070898,-11473.192101,-1608.800546
565.052600,-3627.009116,-11251.130318,-2528.115143
565.052922,-2516.700203,-9918.759623,-4366.744339
565.053245,-1258.350101,-7846.182985,-4519.963438
565.053567,1110.308913,-8216.285956,-1378.971896
565.053889,3552.988522,-8512.368333,76.609550
565.054211,3478.967927,-8660.409521,-1225.752797
565.054533,1554.432478,-9252.574275,-1149.143247
565.054855,-888.247130,-9178.553681,-612.876398
565.055177,-1480.411884,-8660.409521,-2987.772442
565.055500,-740.205942,-9992.780217,-4979.620737
565.055822,-962.267725,-11473.192101,-3677.258390
565.056144,-2072.576638,-10140.821405,-842.705048
565.056466,-2738.761985,-9400.615463,-229.828649
565.056789,-1924.535449,-10214.842000,-383.047749
565.057111,370.102971,-11103.089130,-2528.115143
565.057433,1924.535449,-9326.594869,-4673.182538
565.057755,2368.659014,-8364.327145,-3983.696590
565.058077,2368.659014,-8660.409521,-612.876398
565.058400,2442.679609,-8808.450710,1149.143247
565.058722,2590.720797,-9326.594869,-459.657299
565.059044,2294.638420,-8512.368333,-1838.629195
565.059366,1776.494261,-9252.574275,-2757.943793
565.059688,296.082377,-9548.656652,-2145.067394
565.060011,-1554.432478,-9770.718434,-536.266849
565.060333,-2960.823768,-10807.006753,-689.485948
565.060655,-4071.132681,-10732.986159,-1762.019645
565.060977,-5255.462188,-10066.800811,-995.924147
565.061300,-4959.379811,-8660.409521,-1225.752797
565.061622,-3108.864956,-7846.182985,-4443.353888
565.061944,-962.267725,-7402.059420,-5209.449386
565.062266,814.226536,-7772.162391,-383.047749
565.062588,2220.617826,-9104.533087,1685.410096
565.062911,3256.906145,-9992.780217,-1685.410096
565.063233,2812.782580,-9326.594869,-2681.334243
565.063555,1850.514855,-9326.594869,-1225.752797
565.063877,814.226536,-9400.615463,153.219100
565.064199,-1258.350101,-9178.553681,-306.438199
565.064522,-3701.029710,-8438.347739,-1455.581446
565.064844,-4219.173869,-9696.697840,-1762.019645
565.065166,-4071.132681,-9844.739029,-1455.581446
565.065488,-2812.782580,-10066.800811,-229.828649
565.065811,-1332.370696,-8438.347739,-306.438199
565.066133,296.082377,-8364.327145,-1838.629195
565.066455,2368.659014,-9104.533087,-1225.752797
565.066777,3923.091493,-8734.430116,459.657299
565.067099,3627.009116,-8808.450710,-766.095498
565.067422,2442.679609,-9474.636058,-1608.800546
565.067744,2072.576638,-9918.759623,0.000000
565.068066,1184.329507,-10436.903782,-689.485948
565.068388,-814.226536,-10955.047942,-1608.800546
565.068711,-2294.638420,-11917.315666,-995.924147
565.069033,-3182.885551,-11029.068536,-689.485948
565.069355,-3108.864956,-8586.388927,-2221.676944
565.069677,-2960.823768,-8216.285956,-2221.676944
565.069999,-3034.844362,-8068.244768,-536.266849
565.070322,-3034.844362,-7550.100608,-383.047749
565.070644,-1850.514855,-7550.100608,-1991.848295
565.070966,666.185348,-8438.347739,-3447.429741
565.071288,1406.391290,-8586.388927,-1838.629195
565.071610,444.123565,-9326.594869,-919.314598
565.071933,-888.247130,-11251.130318,-459.657299
565.072255,-370.102971,-10140.821405,-1225.752797
565.072577,0.000000,-9326.594869,-3830.477490
565.072899,-296.082377,-10584.944971,-3140.991542
565.073222,-1628.453072,-11843.295072,-1608.800546
565.073544,-2590.720797,-10732.986159,-1072.533697
565.073866,-3256.906145,-8882.471304,-1225.752797
565.074188,-2294.638420,-8586.388927,-1378.971896
565.074510,-888.247130,-9104.533087,-2374.896044
565.074833,1036.288319,-7772.162391,-2528.115143
565.075155,1554.432478,-5995.668130,-1762.019645
565.075477,2812.782580,-7772.162391,-689.485948
565.075799,4367.215058,-10436.903782,229.828649
565.076121,3552.988522,-9992.780217,-995.924147
565.076444,1258.350101,-9104.533087,-1455.581446
565.076766,962.267725,-9474.636058,-1302.362347
565.077088,370.102971,-9918.759623,-1915.238745
565.077410,-1776.494261,-9030.512492,-2528.115143
565.077733,-4589.276840,-9474.636058,-2834.553343
565.078055,-6957.935855,-9918.759623,-2298.286494
565.078377,-5921.647536,-10807.006753,-1532.190996
565.078699,-3775.050304,-9326.594869,-2451.505594
565.079021,-1998.556043,-9252.574275,-4596.572988
565.079344,148.041188,-9030.512492,-3370.820191
565.079666,2368.659014,-8216.285956,-766.095498
565.079988,3108.864956,-8586.388927,459.657299
565.080310,2664.741391,-9326.594869,0.000000
565.080633,1924.535449,-8586.388927,-2298.286494
565.080955,1332.370696,-7698.141797,-4060.306139
565.081277,1184.329507,-8882.471304,-3064.381992
565.081599,222.061783,-11103.089130,-995.924147
565.081921,-1628.453072,-11473.192101,-229.828649
565.082244,-3404.947333,-10436.903782,0.000000
565.082566,-4441.235652,-9104.533087,-919.314598
565.082888,-3552.988522,-8216.285956,-2681.334243
565.083210,-2368.659014,-8216.285956,-4519.963438
565.083532,148.041188,-8512.368333,-4443.353888
565.083855,1628.453072,-8808.450710,-2298.286494
565.084177,3108.864956,-8956.491898,919.314598
565.084499,4071.132681,-10066.800811,919.314598
565.084821,3997.112087,-10881.027347,-2528.115143
565.085144,3552.988522,-11325.150913,-2451.505594
565.085466,2812.782580,-9474.636058,-919.314598
565.085788,1036.288319,-8882.471304,-766.095498
565.086110,-1332.370696,-9178.553681,-1225.752797
565.086432,-4071.132681,-9474.636058,-383.047749
565.086755,-5477.523971,-8290.306550,-229.828649
565.087077,-5181.441594,-9400.615463,-2681.334243
565.087399,-4367.215058,-9696.697840,-3677.258390
565.087721,-2738.761985,-8660.409521,-2681.334243
565.088044,-1184.329507,-8068.244768,-1762.019645
565.088366,740.205942,-9178.553681,0.000000
565.088688,2368.659014,-9622.677246,0.000000
565.089010,2146.597232,-8956.491898,-1378.971896
565.089332,1776.494261,-8586.388927,-2374.896044
565.089655,2220.617826,-9104.533087,-1685.410096
565.089977,1628.453072,-9474.636058,-383.047749
565.090299,222.061783,-9770.718434,-612.876398
565.090621,-1480.411884,-10658.965565,-306.438199
565.090943,-2220.617826,-10658.965565,-689.485948
565.091266,-3108.864956,-9104.533087,-1072.533697
565.091588,-3478.967927,-8216.285956,-1149.143247
565.091910,-1702.473667,-8364.327145,-1532.190996
565.092232,-592.164754,-7994.224174,-1991.848295
565.092555,-444.123565,-6365.771101,-919.314598
565.092877,666.185348,-6883.915261,-766.095498
565.093199,2146.597232,-9770.718434,-2374.896044
565.093521,2368.659014,-11177.109724,-2528.115143
565.093843,1776.494261,-11547.212695,-459.657299
565.094166,1702.473667,-11769.274478,-766.095498
565.094488,2368.659014,-11843.295072,-2451.505594
565.094810,1702.473667,-10881.027347,-2145.067394
565.095132,-888.247130,-8808.450710,-689.485948
565.095454,-2738.761985,-8216.285956,-995.924147
565.095777,-3552.988522,-9400.615463,-1838.629195
565.096099,-3034.844362,-8364.327145,-2221.676944
565.096421,-2368.659014,-9326.594869,-3447.429741
565.096743,-1036.288319,-9178.553681,-2451.505594
565.097066,444.123565,-8290.306550,229.828649
565.097388,2516.700203,-8068.244768,-612.876398
565.097710,3552.988522,-8808.450710,-1608.800546
565.098032,2442.679609,-9474.636058,-689.485948
565.098354,0.000000,-7994.224174,-612.876398
565.098677,-1480.411884,-8586.388927,-3140.991542
565.098999,-2368.659014,-11621.233289,-3983.696590
565.099321,-3849.070898,-12805.562797,-3370.820191
565.099643,-5107.421000,-11399.171507,-2221.676944
565.099966,-5995.668130,-9474.636058,-2528.115143
565.100288,-3256.906145,-10362.883188,-2145.067394
565.100610,-148.041188,-9400.615463,-2221.676944
565.100932,0.000000,-7624.121203,-2604.724693
565.101254,0.000000,-6957.935855,-2145.067394
565.101577,1110.308913,-7772.162391,0.000000
565.101899,1998.556043,-8290.306550,-995.924147
565.102221,2220.617826,-7920.203579,-1072.533697
565.102543,1776.494261,-9548.656652,-536.266849
565.102865,2368.659014,-10584.944971,-306.438199
565.103188,2664.741391,-10584.944971,-536.266849
565.103510,1480.411884,-10362.883188,-229.828649
565.103832,-592.164754,-9622.677246,-766.095498
565.104154,-2368.659014,-9400.615463,-1991.848295
565.104477,-3627.009116,-9030.512492,-2374.896044
565.104799,-4515.256246,-8216.285956,-2528.115143
565.105121,-3330.926739,-7994.224174,-3830.477490
565.105443,-1850.514855,-8290.306550,-3830.477490
565.105765,0.000000,-8882.471304,-1608.800546
565.106088,1702.473667,-10288.862594,-229.828649
565.106410,2220.617826,-10584.944971,-919.314598
565.106732,2294.638420,-10881.027347,-1378.971896
565.107054,2738.761985,-9474.636058,-1455.581446
565.107376,2442.679609,-8512.368333,-2451.505594
565.107699,740.205942,-9104.533087,-1991.848295
565.108021,-1850.514855,-9400.615463,-689.485948
565.108343,-2960.823768,-9622.677246,-1378.971896
565.108665,-2590.720797,-9548.656652,-2145.067394
565.108988,-1184.329507,-9844.739029,-2451.505594
565.109310,740.205942,-9770.718434,-1532.190996
565.109632,1628.453072,-9326.594869,-1072.533697
565.109954,1036.288319,-7550.100608,689.485948
565.110276,1258.350101,-7846.182985,1072.533697
565.110599,1036.288319,-8956.491898,-1302.362347
565.110921,444.123565,-8438.347739,-2911.162892
565.111243,370.102971,-8586.388927,-2145.067394
565.111565,1480.411884,-9844.739029,-1532.190996
565.111888,1998.556043,-11695.253884,-842.705048
565.112210,666.185348,-11991.336260,919.314598
565.112532,-2590.720797,-10732.986159,153.219100
565.112854,-4515.256246,-9548.656652,-2528.115143
565.113176,-5107.421000,-8364.327145,-3907.087040
565.113499,-3923.091493,-9178.553681,-4979.620737
565.113821,-3108.864956,-8216.285956,-3524.039291
565.114143,-1702.473667,-7624.121203,-1302.362347
565.114465,370.102971,-8956.491898,0.000000
565.114787,1776.494261,-9992.780217,306.438199
565.115110,1924.535449,-9844.739029,-995.924147
565.115432,814.226536,-9696.697840,-2528.115143
565.115754,444.123565,-9474.636058,-2145.067394
565.116076,888.247130,-8808.450710,-1762.019645
565.116399,-444.123565,-8808.450710,-1455.581446
565.116721,-1924.535449,-9400.615463,-689.485948
565.117043,-2812.782580,-9178.553681,-689.485948
565.117365,-2368.659014,-9030.512492,-1608.800546
565.117687,-1628.453072,-9474.636058,-2068.457845
565.118010,-148.041188,-10214.842000,-2374.896044
565.118332,74.020594,-9844.739029,-1685.410096
565.118654,518.144159,-8068.244768,306.438199
565.118976,592.164754,-7772.162391,-383.047749
565.119298,814.226536,-8438.347739,-2451.505594
565.119621,370.102971,-8808.450710,-3140.991542
565.119943,-666.185348,-8882.471304,-1608.800546
565.120265,-592.164754,-9992.780217,-2068.457845
565.120587,148.041188,-11769.274478,-2298.286494
565.120910,-222.061783,-12509.480420,-1149.143247
565.121232,-2146.597232,-11251.130318,-536.266849
565.121554,-2590.720797,-8734.430116,-2681.334243
565.121876,-3182.885551,-7698.141797,-3447.429741
565.122198,-2368.659014,-7772.162391,-3677.258390
565.122521,-1110.308913,-8882.471304,-3370.820191
565.122843,-370.102971,-9474.636058,-1991.848295
565.123165,444.123565,-9918.759623,306.438199
565.123487,2220.617826,-10066.800811,229.828649
565.123810,3552.988522,-10288.862594,-995.924147
565.124132,3849.070898,-9844.739029,-1532.190996
565.124454,3775.050304,-8290.306550,-1455.581446
565.124776,2886.803174,-7254.018232,-1149.143247
565.125098,1628.453072,-8364.327145,-919.314598
565.125421,-1776.494261,-9400.615463,0.000000
565.125743,-3997.112087,-9918.759623,-1149.143247
565.126065,-4737.318029,-8956.491898,-3064.381992
565.126387,-3849.070898,-8808.450710,-3677.258390
565.126709,-2220.617826,-10807.006753,-2528.115143
565.127032,148.041188,-11325.150913,-1608.800546
565.127354,1554.432478,-8882.471304,-766.095498
565.127676,2516.700203,-7994.224174,-383.047749
565.127998,2664.741391,-8808.450710,-1532.190996
565.128321,2294.638420,-9104.533087,-2834.553343
565.128643,740.205942,-8586.388927,-3140.991542
565.128965,-888.247130,-9474.636058,-2068.457845
565.129287,-1332.370696,-9992.780217,-536.266849
565.129609,-222.061783,-11325.150913,-459.657299
565.129932,-814.226536,-9474.636058,-1762.019645
565.130254,-2590.720797,-7624.121203,-995.924147
565.130576,-3108.864956,-7105.977043,-689.485948
565.130898,-2738.761985,-8734.430116,-1302.362347
565.131220,-2146.597232,-9178.553681,-2374.896044
565.131543,-1702.473667,-9474.636058,-3217.601092
565.131865,-1110.308913,-9918.759623,-1072.533697
565.132187,370.102971,-11325.150913,0.000000
565.132509,740.205942,-9622.677246,-1455.581446
565.132832,666.185348,-9326.594869,-1685.410096
565.133154,222.061783,-8808.450710,-536.266849
565.133476,-148.041188,-9622.677246,-1225.752797
565.133798,-2738.761985,-7846.182985,-1225.752797
565.134120,-4885.359217,-9326.594869,-1762.019645
565.134443,-5773.606348,-10510.924376,-2911.162892
565.134765,-5107.421000,-10658.965565,-3140.991542
565.135087,-3627.009116,-10362.883188,-2145.067394
565.135409,-2590.720797,-8956.491898,-842.705048
565.135732,-1702.473667,-9474.636058,-766.095498
565.136054,-1406.391290,-8956.491898,-766.095498
565.136376,-1332.370696,-8586.388927,-919.314598
565.136698,-2442.679609,-8734.430116,-1991.848295
565.137020,-2812.782580,-8512.368333,-2221.676944
565.137343,-2738.761985,-7624.121203,-1532.190996
565.137665,-2442.679609,-7105.977043,-2221.676944
565.137987,-2220.617826,-9622.677246,-2451.505594
565.138309,-2738.761985,-11547.212695,-689.485948
565.138631,-4219.173869,-10658.965565,0.000000
565.138954,-5033.400406,-9400.615463,-2451.505594
565.139276,-3849.070898,-10510.924376,-4136.915689
565.139598,-3256.906145,-10510.924376,-3294.210641
565.139920,-2738.761985,-9326.594869,-1532.190996
565.140243,-1776.494261,-8142.265362,-1532.190996
565.140565,-370.102971,-8290.306550,-1915.238745
565.140887,888.247130,-8882.471304,-1378.971896
565.141209,666.185348,-9030.512492,-1378.971896
565.141531,-296.082377,-9400.615463,-1455.581446
565.141854,-1406.391290,-9992.780217,-1225.752797
565.142176,-2220.617826,-9178.553681,-919.314598
565.142498,-2146.597232,-9178.553681,-1608.800546
565.142820,-3330.926739,-9326.594869,-2145.067394
565.143142,-5329.482782,-8734.430116,-1072.533697
565.143465,-6587.832884,-8290.306550,-1378.971896
565.143787,-7105.977043,-8882.471304,-3217.601092
565.144109,-7476.080014,-10140.821405,-3217.601092
565.144431,-5995.668130,-10584.944971,-2451.505594
565.144754,-3182.885551,-10214.842000,-3064.381992
565.145076,-444.123565,-10214.842000,-2757.943793
565.145398,1702.473667,-9622.677246,-459.657299
565.145720,2368.659014,-8956.491898,153.219100
565.146042,2516.700203,-8364.327145,-1225.752797
565.146365,1554.432478,-8734.430116,-1991.848295
565.146687,0.000000,-9252.574275,-2221.676944
565.147009,-1554.432478,-9178.553681,-1685.410096
565.147331,-2368.659014,-8956.491898,-2221.676944
565.147654,-3182.885551,-8808.450710,-1915.238745
565.147976,-4737.318029,-7994.224174,-842.705048
565.148298,-6217.729913,-7550.100608,-1532.190996
565.148620,-6735.874072,-9252.574275,-3600.648841
565.148942,-7476.080014,-10732.986159,-3983.696590
565.149265,-7476.080014,-10658.965565,-2451.505594
565.149587,-4959.379811,-10214.842000,-1532.190996
565.149909,-1184.329507,-10436.903782,-2145.067394
565.150231,2072.576638,-9770.718434,-1915.238745
565.150553,3849.070898,-8512.368333,-153.219100
565.150876,4885.359217,-7624.121203,995.924147
565.151198,5477.523971,-7920.203579,-689.485948
565.151520,3182.885551,-9770.718434,-2221.676944
565.151842,-740.205942,-9548.656652,-689.485948
565.152165,-3256.906145,-8290.306550,-459.657299
565.152487,-3701.029710,-7402.059420,-3753.867940
565.152809,-4663.297435,-8068.244768,-4979.620737
565.153131,-7105.977043,-8586.388927,-2757.943793
565.153453,-8882.471304,-8438.347739,-1455.581446
565.153776,-9252.574275,-10807.006753,-2681.334243
565.154098,-8068.244768,-16136.489536,-2834.553343
565.154420,-7476.080014,-15544.324782,0.000000
565.154742,-5255.462188,-10881.027347,-306.438199
565.155065,-1258.350101,-7105.977043,-1762.019645
565.155387,3849.070898,-6883.915261,-1762.019645
565.155709,7031.956449,-6883.915261,0.000000
565.156031,8142.265362,-5403.503377,1149.143247
565.156353,7476.080014,-5181.441594,1072.533697
565.156676,5995.668130,-9030.512492,-229.828649
565.156998,1554.432478,-11103.089130,-536.266849
565.157320,-4663.297435,-10214.842000,-229.828649
565.157642,-8734.430116,-8438.347739,-1225.752797
565.157964,-8882.471304,-8660.409521,-4826.401637
565.158287,-8956.491898,-8216.285956,-6971.469032
565.158609,-10362.883188,-8216.285956,-5286.058936
565.158931,-11399.171507,-9770.718434,-1685.410096
565.159254,-9918.759623,-13767.830521,-1149.143247
565.159576,-7031.956449,-15692.365970,-2298.286494
565.159898,-5625.565159,-14137.933492,-3524.039291
565.160221,-5329.482782,-10362.883188,-1915.238745
565.160543,-2812.782580,-7254.018232,229.828649
565.160865,1406.391290,-5625.565159,459.657299
565.161187,5329.482782,-4293.194464,-995.924147
565.161510,6957.935855,-3701.029710,-1225.752797
565.161832,7476.080014,-5181.441594,536.266849
565.162154,7328.038826,-7624.121203,1838.629195
565.162477,4737.318029,-10436.903782,459.657299
565.162799,0.000000,-11769.274478,-995.924147
565.163121,-5255.462188,-11103.089130,-1685.410096
565.163444,-8512.368333,-9474.636058,-4136.915689
565.163766,-10288.862594,-10288.862594,-7124.688131
565.164088,-10584.944971,-11695.253884,-7277.907231
565.164410,-9474.636058,-11991.336260,-4366.744339
565.164733,-7254.018232,-11621.233289,-919.314598
565.165055,-3923.091493,-11177.109724,0.000000
565.165377,-518.144159,-11547.212695,-1378.971896
565.165700,222.061783,-12065.356855,-1991.848295
565.166022,-1110.308913,-10436.903782,-153.219100
565.166344,-1998.556043,-7402.059420,2221.676944
565.166667,-1406.391290,-4663.297435,1455.581446
565.166989,888.247130,-2294.638420,-1302.362347
565.167311,2220.617826,-3404.947333,-2451.505594
565.167634,3627.009116,-6809.894666,-1838.629195
565.167956,3330.926739,-9474.636058,0.000000
565.168278,1480.411884,-11029.068536,459.657299
565.168600,0.000000,-11547.212695,-1378.971896
565.168923,-1850.514855,-10807.006753,-3830.477490
565.169245,-4663.297435,-10584.944971,-6205.373534
565.169567,-8512.368333,-10955.047942,-5975.544884
565.169890,-10807.006753,-11695.253884,-3677.258390
565.170212,-9474.636058,-12287.418637,-2834.553343
565.170534,-5921.647536,-11325.150913,-2911.162892
565.170857,-2664.741391,-9844.739029,-2221.676944
565.171179,-148.041188,-9104.533087,-306.438199
565.171501,1258.350101,-8438.347739,1455.581446
565.171823,2886.803174,-5773.606348,2298.286494
565.172146,2516.700203,-3404.947333,536.266849
565.172468,518.144159,-3552.988522,-1455.581446
565.172790,-3404.947333,-6217.729913,-1378.971896
565.173113,-6661.853478,-9400.615463,229.828649
565.173435,-8142.265362,-10807.006753,-689.485948
565.173757,-5847.626942,-11177.109724,-2987.772442
565.174080,-2442.679609,-12509.480420,-5209.449386
565.174402,296.082377,-13027.624579,-3294.210641
565.174724,592.164754,-11547.212695,-1225.752797
565.175046,444.123565,-10066.800811,-689.485948
565.175369,444.123565,-9548.656652,-2681.334243
565.175691,-296.082377,-9622.677246,-3830.477490
565.176013,-2516.700203,-8882.471304,-4673.182538
565.176336,-4959.379811,-8808.450710,-3677.258390
565.176658,-6217.729913,-10881.027347,-1532.190996
565.176980,-6143.709319,-11103.089130,1149.143247
565.177303,-4885.359217,-8882.471304,459.657299
565.177625,-4367.215058,-5699.585753,-2451.505594
565.177947,-3330.926739,-5329.482782,-4366.744339
565.178269,-3182.885551,-6587.832884,-3677.258390
565.178592,-3775.050304,-7476.080014,-1149.143247
565.178914,-4219.173869,-8364.327145,-766.095498
565.179236,-3849.070898,-10288.862594,-2451.505594
565.179559,-3034.844362,-12435.459826,-3753.867940
565.179881,-2442.679609,-12731.542202,-2528.115143
565.180203,-2220.617826,-11843.295072,-2221.676944
565.180526,-518.144159,-11769.274478,-3064.381992
565.180848,1184.329507,-12139.377449,-1608.800546
565.181170,1258.350101,-11251.130318,919.314598
565.181493,-888.247130,-8512.368333,2298.286494
565.181815,-3108.864956,-6661.853478,1225.752797
565.182137,-3552.988522,-6291.750507,-383.047749
565.182459,-2886.803174,-5551.544565,-1991.848295
565.182782,-2590.720797,-5255.462188,-2757.943793
565.183104,-2220.617826,-5921.647536,-1685.410096
565.183426,-888.247130,-7105.977043,0.000000
565.183749,592.164754,-8512.368333,-1685.410096
565.184071,1406.391290,-9844.739029,-2987.772442
565.184393,74.020594,-10881.027347,-4596.572988
565.184716,-1850.514855,-12953.603985,-4673.182538
565.185038,-3775.050304,-13175.665768,-3447.429741
565.185360,-4515.256246,-12657.521608,-2757.943793
565.185682,-4515.256246,-12509.480420,-3294.210641
565.186005,-5107.421000,-11399.171507,-1762.019645
565.186327,-4811.338623,-9918.759623,459.657299
565.186649,-4663.297435,-7254.018232,536.266849
565.186972,-2664.741391,-7031.956449,-689.485948
565.187294,-666.185348,-7105.977043,0.000000
565.187616,518.144159,-7031.956449,536.266849
565.187939,666.185348,-6513.812290,1685.410096
565.188261,888.247130,-5921.647536,1532.190996
565.188583,2368.659014,-6883.915261,536.266849
565.188905,3552.988522,-8660.409521,-2451.505594
565.189228,3108.864956,-10881.027347,-2451.505594
565.189550,1406.391290,-11843.295072,-1838.629195
565.189872,-1406.391290,-11843.295072,-1608.800546
565.190195,-4219.173869,-13175.665768,-2451.505594
565.190517,-6883.915261,-14063.912898,-3217.601092
565.190839,-10140.821405,-12731.542202,-3677.258390
565.191162,-11917.315666,-10436.903782,-4749.792088
565.191484,-12805.562797,-8216.285956,-3294.210641
565.191806,-11029.068536,-8438.347739,-1762.019645
565.192128,-7698.141797,-6661.853478,-1762.019645
565.192451,-3923.091493,-5181.441594,-2068.457845
565.192773,-666.185348,-4589.276840,-689.485948
565.193095,666.185348,-4589.276840,306.438199
565.193418,1332.370696,-6735.874072,-153.219100
565.193740,1480.411884,-8438.347739,-1915.238745
565.194062,1628.453072,-11103.089130,-3677.258390
565.194385,1776.494261,-13471.748144,-2987.772442
565.194707,1184.329507,-13471.748144,-1838.629195
565.195029,-370.102971,-11843.295072,-1225.752797
565.195352,-1702.473667,-10807.006753,-1378.971896
565.195674,-3627.009116,-10362.883188,-1149.143247
565.195996,-5329.482782,-10140.821405,-1302.362347
565.196318,-7624.121203,-7920.203579,-2604.724693
565.196641,-8734.430116,-7920.203579,-3064.381992
565.196963,-7328.038826,-8290.306550,-2374.896044
565.197285,-4515.256246,-8808.450710,-536.266849
565.197608,-2368.659014,-8216.285956,689.485948
565.197930,-296.082377,-7994.224174,459.657299
565.198252,1184.329507,-7846.182985,689.485948
565.198575,2368.659014,-7476.080014,-306.438199
565.198897,3330.926739,-7254.018232,-2681.334243
565.199219,3330.926739,-7920.203579,-4213.525239
565.199541,3034.844362,-8586.388927,-3677.258390
565.199864,1110.308913,-9178.553681,-2987.772442
565.200186,-592.164754,-11547.212695,-3524.039291
565.200508,-2960.823768,-13915.871710,-2834.553343
565.200831,-5033.400406,-14804.118840,-2757.943793
565.201153,-6143.709319,-13767.830521,-3447.429741
565.201475,-6661.853478,-12287.418637,-2911.162892
565.201798,-6661.853478,-9474.636058,-2374.896044
565.202120,-5477.523971,-6883.915261,-1149.143247
565.202442,-4071.132681,-5107.421000,-612.876398
565.202764,-2516.700203,-4367.215058,-536.266849
565.203087,-1628.453072,-5329.482782,-1455.581446
565.203409,-1702.473667,-7105.977043,-842.705048
565.203731,-2146.597232,-9474.636058,-383.047749
565.204054,-2294.638420,-10658.965565,-689.485948
565.204376,-1332.370696,-11325.150913,-2451.505594
565.204698,0.000000,-11769.274478,-3907.087040
565.205021,370.102971,-11325.150913,-2911.162892
565.205343,148.041188,-10436.903782,-1378.971896
565.205665,-370.102971,-9696.697840,-842.705048
565.205987,-1110.308913,-10066.800811,-1455.581446
565.206310,-2368.659014,-9918.759623,-1838.629195
565.206632,-3627.009116,-9252.574275,-2298.286494
565.206954,-5403.503377,-7772.162391,-1991.848295
565.207277,-5625.565159,-7254.018232,-1225.752797
565.207599,-5477.523971,-6661.853478,-919.314598
565.207921,-4959.379811,-5847.626942,-1378.971896
565.208244,-4441.235652,-6217.729913,-1685.410096
565.208566,-4589.276840,-7105.977043,-2451.505594
565.208888,-3849.070898,-9030.512492,-3064.381992
565.209211,-3404.947333,-10955.047942,-3370.820191
565.209533,-3404.947333,-11917.315666,-3064.381992
565.209855,-3404.947333,-12731.542202,-2528.115143
565.210177,-2812.782580,-12657.521608,-2221.676944
565.210500,-2072.576638,-11843.295072,-2681.334243
565.210822,-1258.350101,-10510.924376,-2451.505594
565.211144,-370.102971,-9474.636058,-2221.676944
565.211467,518.144159,-9400.615463,-842.705048
565.211789,592.164754,-8882.471304,306.438199
565.212111,740.205942,-8290.306550,612.876398
565.212434,444.123565,-7402.059420,0.000000
565.212756,296.082377,-7179.997637,-612.876398
565.213078,-148.041188,-6809.894666,-229.828649
565.213400,-888.247130,-6735.874072,0.000000
565.213723,-1332.370696,-7476.080014,-766.095498
565.214045,-888.247130,-8956.491898,-1762.019645
565.214367,0.000000,-10732.986159,-2221.676944
565.214690,-370.102971,-12139.377449,-2374.896044
565.215012,-1036.288319,-13101.645173,-1762.019645
565.215334,-1702.473667,-13027.624579,-1225.752797
565.215657,-2368.659014,-11843.295072,-1378.971896
565.215979,-2886.803174,-10436.903782,-1991.848295
565.216301,-3627.009116,-9326.594869,-2145.067394
565.216623,-4219.173869,-8512.368333,-1608.800546
565.216946,-4515.256246,-8216.285956,-1302.362347
565.217268,-4589.276840,-7846.182985,-995.924147
565.217590,-4219.173869,-7550.100608,-383.047749
565.217913,-4367.215058,-7179.997637,-1225.752797
565.218235,-4737.318029,-6513.812290,-1532.190996
565.218557,-4589.276840,-6439.791695,-2528.115143
565.218880,-4071.132681,-7476.080014,-3370.820191
565.219202,-3701.029710,-8512.368333,-2834.553343
565.219524,-4293.194464,-9474.636058,-2068.457845
565.219846,-4145.153275,-10436.903782,-2757.943793
565.220169,-2738.761985,-12583.501014,-3524.039291
565.220491,-1258.350101,-13397.727550,-2451.505594
565.220813,-444.123565,-12879.583391,-1378.971896
565.221136,-296.082377,-10658.965565,-153.219100
565.221458,-296.082377,-9178.553681,-229.828649
565.221780,-518.144159,-8142.265362,-153.219100
565.222103,-1998.556043,-7698.141797,306.438199
565.222425,-3627.009116,-7772.162391,-229.828649
565.222747,-4959.379811,-7254.018232,-153.219100
565.223070,-5255.462188,-7105.977043,-919.314598
565.223392,-4811.338623,-7402.059420,-1072.533697
565.223714,-3775.050304,-8660.409521,-842.705048
565.224036,-3182.885551,-9252.574275,-1072.533697
565.224359,-2294.638420,-9252.574275,-1991.848295
565.224681,-1110.308913,-9844.739029,-3140.991542
565.225003,-370.102971,-11695.253884,-3983.696590
565.225326,0.000000,-13175.665768,-3294.210641
565.225648,-592.164754,-12657.521608,-2221.676944
565.225970,-1184.329507,-12213.398043,-2451.505594
565.226293,-518.144159,-12731.542202,-1915.238745
565.226615,74.020594,-12139.377449,-1378.971896
565.226937,-296.082377,-10362.883188,0.000000
565.227259,-518.144159,-9104.533087,766.095498
565.227582,-518.144159,-8142.265362,1149.143247
565.227904,296.082377,-7105.977043,2221.676944
565.228226,1036.288319,-5477.523971,2374.896044
565.228549,1554.432478,-5551.544565,1455.581446
565.228871,2294.638420,-6809.894666,1225.752797
565.229193,3256.906145,-7772.162391,1149.143247
565.229516,3478.967927,-9252.574275,229.828649
565.229838,3701.029710,-11769.274478,0.000000
565.230160,3552.988522,-13397.727550,919.314598
565.230482,3108.864956,-13027.624579,919.314598
565.230805,2442.679609,-11695.253884,689.485948
565.231127,2220.617826,-11769.274478,459.657299
565.231449,962.267725,-11251.130318,1302.362347
565.231772,-296.082377,-9474.636058,1915.238745
565.232094,-1110.308913,-7624.121203,2298.286494
565.232416,-1480.411884,-7254.018232,1762.019645
565.232739,-1406.391290,-7254.018232,2834.553343
565.233061,-2368.659014,-7179.997637,3370.820191
565.233383,-2738.761985,-7105.977043,3907.087040
565.233705,-3034.844362,-7476.080014,3600.648841
565.234028,-3034.844362,-7846.182985,2757.943793
565.234350,-2886.803174,-8364.327145,3064.381992
565.234672,-2368.659014,-8512.368333,2221.676944
565.234995,-2442.679609,-9474.636058,2145.067394
565.235317,-2146.597232,-10584.944971,2221.676944
565.235639,-2220.617826,-11399.171507,2681.334243
565.235962,-2368.659014,-11399.171507,2298.286494
565.236284,-3034.844362,-11621.233289,2145.067394
565.236606,-2368.659014,-11473.192101,1991.848295
565.236929,-2146.597232,-10881.027347,1915.238745
565.237251,-1480.411884,-9770.718434,2528.115143
565.237573,-1110.308913,-9252.574275,3140.991542
565.237895,-740.205942,-8142.265362,3753.867940
565.238218,74.020594,-8808.450710,3677.258390
565.238540,-296.082377,-8364.327145,2987.772442
565.238862,-666.185348,-8734.430116,2298.286494
565.239185,-1332.370696,-8660.409521,1915.238745
565.239507,-1702.473667,-8734.430116,1762.019645
565.239829,-3256.906145,-8734.430116,919.314598
565.240152,-3404.947333,-9030.512492,-383.047749
565.240474,-2516.700203,-10362.883188,-1532.190996
565.240796,-2220.617826,-11103.089130,-2145.067394
565.241118,-2368.659014,-10881.027347,-1455.581446
565.241441,-2664.741391,-10881.027347,-306.438199
565.241763,-1998.556043,-11103.089130,-1225.752797
565.242085,-962.267725,-11621.233289,-1991.848295
565.242408,74.020594,-11325.150913,-1608.800546
565.242730,1628.453072,-9770.718434,-306.438199
565.243052,3701.029710,-7994.224174,0.000000
565.243375,5403.503377,-5995.668130,-153.219100
565.243697,7254.018232,-5699.585753,-919.314598
565.244019,7994.224174,-6661.853478,-1378.971896
565.244341,7402.059420,-7550.100608,-1225.752797
565.244664,4219.173869,-9326.594869,-1915.238745
565.244986,814.226536,-10732.986159,-1072.533697
565.245308,-3182.885551,-12139.377449,-306.438199
565.245631,-6143.709319,-10584.944971,-2221.676944
565.245953,-7179.997637,-10658.965565,-4826.401637
565.246275,-6439.791695,-10955.047942,-5898.935335
565.246598,-2812.782580,-10658.965565,-4903.011187
565.246920,888.247130,-11473.192101,-3983.696590
565.247242,3404.947333,-13397.727550,0.000000
565.247564,5107.421000,-13841.851115,2834.553343
565.247887,5921.647536,-11843.295072,536.266849
565.248209,4367.215058,-8956.491898,-383.047749
565.248531,3330.926739,-6143.709319,1915.238745
565.248854,2294.638420,-4145.153275,-536.266849
565.249176,1110.308913,-3627.009116,-2834.553343
565.249498,-1332.370696,-5033.400406,-153.219100
565.249821,-4219.173869,-5921.647536,459.657299
565.250143,-6439.791695,-8586.388927,-2451.505594
565.250465,-7179.997637,-13027.624579,-2681.334243
565.250788,-8290.306550,-13619.789333,-2451.505594
565.251110,-8438.347739,-13175.665768,-4060.306139
565.251432,-6439.791695,-13545.768739,-5286.058936
565.251754,-3478.967927,-14211.954086,-1225.752797
565.252077,-1850.514855,-12361.439231,76.609550
565.252399,-1184.329507,-9178.553681,-612.876398
565.252721,-518.144159,-7624.121203,-919.314598
565.253044,0.000000,-8068.244768,-306.438199
565.253366,222.061783,-9844.739029,1378.971896
565.253688,-740.205942,-9770.718434,3524.039291
565.254011,-1628.453072,-9696.697840,4136.915689
565.254333,-1258.350101,-9252.574275,4060.306139
565.254655,0.000000,-9252.574275,4443.353888
565.254977,-962.267725,-8216.285956,4596.572988
565.255300,-1702.473667,-7994.224174,5439.278036
565.255622,-2442.679609,-7476.080014,4290.134789
565.255944,-2368.659014,-7179.997637,3217.601092
565.256267,-1702.473667,-6957.935855,2374.896044
565.256589,-666.185348,-6661.853478,995.924147
565.256911,518.144159,-7550.100608,612.876398
565.257234,2442.679609,-9918.759623,1225.752797
565.257556,3478.967927,-11029.068536,2604.724693
565.257878,3404.947333,-11103.089130,2604.724693
565.258201,2590.720797,-11177.109724,2374.896044
565.258523,1406.391290,-11547.212695,2221.676944
565.258846,0.000000,-10807.006753,2681.334243
565.259168,-2368.659014,-8438.347739,3294.210641
565.259490,-4219.173869,-6069.688724,3140.991542
565.259813,-4367.215058,-7031.956449,2451.505594
565.260135,-3108.864956,-9104.533087,2757.943793
565.260458,-1776.494261,-9252.574275,2528.115143
565.260780,222.061783,-10362.883188,2528.115143
565.261103,2590.720797,-11843.295072,3064.381992
565.261425,5403.503377,-11843.295072,3294.210641
565.261748,7476.080014,-9474.636058,1608.800546
565.262070,7624.121203,-7994.224174,306.438199
565.262393,7402.059420,-7476.080014,3907.087040
565.262715,8956.491898,-5477.523971,3217.601092
565.263037,9030.512492,-6217.729913,-3753.867940
565.263360,7698.141797,-14063.912898,-4290.134789
565.263682,5107.421000,-16802.674883,1225.752797
565.264005,-148.041188,-11621.233289,3064.381992
565.264327,-6661.853478,-11917.315666,459.657299
565.264650,-8956.491898,-14285.974681,919.314598
565.264972,-10584.944971,-11843.295072,-3294.210641
565.265295,-14952.160028,-10436.903782,-9346.365076
565.265617,-18135.045579,-11621.233289,-2374.896044
565.265940,-18209.066173,-10214.842000,5515.887586
565.266262,-13767.830521,-5181.441594,-612.876398
565.266584,-6217.729913,-5403.503377,-5286.058936
565.266907,2294.638420,-8364.327145,-3830.477490
565.267229,7254.018232,-8956.491898,-3600.648841
565.267552,9474.636058,-9548.656652,-1991.848295
565.267874,9622.677246,-8660.409521,6741.640382
565.268197,8512.368333,-5329.482782,5592.497135
565.268519,7328.038826,-5255.462188,-6358.592633
565.268842,6513.812290,-11695.253884,-8044.002729
565.269164,3108.864956,-14359.995275,-1149.143247
565.269487,-3849.070898,-12805.562797,1532.190996
565.269809,-9030.512492,-13693.809927,5362.668486
565.270131,-10658.965565,-11251.130318,7737.564530
565.270454,-8956.491898,-8142.265362,-1072.533697
565.270776,-6957.935855,-5625.565159,-8580.269578
565.271099,-6587.832884,-7846.182985,-3600.648841
565.271421,-4737.318029,-6661.853478,4979.620737
565.271744,-1110.308913,-2220.617826,4979.620737
565.272066,2590.720797,-2146.597232,2987.772442
565.272389,5551.544565,-6143.709319,842.705048
565.272711,6291.750507,-8660.409521,-2528.115143
565.273033,4441.235652,-9030.512492,-2834.553343
565.273356,2220.617826,-11843.295072,-612.876398
565.273678,1480.411884,-13915.871710,1072.533697
565.274001,1036.288319,-13175.665768,-536.266849
565.274323,-74.020594,-12583.501014,-536.266849
565.274646,-1776.494261,-14434.015869,-1685.410096
565.274968,-2146.597232,-14137.933492,-2145.067394
565.275291,-2368.659014,-12731.542202,995.924147
565.275613,-2146.597232,-7846.182985,4060.306139
565.275936,-1702.473667,-6661.853478,1991.848295
565.276258,962.267725,-7772.162391,-153.219100
565.276580,3775.050304,-7105.977043,0.000000
565.276903,4737.318029,-4885.359217,-536.266849
565.277225,2812.782580,-5995.668130,383.047749
565.277548,592.164754,-9918.759623,3983.696590
565.277870,-1036.288319,-13175.665768,5209.449386
565.278193,-1998.556043,-14211.954086,1149.143247
565.278515,-222.061783,-14730.098246,-2451.505594
565.278838,1628.453072,-12583.501014,-3983.696590
565.279160,2664.741391,-8882.471304,-1608.800546
565.279483,2442.679609,-6661.853478,2987.772442
565.279805,1110.308913,-8660.409521,3064.381992
565.280127,-888.247130,-11843.295072,919.314598
565.280450,-3775.050304,-13249.686362,-383.047749
565.280772,-7254.018232,-13249.686362,-383.047749
565.281095,-9178.553681,-12213.398043,919.314598
565.281417,-7698.141797,-9918.759623,2068.457845
565.281740,-3627.009116,-8216.285956,2298.286494
565.282062,1480.411884,-6143.709319,3447.429741
565.282385,3997.112087,-2368.659014,2911.162892
565.282707,4885.359217,-888.247130,1225.752797
565.283030,3701.029710,-2738.761985,153.219100
565.283352,2368.659014,-7328.038826,0.000000
565.283674,740.205942,-11621.233289,0.000000
565.283997,-814.226536,-13027.624579,0.000000
565.284319,-3330.926739,-12805.562797,0.000000
565.284642,-4515.256246,-12953.603985,-306.438199
565.284964,-4885.359217,-12879.583391,-612.876398
565.285287,-3404.947333,-13693.809927,229.828649
565.285609,-4367.215058,-10658.965565,1455.581446
565.285932,-3256.906145,-9030.512492,2834.553343
565.286254,-1702.473667,-6069.688724,229.828649
565.286577,0.000000,-5921.647536,-842.705048
565.286899,0.000000,-8586.388927,766.095498
565.287221,-1036.288319,-9474.636058,4290.134789
565.287544,-2220.617826,-8068.244768,4290.134789
565.287866,-740.205942,-6069.688724,229.828649
565.288189,2368.659014,-7402.059420,-2604.724693
565.288511,4441.235652,-9400.615463,-1302.362347
565.288834,4885.359217,-9548.656652,2145.067394
565.289156,3997.112087,-8956.491898,2145.067394
565.289479,4071.132681,-10288.862594,-842.705048
565.289801,2590.720797,-12731.542202,-2681.334243
565.290124,-1554.432478,-14508.036463,-1149.143247
565.290446,-6291.750507,-15100.201217,-383.047749
565.290768,-7624.121203,-14211.954086,-842.705048
565.291091,-4737.318029,-13619.789333,-2298.286494
565.291413,-1332.370696,-12509.480420,-1072.533697
565.291736,0.000000,-9992.780217,2911.162892
565.292058,0.000000,-5921.647536,5515.887586
565.292381,1850.514855,-4589.276840,3294.210641
565.292703,3552.988522,-5699.585753,76.609550
565.293026,1776.494261,-7328.038826,689.485948
565.293348,-1554.432478,-8142.265362,2987.772442
565.293671,-1480.411884,-7476.080014,3677.258390
565.293993,2368.659014,-8364.327145,1302.362347
565.294315,5847.626942,-9104.533087,-1685.410096
565.294638,6365.771101,-9474.636058,-1762.019645
565.294960,4737.318029,-9474.636058,153.219100
565.295283,3256.906145,-10140.821405,842.705048
565.295605,1110.308913,-11843.295072,229.828649
565.295928,-3478.967927,-11917.315666,-1072.533697
565.296250,-6957.935855,-11621.233289,-2298.286494
565.296573,-7179.997637,-11177.109724,-3140.991542
565.296895,-5773.606348,-10066.800811,-995.924147
565.297218,-4589.276840,-10066.800811,842.705048
565.297540,-3775.050304,-9030.512492,3600.648841
565.297862,-2368.659014,-7624.121203,3907.087040
565.298185,-1406.391290,-6291.750507,2451.505594
565.298507,-1998.556043,-4811.338623,1608.800546
565.298830,-1850.514855,-3849.070898,153.219100
565.299152,-296.082377,-4219.173869,-1532.190996
565.299475,2146.597232,-5699.585753,-1072.533697
565.299797,2590.720797,-7772.162391,306.438199
565.300120,1702.473667,-11843.295072,0.000000
565.300442,370.102971,-14952.160028,-1608.800546
565.300765,-1628.453072,-15988.448347,-3064.381992
565.301087,-4441.235652,-15026.180623,-3294.210641
565.301409,-5181.441594,-13175.665768,-4443.353888
565.301732,-2886.803174,-11177.109724,-5822.325785
565.302054,-1554.432478,-8808.450710,-4826.401637
565.302377,-1702.473667,-7920.203579,-383.047749
565.302699,-1850.514855,-10658.965565,2221.676944
565.303022,-1406.391290,-13841.851115,1455.581446
565.303344,-2146.597232,-14137.933492,2221.676944
565.303667,-2960.823768,-11917.315666,3830.477490
565.303989,-666.185348,-9548.656652,2987.772442
565.304312,4737.318029,-7031.956449,2145.067394
565.304634,7550.100608,-2368.659014,2681.334243
565.304956,7105.977043,-592.164754,2834.553343
565.305279,5329.482782,-4589.276840,1838.629195
565.305601,3552.988522,-10807.006753,919.314598
565.305924,222.061783,-13027.624579,689.485948
565.306246,-3478.967927,-12731.542202,-1685.410096
565.306569,-4219.173869,-14063.912898,-4443.353888
565.306891,-3330.926739,-14434.015869,-3677.258390
565.307214,-4367.215058,-11547.212695,-229.828649
565.307536,-6957.935855,-9992.780217,2145.067394
565.307859,-9474.636058,-10510.924376,1455.581446
565.308181,-9622.677246,-10436.903782,1378.971896
565.308503,-8808.450710,-6735.874072,536.266849
565.308826,-6217.729913,-5773.606348,-612.876398
565.309148,-296.082377,-7846.182985,1762.019645
565.309471,5995.668130,-4959.379811,5439.278036
565.309793,8882.471304,-592.164754,4673.182538
565.310116,9178.553681,-2368.659014,3830.477490
565.310438,7328.038826,-6735.874072,5209.449386
565.310761,4219.173869,-7179.997637,3447.429741
565.311083,1406.391290,-7550.100608,-1455.581446
565.311406,2368.659014,-11029.068536,-3217.601092
565.311728,4441.235652,-11399.171507,-2451.505594
565.312050,5181.441594,-10658.965565,-1608.800546
565.312373,3182.885551,-12731.542202,-306.438199
565.312695,-962.267725,-16358.551318,536.266849
565.313018,-4737.318029,-17246.798449,76.609550
565.313340,-6883.915261,-15914.427753,-3064.381992
565.313663,-6587.832884,-14063.912898,-4979.620737
565.313985,-3182.885551,-8364.327145,-3600.648841
565.314308,1258.350101,-1332.370696,-2145.067394
565.314630,5033.400406,444.123565,-1915.238745
565.314953,5403.503377,-4145.153275,536.266849
565.315275,1850.514855,-9252.574275,1532.190996
565.315597,-3478.967927,-13249.686362,-995.924147
565.315920,-7105.977043,-15766.386565,-4519.963438
565.316242,-8142.265362,-14730.098246,-7277.907231
565.316565,-5329.482782,-12065.356855,-7967.393179
565.316887,-2368.659014,-9104.533087,-5669.106685
565.317210,-1924.535449,-7402.059420,-2451.505594
565.317532,-1702.473667,-9474.636058,-383.047749
565.317855,-2368.659014,-13397.727550,-1838.629195
565.318177,-3330.926739,-16580.613101,-2374.896044
565.318500,-3108.864956,-14285.974681,-3217.601092
565.318822,592.164754,-9104.533087,-4366.744339
565.319144,5699.585753,-7254.018232,-4673.182538
565.319467,8586.388927,-4885.359217,766.095498
565.319789,8216.285956,-3478.967927,4979.620737
565.320112,4589.276840,-4737.318029,3600.648841
565.320434,888.247130,-7328.038826,76.609550
565.320757,-1998.556043,-8364.327145,-2528.115143
565.321079,-3849.070898,-7179.997637,-4290.134789
565.321402,-3330.926739,-7550.100608,-3600.648841
565.321724,-1998.556043,-7994.224174,-1838.629195
565.322047,-666.185348,-9030.512492,612.876398
565.322369,-2072.576638,-10807.006753,1072.533697
565.322691,-5181.441594,-13397.727550,153.219100
565.323014,-7254.018232,-11695.253884,-2145.067394
565.323336,-6291.750507,-9992.780217,-5822.325785
565.323659,-2368.659014,-7846.182985,-6741.640382
565.323981,1406.391290,-4737.318029,-3064.381992
565.324304,3701.029710,-2812.782580,383.047749
565.324626,4515.256246,-5107.421000,2451.505594
565.324949,3552.988522,-8512.368333,1302.362347
565.325271,0.000000,-11177.109724,-1532.190996
565.325594,-4071.132681,-13175.665768,-3983.696590
565.325916,-4441.235652,-14582.057057,-3677.258390
565.326238,-1924.535449,-13323.706956,-2528.115143
565.326561,2590.720797,-11473.192101,-229.828649
565.326883,5033.400406,-8956.491898,2374.896044
565.327206,5773.606348,-7105.977043,2528.115143
565.327528,5033.400406,-6587.832884,-919.314598
565.327851,3256.906145,-9622.677246,-4060.306139
565.328173,592.164754,-12139.377449,-4136.915689
565.328496,-1110.308913,-12657.521608,-3370.820191
565.328818,-518.144159,-13471.748144,-1149.143247
565.329141,74.020594,-13027.624579,153.219100
565.329463,-740.205942,-10955.047942,919.314598
565.329785,-2664.741391,-9030.512492,229.828649
565.330108,-5551.544565,-6661.853478,-1378.971896
565.330430,-5921.647536,-6365.771101,-4060.306139
565.330753,-4737.318029,-8660.409521,-5209.449386
565.331075,-3552.988522,-10732.986159,-2987.772442
565.331398,-2664.741391,-10807.006753,919.314598
565.331720,-1406.391290,-11251.130318,1915.238745
565.332043,518.144159,-11103.089130,-153.219100
565.332365,0.000000,-9326.594869,-2451.505594
565.332688,-1776.494261,-6143.709319,-1838.629195
565.333010,-1628.453072,-5033.400406,-1608.800546
565.333332,592.164754,-7031.956449,-1532.190996
565.333655,1776.494261,-8586.388927,383.047749
565.333977,2146.597232,-8808.450710,919.314598
565.334300,222.061783,-8216.285956,536.266849
565.334622,-888.247130,-8734.430116,-383.047749
565.334945,-444.123565,-10066.800811,-2451.505594
565.335267,296.082377,-9178.553681,-2604.724693
565.335590,1184.329507,-8438.347739,-919.314598
565.335912,1406.391290,-6217.729913,459.657299
565.336235,2368.659014,-4885.359217,-536.266849
565.336557,2886.803174,-5699.585753,-1685.410096
565.336879,1776.494261,-6661.853478,-2145.067394
565.337202,-444.123565,-7031.956449,-3524.039291
565.337524,-2294.638420,-9548.656652,-4596.572988
565.337847,-2812.782580,-12657.521608,-3753.867940
565.338169,-3182.885551,-13175.665768,-2451.505594
565.338492,-3701.029710,-11991.336260,-2528.115143
565.338814,-3775.050304,-12731.542202,-4060.306139
565.339137,-4145.153275,-11843.295072,-3677.258390
565.339459,-2368.659014,-11769.274478,-3600.648841
565.339782,0.000000,-11399.171507,-2221.676944
565.340104,1850.514855,-10214.842000,-842.705048
565.340426,3108.864956,-6365.771101,-2068.457845
565.340749,4885.359217,-4737.318029,-1991.848295
565.341071,5995.668130,-6809.894666,-2221.676944
565.341394,5403.503377,-9474.636058,-2298.286494
565.341716,1628.453072,-11399.171507,-2834.553343
565.342039,-1554.432478,-14137.933492,-1685.410096
565.342361,-2812.782580,-15396.283594,-459.657299
565.342684,-2738.761985,-13619.789333,-2221.676944
565.343006,-2960.823768,-11251.130318,-3524.039291
565.343328,-3552.988522,-7846.182985,-3907.087040
565.343651,-2368.659014,-7698.141797,-3064.381992
565.343973,-1110.308913,-7846.182985,-2604.724693
565.344296,-962.267725,-10881.027347,-1762.019645
565.344618,-2220.617826,-10214.842000,-306.438199
565.344941,-1628.453072,-8512.368333,-1072.533697
565.345263,518.144159,-7328.038826,-2374.896044
565.345586,2368.659014,-6291.750507,-2298.286494
565.345908,2368.659014,-4515.256246,-612.876398
565.346231,2220.617826,-4959.379811,459.657299
565.346553,1702.473667,-7031.956449,0.000000
565.346875,0.000000,-8660.409521,-306.438199
565.347198,-2590.720797,-10510.924376,0.000000
565.347520,-3108.864956,-10955.047942,0.000000
565.347843,-2812.782580,-10288.862594,-2068.457845
565.348165,-962.267725,-9622.677246,-2298.286494
565.348488,1036.288319,-9622.677246,229.828649
565.348810,2442.679609,-8290.306550,2068.457845
565.349133,3256.906145,-6883.915261,153.219100
565.349455,3108.864956,-7846.182985,-1915.238745
565.349778,2072.576638,-8734.430116,-1991.848295
565.350100,518.144159,-7476.080014,-2068.457845
565.350422,-888.247130,-7698.141797,-3064.381992
565.350745,-1184.329507,-9400.615463,-2374.896044
565.351067,-1776.494261,-9622.677246,-2145.067394
565.351390,-3330.926739,-9548.656652,-1991.848295
565.351712,-6513.812290,-11251.130318,-2604.724693
565.352035,-8438.347739,-13323.706956,-2834.553343
565.352357,-8142.265362,-13101.645173,-4519.963438
565.352680,-4515.256246,-13619.789333,-5515.887586
565.353002,-2516.700203,-12435.459826,-2987.772442
565.353325,-740.205942,-9400.615463,-229.828649
565.353647,1480.411884,-6809.894666,-306.438199
565.353969,3182.885551,-8290.306550,-1378.971896
565.354292,4663.297435,-9918.759623,-2987.772442
565.354614,3182.885551,-9992.780217,-2911.162892
565.354937,2294.638420,-10362.883188,-2374.896044
565.355259,2220.617826,-10066.800811,0.000000
565.355582,2738.761985,-9252.574275,76.609550
565.355904,2368.659014,-8290.306550,-459.657299
565.356227,-148.041188,-9474.636058,-536.266849
565.356549,-3552.988522,-9992.780217,0.000000
565.356872,-3849.070898,-9918.759623,-919.314598
565.357194,-1332.370696,-10362.883188,-2604.724693
565.357516,296.082377,-8364.327145,-2451.505594
565.357839,2072.576638,-5329.482782,-919.314598
565.358161,3034.844362,-3849.070898,0.000000
565.358484,3478.967927,-6143.709319,459.657299
565.358806,1480.411884,-7846.182985,0.000000
565.359129,-2294.638420,-8734.430116,-2145.067394
565.359451,-4959.379811,-10658.965565,-2528.115143
565.359774,-3997.112087,-11251.130318,-2451.505594
565.360096,-2590.720797,-8660.409521,-3370.820191
565.360419,-1184.329507,-7698.141797,-3294.210641
565.360741,-1776.494261,-7624.121203,-1149.143247
565.361064,-518.144159,-8068.244768,76.609550
565.361386,-370.102971,-9326.594869,-2374.896044
565.361709,-888.247130,-12139.377449,-2068.457845
565.362031,-1480.411884,-11843.295072,-1915.238745
565.362354,0.000000,-9178.553681,-3600.648841
565.362676,3034.844362,-8586.388927,-3140.991542
565.362999,5847.626942,-7994.224174,0.000000
565.363321,6735.874072,-8142.265362,689.485948
565.363644,5551.544565,-8364.327145,0.000000
565.363966,3256.906145,-9474.636058,-766.095498
565.364289,0.000000,-11103.089130,-2145.067394
565.364611,-2368.659014,-12805.562797,-2834.553343
565.364934,-5033.400406,-12657.521608,-2528.115143
565.365256,-6661.853478,-10807.006753,-2911.162892
565.365578,-5329.482782,-9918.759623,-3140.991542
565.365901,-2886.803174,-11547.212695,-3064.381992
565.366223,-1628.453072,-11547.212695,-2451.505594
565.366546,-1480.411884,-10436.903782,-995.924147
565.366868,-148.041188,-8438.347739,-2145.067394
565.367191,1184.329507,-6809.894666,-3677.258390
565.367513,1184.329507,-5477.523971,-3677.258390
565.367836,0.000000,-5995.668130,-2681.334243
565.368158,-962.267725,-8142.265362,-1762.019645
565.368481,-1702.473667,-10066.800811,-536.266849
565.368803,-2146.597232,-11917.315666,-1762.019645
565.369126,-3552.988522,-13323.706956,-2145.067394
565.369448,-3997.112087,-13693.809927,-919.314598
565.369771,-3034.844362,-10658.965565,-1149.143247
565.370093,0.000000,-8142.265362,-1302.362347
565.370416,3330.926739,-5403.503377,-1149.143247
565.370738,4811.338623,-3701.029710,-766.095498
565.371061,4589.276840,-3923.091493,-536.266849
565.371383,3775.050304,-6735.874072,383.047749
565.371706,3108.864956,-9474.636058,-536.266849
565.372028,2368.659014,-10881.027347,-1532.190996
565.372351,2146.597232,-11399.171507,-1685.410096
565.372673,1776.494261,-10214.842000,-1455.581446
565.372996,740.205942,-8364.327145,-1378.971896
565.373318,-814.226536,-7772.162391,-1455.581446
565.373640,-3404.947333,-9400.615463,-2221.676944
565.373963,-6513.812290,-8364.327145,-3830.477490
565.374285,-6587.832884,-11991.336260,-5362.668486
565.374608,-5699.585753,-15544.324782,-3447.429741
565.374930,-4367.215058,-15026.180623,-1225.752797
565.375253,-3627.009116,-11029.068536,-766.095498
565.375575,-1036.288319,-8290.306550,-689.485948
565.375898,1258.350101,-7254.018232,-1225.752797
565.376220,1702.473667,-4219.173869,-1991.848295
565.376543,-222.061783,-3182.885551,-2911.162892
565.376865,-1184.329507,-6661.853478,-3140.991542
565.377188,-666.185348,-10066.800811,-842.705048
565.377510,518.144159,-11547.212695,-1608.800546
565.377833,518.144159,-13989.892304,-1685.410096
565.378155,74.020594,-15322.262999,-459.657299
565.378478,222.061783,-13767.830521,0.000000
565.378800,370.102971,-11991.336260,-689.485948
565.379123,1998.556043,-9844.739029,-459.657299
565.379445,2368.659014,-6143.709319,-1532.190996
565.379768,2664.741391,-4737.318029,-2298.286494
565.380090,3701.029710,-5625.565159,-842.705048
565.380413,3330.926739,-6735.874072,306.438199
565.380735,1036.288319,-7994.224174,612.876398
565.381058,-444.123565,-9252.574275,459.657299
565.381380,-1110.308913,-9474.636058,-383.047749
565.381702,-1776.494261,-8808.450710,-2834.553343
565.382025,-3034.844362,-9622.677246,-3294.210641
565.382347,-5181.441594,-10510.924376,-612.876398
565.382670,-5477.523971,-9400.615463,-995.924147
565.382992,-3849.070898,-9622.677246,-2221.676944
565.383315,-2294.638420,-10658.965565,-3217.601092
565.383637,-1258.350101,-10140.821405,-2298.286494
565.383960,-296.082377,-8290.306550,-1991.848295
565.384282,1406.391290,-8142.265362,-1608.800546
565.384605,2590.720797,-9030.512492,-1608.800546
565.384927,2368.659014,-8734.430116,-1225.752797
565.385250,370.102971,-8882.471304,-536.266849
565.385572,-962.267725,-9622.677246,-536.266849
565.385895,-814.226536,-9252.574275,-2068.457845
565.386217,-740.205942,-9030.512492,-3217.601092
565.386540,-2072.576638,-10955.047942,-1302.362347
565.386862,-3701.029710,-11547.212695,1072.533697
565.387185,-3923.091493,-10436.903782,153.219100
565.387507,-2220.617826,-10214.842000,-2221.676944
565.387830,-814.226536,-11029.068536,-3600.648841
565.388152,-962.267725,-8512.368333,-2757.943793
565.388475,-370.102971,-6513.812290,-1685.410096
565.388797,1924.535449,-6587.832884,-1302.362347
565.389120,3701.029710,-7105.977043,-2374.896044
565.389442,3182.885551,-6957.935855,-2374.896044
565.389765,814.226536,-8956.491898,-2298.286494
565.390087,-740.205942,-10510.924376,-2145.067394
565.390409,-1406.391290,-11251.130318,-2604.724693
565.390732,-2072.576638,-11843.295072,-2757.943793
565.391054,-2368.659014,-11991.336260,-2298.286494
565.391377,-2812.782580,-9252.574275,-2221.676944
565.391699,-962.267725,-7772.162391,-2221.676944
565.392022,1702.473667,-8660.409521,-2451.505594
565.392344,2738.761985,-8438.347739,-2145.067394
565.392667,2812.782580,-7254.018232,-1685.410096
565.392989,2368.659014,-8290.306550,-1378.971896
565.393312,2664.741391,-9844.739029,-612.876398
565.393634,2960.823768,-10362.883188,-995.924147
565.393957,2368.659014,-9696.697840,-1685.410096
565.394279,1702.473667,-9030.512492,-2451.505594
565.394602,1776.494261,-8660.409521,-2451.505594
565.394924,888.247130,-8808.450710,-2068.457845
565.395247,-1258.350101,-10436.903782,-1685.410096
565.395569,-4071.132681,-11769.274478,-2221.676944
565.395892,-6069.688724,-11695.253884,-2757.943793
565.396214,-5995.668130,-13915.871710,-2528.115143
565.396537,-4515.256246,-14582.057057,-1302.362347
565.396859,-3330.926739,-11251.130318,-766.095498
565.397182,-1702.473667,-6217.729913,-1838.629195
565.397504,592.164754,-4071.132681,-1991.848295
565.397827,2294.638420,-3108.864956,-1762.019645
565.398149,814.226536,-4515.256246,-1915.238745
565.398471,-1924.535449,-8438.347739,-1991.848295
565.398794,-3997.112087,-12583.501014,-919.314598
565.399116,-4071.132681,-13915.871710,-1225.752797
565.399439,-3923.091493,-12879.583391,-1378.971896
565.399761,-3552.988522,-11547.212695,-1072.533697
565.400084,-1702.473667,-10214.842000,-229.828649
565.400406,444.123565,-8216.285956,229.828649
565.400729,3034.844362,-8512.368333,995.924147
565.401051,2516.700203,-7846.182985,536.266849
565.401374,1332.370696,-6291.750507,153.219100
565.401696,2072.576638,-6291.750507,76.609550
565.402019,3849.070898,-6439.791695,612.876398
565.402341,3849.070898,-8142.265362,306.438199
565.402664,2960.823768,-9622.677246,2145.067394
565.402986,2738.761985,-9844.739029,2757.943793
565.403309,2368.659014,-8068.244768,383.047749
565.403631,962.267725,-7624.121203,-3217.601092
565.403954,-1628.453072,-9104.533087,-2528.115143
565.404276,-3256.906145,-9696.697840,-1608.800546
565.404599,-3775.050304,-9178.553681,-2451.505594
565.404921,-3108.864956,-11473.192101,-2604.724693
565.405244,-3034.844362,-13101.645173,-1455.581446
565.405566,-3108.864956,-11695.253884,-1455.581446
565.405889,-3108.864956,-9178.553681,-2911.162892
565.406211,-1702.473667,-9030.512492,-4060.306139
565.406533,-518.144159,-9400.615463,-3064.381992
565.406856,-370.102971,-8216.285956,-1302.362347
565.407178,-1184.329507,-8216.285956,-995.924147
565.407501,-2220.617826,-8660.409521,-1455.581446
565.407823,-1628.453072,-8956.491898,-1532.190996
565.408146,-370.102971,-9030.512492,-1838.629195
565.408468,-1184.329507,-9548.656652,-2145.067394
565.408791,-1480.411884,-11621.233289,-1532.190996
565.409113,-518.144159,-13471.748144,-153.219100
565.409436,740.205942,-13989.892304,-842.705048
565.409758,1628.453072,-12065.356855,-1991.848295
565.410081,2072.576638,-7772.162391,-2221.676944
565.410403,3478.967927,-5699.585753,-3064.381992
565.410726,4515.256246,-4441.235652,-2528.115143
565.411048,3552.988522,-5551.544565,-1302.362347
565.411371,1332.370696,-7698.141797,-459.657299
565.411693,-666.185348,-10066.800811,-1225.752797
565.412016,-2368.659014,-12287.418637,-1915.238745
565.412338,-3775.050304,-12805.562797,-3064.381992
565.412661,-4515.256246,-10658.965565,-3447.429741
565.412983,-4219.173869,-8586.388927,-2757.943793
565.413306,-1554.432478,-7550.100608,-1762.019645
565.413628,222.061783,-6439.791695,-1532.190996
565.413951,222.061783,-6365.771101,-1685.410096
565.414273,-1110.308913,-6513.812290,-1838.629195
565.414595,-2072.576638,-7328.038826,-2528.115143
565.414918,-1702.473667,-10658.965565,-2528.115143
565.415240,-888.247130,-10807.006753,-1915.238745
565.415563,148.041188,-9252.574275,-919.314598
565.415885,1628.453072,-8882.471304,-612.876398
565.416208,3923.091493,-9030.512492,-1608.800546
565.416530,4885.359217,-8142.265362,-2987.772442
565.416853,3627.009116,-8438.347739,-2987.772442
565.417175,1184.329507,-10140.821405,-1915.238745
565.417498,-666.185348,-11621.233289,-1838.629195
565.417820,-1110.308913,-13101.645173,-1378.971896
565.418143,-518.144159,-13619.789333,-383.047749
565.418465,-518.144159,-11325.150913,-383.047749
565.418788,-1036.288319,-8438.347739,-995.924147
565.419110,0.000000,-7994.224174,-919.314598
565.419433,518.144159,-6883.915261,-1072.533697
565.419755,-592.164754,-5329.482782,-2374.896044
565.420078,-1480.411884,-7179.997637,-1991.848295
565.420400,-2590.720797,-9548.656652,-1072.533697
565.420723,-3478.967927,-11029.068536,-2987.772442
565.421045,-4515.256246,-13101.645173,-2604.724693
565.421368,-5477.523971,-14434.015869,-919.314598
565.421690,-5329.482782,-12805.562797,-536.266849
565.422013,-2886.803174,-10658.965565,-1378.971896
565.422335,0.000000,-10140.821405,-2068.457845
565.422658,1850.514855,-8808.450710,-1149.143247
565.422980,2368.659014,-7550.100608,0.000000
565.423302,3182.885551,-7179.997637,459.657299
565.423625,3108.864956,-7254.018232,0.000000
565.423947,2442.679609,-7402.059420,-306.438199
565.424270,740.205942,-9104.533087,383.047749
565.424592,666.185348,-10510.924376,919.314598
565.424915,0.000000,-10066.800811,76.609550
565.425237,444.123565,-9474.636058,153.219100
565.425560,0.000000,-7846.182985,306.438199
565.425882,-1036.288319,-7624.121203,-919.314598
565.426205,-1998.556043,-6661.853478,-1685.410096
565.426527,-1554.432478,-8438.347739,-2911.162892
565.426850,-1332.370696,-10732.986159,-2681.334243
565.427172,-1702.473667,-10584.944971,-919.314598
565.427495,-962.267725,-9696.697840,-1838.629195
565.427817,0.000000,-9400.615463,-3064.381992
565.428140,592.164754,-9992.780217,-3217.601092
565.428462,-296.082377,-8586.388927,-1608.800546
565.428785,-1924.535449,-7846.182985,-1072.533697
565.429107,-2664.741391,-8512.368333,-2451.505594
565.429430,-3552.988522,-9474.636058,-2757.943793
565.429752,-3775.050304,-9992.780217,-2451.505594
565.430075,-4293.194464,-9770.718434,-1685.410096
565.430397,-3404.947333,-9400.615463,-1762.019645
565.430720,-1258.350101,-9622.677246,-1915.238745
565.431042,1036.288319,-10658.965565,-612.876398
565.431364,2072.576638,-10214.842000,459.657299
565.431687,2516.700203,-8364.327145,-306.438199
565.432009,3404.947333,-7105.977043,-2757.943793
565.432332,5033.400406,-7179.997637,-3370.820191
565.432654,4737.318029,-7846.182985,-2451.505594
565.432977,3182.885551,-8660.409521,-1685.410096
565.433299,1406.391290,-10881.027347,-1685.410096
565.433622,0.000000,-13249.686362,-1915.238745
565.433944,-962.267725,-13545.768739,-1762.019645
565.434267,-2368.659014,-12509.480420,-1991.848295
565.434589,-4145.153275,-11251.130318,-2911.162892
565.434912,-3627.009116,-9178.553681,-2834.553343
565.435234,-1480.411884,-8956.491898,-2834.553343
565.435557,-444.123565,-8512.368333,-1455.581446
565.435879,-370.102971,-7402.059420,459.657299
565.436202,0.000000,-5773.606348,-383.047749
565.436524,592.164754,-7179.997637,-2374.896044
565.436847,518.144159,-9104.533087,-2451.505594
565.437169,0.000000,-9104.533087,-2221.676944
565.437492,-1184.329507,-8216.285956,-2068.457845
565.437814,-1110.308913,-9178.553681,-1455.581446
565.438137,-888.247130,-9622.677246,-1302.362347
565.438459,-2812.782580,-9104.533087,-2451.505594
565.438782,-4145.153275,-10066.800811,-1762.019645
565.439104,-4293.194464,-9844.739029,-1378.971896
565.439426,-2146.597232,-10658.965565,-3370.820191
565.439749,0.000000,-11325.150913,-3294.210641
565.440071,1406.391290,-10584.944971,-689.485948
565.440394,1554.432478,-9030.512492,689.485948
565.440716,2738.761985,-8586.388927,153.219100
565.441039,3256.906145,-9548.656652,-612.876398
565.441361,2368.659014,-8364.327145,-1455.581446
565.441684,0.000000,-6513.812290,-1378.971896
565.442006,296.082377,-7105.977043,-1149.143247
565.442329,1554.432478,-8956.491898,-1225.752797
565.442651,814.226536,-9474.636058,-842.705048
565.442974,-1184.329507,-9104.533087,-383.047749
565.443296,-3404.947333,-10140.821405,229.828649
565.443619,-2590.720797,-12213.398043,-1532.190996
565.443941,-1184.329507,-12435.459826,-4060.306139
565.444264,-518.144159,-10436.903782,-3140.991542
565.444586,0.000000,-7920.203579,-1532.190996
565.444909,1184.329507,-6809.894666,-2068.457845
565.445231,2294.638420,-8734.430116,-2298.286494
565.445554,2294.638420,-10807.006753,-1915.238745
565.445876,-370.102971,-11103.089130,-3064.381992
565.446199,-3404.947333,-11473.192101,-3447.429741
565.446521,-3849.070898,-11399.171507,-2757.943793
565.446844,-2294.638420,-10807.006753,-2911.162892
565.447166,-1628.453072,-9400.615463,-2604.724693
565.447489,-2368.659014,-8808.450710,-766.095498
565.447811,-3034.844362,-8586.388927,919.314598
565.448133,-1850.514855,-9326.594869,-689.485948
565.448456,-444.123565,-9918.759623,-1991.848295
565.448778,296.082377,-9548.656652,-1608.800546
565.449101,1480.411884,-6735.874072,153.219100
565.449423,4071.132681,-4737.318029,995.924147
565.449746,5847.626942,-5551.544565,153.219100
565.450068,5329.482782,-6439.791695,689.485948
565.450391,1702.473667,-7105.977043,766.095498
565.450713,-1554.432478,-8068.244768,0.000000
565.451036,-3108.864956,-9770.718434,-1225.752797
565.451358,-3034.844362,-10140.821405,-2298.286494
565.451681,-4219.173869,-9252.574275,-3140.991542
565.452003,-4515.256246,-9252.574275,-1991.848295
565.452326,-4515.256246,-10066.800811,-1149.143247
565.452648,-3775.050304,-11251.130318,-2374.896044
565.452971,-3182.885551,-11251.130318,-2145.067394
565.453293,-2072.576638,-9918.759623,-1762.019645
565.453616,-592.164754,-7550.100608,-3217.601092
565.453938,2294.638420,-6809.894666,-4673.182538
565.454261,3404.947333,-8734.430116,-2451.505594
565.454583,3108.864956,-10362.883188,0.000000
565.454906,2442.679609,-11103.089130,-612.876398
565.455228,1110.308913,-11621.233289,-1378.971896
565.455551,74.020594,-12287.418637,-1915.238745
565.455873,-666.185348,-11695.253884,-1685.410096
565.456195,-1480.411884,-9326.594869,-1762.019645
565.456518,-1258.350101,-8142.265362,-2757.943793
565.456840,-296.082377,-9400.615463,-2451.505594
565.457163,370.102971,-11621.233289,-1915.238745
565.457485,-888.247130,-12065.356855,-229.828649
565.457808,-1406.391290,-11177.109724,-842.705048
565.458130,444.123565,-10288.862594,-3983.696590
565.458453,1776.494261,-9326.594869,-4903.011187
565.458775,2146.597232,-7402.059420,-2987.772442
565.459097,1332.370696,-6809.894666,-1915.238745
565.459420,-370.102971,-8734.430116,-2911.162892
565.459742,-2664.741391,-11103.089130,-2757.943793
565.460064,-5477.523971,-11991.336260,-1685.410096
565.460387,-7254.018232,-10510.924376,-2145.067394
565.460709,-7105.977043,-8882.471304,-3447.429741
565.461032,-4885.359217,-8068.244768,-2757.943793
565.461354,-1924.535449,-7402.059420,-919.314598
565.461676,592.164754,-6883.915261,842.705048
565.461999,2220.617826,-5107.421000,919.314598
565.462321,3256.906145,-4145.153275,-1532.190996
565.462643,4737.318029,-7105.977043,-2757.943793
565.462966,3923.091493,-9326.594869,-2681.334243
565.463288,1850.514855,-9770.718434,-1455.581446
565.463610,962.267725,-11029.068536,-612.876398
565.463933,2072.576638,-11917.315666,-306.438199
565.464255,1924.535449,-10214.842000,-1302.362347
565.464578,-370.102971,-7105.977043,-2681.334243
565.464900,-1702.473667,-8808.450710,-3140.991542
565.465222,-2812.782580,-8956.491898,-2757.943793
565.465545,-1406.391290,-9992.780217,-3447.429741
565.465867,-666.185348,-11769.274478,-2757.943793
565.466189,0.000000,-12065.356855,-1149.143247
565.466512,-222.061783,-8660.409521,0.000000
565.466834,888.247130,-8290.306550,-459.657299
565.467156,1850.514855,-11547.212695,-995.924147
565.467479,1110.308913,-9030.512492,-2145.067394
565.467801,-1480.411884,-5847.626942,-2528.115143
565.468124,-1554.432478,-7994.224174,-1915.238745
565.468446,-370.102971,-10066.800811,-1838.629195
565.468768,-1332.370696,-9770.718434,-1915.238745
565.469091,-3256.906145,-11325.150913,-1378.971896
565.469413,-4441.235652,-12435.459826,-1072.533697
565.469735,-4441.235652,-12657.521608,-2451.505594
565.470058,-2886.803174,-13249.686362,-3447.429741
565.470380,-1702.473667,-11769.274478,-2221.676944
565.470702,-1332.370696,-8438.347739,383.047749
565.471025,518.144159,-4959.379811,766.095498
565.471347,3034.844362,-5107.421000,-1378.971896
565.471670,3775.050304,-6217.729913,-1991.848295
565.471992,2516.700203,-7550.100608,-612.876398
565.472314,1332.370696,-9178.553681,919.314598
565.472637,0.000000,-11177.109724,919.314598
565.472959,-444.123565,-12065.356855,766.095498
565.473281,-444.123565,-10214.842000,536.266849
565.473604,-1628.453072,-7624.121203,-842.705048
565.473926,-2294.638420,-7698.141797,-1302.362347
565.474248,-1776.494261,-7624.121203,-229.828649
565.474571,0.000000,-8068.244768,-229.828649
565.474893,2294.638420,-8956.491898,0.000000
565.475216,2738.761985,-9030.512492,-842.705048
565.475538,2220.617826,-9252.574275,-1149.143247
565.475860,1554.432478,-10140.821405,-153.219100
565.476183,1406.391290,-9770.718434,-766.095498
565.476505,444.123565,-8438.347739,-2068.457845
565.476827,0.000000,-9474.636058,-2451.505594
565.477150,-962.267725,-9844.739029,-1608.800546
565.477472,-2886.803174,-8438.347739,-1532.190996
565.477794,-4737.318029,-8660.409521,-1532.190996
565.478117,-5699.585753,-10214.842000,-1762.019645
565.478439,-5181.441594,-10436.903782,-2911.162892
565.478761,-4885.359217,-10955.047942,-3830.477490
565.479084,-4367.215058,-11177.109724,-2145.067394
565.479406,-3404.947333,-9030.512492,-919.314598
565.479729,-740.205942,-6809.894666,-2911.162892
565.480051,1776.494261,-7179.997637,-4903.011187
565.480373,2516.700203,-8956.491898,-4903.011187
565.480696,1554.432478,-9030.512492,-3140.991542
565.481018,1850.514855,-10140.821405,-1608.800546
565.481340,1702.473667,-11843.295072,-1915.238745
565.481663,1554.432478,-12361.439231,-3217.601092
565.481985,0.000000,-10362.883188,-2987.772442
565.482307,-2220.617826,-8586.388927,-1991.848295
565.482630,-2812.782580,-8438.347739,-2145.067394
565.482952,-1554.432478,-10066.800811,-2221.676944
565.483275,-296.082377,-10955.047942,-1302.362347
565.483597,592.164754,-9252.574275,-919.314598
565.483919,2220.617826,-7179.997637,-1991.848295
565.484242,4663.297435,-7476.080014,-2451.505594
565.484564,6069.688724,-8512.368333,-2221.676944
565.484886,4589.276840,-8068.244768,-1378.971896
565.485209,1110.308913,-9104.533087,-1838.629195
565.485531,-962.267725,-11473.192101,-2221.676944
565.485853,-1332.370696,-11251.130318,-3064.381992
565.486176,-1628.453072,-8808.450710,-5132.839837
565.486498,-2664.741391,-8438.347739,-5822.325785
565.486821,-4367.215058,-10436.903782,-3064.381992
565.487143,-5773.606348,-10214.842000,-459.657299
565.487465,-5625.565159,-12435.459826,-153.219100
565.487788,-4959.379811,-12657.521608,-459.657299
565.488110,-4367.215058,-9178.553681,-2451.505594
565.488432,-2368.659014,-5477.523971,-3217.601092
565.488755,296.082377,-5625.565159,-1225.752797
565.489077,2590.720797,-6661.853478,1608.800546
565.489399,3997.112087,-5921.647536,2068.457845
565.489722,3627.009116,-6069.688724,1455.581446
565.490044,3256.906145,-8438.347739,612.876398
565.490367,2294.638420,-9252.574275,-1225.752797
565.490689,0.000000,-10510.924376,-1991.848295
565.491011,-2590.720797,-11177.109724,-383.047749
565.491334,-2812.782580,-12213.398043,766.095498
565.491656,-1702.473667,-11843.295072,-536.266849
565.491978,-222.061783,-9844.739029,-1072.533697
565.492301,444.123565,-7846.182985,-1915.238745
565.492623,1036.288319,-7105.977043,-3217.601092
565.492945,2294.638420,-7994.224174,-3524.039291
565.493268,2368.659014,-9548.656652,-2145.067394
565.493590,370.102971,-10066.800811,-842.705048
565.493913,-1406.391290,-10881.027347,-995.924147
565.494235,-2516.700203,-11769.274478,-1838.629195
565.494557,-2442.679609,-11843.295072,-2221.676944
565.494880,-2368.659014,-10881.027347,-2374.896044
565.495202,-2738.761985,-9474.636058,-2451.505594
565.495524,-2368.659014,-8956.491898,-1915.238745
565.495847,-1776.494261,-8364.327145,-306.438199
565.496169,-1480.411884,-9474.636058,-1149.143247
565.496491,-1554.432478,-11621.233289,-689.485948
565.496814,-1480.411884,-11029.068536,-383.047749
565.497136,-518.144159,-9844.739029,-1149.143247
565.497459,1998.556043,-7624.121203,-1915.238745
565.497781,4219.173869,-6883.915261,-1072.533697
565.498103,4663.297435,-5625.565159,-383.047749
565.498426,3775.050304,-5921.647536,-842.705048
565.498748,1554.432478,-7994.224174,-1149.143247
565.499070,-962.267725,-11251.130318,-1532.190996
565.499393,-3552.988522,-12583.501014,-2757.943793
565.499715,-5551.544565,-12583.501014,-3370.820191
565.500037,-5921.647536,-11325.150913,-2451.505594
565.500360,-3034.844362,-9326.594869,-2528.115143
565.500682,-296.082377,-8660.409521,-3600.648841
565.501005,74.020594,-8512.368333,-1225.752797
565.501327,-222.061783,-6661.853478,536.266849
565.501649,444.123565,-5477.523971,-1685.410096
565.501972,1258.350101,-6069.688724,-4136.915689
565.502294,1554.432478,-7179.997637,-3140.991542
565.502616,666.185348,-7698.141797,-1991.848295
565.502939,962.267725,-9104.533087,-766.095498
565.503261,2368.659014,-10066.800811,0.000000
565.503583,2886.803174,-10955.047942,-2528.115143
565.503906,2072.576638,-12287.418637,-4136.915689
565.504228,-296.082377,-12953.603985,-1915.238745
565.504551,-1702.473667,-11325.150913,-995.924147
565.504873,-814.226536,-10436.903782,-2374.896044
565.505195,444.123565,-10658.965565,-2681.334243
565.505518,1258.350101,-8734.430116,-1762.019645
565.505840,740.205942,-6661.853478,-1838.629195
565.506162,0.000000,-7772.162391,-1378.971896
565.506485,-1110.308913,-10658.965565,-383.047749
565.506807,-2590.720797,-11695.253884,-995.924147
565.507129,-4293.194464,-10288.862594,-2374.896044
565.507452,-4737.318029,-10140.821405,-2528.115143
565.507774,-2960.823768,-9548.656652,-1991.848295
565.508097,-2368.659014,-8068.244768,-2757.943793
565.508419,-3404.947333,-7698.141797,-2911.162892
565.508741,-4515.256246,-9400.615463,-1378.971896
565.509064,-4441.235652,-11399.171507,-536.266849
565.509386,-2516.700203,-13693.809927,-1532.190996
565.509708,-962.267725,-13101.645173,-1762.019645
565.510031,592.164754,-10436.903782,-1991.848295
565.510353,2738.761985,-8438.347739,-1225.752797
565.510675,4219.173869,-6735.874072,1762.019645
565.510998,4885.359217,-5403.503377,1991.848295
565.511320,3701.029710,-5403.503377,-612.876398
565.511643,1998.556043,-6809.894666,-1532.190996
565.511965,518.144159,-8438.347739,229.828649
565.512287,-370.102971,-9548.656652,1532.190996
565.512610,-962.267725,-9622.677246,1149.143247
565.512932,-1998.556043,-9918.759623,459.657299
565.513254,-1850.514855,-9622.677246,76.609550
565.513577,-1480.411884,-9252.574275,-689.485948
565.513899,-1184.329507,-9326.594869,-459.657299
565.514221,-1110.308913,-7550.100608,-1072.533697
565.514544,0.000000,-6143.709319,-2911.162892
565.514866,814.226536,-6809.894666,-3907.087040
565.515189,1036.288319,-8734.430116,-1302.362347
565.515511,0.000000,-9104.533087,0.000000
565.515833,-1406.391290,-9918.759623,-1838.629195
565.516156,-2516.700203,-11695.253884,-2145.067394
565.516478,-2368.659014,-11769.274478,-1532.190996
565.516800,-1628.453072,-11029.068536,-2757.943793
565.517123,-1702.473667,-10732.986159,-3370.820191
565.517445,-1776.494261,-9400.615463,-1225.752797
565.517767,-370.102971,-8734.430116,-229.828649
565.518090,740.205942,-9474.636058,-1072.533697
565.518412,1184.329507,-9918.759623,-1991.848295
565.518735,1258.350101,-9474.636058,-2451.505594
565.519057,1998.556043,-8808.450710,-3677.258390
565.519379,3108.864956,-8956.491898,-3294.210641
565.519702,2812.782580,-10732.986159,-2145.067394
565.520024,1406.391290,-11399.171507,-1225.752797
565.520346,444.123565,-11177.109724,-1685.410096
565.520669,0.000000,-9770.718434,-3294.210641
565.520991,0.000000,-9992.780217,-4979.620737
565.521313,-1184.329507,-10214.842000,-4673.182538
565.521636,-2960.823768,-10807.006753,-1532.190996
565.521958,-4145.153275,-10288.862594,229.828649
565.522281,-2812.782580,-10362.883188,-766.095498
565.522603,-1702.473667,-10584.944971,-2451.505594
565.522925,-1480.411884,-8512.368333,-1915.238745
565.523248,-740.205942,-6439.791695,-1532.190996
565.523570,444.123565,-5847.626942,-1685.410096
565.523892,1702.473667,-7031.956449,-766.095498
565.524215,1628.453072,-7105.977043,459.657299
565.524537,0.000000,-6661.853478,306.438199
565.524859,0.000000,-7402.059420,-995.924147
565.525182,296.082377,-8660.409521,-2374.896044
565.525504,-222.061783,-9474.636058,-2681.334243
565.525827,-1628.453072,-10288.862594,-1608.800546
565.526149,-3182.885551,-10362.883188,0.000000
565.526471,-2738.761985,-11251.130318,-229.828649
565.526794,-1850.514855,-11325.150913,-1608.800546
565.527116,-1258.350101,-9918.759623,-2834.553343
565.527438,-962.267725,-7846.182985,-2757.943793
565.527761,370.102971,-7476.080014,-2068.457845
565.528083,1924.535449,-8364.327145,-995.924147
565.528405,1702.473667,-9252.574275,-536.266849
565.528728,-148.041188,-9992.780217,0.000000
565.529050,-1776.494261,-10214.842000,-1072.533697
565.529373,-1480.411884,-10362.883188,-2221.676944
565.529695,-814.226536,-10214.842000,-3370.820191
565.530017,-888.247130,-10510.924376,-3447.429741
565.530340,-2294.638420,-10807.006753,-842.705048
565.530662,-2516.700203,-11473.192101,612.876398
565.530984,-1332.370696,-11843.295072,76.609550
565.531307,74.020594,-10584.944971,-1302.362347
565.531629,1110.308913,-7624.121203,-2221.676944
565.531951,2442.679609,-5995.668130,-2834.553343
565.532274,2960.823768,-6883.915261,-2834.553343
565.532596,1998.556043,-9400.615463,383.047749
565.532919,-148.041188,-10584.944971,2068.457845
565.533241,-2368.659014,-11177.109724,-919.314598
565.533563,-3108.864956,-11103.089130,-2681.334243
565.533886,-2220.617826,-10658.965565,-2834.553343
565.534208,-1702.473667,-8068.244768,-2604.724693
565.534530,-1110.308913,-7105.977043,-1455.581446
565.534853,-962.267725,-7105.977043,689.485948
565.535175,-740.205942,-8290.306550,919.314598
565.535497,0.000000,-9474.636058,0.000000
565.535820,-148.041188,-9252.574275,-1302.362347
565.536142,370.102971,-8068.244768,-2757.943793
565.536465,2220.617826,-7846.182985,-3600.648841
565.536787,3775.050304,-9030.512492,-229.828649
565.537109,3182.885551,-9030.512492,1915.238745
565.537432,1406.391290,-8734.430116,995.924147
565.537754,0.000000,-8808.450710,-1838.629195
565.538076,-370.102971,-8586.388927,-3983.696590
565.538399,-1702.473667,-8438.347739,-5286.058936
565.538721,-3034.844362,-9474.636058,-3753.867940
565.539043,-4367.215058,-11769.274478,-1838.629195
565.539366,-4441.235652,-13101.645173,-229.828649
565.539688,-3627.009116,-13693.809927,-995.924147
565.540011,-2812.782580,-12435.459826,-2681.334243
565.540333,-1924.535449,-9104.533087,-4060.306139
565.540655,444.123565,-6143.709319,-5132.839837
565.540978,2516.700203,-5181.441594,-4213.525239
565.541300,3478.967927,-6217.729913,-995.924147
565.541622,2516.700203,-7550.100608,153.219100
565.541945,296.082377,-9696.697840,-1225.752797
565.542267,-1554.432478,-12879.583391,-2451.505594
565.542589,-2590.720797,-13471.748144,-2834.553343
565.542912,-2368.659014,-12287.418637,-3753.867940
565.543234,-1480.411884,-11621.233289,-2757.943793
565.543557,-370.102971,-9770.718434,153.219100
565.543879,1184.329507,-7624.121203,1532.190996
565.544201,2960.823768,-6439.791695,76.609550
565.544524,2886.803174,-5921.647536,-2068.457845
565.544846,3256.906145,-5625.565159,-4366.744339
565.545168,3478.967927,-6143.709319,-4903.011187
565.545491,3404.947333,-8290.306550,-2451.505594
565.545813,1628.453072,-10658.965565,153.219100
565.546135,-1036.288319,-11991.336260,229.828649
565.546458,-2738.761985,-12361.439231,-1608.800546
565.546780,-2886.803174,-10288.862594,-2987.772442
565.547103,-3701.029710,-6439.791695,-5669.106685
565.547425,-3330.926739,-5699.585753,-7201.297681
565.547747,-3478.967927,-7920.203579,-4213.525239
565.548070,-3997.112087,-9622.677246,153.219100
565.548392,-4515.256246,-11251.130318,612.876398
565.548714,-3330.926739,-13249.686362,-2221.676944
565.549037,-1850.514855,-11843.295072,-4903.011187
565.549359,0.000000,-7698.141797,-4903.011187
565.549681,2812.782580,-5329.482782,-3677.258390
565.550004,5181.441594,-5699.585753,-1608.800546
565.550326,4737.318029,-5847.626942,229.828649
565.550649,2738.761985,-7550.100608,-842.705048
565.550971,74.020594,-10140.821405,-2834.553343
565.551293,-962.267725,-12509.480420,-5515.887586
565.551616,-1554.432478,-12805.562797,-5898.935335
565.551938,-1406.391290,-11843.295072,-4673.182538
565.552260,-592.164754,-11621.233289,-3370.820191
565.552583,-518.144159,-10584.944971,-1225.752797
565.552905,-962.267725,-10436.903782,-153.219100
565.553227,-962.267725,-11325.150913,-2681.334243
565.553550,-592.164754,-10510.924376,-5822.325785
565.553872,740.205942,-7698.141797,-6281.983084
565.554195,2368.659014,-6291.750507,-4826.401637
565.554517,3256.906145,-7105.977043,-1225.752797
565.554839,2146.597232,-6809.894666,1225.752797
565.555162,-666.185348,-6809.894666,0.000000
565.555484,-3034.844362,-8438.347739,-4673.182538
565.555806,-4367.215058,-9252.574275,-6511.811733
565.556129,-4885.359217,-8660.409521,-6205.373534
565.556451,-3849.070898,-7105.977043,-5745.716235
565.556773,-2516.700203,-7254.018232,-4826.401637
565.557096,-1480.411884,-8734.430116,-2374.896044
565.557418,-2812.782580,-9770.718434,-995.924147
565.557741,-3701.029710,-12361.439231,-3447.429741
565.558063,-2146.597232,-14063.912898,-5745.716235
565.558385,888.247130,-11399.171507,-6205.373534
565.558708,4737.318029,-7105.977043,-4749.792088
565.559030,7698.141797,-4811.338623,-2834.553343
565.559352,8586.388927,-5181.441594,689.485948
565.559675,6439.791695,-6217.729913,2145.067394
565.559997,1258.350101,-7031.956449,-229.828649
565.560320,-2516.700203,-8956.491898,-5286.058936
565.560642,-3256.906145,-10510.924376,-8503.660028
565.560964,-2516.700203,-9474.636058,-6741.640382
565.561287,-2146.597232,-8734.430116,-3677.258390
565.561609,-814.226536,-9474.636058,-1838.629195
565.561932,-1554.432478,-10214.842000,-1378.971896
565.562254,-4145.153275,-11991.336260,-2604.724693
565.562576,-6069.688724,-13545.768739,-5439.278036
565.562899,-4663.297435,-13027.624579,-7124.688131
565.563221,-740.205942,-10436.903782,-8273.831378
565.563543,3552.988522,-7476.080014,-6665.030833
565.563866,6513.812290,-8142.265362,-2221.676944
565.564188,7772.162391,-8882.471304,1149.143247
565.564511,3552.988522,-8586.388927,689.485948
565.564833,-1998.556043,-9030.512492,-2298.286494
565.565155,-6217.729913,-8882.471304,-5209.449386
565.565478,-6143.709319,-8438.347739,-9959.241474
565.565800,-3552.988522,-8068.244768,-9806.022374
565.566123,-2516.700203,-8808.450710,-3753.867940
565.566445,-1406.391290,-10066.800811,1762.019645
565.566767,-962.267725,-11399.171507,153.219100
565.567090,-1332.370696,-12509.480420,-3524.039291
565.567412,-2886.803174,-14508.036463,-4979.620737
565.567734,-2664.741391,-13471.748144,-4519.963438
565.568057,888.247130,-9400.615463,-5439.278036
565.568379,7031.956449,-6883.915261,-5056.230287
565.568702,11177.109724,-5773.606348,-689.485948
565.569024,11029.068536,-5403.503377,2834.553343
565.569346,7550.100608,-5255.462188,2911.162892
565.569669,2812.782580,-6661.853478,-995.924147
565.569991,-1036.288319,-8512.368333,-5439.278036
565.570314,-4811.338623,-9104.533087,-6205.373534
565.570636,-7031.956449,-7846.182985,-3907.087040
