#time,accel_x,accel_y,accel_z
417.919322,0.000000,-9104.533087,-1991.848295
417.919645,-518.144159,-9548.656652,-1378.971896
417.919968,-740.205942,-9622.677246,-1455.581446
417.920290,-518.144159,-9622.677246,-1378.971896
417.920613,-518.144159,-9770.718434,-1302.362347
417.920936,0.000000,-9770.718434,-1685.410096
417.921258,0.000000,-9104.533087,-1378.971896
417.921581,-296.082377,-9030.512492,-1685.410096
417.921904,-222.061783,-9178.553681,-1838.629195
417.922226,-148.041188,-9474.636058,-1838.629195
417.922549,-370.102971,-9474.636058,-1608.800546
417.922872,-370.102971,-9696.697840,-1225.752797
417.923194,-296.082377,-9548.656652,-1378.971896
417.923517,-592.164754,-9474.636058,-1378.971896
417.923839,-370.102971,-9252.574275,-1685.410096
417.924162,-296.082377,-8956.491898,-1762.019645
417.924485,-370.102971,-8512.368333,-1608.800546
417.924807,-370.102971,-8956.491898,-1685.410096
417.925130,-666.185348,-9474.636058,-1608.800546
417.925453,-444.123565,-9548.656652,-1532.190996
417.925775,-444.123565,-9770.718434,-1685.410096
417.926098,-666.185348,-9400.615463,-1608.800546
417.926421,-296.082377,-8882.471304,-1608.800546
417.926743,-370.102971,-9400.615463,-1608.800546
417.927066,-296.082377,-9030.512492,-1762.019645
417.927389,-222.061783,-9104.533087,-1685.410096
417.927711,-592.164754,-9326.594869,-1762.019645
417.928034,-370.102971,-9622.677246,-1378.971896
417.928357,-592.164754,-9622.677246,-1608.800546
417.928679,-666.185348,-9622.677246,-1608.800546
417.929002,-370.102971,-9400.615463,-1532.190996
417.929325,-370.102971,-8956.491898,-1608.800546
417.929647,222.061783,-9326.594869,-1225.752797
417.929970,0.000000,-9030.512492,-1532.190996
417.930292,-444.123565,-9474.636058,-1455.581446
417.930615,-444.123565,-9548.656652,-1608.800546
417.930938,-592.164754,-9622.677246,-1378.971896
417.931260,-370.102971,-9474.636058,-1532.190996
417.931583,-814.226536,-9326.594869,-919.314598
417.931906,0.000000,-9548.656652,-1455.581446
417.932228,-148.041188,-8956.491898,-1608.800546
417.932551,-296.082377,-9030.512492,-1608.800546
417.932874,-370.102971,-9178.553681,-1685.410096
417.933196,-296.082377,-9178.553681,-1455.581446
417.933519,-592.164754,-9548.656652,-1532.190996
417.933842,-518.144159,-9696.697840,-1378.971896
417.934164,-444.123565,-9622.677246,-1378.971896
417.934487,-444.123565,-9400.615463,-1149.143247
417.934810,-370.102971,-9178.553681,-1532.190996
417.935132,-148.041188,-8808.450710,-1532.190996
417.935455,-296.082377,-9252.574275,-1532.190996
417.935777,-518.144159,-9326.594869,-1608.800546
417.936100,-592.164754,-9696.697840,-1455.581446
417.936423,-740.205942,-9622.677246,-1225.752797
417.936745,0.000000,-9770.718434,-1455.581446
417.937068,-370.102971,-9252.574275,-1685.410096
417.937391,-148.041188,-9178.553681,-1685.410096
417.937713,-296.082377,-9030.512492,-1685.410096
417.938036,-296.082377,-9104.533087,-1608.800546
417.938359,-370.102971,-9178.553681,-1225.752797
417.938681,-518.144159,-9030.512492,-2145.067394
417.939004,-370.102971,-9844.739029,-1762.019645
417.939327,-518.144159,-9548.656652,-1532.190996
417.939649,-518.144159,-9326.594869,-1378.971896
417.939972,222.061783,-9104.533087,-1762.019645
417.940295,1702.473667,-9030.512492,-1762.019645
417.940617,2664.741391,-9474.636058,-1685.410096
417.940940,2368.659014,-9178.553681,-536.266849
417.941263,1258.350101,-8734.430116,-153.219100
417.941585,518.144159,-9104.533087,-1532.190996
417.941908,-518.144159,-9474.636058,-2451.505594
417.942230,-1850.514855,-9844.739029,-2681.334243
417.942553,-3404.947333,-9696.697840,-1991.848295
417.942876,-4145.153275,-9326.594869,-2374.896044
417.943198,-2738.761985,-8808.450710,-2834.553343
417.943521,148.041188,-10066.800811,-2528.115143
417.943844,2960.823768,-11399.171507,-1532.190996
417.944166,3256.906145,-10658.965565,0.000000
417.944489,2368.659014,-9178.553681,459.657299
417.944812,2220.617826,-8660.409521,-459.657299
417.945134,2590.720797,-9474.636058,-2145.067394
417.945457,2590.720797,-9252.574275,-2451.505594
417.945780,888.247130,-8364.327145,-1225.752797
417.946102,-370.102971,-7179.997637,-153.219100
417.946425,444.123565,-7550.100608,-1225.752797
417.946748,2146.597232,-9474.636058,-2911.162892
417.947070,1702.473667,-10658.965565,-1685.410096
417.947393,-814.226536,-9474.636058,153.219100
417.947716,-1702.473667,-9104.533087,-1225.752797
417.948038,-518.144159,-9326.594869,-4060.306139
417.948361,148.041188,-9548.656652,-3600.648841
417.948683,888.247130,-10881.027347,-1838.629195
417.949006,1184.329507,-9992.780217,-1762.019645
417.949329,2664.741391,-9474.636058,-2145.067394
417.949651,4219.173869,-10288.862594,-1378.971896
417.949974,4811.338623,-11621.233289,-306.438199
417.950297,3997.112087,-11399.171507,-306.438199
417.950619,2368.659014,-8808.450710,-459.657299
417.950942,2146.597232,-7624.121203,-995.924147
417.951265,2442.679609,-8068.244768,-1302.362347
417.951587,2664.741391,-7772.162391,-1302.362347
417.951910,1628.453072,-6883.915261,-995.924147
417.952233,1628.453072,-7846.182985,-383.047749
417.952555,2368.659014,-10140.821405,-383.047749
417.952878,2664.741391,-10955.047942,-689.485948
417.953201,1850.514855,-10066.800811,-1532.190996
417.953523,1184.329507,-9918.759623,-2068.457845
417.953846,2072.576638,-10140.821405,-1378.971896
417.954169,3182.885551,-9622.677246,-1991.848295
417.954491,2368.659014,-8882.471304,-2374.896044
417.954814,2294.638420,-9696.697840,-2145.067394
417.955136,2886.803174,-10214.842000,-995.924147
417.955459,3330.926739,-10288.862594,-1225.752797
417.955782,3108.864956,-10288.862594,-2374.896044
417.956104,2220.617826,-9548.656652,-1378.971896
417.956427,1924.535449,-8734.430116,-536.266849
417.956750,1258.350101,-7105.977043,-919.314598
417.957072,370.102971,-7476.080014,-1762.019645
417.957395,0.000000,-8290.306550,-1991.848295
417.957718,-370.102971,-9326.594869,-919.314598
417.958040,-518.144159,-10362.883188,-689.485948
417.958363,0.000000,-11473.192101,-995.924147
417.958686,518.144159,-12065.356855,-766.095498
417.959008,1036.288319,-11325.150913,-306.438199
417.959331,1776.494261,-10436.903782,-689.485948
417.959654,1258.350101,-9178.553681,-1225.752797
417.959976,1554.432478,-8512.368333,-1762.019645
417.960299,1406.391290,-7846.182985,-1838.629195
417.960621,1110.308913,-8068.244768,-1302.362347
417.960944,962.267725,-8438.347739,-1608.800546
417.961267,1110.308913,-8364.327145,-1915.238745
417.961589,1258.350101,-8882.471304,-1685.410096
417.961912,1480.411884,-8438.347739,-1685.410096
417.962235,1776.494261,-7920.203579,-2528.115143
417.962557,1998.556043,-7772.162391,-2987.772442
417.962880,1702.473667,-8216.285956,-2451.505594
417.963203,1406.391290,-9252.574275,-1915.238745
417.963525,1406.391290,-10214.842000,-2068.457845
417.963848,1036.288319,-11251.130318,-2298.286494
417.964171,1110.308913,-11399.171507,-1608.800546
417.964493,1554.432478,-11177.109724,-2068.457845
417.964816,2072.576638,-10658.965565,-2068.457845
417.965139,2886.803174,-10584.944971,-1302.362347
417.965461,3404.947333,-9918.759623,-612.876398
417.965784,3552.988522,-9474.636058,76.609550
417.966107,3478.967927,-8956.491898,0.000000
417.966429,3997.112087,-8660.409521,-1072.533697
417.966752,4441.235652,-8438.347739,-1838.629195
417.967074,5625.565159,-7772.162391,-2451.505594
417.967397,5995.668130,-7846.182985,-2068.457845
417.967720,5551.544565,-8142.265362,-1378.971896
417.968042,4811.338623,-9474.636058,-1378.971896
417.968365,3478.967927,-11103.089130,-2221.676944
417.968688,1406.391290,-12361.439231,-2604.724693
417.969010,0.000000,-12805.562797,-2451.505594
417.969333,-1258.350101,-12361.439231,-2068.457845
417.969656,-1480.411884,-10658.965565,-1608.800546
417.969978,-888.247130,-9474.636058,-536.266849
417.970301,-518.144159,-7920.203579,459.657299
417.970624,222.061783,-6291.750507,383.047749
417.970946,148.041188,-5329.482782,0.000000
417.971269,296.082377,-5625.565159,-689.485948
417.971592,814.226536,-5921.647536,-306.438199
417.971914,1184.329507,-7698.141797,-1225.752797
417.972237,1184.329507,-8956.491898,-1149.143247
417.972560,1184.329507,-9622.677246,-1455.581446
417.972882,888.247130,-10214.842000,-1455.581446
417.973205,1258.350101,-11399.171507,-1838.629195
417.973527,74.020594,-11103.089130,-2374.896044
417.973850,0.000000,-11917.315666,-3064.381992
417.974173,-592.164754,-11991.336260,-2911.162892
417.974495,-1776.494261,-11547.212695,-1608.800546
417.974818,-2886.803174,-11325.150913,-766.095498
417.975141,-3552.988522,-11473.192101,-1225.752797
417.975463,-3404.947333,-11695.253884,-919.314598
417.975786,-2368.659014,-10214.842000,-383.047749
417.976109,-1332.370696,-8956.491898,76.609550
417.976431,296.082377,-7920.203579,0.000000
417.976754,2442.679609,-6809.894666,0.000000
417.977077,5181.441594,-6069.688724,-153.219100
417.977399,6957.935855,-6143.709319,-459.657299
417.977722,7328.038826,-6217.729913,-842.705048
417.978045,6883.915261,-6587.832884,-1532.190996
417.978367,5921.647536,-7476.080014,-2987.772442
417.978690,5699.585753,-11177.109724,-3600.648841
417.979013,5329.482782,-13397.727550,-3677.258390
417.979335,3627.009116,-13249.686362,-2681.334243
417.979658,1776.494261,-12583.501014,-1072.533697
417.979980,-370.102971,-11325.150913,-383.047749
417.980303,-2960.823768,-10955.047942,-1378.971896
417.980626,-6143.709319,-8882.471304,-153.219100
417.980948,-7920.203579,-5625.565159,-842.705048
417.981271,-7772.162391,-5181.441594,-4519.963438
417.981594,-5107.421000,-7328.038826,-4519.963438
417.981916,-592.164754,-8438.347739,-1608.800546
417.982239,2664.741391,-8956.491898,-1608.800546
417.982562,6513.812290,-11251.130318,-1915.238745
417.982884,10066.800811,-11621.233289,-995.924147
417.983207,12657.521608,-11251.130318,-2298.286494
417.983530,13989.892304,-10436.903782,-3064.381992
417.983852,13027.624579,-8438.347739,-1378.971896
417.984175,10881.027347,-7698.141797,-1838.629195
417.984498,7624.121203,-9252.574275,-1685.410096
417.984820,4145.153275,-9474.636058,0.000000
417.985143,-148.041188,-11029.068536,-306.438199
417.985465,-3404.947333,-11843.295072,-1608.800546
417.985788,-5699.585753,-13175.665768,-536.266849
417.986111,-8142.265362,-13101.645173,1685.410096
417.986433,-9770.718434,-8956.491898,3064.381992
417.986756,-9844.739029,-4589.276840,2374.896044
417.987079,-8734.430116,-1702.473667,-766.095498
417.987401,-4811.338623,-2072.576638,-2681.334243
417.987724,-1110.308913,-4663.297435,-4596.572988
417.988046,2294.638420,-8364.327145,-3983.696590
417.988369,5477.523971,-11843.295072,-1838.629195
417.988692,7550.100608,-12879.583391,-1455.581446
417.989014,8364.327145,-12361.439231,-3907.087040
417.989337,7105.977043,-12213.398043,-5745.716235
417.989659,4293.194464,-11399.171507,-5362.668486
417.989982,1110.308913,-10214.842000,-4903.011187
417.990305,-2072.576638,-9474.636058,-3983.696590
417.990627,-4367.215058,-9844.739029,-2834.553343
417.990950,-6143.709319,-11029.068536,153.219100
417.991272,-7179.997637,-13175.665768,1225.752797
417.991595,-8586.388927,-12953.603985,2068.457845
417.991918,-8586.388927,-10288.862594,3217.601092
417.992240,-6809.894666,-5477.523971,1991.848295
417.992563,-2886.803174,-5255.462188,383.047749
417.992886,2590.720797,-4737.318029,0.000000
417.993208,7328.038826,-2146.597232,-1915.238745
417.993531,9696.697840,-3997.112087,-3064.381992
417.993853,11177.109724,-8586.388927,-536.266849
417.994176,10066.800811,-13175.665768,-689.485948
417.994499,5181.441594,-15100.201217,-3907.087040
417.994821,0.000000,-14952.160028,-4826.401637
417.995144,-4959.379811,-15100.201217,-5362.668486
417.995466,-9548.656652,-14804.118840,-6511.811733
417.995789,-12953.603985,-10881.027347,-3830.477490
417.996112,-14804.118840,-6661.853478,-689.485948
417.996434,-14063.912898,-4885.359217,-1991.848295
417.996757,-10140.821405,-6513.812290,-2757.943793
417.997080,-6661.853478,-10214.842000,-2298.286494
417.997402,-4219.173869,-11695.253884,2068.457845
417.997725,-1332.370696,-7031.956449,4979.620737
417.998047,3478.967927,-2960.823768,2145.067394
417.998370,8364.327145,-3701.029710,-1608.800546
417.998693,11843.295072,-4737.318029,-2145.067394
417.999015,9918.759623,-4811.338623,-1608.800546
417.999338,7328.038826,-7476.080014,-766.095498
417.999660,6365.771101,-10658.965565,-2681.334243
417.999983,5699.585753,-14582.057057,-6358.592633
418.000306,4367.215058,-16802.674883,-5745.716235
418.000628,296.082377,-15618.345376,-2834.553343
418.000951,-3404.947333,-14359.995275,-1072.533697
418.001273,-6291.750507,-13397.727550,-1991.848295
418.001596,-5847.626942,-10807.006753,-1225.752797
418.001919,-5625.565159,-7105.977043,-1838.629195
418.002241,-4367.215058,-6069.688724,-1302.362347
418.002564,-296.082377,-7105.977043,383.047749
418.002887,4737.318029,-6069.688724,1455.581446
418.003209,7772.162391,-5773.606348,1225.752797
418.003532,8364.327145,-7698.141797,2068.457845
418.003854,6217.729913,-8808.450710,2604.724693
418.004177,1998.556043,-7624.121203,76.609550
418.004500,-1924.535449,-7920.203579,-4826.401637
418.004822,-4811.338623,-11029.068536,-6818.249932
418.005145,-6513.812290,-11843.295072,-5439.278036
418.005467,-6513.812290,-11103.089130,-2987.772442
418.005790,-6217.729913,-10066.800811,-2604.724693
418.006113,-4145.153275,-9844.739029,-2604.724693
418.006435,-1554.432478,-10658.965565,-2528.115143
418.006758,-444.123565,-11917.315666,-1608.800546
418.007080,-814.226536,-11473.192101,-689.485948
418.007403,0.000000,-9622.677246,-919.314598
418.007726,2442.679609,-8364.327145,-536.266849
418.008048,5033.400406,-6957.935855,612.876398
418.008371,7179.997637,-7105.977043,919.314598
418.008694,7105.977043,-7254.018232,842.705048
418.009016,5773.606348,-7624.121203,1685.410096
418.009339,3404.947333,-7772.162391,1838.629195
418.009661,148.041188,-7179.997637,229.828649
418.009984,-3108.864956,-7994.224174,-2834.553343
418.010307,-5477.523971,-9548.656652,-4903.011187
418.010629,-6735.874072,-10436.903782,-3600.648841
418.010952,-6883.915261,-10732.986159,-1532.190996
418.011274,-5847.626942,-10288.862594,-1762.019645
418.011597,-2664.741391,-11695.253884,-3294.210641
418.011920,148.041188,-12287.418637,-2987.772442
418.012242,1554.432478,-11843.295072,-1378.971896
418.012565,962.267725,-10362.883188,76.609550
418.012888,-666.185348,-8438.347739,-306.438199
418.013210,0.000000,-8660.409521,-2374.896044
418.013533,-444.123565,-9622.677246,-2374.896044
418.013855,-2516.700203,-9326.594869,-842.705048
418.014178,-5921.647536,-7328.038826,766.095498
418.014501,-6143.709319,-6957.935855,0.000000
418.014823,-3552.988522,-6587.832884,-1838.629195
418.015146,-1480.411884,-6069.688724,-3217.601092
418.015468,-666.185348,-6809.894666,-2221.676944
418.015791,-148.041188,-7994.224174,-766.095498
418.016114,1924.535449,-9770.718434,-1915.238745
418.016436,4293.194464,-10436.903782,-3447.429741
418.016759,5255.462188,-10732.986159,-3370.820191
418.017081,4737.318029,-11843.295072,-2604.724693
418.017404,3478.967927,-13175.665768,-1608.800546
418.017727,2738.761985,-13619.789333,-1838.629195
418.018049,1998.556043,-13397.727550,-3294.210641
418.018372,888.247130,-12139.377449,-2681.334243
418.018695,-518.144159,-10214.842000,-1532.190996
418.019017,-1776.494261,-7402.059420,-766.095498
418.019340,-3108.864956,-5995.668130,-1072.533697
418.019662,-3552.988522,-6883.915261,153.219100
418.019985,-3182.885551,-7328.038826,766.095498
418.020308,-2738.761985,-7105.977043,-536.266849
418.020630,-1036.288319,-7994.224174,-2298.286494
418.020953,1554.432478,-8660.409521,-2221.676944
418.021275,3256.906145,-9474.636058,-383.047749
418.021598,2886.803174,-9400.615463,1072.533697
418.021921,1776.494261,-9252.574275,-153.219100
418.022243,0.000000,-9622.677246,-3064.381992
418.022566,-962.267725,-11843.295072,-4673.182538
418.022889,-3034.844362,-12583.501014,-3907.087040
418.023211,-6069.688724,-11251.130318,-2374.896044
418.023534,-6587.832884,-9770.718434,-229.828649
418.023856,-5847.626942,-7550.100608,-1072.533697
418.024179,-3701.029710,-7031.956449,-1915.238745
418.024502,-3034.844362,-6217.729913,-2145.067394
418.024824,-1850.514855,-7476.080014,-1762.019645
418.025147,148.041188,-8438.347739,-1072.533697
418.025469,3404.947333,-8290.306550,-766.095498
418.025792,5255.462188,-8290.306550,0.000000
418.026115,5847.626942,-8734.430116,-153.219100
418.026437,5107.421000,-9030.512492,-306.438199
418.026760,3478.967927,-9474.636058,-1378.971896
418.027082,1924.535449,-9918.759623,-2604.724693
418.027405,0.000000,-11177.109724,-3447.429741
418.027728,-2146.597232,-11547.212695,-2298.286494
418.028050,-3552.988522,-11177.109724,-1302.362347
418.028373,-3997.112087,-11251.130318,-1302.362347
418.028696,-4515.256246,-10510.924376,-689.485948
418.029018,-3478.967927,-9918.759623,-153.219100
418.029341,-3034.844362,-8808.450710,-1072.533697
418.029663,-1110.308913,-8364.327145,-2374.896044
418.029986,592.164754,-7994.224174,-1838.629195
418.030309,2442.679609,-7179.997637,-536.266849
418.030631,3775.050304,-8586.388927,-842.705048
418.030954,2886.803174,-10436.903782,-919.314598
418.031276,444.123565,-10436.903782,-459.657299
418.031599,-2368.659014,-10214.842000,-1225.752797
418.031922,-4367.215058,-10955.047942,-3064.381992
418.032244,-5995.668130,-10214.842000,-2681.334243
418.032567,-6365.771101,-7402.059420,-2298.286494
418.032889,-6587.832884,-5625.565159,-2757.943793
418.033212,-4293.194464,-6883.915261,-2374.896044
418.033535,-2294.638420,-8142.265362,-2451.505594
418.033857,0.000000,-10807.006753,-2068.457845
418.034180,1924.535449,-11695.253884,-1302.362347
418.034503,3627.009116,-10362.883188,-612.876398
418.034825,5551.544565,-8882.471304,-1378.971896
418.035148,6883.915261,-8734.430116,-1455.581446
418.035470,6365.771101,-8734.430116,-229.828649
418.035793,5773.606348,-8216.285956,-1149.143247
418.036116,3701.029710,-8808.450710,-1838.629195
418.036438,2368.659014,-10732.986159,-2451.505594
418.036761,444.123565,-11103.089130,-2145.067394
418.037083,-2294.638420,-11251.130318,-1225.752797
418.037406,-4589.276840,-9918.759623,-536.266849
418.037729,-4737.318029,-9474.636058,-383.047749
418.038051,-4811.338623,-7254.018232,-1762.019645
418.038374,-3552.988522,-7624.121203,-2987.772442
418.038697,-1628.453072,-8808.450710,-3217.601092
418.039019,1258.350101,-9770.718434,-2374.896044
418.039342,3627.009116,-10881.027347,-919.314598
418.039664,4219.173869,-11103.089130,612.876398
418.039987,3404.947333,-10436.903782,612.876398
418.040310,1702.473667,-9474.636058,-1302.362347
418.040632,-740.205942,-9474.636058,-3447.429741
418.040955,-2960.823768,-9992.780217,-3907.087040
418.041277,-5847.626942,-9178.553681,-3064.381992
418.041600,-7920.203579,-7698.141797,-1838.629195
418.041923,-8216.285956,-7402.059420,-1685.410096
418.042245,-5477.523971,-8660.409521,-2374.896044
418.042568,-2738.761985,-9252.574275,-2145.067394
418.042890,-1258.350101,-10140.821405,-2068.457845
418.043213,-370.102971,-10288.862594,-766.095498
418.043536,1998.556043,-9474.636058,-612.876398
418.043858,4367.215058,-8290.306550,-1532.190996
418.044181,5181.441594,-7254.018232,-1685.410096
418.044504,4441.235652,-8438.347739,-2528.115143
418.044826,3404.947333,-9474.636058,-2221.676944
418.045149,2146.597232,-10955.047942,-1762.019645
418.045471,666.185348,-12287.418637,-1608.800546
418.045794,-1480.411884,-12287.418637,-536.266849
418.046117,-3256.906145,-10510.924376,-612.876398
418.046439,-4737.318029,-7920.203579,-1225.752797
418.046762,-4885.359217,-7105.977043,-1915.238745
418.047084,-4663.297435,-7328.038826,-1685.410096
418.047407,-3627.009116,-7994.224174,-1455.581446
418.047730,-2442.679609,-7920.203579,-1302.362347
418.048052,-222.061783,-8290.306550,-536.266849
418.048375,2368.659014,-10288.862594,-766.095498
418.048697,3627.009116,-11029.068536,-1225.752797
418.049020,3034.844362,-11029.068536,-1072.533697
418.049343,1480.411884,-9844.739029,-766.095498
418.049665,-740.205942,-9474.636058,-1225.752797
418.049988,-2442.679609,-9548.656652,-2681.334243
418.050311,-4219.173869,-9252.574275,-3064.381992
418.050633,-5033.400406,-8068.244768,-3064.381992
418.050956,-4885.359217,-7994.224174,-2068.457845
418.051278,-4145.153275,-8438.347739,-689.485948
418.051601,-2368.659014,-9474.636058,-383.047749
418.051924,-1480.411884,-9178.553681,-1149.143247
418.052246,74.020594,-9178.553681,-919.314598
418.052569,1776.494261,-8438.347739,-919.314598
418.052891,4293.194464,-7920.203579,-1072.533697
418.053214,5995.668130,-7994.224174,-1532.190996
418.053537,6143.709319,-8512.368333,-766.095498
418.053859,5773.606348,-9474.636058,-766.095498
418.054182,4885.359217,-11177.109724,-1225.752797
418.054505,3404.947333,-11917.315666,-2374.896044
418.054827,1332.370696,-11621.233289,-2374.896044
418.055150,-1702.473667,-10732.986159,-1378.971896
418.055472,-3849.070898,-9622.677246,-919.314598
418.055795,-4663.297435,-9104.533087,-1991.848295
418.056118,-4367.215058,-8956.491898,-2681.334243
418.056440,-3849.070898,-9030.512492,-2374.896044
418.056763,-2442.679609,-8438.347739,-1532.190996
418.057085,-740.205942,-8734.430116,-995.924147
418.057408,1628.453072,-8734.430116,0.000000
418.057731,3552.988522,-9844.739029,-612.876398
418.058053,3552.988522,-10066.800811,-1225.752797
418.058376,2294.638420,-10510.924376,-995.924147
418.058698,-222.061783,-9918.759623,-1762.019645
418.059021,-1924.535449,-10066.800811,-3064.381992
418.059344,-3627.009116,-9622.677246,-2834.553343
418.059666,-5995.668130,-8882.471304,-2221.676944
418.059989,-6587.832884,-7994.224174,-1762.019645
418.060312,-6661.853478,-8290.306550,-2604.724693
418.060634,-4737.318029,-9400.615463,-2604.724693
418.060957,-2886.803174,-9474.636058,-2451.505594
418.061279,-1184.329507,-9622.677246,-1762.019645
418.061602,1332.370696,-8882.471304,-383.047749
418.061925,3701.029710,-8290.306550,-1302.362347
418.062247,6217.729913,-8660.409521,-1608.800546
418.062570,5995.668130,-9326.594869,-1302.362347
418.062892,3775.050304,-9252.574275,-919.314598
418.063215,1776.494261,-9400.615463,-1302.362347
418.063538,1184.329507,-11251.130318,-2451.505594
418.063860,-1110.308913,-11547.212695,-2374.896044
418.064183,-3330.926739,-9844.739029,-1608.800546
418.064506,-4737.318029,-8216.285956,-919.314598
418.064828,-5477.523971,-8142.265362,-1149.143247
418.065151,-5033.400406,-8290.306550,-766.095498
418.065473,-3997.112087,-9178.553681,-1762.019645
418.065796,-3182.885551,-9104.533087,-1915.238745
418.066119,-1036.288319,-8586.388927,-1838.629195
418.066441,2220.617826,-9252.574275,-1072.533697
418.066764,4737.318029,-9622.677246,-1072.533697
418.067086,4293.194464,-9844.739029,-919.314598
418.067409,2886.803174,-10584.944971,-536.266849
418.067732,1258.350101,-10214.842000,-1608.800546
418.068054,-148.041188,-10288.862594,-3370.820191
418.068377,-2146.597232,-9992.780217,-3677.258390
418.068699,-3997.112087,-9104.533087,-2604.724693
418.069022,-4811.338623,-8068.244768,-919.314598
418.069345,-5625.565159,-7920.203579,-1225.752797
418.069667,-4219.173869,-8068.244768,-1378.971896
418.069990,-2442.679609,-8586.388927,-2145.067394
418.070313,-296.082377,-9400.615463,-1532.190996
418.070635,1332.370696,-8660.409521,-153.219100
418.070958,3404.947333,-8290.306550,0.000000
418.071280,5255.462188,-8438.347739,-229.828649
418.071603,6143.709319,-9104.533087,-919.314598
418.071926,5033.400406,-9548.656652,-1378.971896
418.072248,3404.947333,-9844.739029,-2068.457845
418.072571,1998.556043,-11103.089130,-2528.115143
418.072893,740.205942,-11843.295072,-2528.115143
418.073216,-1406.391290,-11325.150913,-1149.143247
418.073539,-3182.885551,-9844.739029,-383.047749
418.073861,-4219.173869,-8956.491898,-229.828649
418.074184,-4145.153275,-8734.430116,-1838.629195
418.074506,-4071.132681,-8364.327145,-2298.286494
418.074829,-3478.967927,-7994.224174,-2451.505594
418.075152,-1406.391290,-8216.285956,-1378.971896
418.075474,1036.288319,-8290.306550,0.000000
418.075797,3404.947333,-8882.471304,0.000000
418.076120,3923.091493,-10436.903782,-995.924147
418.076442,2664.741391,-11325.150913,-766.095498
418.076765,592.164754,-11029.068536,-1455.581446
418.077087,-1554.432478,-10362.883188,-2834.553343
418.077410,-2960.823768,-9992.780217,-3677.258390
418.077733,-4145.153275,-9178.553681,-2834.553343
418.078055,-4219.173869,-7772.162391,-1838.629195
418.078378,-5403.503377,-7624.121203,-1608.800546
418.078700,-3775.050304,-9030.512492,-1225.752797
418.079023,-2886.803174,-9326.594869,-1915.238745
418.079346,-444.123565,-9548.656652,-2221.676944
418.079668,1258.350101,-9474.636058,-1608.800546
418.079991,3701.029710,-8586.388927,-612.876398
418.080314,5995.668130,-8142.265362,-459.657299
418.080636,6661.853478,-8290.306550,-153.219100
418.080959,5403.503377,-9030.512492,-306.438199
418.081281,4071.132681,-9548.656652,-919.314598
418.081604,2294.638420,-10658.965565,-1685.410096
418.081927,666.185348,-11843.295072,-2451.505594
418.082249,-1924.535449,-10732.986159,-2221.676944
418.082572,-4293.194464,-9326.594869,-1378.971896
418.082894,-5699.585753,-8734.430116,-766.095498
418.083217,-6069.688724,-8512.368333,-1532.190996
418.083540,-5625.565159,-8734.430116,-2911.162892
418.083862,-4663.297435,-8808.450710,-3294.210641
418.084185,-2368.659014,-9178.553681,-1532.190996
418.084507,444.123565,-9400.615463,-612.876398
418.084830,2886.803174,-8734.430116,-689.485948
418.085153,4071.132681,-9770.718434,-1532.190996
418.085475,3330.926739,-10584.944971,-995.924147
418.085798,1110.308913,-10436.903782,-1149.143247
418.086121,-1776.494261,-9548.656652,-2681.334243
418.086443,-3701.029710,-9696.697840,-3217.601092
418.086766,-5107.421000,-9770.718434,-2987.772442
418.087088,-6143.709319,-8512.368333,-2374.896044
418.087411,-6143.709319,-8216.285956,-1225.752797
418.087734,-5255.462188,-8068.244768,-1302.362347
418.088056,-2812.782580,-8956.491898,-1608.800546
418.088379,-888.247130,-8734.430116,-2221.676944
418.088701,1332.370696,-8956.491898,-2145.067394
418.089024,3478.967927,-8882.471304,-1378.971896
418.089347,5921.647536,-8512.368333,-919.314598
418.089669,7179.997637,-9326.594869,-842.705048
418.089992,7105.977043,-9918.759623,-842.705048
418.090315,5107.421000,-10288.862594,-1608.800546
418.090637,3108.864956,-10807.006753,-1762.019645
418.090960,1406.391290,-11473.192101,-1991.848295
418.091283,-592.164754,-9844.739029,-1608.800546
418.091605,-3256.906145,-8290.306550,-1378.971896
418.091928,-4737.318029,-8142.265362,-306.438199
418.092250,-4737.318029,-8142.265362,-919.314598
418.092573,-4367.215058,-8734.430116,-1915.238745
418.092896,-3552.988522,-8956.491898,-2451.505594
418.093218,-1776.494261,-8216.285956,-1915.238745
418.093541,1406.391290,-8882.471304,-995.924147
418.093864,4441.235652,-8660.409521,-229.828649
418.094186,5995.668130,-9474.636058,-383.047749
418.094509,5107.421000,-11103.089130,-612.876398
418.094832,2886.803174,-10955.047942,-689.485948
418.095154,-666.185348,-10658.965565,-2068.457845
418.095477,-3627.009116,-9770.718434,-3677.258390
418.095799,-5551.544565,-10140.821405,-4213.525239
418.096122,-6365.771101,-9252.574275,-2987.772442
418.096445,-6217.729913,-7920.203579,-1455.581446
418.096767,-5625.565159,-7846.182985,-1915.238745
418.097090,-3256.906145,-9474.636058,-1455.581446
418.097413,-1406.391290,-9622.677246,-1685.410096
418.097735,666.185348,-9474.636058,-1225.752797
418.098058,2220.617826,-8364.327145,-919.314598
418.098381,4663.297435,-8068.244768,-995.924147
418.098703,5773.606348,-8438.347739,-995.924147
418.099026,5625.565159,-8956.491898,-1072.533697
418.099348,3997.112087,-9474.636058,-1149.143247
418.099671,1998.556043,-9696.697840,-1762.019645
418.099994,888.247130,-10584.944971,-2834.553343
418.100316,-370.102971,-12065.356855,-2451.505594
418.100639,-2664.741391,-11621.233289,-1532.190996
418.100962,-4737.318029,-10807.006753,-689.485948
418.101284,-5699.585753,-9030.512492,-536.266849
418.101607,-5255.462188,-8142.265362,-689.485948
418.101930,-5033.400406,-7031.956449,-2528.115143
418.102252,-2146.597232,-7624.121203,-4060.306139
418.102575,814.226536,-9178.553681,-2451.505594
418.102898,3108.864956,-10140.821405,-383.047749
418.103220,4145.153275,-10881.027347,1532.190996
418.103543,3552.988522,-9992.780217,842.705048
418.103865,2072.576638,-9696.697840,-1225.752797
418.104188,370.102971,-10066.800811,-2757.943793
418.104511,-1406.391290,-9770.718434,-3447.429741
418.104833,-3701.029710,-8956.491898,-2987.772442
418.105156,-5033.400406,-7402.059420,-1072.533697
418.105479,-5625.565159,-6661.853478,-153.219100
418.105801,-4737.318029,-7772.162391,-1225.752797
418.106124,-3849.070898,-8216.285956,-2374.896044
418.106447,-2664.741391,-9548.656652,-3064.381992
418.106769,-1184.329507,-9844.739029,-2298.286494
418.107092,2072.576638,-9474.636058,-1149.143247
418.107414,4959.379811,-9178.553681,-612.876398
418.107737,6809.894666,-8660.409521,-995.924147
418.108060,7105.977043,-9622.677246,-766.095498
418.108382,6143.709319,-9770.718434,-1225.752797
418.108705,4441.235652,-10436.903782,-2068.457845
418.109028,1998.556043,-11399.171507,-2298.286494
418.109350,0.000000,-11769.274478,-1608.800546
418.109673,-2664.741391,-9770.718434,-612.876398
418.109996,-4293.194464,-7550.100608,-383.047749
418.110318,-5107.421000,-6587.832884,-766.095498
418.110641,-4515.256246,-7920.203579,-1455.581446
418.110963,-3627.009116,-7550.100608,-1532.190996
418.111286,-1628.453072,-8364.327145,-1608.800546
418.111609,1332.370696,-9474.636058,-1225.752797
418.111931,4959.379811,-10510.924376,-766.095498
418.112254,6587.832884,-10955.047942,0.000000
418.112577,5699.585753,-10510.924376,383.047749
418.112899,2812.782580,-9622.677246,-383.047749
418.113222,-296.082377,-9770.718434,-2145.067394
418.113545,-2516.700203,-10584.944971,-4366.744339
418.113867,-5403.503377,-10288.862594,-4903.011187
418.114190,-7550.100608,-9474.636058,-3217.601092
418.114512,-8586.388927,-7698.141797,-1991.848295
418.114835,-7179.997637,-8512.368333,-2298.286494
418.115158,-5255.462188,-8290.306550,-2298.286494
418.115480,-4515.256246,-8734.430116,-2374.896044
418.115803,-3108.864956,-8660.409521,-2221.676944
418.116126,-962.267725,-8882.471304,-2604.724693
418.116448,2664.741391,-9252.574275,-2681.334243
418.116771,6069.688724,-9474.636058,-2604.724693
418.117094,7254.018232,-11103.089130,-1532.190996
418.117416,7105.977043,-10955.047942,0.000000
418.117739,5181.441594,-10955.047942,-383.047749
418.118061,3627.009116,-11029.068536,-1685.410096
418.118384,1554.432478,-10955.047942,-2604.724693
418.118707,-814.226536,-10732.986159,-1532.190996
418.119029,-3478.967927,-9178.553681,-842.705048
418.119352,-4737.318029,-7920.203579,459.657299
418.119675,-4737.318029,-7402.059420,-383.047749
418.119997,-3478.967927,-7698.141797,-536.266849
418.120320,-2294.638420,-7846.182985,-1762.019645
418.120643,-888.247130,-7994.224174,-1608.800546
418.120965,1480.411884,-9252.574275,-766.095498
418.121288,2738.761985,-10658.965565,-536.266849
418.121610,2516.700203,-10436.903782,-612.876398
418.121933,444.123565,-9844.739029,-1532.190996
418.122256,-1554.432478,-10140.821405,-3447.429741
418.122578,-2738.761985,-11103.089130,-4290.134789
418.122901,-4071.132681,-11177.109724,-4519.963438
418.123224,-5625.565159,-10436.903782,-2681.334243
418.123546,-6365.771101,-8956.491898,-1225.752797
418.123869,-5033.400406,-8956.491898,-1532.190996
418.124192,-3552.988522,-8142.265362,-1302.362347
418.124514,-1480.411884,-8068.244768,-1378.971896
418.124837,-296.082377,-8438.347739,-1608.800546
418.125159,1850.514855,-7920.203579,-536.266849
418.125482,4737.318029,-7550.100608,-383.047749
418.125805,7105.977043,-7179.997637,0.000000
418.126127,7698.141797,-8438.347739,459.657299
418.126450,6809.894666,-9104.533087,229.828649
418.126773,5033.400406,-9844.739029,-1302.362347
418.127095,3404.947333,-11103.089130,-2604.724693
418.127418,1924.535449,-12287.418637,-2451.505594
418.127741,-222.061783,-11843.295072,-1302.362347
418.128063,-2664.741391,-9844.739029,-995.924147
418.128386,-3849.070898,-9252.574275,-1762.019645
418.128708,-4367.215058,-8808.450710,-1302.362347
418.129031,-4441.235652,-8586.388927,-1455.581446
418.129354,-4515.256246,-7550.100608,-2528.115143
418.129676,-2442.679609,-8660.409521,-2757.943793
418.129999,814.226536,-9474.636058,-1915.238745
418.130322,2664.741391,-9696.697840,-766.095498
418.130644,2442.679609,-10140.821405,459.657299
418.130967,444.123565,-9400.615463,766.095498
418.131290,-1036.288319,-8660.409521,-1302.362347
418.131612,-1406.391290,-9474.636058,-3830.477490
418.131935,-2442.679609,-10436.903782,-4060.306139
418.132257,-4589.276840,-9474.636058,-2298.286494
418.132580,-5477.523971,-8882.471304,-612.876398
418.132903,-4589.276840,-8216.285956,0.000000
418.133225,-2738.761985,-7624.121203,-1378.971896
418.133548,-1850.514855,-8142.265362,-2374.896044
418.133871,-1628.453072,-8882.471304,-2221.676944
418.134193,-148.041188,-8956.491898,-1532.190996
418.134516,2368.659014,-9474.636058,-1225.752797
418.134839,4959.379811,-9104.533087,-1915.238745
418.135161,6069.688724,-9918.759623,-1225.752797
418.135484,4885.359217,-9844.739029,-229.828649
418.135806,2812.782580,-9326.594869,-919.314598
418.136129,888.247130,-10436.903782,-2451.505594
418.136452,-814.226536,-11769.274478,-2987.772442
418.136774,-3034.844362,-11769.274478,-2298.286494
418.137097,-5921.647536,-9844.739029,-1149.143247
418.137420,-6661.853478,-8734.430116,-919.314598
418.137742,-5477.523971,-8068.244768,-1838.629195
418.138065,-3701.029710,-7179.997637,-1838.629195
418.138388,-2590.720797,-7179.997637,-2681.334243
418.138710,-444.123565,-8438.347739,-1685.410096
418.139033,1628.453072,-9474.636058,-536.266849
418.139356,3775.050304,-10436.903782,-536.266849
418.139678,4145.153275,-10881.027347,-1302.362347
418.140001,2590.720797,-10658.965565,-1762.019645
418.140323,518.144159,-10288.862594,-1685.410096
418.140646,-1332.370696,-9844.739029,-2451.505594
418.140969,-2590.720797,-10510.924376,-3140.991542
418.141291,-4145.153275,-10066.800811,-2681.334243
418.141614,-4293.194464,-8660.409521,-1302.362347
418.141937,-5625.565159,-6587.832884,-612.876398
418.142259,-4219.173869,-7031.956449,-1455.581446
418.142582,-2812.782580,-7402.059420,-1915.238745
418.142905,-1554.432478,-9178.553681,-2221.676944
418.143227,-296.082377,-9252.574275,-1685.410096
418.143550,2294.638420,-8956.491898,-689.485948
418.143872,3997.112087,-8956.491898,-1608.800546
418.144195,5477.523971,-9474.636058,-1838.629195
418.144518,5403.503377,-10584.944971,-1378.971896
418.144840,4145.153275,-10288.862594,-1455.581446
418.145163,3404.947333,-11251.130318,-2374.896044
418.145486,2442.679609,-11621.233289,-2528.115143
418.145808,962.267725,-11695.253884,-2068.457845
418.146131,-1332.370696,-10214.842000,-919.314598
418.146454,-3404.947333,-8808.450710,-153.219100
418.146776,-4515.256246,-7994.224174,0.000000
418.147099,-2886.803174,-8586.388927,-919.314598
418.147421,-2294.638420,-8216.285956,-1532.190996
418.147744,-592.164754,-7772.162391,-1455.581446
418.148067,1628.453072,-8216.285956,-459.657299
418.148389,3552.988522,-9104.533087,612.876398
418.148712,4145.153275,-9326.594869,383.047749
418.149035,2738.761985,-9474.636058,0.000000
418.149357,592.164754,-8956.491898,-1685.410096
418.149680,-1480.411884,-9030.512492,-3447.429741
418.150003,-2664.741391,-10214.842000,-4136.915689
418.150325,-3997.112087,-10658.965565,-3370.820191
418.150648,-6069.688724,-9770.718434,-1532.190996
418.150970,-7105.977043,-8586.388927,-919.314598
418.151293,-5773.606348,-8956.491898,-1685.410096
418.151616,-3701.029710,-8660.409521,-2681.334243
418.151938,-1850.514855,-8512.368333,-2681.334243
418.152261,0.000000,-8734.430116,-1225.752797
418.152584,2146.597232,-7994.224174,-229.828649
418.152906,4663.297435,-8142.265362,-689.485948
418.153229,6291.750507,-7994.224174,-1072.533697
418.153552,5403.503377,-9178.553681,-842.705048
418.153874,3034.844362,-9622.677246,0.000000
418.154197,1110.308913,-10732.986159,-1991.848295
418.154519,-370.102971,-11547.212695,-2987.772442
418.154842,-1406.391290,-12213.398043,-2681.334243
418.155165,-2886.803174,-10955.047942,-1302.362347
418.155487,-3997.112087,-9326.594869,-612.876398
418.155810,-5181.441594,-7846.182985,-1378.971896
418.156133,-4885.359217,-8512.368333,-1685.410096
418.156455,-4145.153275,-8808.450710,-2834.553343
418.156778,-1776.494261,-9548.656652,-3600.648841
418.157101,888.247130,-10288.862594,-2221.676944
418.157423,4589.276840,-10436.903782,-1149.143247
418.157746,5477.523971,-10362.883188,229.828649
418.158068,3849.070898,-9770.718434,1685.410096
418.158391,518.144159,-8512.368333,842.705048
418.158714,-2368.659014,-8290.306550,-2451.505594
418.159036,-3552.988522,-8808.450710,-4749.792088
418.159359,-5181.441594,-9770.718434,-4060.306139
418.159682,-6587.832884,-8660.409521,-2221.676944
418.160004,-6143.709319,-7772.162391,-306.438199
418.160327,-5181.441594,-7402.059420,-689.485948
418.160650,-3627.009116,-7920.203579,-1455.581446
418.160972,-3701.029710,-8068.244768,-2987.772442
418.161295,-2812.782580,-9030.512492,-3064.381992
418.161617,-296.082377,-10214.842000,-3217.601092
418.161940,3034.844362,-10584.944971,-3140.991542
418.162263,5699.585753,-10584.944971,-2145.067394
418.162585,7031.956449,-10584.944971,-536.266849
418.162908,6439.791695,-10436.903782,0.000000
418.163231,5403.503377,-10881.027347,-1072.533697
418.163553,3923.091493,-11251.130318,-2145.067394
418.163876,1258.350101,-11103.089130,-2145.067394
418.164199,-1480.411884,-9548.656652,-1072.533697
418.164521,-4145.153275,-8068.244768,153.219100
418.164844,-3923.091493,-6883.915261,153.219100
418.165166,-2738.761985,-6217.729913,-1225.752797
418.165489,-1258.350101,-6957.935855,-1302.362347
418.165812,222.061783,-7994.224174,-1072.533697
418.166134,2738.761985,-9992.780217,459.657299
418.166457,4219.173869,-11103.089130,536.266849
418.166780,4811.338623,-11325.150913,-229.828649
418.167102,3404.947333,-10510.924376,-842.705048
418.167425,370.102971,-9548.656652,-1378.971896
418.167748,-2812.782580,-8808.450710,-3140.991542
418.168070,-4515.256246,-9400.615463,-4596.572988
418.168393,-5699.585753,-10584.944971,-4596.572988
418.168715,-6661.853478,-10214.842000,-3370.820191
418.169038,-6735.874072,-9770.718434,-1762.019645
418.169361,-5921.647536,-7920.203579,-995.924147
418.169683,-4589.276840,-7994.224174,-1302.362347
418.170006,-2812.782580,-7476.080014,-2757.943793
418.170329,-814.226536,-7328.038826,-2298.286494
418.170651,962.267725,-7772.162391,-1532.190996
418.170974,4145.153275,-8808.450710,-1838.629195
418.171297,6661.853478,-9474.636058,-2374.896044
418.171619,7624.121203,-11029.068536,-459.657299
418.171942,7179.997637,-10881.027347,766.095498
418.172265,5551.544565,-10658.965565,-536.266849
418.172587,3849.070898,-10955.047942,-2221.676944
418.172910,2072.576638,-11399.171507,-2374.896044
418.173232,-962.267725,-9992.780217,-1302.362347
418.173555,-3552.988522,-8216.285956,-383.047749
418.173878,-5107.421000,-7031.956449,-1072.533697
418.174200,-5033.400406,-7402.059420,-2068.457845
418.174523,-4367.215058,-7994.224174,-2451.505594
418.174846,-2294.638420,-10140.821405,-1532.190996
418.175168,518.144159,-11177.109724,-1455.581446
418.175491,2960.823768,-11029.068536,-689.485948
418.175814,4145.153275,-10436.903782,-229.828649
418.176136,2590.720797,-9326.594869,153.219100
418.176459,-592.164754,-8290.306550,-536.266849
418.176781,-3330.926739,-8364.327145,-3140.991542
418.177104,-4811.338623,-9104.533087,-5209.449386
418.177427,-5847.626942,-10214.842000,-4826.401637
418.177749,-6439.791695,-10362.883188,-2681.334243
418.178072,-6291.750507,-9474.636058,-383.047749
418.178395,-5847.626942,-8660.409521,-612.876398
418.178717,-4145.153275,-7994.224174,-919.314598
418.179040,-3330.926739,-7402.059420,-2451.505594
418.179363,-2220.617826,-6957.935855,-2604.724693
418.179685,-592.164754,-7698.141797,-2451.505594
418.180008,2220.617826,-8882.471304,-1762.019645
418.180330,5033.400406,-9918.759623,-1991.848295
418.180653,6365.771101,-11103.089130,-1378.971896
418.180976,6217.729913,-11177.109724,0.000000
418.181298,4885.359217,-10436.903782,-766.095498
418.181621,3849.070898,-10955.047942,-2451.505594
418.181944,1776.494261,-12065.356855,-2681.334243
418.182266,-1554.432478,-11547.212695,-919.314598
418.182589,-4959.379811,-8586.388927,-153.219100
418.182912,-5329.482782,-7328.038826,-1608.800546
418.183234,-4145.153275,-6661.853478,-3294.210641
418.183557,-2442.679609,-7624.121203,-1915.238745
418.183879,-1628.453072,-8956.491898,-842.705048
418.184202,592.164754,-9918.759623,-536.266849
418.184525,3552.988522,-10140.821405,0.000000
418.184847,5329.482782,-10807.006753,-536.266849
418.185170,4663.297435,-10658.965565,-229.828649
418.185493,1628.453072,-9178.553681,-306.438199
418.185815,-1332.370696,-7772.162391,-1991.848295
418.186138,-2368.659014,-9252.574275,-3677.258390
418.186461,-2664.741391,-11103.089130,-3447.429741
418.186783,-4219.173869,-9622.677246,-1608.800546
418.187106,-5033.400406,-8216.285956,-229.828649
418.187428,-5403.503377,-7550.100608,-153.219100
418.187751,-4071.132681,-7994.224174,-1072.533697
418.188074,-2886.803174,-7476.080014,-2604.724693
418.188396,-3034.844362,-6957.935855,-2681.334243
418.188719,-1036.288319,-7994.224174,-1838.629195
418.189041,2812.782580,-9252.574275,-1685.410096
418.189364,6513.812290,-10436.903782,-1991.848295
418.189686,7994.224174,-11695.253884,-1149.143247
418.190008,7846.182985,-12139.377449,995.924147
418.190331,6513.812290,-10584.944971,842.705048
418.190653,4145.153275,-9622.677246,-1608.800546
418.190976,1776.494261,-10362.883188,-3217.601092
418.191298,-1258.350101,-10807.006753,-2681.334243
418.191620,-4441.235652,-9400.615463,-536.266849
418.191943,-6217.729913,-7328.038826,0.000000
418.192265,-6735.874072,-6735.874072,-1532.190996
418.192588,-4737.318029,-7402.059420,-2374.896044
418.192910,-2368.659014,-8956.491898,-1991.848295
418.193233,0.000000,-9770.718434,-995.924147
418.193555,3108.864956,-9844.739029,-229.828649
418.193877,6217.729913,-9918.759623,76.609550
418.194200,6143.709319,-9622.677246,153.219100
418.194522,2886.803174,-9030.512492,0.000000
418.194845,-1036.288319,-9178.553681,-1378.971896
418.195167,-2960.823768,-9696.697840,-4519.963438
418.195489,-3552.988522,-11769.274478,-6281.983084
418.195812,-5477.523971,-11621.233289,-3753.867940
418.196134,-6069.688724,-9696.697840,-536.266849
418.196457,-6957.935855,-8216.285956,0.000000
418.196779,-6069.688724,-7476.080014,-1225.752797
418.197101,-4219.173869,-6883.915261,-3294.210641
418.197424,-3108.864956,-6143.709319,-3753.867940
418.197746,-1702.473667,-7328.038826,-3140.991542
418.198069,1110.308913,-8808.450710,-1838.629195
418.198391,3849.070898,-9696.697840,-1838.629195
418.198713,6291.750507,-11399.171507,-1149.143247
418.199036,6587.832884,-11251.130318,153.219100
418.199358,5551.544565,-10584.944971,-1225.752797
418.199681,3997.112087,-10214.842000,-2451.505594
418.200003,2368.659014,-11029.068536,-2757.943793
418.200326,-296.082377,-11251.130318,-1915.238745
418.200648,-3552.988522,-9918.759623,-1225.752797
418.200970,-6587.832884,-8216.285956,-536.266849
418.201293,-7105.977043,-7772.162391,-1608.800546
418.201615,-5995.668130,-7402.059420,-3064.381992
418.201938,-3701.029710,-8586.388927,-3447.429741
418.202260,-962.267725,-9770.718434,-2068.457845
418.202582,3330.926739,-10362.883188,-536.266849
418.202905,6809.894666,-10881.027347,689.485948
418.203227,8512.368333,-10955.047942,306.438199
418.203550,6513.812290,-10066.800811,229.828649
418.203872,2146.597232,-9030.512492,-229.828649
418.204194,-1480.411884,-9474.636058,-2068.457845
418.204517,-3182.885551,-10955.047942,-4673.182538
418.204839,-4885.359217,-10955.047942,-4673.182538
418.205162,-6439.791695,-9178.553681,-1685.410096
418.205484,-6587.832884,-7846.182985,76.609550
418.205807,-4737.318029,-7105.977043,-842.705048
418.206129,-3108.864956,-7179.997637,-1685.410096
418.206451,-3182.885551,-7105.977043,-2298.286494
418.206774,-2516.700203,-8068.244768,-1378.971896
418.207096,-962.267725,-8512.368333,-1225.752797
418.207419,1850.514855,-8512.368333,-2834.553343
418.207741,4737.318029,-9030.512492,-3064.381992
418.208063,5995.668130,-10584.944971,-766.095498
418.208386,5477.523971,-9918.759623,306.438199
418.208708,4367.215058,-10140.821405,-919.314598
418.209031,3108.864956,-11473.192101,-1838.629195
418.209353,1628.453072,-12509.480420,-1608.800546
418.209675,-1406.391290,-11325.150913,-612.876398
418.209998,-4811.338623,-8586.388927,0.000000
418.210320,-5921.647536,-6587.832884,-306.438199
418.210643,-5255.462188,-5329.482782,-1838.629195
418.210965,-3182.885551,-5625.565159,-2987.772442
418.211287,-888.247130,-7550.100608,-2145.067394
418.211610,1850.514855,-9844.739029,-612.876398
418.211932,4885.359217,-11843.295072,766.095498
418.212255,6587.832884,-12361.439231,919.314598
418.212577,5329.482782,-11843.295072,153.219100
418.212900,2368.659014,-10436.903782,-689.485948
418.213222,-222.061783,-9548.656652,-2528.115143
418.213544,-2294.638420,-9548.656652,-3983.696590
418.213867,-4293.194464,-9770.718434,-4596.572988
418.214189,-6513.812290,-9030.512492,-2757.943793
418.214512,-7624.121203,-7698.141797,-1149.143247
418.214834,-6513.812290,-8734.430116,-995.924147
418.215156,-4663.297435,-8586.388927,-1991.848295
418.215479,-2812.782580,-8438.347739,-3600.648841
418.215801,-1184.329507,-8216.285956,-2834.553343
418.216124,1110.308913,-7624.121203,-995.924147
418.216446,3552.988522,-8808.450710,-612.876398
418.216768,5033.400406,-8438.347739,-2145.067394
418.217091,5329.482782,-9696.697840,-2528.115143
418.217413,4441.235652,-10436.903782,-1915.238745
418.217736,2960.823768,-10955.047942,-1915.238745
418.218058,1776.494261,-11917.315666,-2374.896044
418.218380,74.020594,-12657.521608,-2221.676944
418.218703,-2516.700203,-11325.150913,-842.705048
418.219025,-5255.462188,-8586.388927,-766.095498
418.219348,-5477.523971,-6883.915261,-2298.286494
418.219670,-4663.297435,-5773.606348,-2911.162892
418.219993,-3034.844362,-6735.874072,-3064.381992
418.220315,-666.185348,-8586.388927,-2451.505594
418.220637,2368.659014,-10881.027347,-383.047749
418.220960,5477.523971,-12213.398043,766.095498
418.221282,7994.224174,-11843.295072,459.657299
418.221605,7254.018232,-12213.398043,536.266849
418.221927,3849.070898,-9474.636058,229.828649
418.222249,-148.041188,-8364.327145,-612.876398
418.222572,-3256.906145,-8956.491898,-2451.505594
418.222894,-4885.359217,-9622.677246,-3983.696590
418.223217,-6809.894666,-8882.471304,-3294.210641
418.223539,-8290.306550,-8438.347739,-1608.800546
418.223861,-7254.018232,-7698.141797,-383.047749
418.224184,-5033.400406,-7994.224174,-919.314598
418.224506,-3849.070898,-7920.203579,-2911.162892
418.224829,-2812.782580,-7994.224174,-2834.553343
418.225151,-1184.329507,-8956.491898,-1378.971896
418.225474,888.247130,-8808.450710,-2451.505594
418.225796,2812.782580,-9326.594869,-3217.601092
418.226118,3552.988522,-10436.903782,-2528.115143
418.226441,3404.947333,-10881.027347,-1532.190996
418.226763,2960.823768,-10807.006753,-1455.581446
418.227086,2812.782580,-11621.233289,-1991.848295
418.227408,1480.411884,-12213.398043,-1762.019645
418.227730,-370.102971,-11177.109724,0.000000
418.228053,-2812.782580,-8438.347739,1302.362347
418.228375,-3627.009116,-6217.729913,536.266849
418.228698,-3552.988522,-5699.585753,-612.876398
418.229020,-2664.741391,-5699.585753,-1838.629195
418.229342,-1110.308913,-6735.874072,-995.924147
418.229665,1406.391290,-8808.450710,0.000000
418.229987,5181.441594,-11029.068536,766.095498
418.230310,7254.018232,-12805.562797,383.047749
418.230632,6809.894666,-12435.459826,1225.752797
418.230954,3256.906145,-10807.006753,612.876398
418.231277,-370.102971,-9474.636058,-1149.143247
418.231599,-2812.782580,-9400.615463,-4366.744339
418.231922,-4293.194464,-9918.759623,-6435.202183
418.232244,-6735.874072,-9474.636058,-4903.011187
418.232567,-8438.347739,-8660.409521,-1149.143247
418.232889,-7031.956449,-8290.306550,-612.876398
418.233211,-4811.338623,-7994.224174,-1608.800546
418.233534,-3404.947333,-8216.285956,-2987.772442
418.233856,-2146.597232,-7920.203579,-2911.162892
418.234179,-814.226536,-8364.327145,-1838.629195
418.234501,1554.432478,-7550.100608,-1302.362347
418.234823,4663.297435,-7105.977043,-2221.676944
418.235146,6217.729913,-8882.471304,-2298.286494
418.235468,6661.853478,-9474.636058,-689.485948
418.235791,4811.338623,-10140.821405,-536.266849
418.236113,2886.803174,-10807.006753,-1532.190996
418.236435,1702.473667,-12805.562797,-2221.676944
418.236758,-1110.308913,-12657.521608,-1608.800546
418.237080,-4885.359217,-9474.636058,-995.924147
418.237403,-6883.915261,-7476.080014,-919.314598
418.237725,-5921.647536,-6069.688724,-2681.334243
418.238048,-2368.659014,-6513.812290,-3983.696590
418.238370,740.205942,-8216.285956,-3370.820191
418.238692,2960.823768,-10732.986159,-766.095498
418.239015,4737.318029,-11991.336260,2068.457845
418.239337,5773.606348,-12435.459826,2145.067394
418.239660,5847.626942,-12139.377449,-383.047749
418.239982,4367.215058,-11103.089130,-2451.505594
418.240304,1406.391290,-9030.512492,-3524.039291
418.240627,-1406.391290,-7476.080014,-2604.724693
418.240949,-3849.070898,-8216.285956,-2145.067394
418.241272,-6217.729913,-9104.533087,-1838.629195
418.241594,-7550.100608,-8882.471304,-1915.238745
418.241916,-8512.368333,-8808.450710,-2528.115143
418.242239,-7994.224174,-8216.285956,-2681.334243
418.242561,-5995.668130,-8734.430116,-4060.306139
418.242884,-4293.194464,-8290.306550,-3064.381992
418.243206,-2368.659014,-7994.224174,-1762.019645
418.243528,148.041188,-8956.491898,-2068.457845
418.243851,2590.720797,-8882.471304,-2987.772442
418.244173,3923.091493,-9400.615463,-3447.429741
418.244496,4219.173869,-10288.862594,-2451.505594
418.244818,3404.947333,-11621.233289,-1072.533697
418.245141,2368.659014,-11917.315666,-612.876398
418.245463,888.247130,-11695.253884,-1225.752797
418.245785,-370.102971,-11399.171507,-689.485948
418.246108,-2664.741391,-8068.244768,-306.438199
418.246430,-4367.215058,-6069.688724,-766.095498
418.246753,-4441.235652,-5921.647536,-1225.752797
418.247075,-2442.679609,-7254.018232,-1072.533697
418.247397,-296.082377,-8734.430116,-689.485948
418.247720,2738.761985,-9474.636058,612.876398
418.248042,5551.544565,-11029.068536,459.657299
418.248365,7920.203579,-12139.377449,612.876398
418.248687,8734.430116,-12361.439231,1072.533697
418.249009,7105.977043,-10955.047942,1455.581446
418.249332,2738.761985,-9030.512492,689.485948
418.249654,-592.164754,-8512.368333,-1378.971896
418.249977,-2664.741391,-9770.718434,-3447.429741
418.250299,-4589.276840,-9548.656652,-4213.525239
418.250621,-6809.894666,-8586.388927,-3140.991542
418.250944,-7254.018232,-8068.244768,-689.485948
418.251266,-6957.935855,-7624.121203,0.000000
418.251589,-6439.791695,-6809.894666,-1685.410096
418.251911,-5847.626942,-6217.729913,-2911.162892
418.252234,-4737.318029,-7772.162391,-2604.724693
418.252556,-2516.700203,-9104.533087,-2528.115143
418.252878,1184.329507,-9992.780217,-2911.162892
418.253201,3923.091493,-9474.636058,-2987.772442
418.253523,5477.523971,-9918.759623,-1455.581446
418.253846,5551.544565,-10807.006753,-383.047749
418.254168,4811.338623,-10881.027347,-842.705048
418.254490,2960.823768,-11029.068536,-2145.067394
418.254813,888.247130,-11547.212695,-2451.505594
418.255135,-1702.473667,-10881.027347,-689.485948
418.255458,-4145.153275,-8586.388927,0.000000
418.255780,-4515.256246,-6439.791695,-153.219100
418.256102,-2664.741391,-6217.729913,-842.705048
418.256425,-370.102971,-6365.771101,-1072.533697
418.256747,2072.576638,-7550.100608,-536.266849
418.257070,3404.947333,-8956.491898,536.266849
418.257392,4663.297435,-11399.171507,1302.362347
418.257715,4737.318029,-12213.398043,536.266849
418.258037,3478.967927,-11547.212695,-995.924147
418.258359,296.082377,-9992.780217,-2681.334243
418.258682,-1850.514855,-9548.656652,-3753.867940
418.259004,-3923.091493,-10362.883188,-4443.353888
418.259327,-6143.709319,-11473.192101,-3830.477490
418.259649,-8068.244768,-10732.986159,-2681.334243
418.259971,-9918.759623,-9696.697840,-3064.381992
418.260294,-9474.636058,-9326.594869,-3753.867940
418.260616,-7031.956449,-8438.347739,-5362.668486
418.260939,-4071.132681,-7994.224174,-4673.182538
418.261261,-1924.535449,-7846.182985,-2451.505594
418.261583,370.102971,-7550.100608,-1149.143247
418.261906,2812.782580,-8290.306550,-1838.629195
418.262228,4515.256246,-8956.491898,-2298.286494
418.262551,5033.400406,-9474.636058,-1685.410096
418.262873,4589.276840,-9474.636058,-1532.190996
418.263195,3404.947333,-9252.574275,-2298.286494
418.263518,2442.679609,-11103.089130,-1991.848295
418.263840,740.205942,-11991.336260,-459.657299
418.264163,-2072.576638,-10881.027347,0.000000
418.264485,-4071.132681,-7994.224174,-766.095498
418.264808,-3478.967927,-6883.915261,-2987.772442
418.265130,-2220.617826,-6735.874072,-2834.553343
418.265452,0.000000,-8068.244768,-1838.629195
418.265775,1776.494261,-8734.430116,229.828649
418.266097,3552.988522,-9992.780217,76.609550
418.266420,5921.647536,-12065.356855,153.219100
418.266742,7105.977043,-12731.542202,153.219100
418.267064,5995.668130,-11251.130318,0.000000
418.267387,4219.173869,-9770.718434,-766.095498
418.267709,2220.617826,-9178.553681,-1149.143247
418.268032,222.061783,-9326.594869,-1378.971896
418.268354,-2294.638420,-9252.574275,-1455.581446
418.268676,-4885.359217,-9104.533087,-1532.190996
418.268999,-7550.100608,-7994.224174,-1532.190996
418.269321,-7476.080014,-7846.182985,-2145.067394
418.269644,-6587.832884,-7105.977043,-3064.381992
418.269966,-5033.400406,-7920.203579,-2757.943793
418.270289,-3627.009116,-7994.224174,-919.314598
418.270611,-1628.453072,-8586.388927,-1378.971896
418.270933,962.267725,-9030.512492,-1685.410096
418.271256,3034.844362,-9474.636058,-2834.553343
418.271578,3478.967927,-10288.862594,-2681.334243
418.271901,3034.844362,-9622.677246,-995.924147
418.272223,2368.659014,-9178.553681,-1149.143247
418.272545,1628.453072,-10362.883188,-2451.505594
418.272868,740.205942,-11991.336260,-2298.286494
418.273190,-888.247130,-12213.398043,-383.047749
418.273513,-2886.803174,-10066.800811,459.657299
418.273835,-4145.153275,-7846.182985,536.266849
418.274157,-3775.050304,-6217.729913,-229.828649
418.274480,-2590.720797,-6217.729913,-842.705048
418.274802,-1332.370696,-6957.935855,-919.314598
418.275125,592.164754,-8512.368333,0.000000
418.275447,3034.844362,-9770.718434,306.438199
418.275769,4441.235652,-10658.965565,-383.047749
418.276092,4441.235652,-11843.295072,-689.485948
418.276414,2960.823768,-11695.253884,-919.314598
418.276737,666.185348,-11251.130318,-1455.581446
418.277059,-1480.411884,-10510.924376,-2757.943793
418.277382,-3701.029710,-10955.047942,-4213.525239
418.277704,-6217.729913,-10214.842000,-3753.867940
418.278026,-7772.162391,-8808.450710,-2757.943793
418.278349,-7624.121203,-7994.224174,-2451.505594
418.278671,-5773.606348,-6957.935855,-1838.629195
418.278994,-3627.009116,-7105.977043,-2911.162892
418.279316,-2146.597232,-8364.327145,-1915.238745
418.279638,-740.205942,-9474.636058,-229.828649
418.279961,962.267725,-9622.677246,-612.876398
418.280283,2664.741391,-8882.471304,-2298.286494
418.280606,4663.297435,-8364.327145,-2604.724693
418.280928,5329.482782,-7476.080014,-2451.505594
418.281250,5699.585753,-8142.265362,-1991.848295
418.281573,4885.359217,-10066.800811,-1378.971896
418.281895,3182.885551,-11917.315666,-995.924147
418.282218,222.061783,-12509.480420,-689.485948
418.282540,-2812.782580,-11473.192101,-995.924147
418.282862,-3997.112087,-9474.636058,-2298.286494
418.283185,-2960.823768,-7698.141797,-3677.258390
418.283507,-888.247130,-6883.915261,-3370.820191
418.283830,962.267725,-7179.997637,-1302.362347
418.284152,2294.638420,-8216.285956,153.219100
418.284475,3701.029710,-9474.636058,612.876398
418.284797,4737.318029,-11177.109724,-459.657299
418.285119,4737.318029,-12065.356855,-1378.971896
418.285442,3256.906145,-11695.253884,-1915.238745
418.285764,1184.329507,-9844.739029,-1455.581446
418.286087,-592.164754,-9474.636058,-1608.800546
418.286409,-2220.617826,-10066.800811,-1378.971896
418.286731,-5033.400406,-9770.718434,-2298.286494
418.287054,-7179.997637,-8586.388927,-2528.115143
418.287376,-8808.450710,-7846.182985,-3600.648841
418.287699,-7105.977043,-8734.430116,-3447.429741
418.288021,-4737.318029,-8438.347739,-3370.820191
418.288343,-2664.741391,-8438.347739,-2068.457845
418.288666,-740.205942,-8216.285956,-919.314598
418.288988,1036.288319,-9104.533087,-766.095498
418.289311,2516.700203,-9030.512492,-1608.800546
418.289633,3404.947333,-9104.533087,-2757.943793
418.289956,3404.947333,-9178.553681,-2834.553343
418.290278,3182.885551,-9474.636058,-1838.629195
418.290601,2590.720797,-10214.842000,-689.485948
418.290923,1776.494261,-11769.274478,-459.657299
418.291246,-518.144159,-11547.212695,-612.876398
418.291568,-2886.803174,-10140.821405,153.219100
418.291891,-4811.338623,-7254.018232,0.000000
418.292213,-5847.626942,-5773.606348,-1838.629195
418.292536,-4589.276840,-6735.874072,-2068.457845
418.292858,-2664.741391,-7031.956449,-995.924147
418.293181,-444.123565,-8068.244768,0.000000
418.293503,2072.576638,-9474.636058,306.438199
418.293826,4441.235652,-11103.089130,76.609550
418.294148,5477.523971,-11769.274478,-612.876398
418.294471,4515.256246,-11029.068536,0.000000
418.294793,814.226536,-9622.677246,-842.705048
418.295116,-1554.432478,-9992.780217,-2681.334243
418.295439,-2886.803174,-10807.006753,-4136.915689
418.295761,-4663.297435,-10584.944971,-4136.915689
418.296084,-6883.915261,-9474.636058,-2987.772442
418.296406,-7179.997637,-8956.491898,-1225.752797
418.296729,-5625.565159,-8068.244768,-2068.457845
418.297051,-3923.091493,-7624.121203,-2911.162892
418.297374,-2812.782580,-7550.100608,-2681.334243
418.297696,-2368.659014,-7698.141797,-1455.581446
418.298019,-814.226536,-8734.430116,-919.314598
418.298341,1776.494261,-8660.409521,-2298.286494
418.298664,3627.009116,-8734.430116,-3524.039291
418.298986,4663.297435,-9474.636058,-3064.381992
418.299309,5329.482782,-10140.821405,-1915.238745
418.299631,5551.544565,-10288.862594,-1149.143247
418.299954,4959.379811,-11325.150913,-1608.800546
418.300276,2738.761985,-12139.377449,-536.266849
418.300599,-444.123565,-11621.233289,0.000000
418.300921,-3034.844362,-9548.656652,-1149.143247
418.301244,-3849.070898,-7846.182985,-2374.896044
418.301566,-1924.535449,-6957.935855,-2604.724693
418.301889,-518.144159,-7105.977043,-2068.457845
418.302211,1702.473667,-7772.162391,0.000000
418.302534,2886.803174,-9400.615463,1149.143247
418.302856,4367.215058,-10955.047942,1072.533697
418.303179,5329.482782,-12213.398043,0.000000
418.303501,3552.988522,-11473.192101,-1225.752797
418.303824,444.123565,-9770.718434,-1455.581446
418.304146,-2368.659014,-8808.450710,-1915.238745
418.304469,-3627.009116,-9400.615463,-2757.943793
418.304791,-4737.318029,-10362.883188,-3140.991542
418.305114,-6069.688724,-9622.677246,-2604.724693
418.305436,-6957.935855,-9474.636058,-2068.457845
418.305759,-5699.585753,-8808.450710,-1915.238745
418.306081,-3701.029710,-8586.388927,-1685.410096
418.306404,-2294.638420,-8216.285956,-2145.067394
418.306726,-962.267725,-7698.141797,-1149.143247
418.307049,888.247130,-8290.306550,76.609550
418.307371,2516.700203,-7994.224174,-1149.143247
418.307694,4219.173869,-8512.368333,-1608.800546
418.308016,5107.421000,-9622.677246,-919.314598
418.308339,5625.565159,-10066.800811,-306.438199
418.308661,5181.441594,-10214.842000,-995.924147
418.308984,4219.173869,-11251.130318,-612.876398
418.309306,2294.638420,-11769.274478,-612.876398
418.309629,-814.226536,-10658.965565,-383.047749
418.309951,-4367.215058,-8142.265362,0.000000
418.310274,-6217.729913,-6217.729913,-1149.143247
418.310596,-6143.709319,-5847.626942,-3064.381992
418.310919,-4293.194464,-6957.935855,-3370.820191
418.311241,-2220.617826,-8216.285956,-2298.286494
418.311564,296.082377,-10510.924376,-612.876398
418.311886,3182.885551,-11769.274478,459.657299
418.312209,5033.400406,-11547.212695,229.828649
418.312531,3997.112087,-11251.130318,-689.485948
418.312854,1258.350101,-9474.636058,-1532.190996
418.313176,-1776.494261,-8364.327145,-3064.381992
418.313499,-3552.988522,-9326.594869,-4443.353888
418.313821,-4441.235652,-10732.986159,-4596.572988
418.314144,-6217.729913,-10584.944971,-2757.943793
418.314466,-6661.853478,-9104.533087,-995.924147
418.314789,-6069.688724,-8068.244768,-995.924147
418.315111,-3701.029710,-7328.038826,-2221.676944
418.315434,-2146.597232,-8068.244768,-2987.772442
418.315756,-2146.597232,-8142.265362,-1915.238745
418.316079,-1036.288319,-8882.471304,-766.095498
418.316401,1406.391290,-8956.491898,-1685.410096
418.316724,4145.153275,-8808.450710,-2834.553343
418.317046,5551.544565,-8808.450710,-3140.991542
418.317369,6217.729913,-8956.491898,-1685.410096
418.317691,6069.688724,-9400.615463,-1532.190996
418.318014,4515.256246,-11177.109724,-1991.848295
418.318336,1628.453072,-12435.459826,-1991.848295
418.318659,-2146.597232,-12879.583391,-1302.362347
418.318981,-4885.359217,-10510.924376,-1991.848295
418.319304,-6809.894666,-8586.388927,-3370.820191
418.319626,-5625.565159,-7624.121203,-3830.477490
418.319949,-3404.947333,-7105.977043,-2528.115143
418.320271,-962.267725,-7772.162391,-995.924147
418.320594,1776.494261,-8586.388927,842.705048
418.320916,4367.215058,-9992.780217,76.609550
418.321239,6143.709319,-10732.986159,-536.266849
418.321561,5995.668130,-10436.903782,-842.705048
418.321884,3034.844362,-9178.553681,-842.705048
418.322206,-222.061783,-8068.244768,-842.705048
418.322529,-2220.617826,-10066.800811,-2451.505594
418.322851,-3256.906145,-12583.501014,-3677.258390
418.323174,-4663.297435,-11769.274478,-3600.648841
418.323496,-5699.585753,-9622.677246,-1838.629195
418.323819,-4293.194464,-9030.512492,-536.266849
418.324141,-2072.576638,-8290.306550,-1072.533697
418.324464,-666.185348,-8068.244768,-2451.505594
418.324786,-1258.350101,-7476.080014,-1072.533697
418.325109,-1332.370696,-7624.121203,-612.876398
418.325431,0.000000,-8956.491898,-1532.190996
418.325754,2516.700203,-9178.553681,-2987.772442
418.326076,4293.194464,-9178.553681,-2911.162892
418.326399,5107.421000,-10807.006753,-919.314598
418.326721,5477.523971,-10732.986159,1225.752797
418.327044,4663.297435,-10807.006753,612.876398
418.327366,2516.700203,-10584.944971,-766.095498
418.327689,-444.123565,-10436.903782,-536.266849
418.328011,-3627.009116,-9622.677246,-919.314598
418.328334,-5181.441594,-8142.265362,-1685.410096
418.328656,-4515.256246,-7254.018232,-1762.019645
418.328979,-2368.659014,-7179.997637,-1991.848295
418.329301,74.020594,-7402.059420,-612.876398
418.329624,2072.576638,-8956.491898,689.485948
418.329946,2886.803174,-10807.006753,995.924147
418.330269,3108.864956,-11251.130318,842.705048
418.330591,1628.453072,-9918.759623,0.000000
418.330914,-592.164754,-7772.162391,-1378.971896
418.331236,-1776.494261,-8734.430116,-3447.429741
418.331559,-2220.617826,-9696.697840,-3600.648841
418.331881,-3034.844362,-10881.027347,-3064.381992
418.332204,-4737.318029,-10881.027347,-1378.971896
418.332526,-6587.832884,-10066.800811,76.609550
418.332849,-5699.585753,-9770.718434,-919.314598
418.333171,-4441.235652,-8290.306550,-3600.648841
418.333494,-3034.844362,-7846.182985,-4213.525239
418.333816,-3034.844362,-7105.977043,-1685.410096
418.334139,-1258.350101,-6439.791695,-459.657299
418.334461,1184.329507,-7179.997637,-1608.800546
418.334784,3627.009116,-8586.388927,-2068.457845
418.335106,5477.523971,-10955.047942,-2757.943793
418.335429,5773.606348,-12139.377449,-1991.848295
418.335751,4737.318029,-12065.356855,-1072.533697
418.336074,3997.112087,-11843.295072,-1072.533697
418.336396,2368.659014,-11621.233289,-1915.238745
418.336719,-518.144159,-10807.006753,-1532.190996
418.337041,-3923.091493,-8808.450710,-1072.533697
418.337364,-6661.853478,-6587.832884,-2374.896044
418.337686,-6883.915261,-5847.626942,-3294.210641
418.338009,-4589.276840,-7105.977043,-2757.943793
418.338331,-2664.741391,-8808.450710,-2145.067394
418.338654,-962.267725,-10658.965565,-689.485948
418.338976,1258.350101,-11473.192101,229.828649
418.339299,3552.988522,-10881.027347,383.047749
418.339621,4145.153275,-9622.677246,-995.924147
418.339944,1776.494261,-7476.080014,-2221.676944
418.340266,-740.205942,-8216.285956,-2757.943793
418.340589,-1924.535449,-9326.594869,-3447.429741
418.340911,-2886.803174,-10881.027347,-4673.182538
418.341234,-4515.256246,-11991.336260,-3447.429741
418.341556,-5773.606348,-11621.233289,-842.705048
418.341879,-4515.256246,-10436.903782,-1225.752797
418.342201,-2812.782580,-8142.265362,-2911.162892
418.342524,-2442.679609,-7550.100608,-2604.724693
418.342846,-2294.638420,-6957.935855,-1455.581446
418.343169,-740.205942,-6661.853478,0.000000
418.343491,1628.453072,-7772.162391,-1762.019645
418.343814,4737.318029,-9696.697840,-2298.286494
418.344136,6365.771101,-11029.068536,-2298.286494
418.344459,7105.977043,-11473.192101,-536.266849
418.344781,7105.977043,-10436.903782,1302.362347
418.345104,6735.874072,-9622.677246,153.219100
418.345426,4811.338623,-9770.718434,-1838.629195
418.345749,1110.308913,-10288.862594,-1149.143247
418.346071,-2442.679609,-9622.677246,-153.219100
418.346394,-4737.318029,-8660.409521,-919.314598
418.346716,-4589.276840,-8290.306550,-1991.848295
418.347039,-3552.988522,-7328.038826,-2451.505594
418.347361,-2146.597232,-7328.038826,-1378.971896
418.347684,-1036.288319,-9030.512492,76.609550
418.348006,-370.102971,-10510.924376,1378.971896
418.348329,444.123565,-10362.883188,383.047749
418.348651,-296.082377,-9178.553681,-2298.286494
418.348974,-888.247130,-9030.512492,-2604.724693
418.349296,-1776.494261,-9030.512492,-2528.115143
418.349619,-1776.494261,-9622.677246,-2451.505594
418.349941,-1480.411884,-11547.212695,-2451.505594
418.350264,-2294.638420,-11843.295072,-1225.752797
418.350586,-3701.029710,-10807.006753,0.000000
418.350909,-4293.194464,-9918.759623,-229.828649
418.351231,-3330.926739,-8734.430116,-1838.629195
418.351554,-1702.473667,-7105.977043,-2834.553343
418.351876,-518.144159,-5773.606348,-1915.238745
418.352199,666.185348,-5847.626942,383.047749
418.352521,2590.720797,-7254.018232,919.314598
418.352844,3923.091493,-8660.409521,-229.828649
418.353166,4663.297435,-9770.718434,-842.705048
418.353489,4145.153275,-10510.924376,-1378.971896
418.353811,3701.029710,-10732.986159,-2221.676944
418.354134,2368.659014,-10955.047942,-2528.115143
418.354456,1036.288319,-10658.965565,-2528.115143
418.354779,-1258.350101,-10140.821405,-1685.410096
418.355101,-3701.029710,-9844.739029,-1532.190996
418.355424,-5995.668130,-9622.677246,-2145.067394
418.355746,-7031.956449,-8364.327145,-2987.772442
418.356069,-6143.709319,-7698.141797,-3524.039291
418.356391,-4959.379811,-7846.182985,-3447.429741
418.356714,-2812.782580,-8956.491898,-1915.238745
418.357036,-444.123565,-9548.656652,-459.657299
418.357359,1702.473667,-9474.636058,-766.095498
418.357681,2368.659014,-9696.697840,-1915.238745
418.358004,2072.576638,-10140.821405,-2145.067394
418.358326,1110.308913,-9400.615463,-1991.848295
418.358649,0.000000,-9252.574275,-1762.019645
418.358971,-888.247130,-10214.842000,-3064.381992
418.359294,-2220.617826,-11547.212695,-2451.505594
418.359616,-3552.988522,-10732.986159,-1225.752797
418.359939,-4515.256246,-9104.533087,-842.705048
418.360261,-3701.029710,-8290.306550,-2451.505594
418.360584,-1924.535449,-7920.203579,-3524.039291
418.360906,-592.164754,-8068.244768,-2068.457845
418.361229,0.000000,-8808.450710,-842.705048
418.361551,1628.453072,-9474.636058,-612.876398
418.361874,3256.906145,-10140.821405,-1378.971896
418.362196,5033.400406,-9918.759623,-2987.772442
418.362519,4737.318029,-9770.718434,-2911.162892
418.362841,3627.009116,-9844.739029,-1915.238745
418.363164,2664.741391,-9992.780217,-1608.800546
418.363486,1850.514855,-10955.047942,-2374.896044
418.363809,-74.020594,-11621.233289,-2068.457845
418.364131,-2590.720797,-10584.944971,-1455.581446
418.364454,-4071.132681,-9622.677246,-1608.800546
418.364776,-4367.215058,-8068.244768,-2145.067394
418.365099,-2442.679609,-7772.162391,-1915.238745
418.365421,-1036.288319,-7254.018232,-1762.019645
418.365744,518.144159,-7994.224174,-995.924147
418.366066,2146.597232,-9474.636058,536.266849
418.366389,2664.741391,-10436.903782,612.876398
418.366711,2886.803174,-10066.800811,689.485948
418.367034,2368.659014,-8882.471304,76.609550
418.367356,1258.350101,-7698.141797,-2068.457845
418.367679,1110.308913,-8512.368333,-1762.019645
418.368001,518.144159,-9918.759623,-1302.362347
418.368324,-1036.288319,-10584.944971,-919.314598
418.368646,-3108.864956,-10214.842000,0.000000
418.368969,-4145.153275,-9992.780217,76.609550
418.369291,-4293.194464,-9030.512492,-842.705048
418.369614,-3923.091493,-7179.997637,-3064.381992
418.369936,-3256.906145,-7920.203579,-2757.943793
418.370259,-2294.638420,-9178.553681,-1149.143247
418.370581,-518.144159,-9326.594869,0.000000
418.370904,1110.308913,-8438.347739,0.000000
418.371226,2664.741391,-8660.409521,-1838.629195
418.371549,3627.009116,-9696.697840,-2451.505594
418.371871,3478.967927,-10658.965565,-1762.019645
418.372194,2368.659014,-9918.759623,-1225.752797
418.372516,1850.514855,-9770.718434,-1455.581446
418.372839,666.185348,-10436.903782,-1915.238745
418.373161,-1628.453072,-10510.924376,-842.705048
418.373484,-4515.256246,-8808.450710,-459.657299
418.373806,-5995.668130,-7624.121203,-2374.896044
418.374129,-4737.318029,-7772.162391,-3294.210641
418.374451,-2664.741391,-8808.450710,-2757.943793
418.374774,-1480.411884,-9400.615463,-1149.143247
418.375096,0.000000,-10066.800811,0.000000
418.375419,1776.494261,-10658.965565,0.000000
418.375741,3552.988522,-10362.883188,-689.485948
418.376064,3627.009116,-8660.409521,-1378.971896
418.376386,2146.597232,-7179.997637,-1991.848295
418.376709,518.144159,-8512.368333,-2987.772442
418.377031,-296.082377,-10288.862594,-3217.601092
418.377354,-1998.556043,-11917.315666,-2298.286494
418.377676,-4663.297435,-11769.274478,-1991.848295
418.377999,-6217.729913,-9548.656652,-229.828649
418.378321,-6587.832884,-7402.059420,-2221.676944
418.378644,-4515.256246,-7105.977043,-4290.134789
418.378966,-2960.823768,-6661.853478,-4443.353888
418.379289,-2072.576638,-8068.244768,-2451.505594
418.379611,-592.164754,-8808.450710,-306.438199
418.379934,1702.473667,-9548.656652,0.000000
418.380256,3552.988522,-9474.636058,-1915.238745
418.380579,4737.318029,-9622.677246,-3370.820191
418.380901,4737.318029,-10288.862594,-2451.505594
418.381224,4145.153275,-9770.718434,-1072.533697
418.381546,2960.823768,-9844.739029,-1302.362347
418.381869,1406.391290,-10807.006753,-2145.067394
418.382191,-814.226536,-11177.109724,-2068.457845
418.382514,-3330.926739,-10732.986159,-1608.800546
418.382836,-5329.482782,-9474.636058,-1838.629195
418.383159,-4441.235652,-8882.471304,-1762.019645
418.383481,-2516.700203,-8216.285956,-2298.286494
418.383804,-592.164754,-8142.265362,-1455.581446
418.384126,1110.308913,-8364.327145,-766.095498
418.384449,2886.803174,-9474.636058,0.000000
418.384771,4219.173869,-10658.965565,-383.047749
418.385094,3849.070898,-10066.800811,-995.924147
418.385416,1998.556043,-8734.430116,-842.705048
418.385739,370.102971,-8586.388927,-1608.800546
418.386061,-296.082377,-10066.800811,-2834.553343
418.386384,-888.247130,-11621.233289,-3217.601092
418.386706,-3552.988522,-11177.109724,-2451.505594
418.387029,-5699.585753,-9844.739029,-229.828649
418.387351,-5551.544565,-8956.491898,229.828649
418.387674,-4515.256246,-7550.100608,-2604.724693
418.387997,-3108.864956,-6809.894666,-4060.306139
418.388319,-2442.679609,-7328.038826,-2911.162892
418.388642,-1480.411884,-8882.471304,0.000000
418.388964,0.000000,-8882.471304,229.828649
418.389287,2146.597232,-7994.224174,-766.095498
418.389609,3256.906145,-8512.368333,-2068.457845
418.389932,4219.173869,-9844.739029,-1532.190996
418.390254,4219.173869,-10658.965565,-1608.800546
418.390577,3478.967927,-10658.965565,-1455.581446
418.390899,2664.741391,-11103.089130,-1532.190996
418.391222,962.267725,-11843.295072,-536.266849
418.391544,-1480.411884,-10732.986159,76.609550
418.391867,-5033.400406,-9252.574275,-612.876398
418.392189,-5107.421000,-8660.409521,-1762.019645
418.392512,-4071.132681,-7772.162391,-2528.115143
418.392834,-1998.556043,-8068.244768,-1838.629195
418.393156,0.000000,-8364.327145,-536.266849
418.393479,1628.453072,-9178.553681,459.657299
418.393801,2664.741391,-9696.697840,536.266849
418.394124,2812.782580,-9326.594869,0.000000
418.394446,1776.494261,-8586.388927,-1302.362347
418.394769,0.000000,-7846.182985,-2528.115143
418.395091,-962.267725,-9252.574275,-3600.648841
418.395414,-1628.453072,-10955.047942,-2987.772442
418.395736,-2960.823768,-11991.336260,-1838.629195
418.396059,-5033.400406,-10584.944971,-766.095498
418.396381,-5403.503377,-8956.491898,-1225.752797
418.396704,-3923.091493,-8364.327145,-3140.991542
418.397026,-2072.576638,-6587.832884,-4136.915689
418.397349,-888.247130,-7031.956449,-3983.696590
418.397671,0.000000,-8808.450710,-1072.533697
418.397994,1628.453072,-8808.450710,229.828649
418.398316,3034.844362,-8956.491898,-1225.752797
418.398639,3849.070898,-9696.697840,-2834.553343
418.398961,5033.400406,-10362.883188,-2757.943793
418.399284,4959.379811,-10362.883188,-2298.286494
418.399606,4293.194464,-10658.965565,-1685.410096
418.399929,3627.009116,-11251.130318,-1072.533697
418.400251,1924.535449,-11029.068536,-842.705048
418.400574,-888.247130,-9326.594869,-1149.143247
418.400896,-3404.947333,-8808.450710,-2374.896044
418.401219,-4515.256246,-9252.574275,-3217.601092
418.401541,-4367.215058,-9030.512492,-2757.943793
418.401864,-2516.700203,-8734.430116,-1991.848295
418.402186,-666.185348,-8808.450710,-1302.362347
418.402509,1110.308913,-10140.821405,-229.828649
418.402831,2590.720797,-10436.903782,306.438199
418.403154,2738.761985,-9918.759623,-536.266849
418.403476,1628.453072,-9104.533087,-1455.581446
418.403799,222.061783,-8364.327145,-2374.896044
418.404121,-814.226536,-7994.224174,-3064.381992
418.404444,-2368.659014,-9696.697840,-2604.724693
418.404766,-3997.112087,-10658.965565,-2374.896044
418.405089,-5625.565159,-10214.842000,-1762.019645
418.405411,-6069.688724,-9030.512492,-1838.629195
418.405734,-5847.626942,-8808.450710,-2528.115143
418.406056,-4737.318029,-7772.162391,-3447.429741
418.406379,-3849.070898,-7772.162391,-2757.943793
418.406701,-2220.617826,-8512.368333,-1608.800546
418.407024,0.000000,-9030.512492,-383.047749
418.407346,2812.782580,-8882.471304,-1455.581446
418.407669,4515.256246,-8808.450710,-1685.410096
418.407991,5847.626942,-10140.821405,-1991.848295
418.408314,5625.565159,-11103.089130,0.000000
418.408636,4663.297435,-10955.047942,306.438199
418.408959,3404.947333,-10436.903782,-842.705048
418.409281,1258.350101,-9770.718434,-689.485948
418.409604,-1480.411884,-9474.636058,0.000000
418.409926,-4293.194464,-8290.306550,229.828649
418.410249,-5033.400406,-7402.059420,-919.314598
418.410571,-4885.359217,-7476.080014,-1532.190996
418.410894,-3404.947333,-7476.080014,-1455.581446
418.411216,-2368.659014,-8216.285956,-842.705048
418.411539,-962.267725,-9992.780217,-383.047749
418.411861,370.102971,-11103.089130,-536.266849
418.412184,1776.494261,-11251.130318,-1149.143247
418.412506,1554.432478,-10288.862594,-1455.581446
418.412829,1184.329507,-8734.430116,-1762.019645
418.413151,74.020594,-8808.450710,-3217.601092
418.413474,-222.061783,-10140.821405,-3524.039291
418.413796,-1258.350101,-12065.356855,-1991.848295
418.414119,-3775.050304,-11695.253884,-919.314598
418.414441,-5625.565159,-9548.656652,-306.438199
418.414764,-5255.462188,-8290.306550,-1378.971896
418.415086,-3701.029710,-6439.791695,-3064.381992
418.415409,-2072.576638,-5847.626942,-3217.601092
418.415731,-592.164754,-6883.915261,-1762.019645
418.416054,2294.638420,-7772.162391,383.047749
418.416376,4811.338623,-8586.388927,76.609550
418.416699,7105.977043,-10214.842000,-1455.581446
418.417021,7698.141797,-11547.212695,-766.095498
418.417344,6809.894666,-11103.089130,-536.266849
418.417666,5033.400406,-9622.677246,-766.095498
418.417989,3404.947333,-9400.615463,-1149.143247
418.418311,1036.288319,-10066.800811,-2528.115143
418.418634,-2590.720797,-10066.800811,-2068.457845
418.418956,-5847.626942,-9030.512492,-1915.238745
418.419279,-6809.894666,-9178.553681,-2757.943793
418.419601,-6217.729913,-9252.574275,-3524.039291
418.419924,-4071.132681,-9474.636058,-3064.381992
418.420246,-3108.864956,-9326.594869,-2528.115143
418.420569,-740.205942,-9770.718434,-1302.362347
418.420891,1406.391290,-10214.842000,0.000000
418.421214,3404.947333,-9622.677246,-1762.019645
418.421536,2960.823768,-8734.430116,-2145.067394
418.421859,2442.679609,-9474.636058,-2221.676944
418.422181,1258.350101,-10140.821405,-1302.362347
418.422504,0.000000,-10140.821405,-1149.143247
418.422826,-1776.494261,-10214.842000,-1532.190996
418.423149,-3182.885551,-9622.677246,-995.924147
418.423471,-3627.009116,-8512.368333,-383.047749
418.423793,-4663.297435,-6883.915261,-1532.190996
418.424116,-4145.153275,-6661.853478,-1991.848295
418.424438,-3330.926739,-6143.709319,-2451.505594
418.424761,-1406.391290,-8364.327145,-1838.629195
418.425083,518.144159,-9474.636058,-459.657299
418.425406,2590.720797,-10658.965565,-612.876398
418.425728,4367.215058,-11103.089130,-1762.019645
418.426051,5255.462188,-11621.233289,-1915.238745
418.426373,5107.421000,-11325.150913,-1072.533697
418.426696,3256.906145,-9992.780217,-536.266849
418.427018,1998.556043,-9696.697840,-1762.019645
418.427341,-74.020594,-10066.800811,-2834.553343
418.427663,-2812.782580,-10955.047942,-2068.457845
418.427986,-5329.482782,-9548.656652,-689.485948
418.428308,-7624.121203,-7846.182985,0.000000
418.428631,-6809.894666,-7920.203579,-1455.581446
418.428953,-5329.482782,-7920.203579,-1991.848295
418.429276,-3034.844362,-8364.327145,-1608.800546
418.429598,-1036.288319,-8734.430116,-306.438199
418.429921,1554.432478,-8882.471304,0.000000
418.430243,4145.153275,-9918.759623,-689.485948
418.430566,4663.297435,-10214.842000,-919.314598
418.430888,3775.050304,-9622.677246,-306.438199
418.431211,1850.514855,-9104.533087,-766.095498
418.431533,0.000000,-9622.677246,-1991.848295
418.431856,-1332.370696,-11103.089130,-2681.334243
418.432178,-3701.029710,-10584.944971,-1838.629195
418.432501,-5625.565159,-9104.533087,-1149.143247
418.432823,-5699.585753,-8142.265362,-842.705048
418.433146,-4885.359217,-7328.038826,-1608.800546
418.433468,-3627.009116,-5995.668130,-2298.286494
418.433791,-3256.906145,-5107.421000,-3217.601092
418.434113,-1628.453072,-7624.121203,-1532.190996
418.434436,1110.308913,-10140.821405,-842.705048
418.434758,4293.194464,-10955.047942,-2221.676944
418.435081,5847.626942,-10955.047942,-2911.162892
418.435403,6217.729913,-10584.944971,-1685.410096
418.435726,5551.544565,-10881.027347,-842.705048
418.436048,4219.173869,-10288.862594,-1455.581446
418.436371,2368.659014,-10066.800811,-2834.553343
418.436693,-370.102971,-10732.986159,-3217.601092
418.437016,-3330.926739,-9844.739029,-2068.457845
418.437338,-5329.482782,-8808.450710,-536.266849
418.437661,-5329.482782,-7624.121203,-2145.067394
418.437983,-3627.009116,-7550.100608,-3140.991542
418.438306,-1258.350101,-8290.306550,-1838.629195
418.438628,1258.350101,-9104.533087,-612.876398
418.438951,2960.823768,-9030.512492,229.828649
418.439273,5255.462188,-9770.718434,-153.219100
418.439596,5995.668130,-10362.883188,-1149.143247
418.439918,5181.441594,-10066.800811,-1608.800546
418.440241,2960.823768,-10066.800811,-1685.410096
418.440563,666.185348,-9622.677246,-1685.410096
418.440886,-1332.370696,-11325.150913,-3064.381992
418.441208,-3478.967927,-11917.315666,-3140.991542
418.441531,-5699.585753,-10732.986159,-2374.896044
418.441853,-6439.791695,-9474.636058,-1608.800546
418.442176,-5551.544565,-6957.935855,-2451.505594
418.442498,-3627.009116,-6883.915261,-3370.820191
418.442821,-2368.659014,-6661.853478,-3064.381992
418.443143,-666.185348,-7254.018232,-1455.581446
418.443466,1036.288319,-8956.491898,-306.438199
418.443788,3404.947333,-9770.718434,-612.876398
418.444111,4959.379811,-9992.780217,-1378.971896
418.444433,4885.359217,-10288.862594,-1302.362347
418.444756,3775.050304,-10214.842000,-306.438199
418.445078,2146.597232,-9696.697840,-536.266849
418.445401,592.164754,-9696.697840,-1302.362347
418.445723,-1406.391290,-10066.800811,-2451.505594
418.446046,-4071.132681,-9622.677246,-1762.019645
418.446368,-7179.997637,-8068.244768,-1072.533697
418.446691,-7920.203579,-8364.327145,-1072.533697
418.447013,-6587.832884,-8512.368333,-2298.286494
418.447336,-4885.359217,-8364.327145,-2221.676944
418.447658,-2960.823768,-9326.594869,-1072.533697
418.447981,-592.164754,-10066.800811,0.000000
418.448303,2072.576638,-11325.150913,459.657299
418.448626,2960.823768,-11029.068536,-383.047749
418.448948,2590.720797,-10066.800811,-689.485948
418.449271,1332.370696,-8882.471304,-1915.238745
418.449593,296.082377,-8956.491898,-2987.772442
418.449916,-1036.288319,-10362.883188,-3064.381992
418.450238,-3034.844362,-11325.150913,-1685.410096
418.450561,-4885.359217,-10584.944971,-306.438199
418.450883,-5921.647536,-9030.512492,-306.438199
418.451206,-5107.421000,-7550.100608,-1302.362347
418.451528,-3775.050304,-6809.894666,-2528.115143
418.451851,-2738.761985,-6957.935855,-2834.553343
418.452173,-1480.411884,-7031.956449,-1378.971896
418.452496,1184.329507,-7402.059420,-229.828649
418.452818,4293.194464,-8660.409521,-995.924147
418.453141,6439.791695,-9474.636058,-2374.896044
418.453463,6587.832884,-11029.068536,-2221.676944
418.453785,5551.544565,-11177.109724,-1378.971896
418.454108,4663.297435,-11251.130318,-995.924147
418.454430,4071.132681,-10955.047942,-1991.848295
418.454753,2294.638420,-11325.150913,-2757.943793
418.455075,-888.247130,-10362.883188,-995.924147
418.455398,-4145.153275,-8512.368333,0.000000
418.455720,-4663.297435,-7772.162391,-995.924147
418.456043,-3775.050304,-6883.915261,-2298.286494
418.456365,-2146.597232,-7254.018232,-2451.505594
418.456688,-370.102971,-8216.285956,-1838.629195
418.457010,1998.556043,-9696.697840,153.219100
418.457333,4515.256246,-10436.903782,1149.143247
418.457655,6291.750507,-10362.883188,459.657299
418.457978,6439.791695,-10288.862594,-459.657299
418.458300,4367.215058,-9030.512492,-1455.581446
418.458623,1628.453072,-8586.388927,-1915.238745
418.458945,-888.247130,-9770.718434,-2451.505594
418.459268,-2886.803174,-11621.233289,-2604.724693
418.459590,-5477.523971,-11029.068536,-2068.457845
418.459913,-6809.894666,-8734.430116,-1149.143247
418.460235,-7402.059420,-7476.080014,-2451.505594
418.460558,-5551.544565,-7402.059420,-3447.429741
418.460880,-3775.050304,-7920.203579,-3370.820191
418.461203,-2220.617826,-8438.347739,-2221.676944
418.461525,0.000000,-8586.388927,-1455.581446
418.461848,2072.576638,-9844.739029,-1532.190996
418.462170,3478.967927,-10362.883188,-2451.505594
418.462493,3552.988522,-10436.903782,-2757.943793
418.462815,2886.803174,-10658.965565,-1685.410096
418.463138,1702.473667,-10214.842000,-1608.800546
418.463460,1184.329507,-10584.944971,-2145.067394
418.463783,-888.247130,-10288.862594,-2451.505594
418.464105,-3552.988522,-10436.903782,-1685.410096
418.464428,-6365.771101,-9252.574275,-536.266849
418.464750,-6809.894666,-8808.450710,-995.924147
418.465073,-5995.668130,-7698.141797,-1149.143247
418.465395,-3923.091493,-8142.265362,-2068.457845
418.465718,-2072.576638,-8216.285956,-1455.581446
418.466040,148.041188,-9326.594869,0.000000
418.466363,2368.659014,-9770.718434,306.438199
418.466685,3923.091493,-10288.862594,153.219100
418.467008,3923.091493,-10362.883188,-1225.752797
418.467330,2664.741391,-9770.718434,-1685.410096
418.467653,1406.391290,-9844.739029,-2068.457845
418.467975,74.020594,-10732.986159,-2451.505594
418.468298,-1258.350101,-11547.212695,-2987.772442
418.468620,-3849.070898,-10436.903782,-1608.800546
418.468943,-5699.585753,-8438.347739,-919.314598
418.469265,-6439.791695,-7772.162391,-1608.800546
418.469588,-5847.626942,-7328.038826,-2451.505594
418.469910,-4515.256246,-6217.729913,-2451.505594
418.470233,-2738.761985,-6513.812290,-2451.505594
418.470555,-222.061783,-7624.121203,-995.924147
418.470878,3404.947333,-8956.491898,-229.828649
418.471200,5995.668130,-9474.636058,-1225.752797
418.471523,6809.894666,-9844.739029,-1378.971896
418.471845,6439.791695,-10881.027347,612.876398
418.472168,5033.400406,-10510.924376,229.828649
418.472490,3330.926739,-10066.800811,-1225.752797
418.472813,888.247130,-10214.842000,-2451.505594
418.473135,-1702.473667,-9696.697840,-1608.800546
418.473458,-3775.050304,-8808.450710,-1149.143247
418.473780,-4737.318029,-7846.182985,-1302.362347
418.474103,-4515.256246,-7772.162391,-2298.286494
418.474425,-2368.659014,-9104.533087,-2068.457845
418.474748,-962.267725,-9474.636058,-2145.067394
418.475070,1036.288319,-10658.965565,-995.924147
418.475393,2590.720797,-11325.150913,-306.438199
418.475715,4589.276840,-11473.192101,-383.047749
418.476038,5107.421000,-10214.842000,-1532.190996
418.476360,3997.112087,-9252.574275,-1378.971896
418.476683,1628.453072,-8660.409521,-1149.143247
418.477005,-740.205942,-9030.512492,-2145.067394
418.477328,-2886.803174,-9770.718434,-2681.334243
418.477650,-5033.400406,-10362.883188,-2451.505594
418.477973,-6217.729913,-9400.615463,-1378.971896
418.478295,-7031.956449,-7476.080014,-1225.752797
418.478618,-5921.647536,-7031.956449,-2145.067394
418.478940,-4663.297435,-6439.791695,-2221.676944
418.479263,-2886.803174,-7254.018232,-2681.334243
418.479585,-962.267725,-8438.347739,-2221.676944
418.479908,1332.370696,-9474.636058,-2528.115143
418.480230,3849.070898,-10807.006753,-3140.991542
418.480553,5625.565159,-11621.233289,-2451.505594
418.480875,5329.482782,-11843.295072,-1225.752797
418.481198,4367.215058,-11325.150913,-459.657299
418.481520,2664.741391,-10436.903782,-1378.971896
418.481843,814.226536,-10658.965565,-2681.334243
418.482165,-1998.556043,-10214.842000,-2145.067394
418.482488,-4737.318029,-8438.347739,-1149.143247
418.482810,-6217.729913,-7105.977043,-766.095498
418.483133,-5625.565159,-7031.956449,-1762.019645
418.483455,-3627.009116,-7994.224174,-1532.190996
418.483778,-1924.535449,-8142.265362,-995.924147
418.484100,444.123565,-8956.491898,0.000000
418.484422,2960.823768,-10510.924376,383.047749
418.484745,5329.482782,-10955.047942,76.609550
418.485067,5847.626942,-10732.986159,-383.047749
418.485390,4367.215058,-9548.656652,-919.314598
418.485712,2220.617826,-9030.512492,-1991.848295
418.486035,518.144159,-9474.636058,-3217.601092
418.486357,-1036.288319,-10955.047942,-3600.648841
418.486680,-3404.947333,-11177.109724,-2834.553343
418.487002,-5699.585753,-9548.656652,-1455.581446
418.487325,-6439.791695,-9104.533087,-1072.533697
418.487647,-5847.626942,-7105.977043,-1915.238745
418.487970,-4885.359217,-6439.791695,-2911.162892
418.488292,-3849.070898,-6217.729913,-3983.696590
418.488615,-1628.453072,-6957.935855,-2604.724693
418.488937,962.267725,-8290.306550,-1685.410096
418.489260,3923.091493,-9548.656652,-2451.505594
418.489582,4959.379811,-11843.295072,-3217.601092
418.489905,4589.276840,-12065.356855,-1608.800546
418.490227,3701.029710,-11177.109724,-459.657299
418.490550,3182.885551,-10436.903782,-1991.848295
418.490872,2590.720797,-10510.924376,-3064.381992
418.491195,148.041188,-10140.821405,-1991.848295
418.491517,-2368.659014,-8660.409521,383.047749
418.491840,-3997.112087,-7179.997637,459.657299
418.492162,-3552.988522,-6883.915261,-1532.190996
418.492485,-2146.597232,-7698.141797,-3064.381992
418.492807,-666.185348,-8586.388927,-2451.505594
418.493129,370.102971,-9844.739029,-536.266849
418.493452,2072.576638,-11177.109724,1532.190996
418.493774,3997.112087,-10955.047942,1072.533697
418.494097,4737.318029,-10362.883188,-919.314598
418.494419,4145.153275,-10066.800811,-1378.971896
418.494741,1702.473667,-8586.388927,-612.876398
418.495064,-814.226536,-7772.162391,-1838.629195
418.495386,-2812.782580,-9030.512492,-3830.477490
418.495709,-4145.153275,-11251.130318,-3370.820191
418.496031,-6069.688724,-11325.150913,-2528.115143
418.496353,-8068.244768,-10288.862594,-842.705048
418.496676,-7994.224174,-8882.471304,-1302.362347
418.496998,-6661.853478,-7550.100608,-2451.505594
418.497321,-4737.318029,-5847.626942,-3600.648841
418.497643,-2738.761985,-6365.771101,-2757.943793
418.497965,0.000000,-7402.059420,-612.876398
418.498288,3330.926739,-8512.368333,-1608.800546
418.498610,4959.379811,-9918.759623,-2451.505594
418.498933,5181.441594,-11547.212695,-919.314598
418.499255,4219.173869,-11843.295072,919.314598
418.499577,2886.803174,-10881.027347,-689.485948
418.499900,2368.659014,-10881.027347,-2374.896044
418.500222,740.205942,-11177.109724,-1915.238745
418.500545,-1332.370696,-9252.574275,-612.876398
418.500867,-3182.885551,-6365.771101,383.047749
418.501190,-3404.947333,-5699.585753,0.000000
418.501512,-2368.659014,-6587.832884,-919.314598
418.501834,-1776.494261,-8586.388927,-1991.848295
418.502157,-1036.288319,-9770.718434,-1455.581446
418.502479,518.144159,-11177.109724,-612.876398
418.502802,2812.782580,-11843.295072,-536.266849
418.503124,4663.297435,-11177.109724,-1455.581446
418.503446,3997.112087,-10066.800811,-1532.190996
418.503769,2516.700203,-9474.636058,-1991.848295
418.504091,296.082377,-8882.471304,-2451.505594
418.504414,-1258.350101,-9918.759623,-3140.991542
418.504736,-3478.967927,-10807.006753,-2911.162892
418.505058,-5847.626942,-10807.006753,-2221.676944
418.505381,-7846.182985,-9252.574275,-1455.581446
418.505703,-7179.997637,-8290.306550,-1838.629195
418.506026,-5625.565159,-7105.977043,-2681.334243
418.506348,-3330.926739,-7105.977043,-3524.039291
418.506670,-1036.288319,-7179.997637,-2451.505594
418.506993,1036.288319,-7994.224174,-1149.143247
418.507315,4071.132681,-9400.615463,-1225.752797
418.507638,6365.771101,-10436.903782,-2145.067394
418.507960,7105.977043,-10881.027347,-1838.629195
418.508282,6661.853478,-11251.130318,-1072.533697
418.508605,4811.338623,-10288.862594,-842.705048
418.508927,3034.844362,-10362.883188,-1762.019645
418.509250,592.164754,-11251.130318,-2528.115143
418.509572,-1850.514855,-10658.965565,-1838.629195
418.509894,-4145.153275,-8586.388927,-919.314598
418.510217,-4293.194464,-7328.038826,-2068.457845
418.510539,-4145.153275,-7550.100608,-2374.896044
418.510862,-2738.761985,-8216.285956,-1685.410096
418.511184,-1258.350101,-8956.491898,-1072.533697
418.511506,370.102971,-10066.800811,-306.438199
418.511829,2368.659014,-10140.821405,-536.266849
418.512151,3997.112087,-10362.883188,-1838.629195
418.512474,4589.276840,-10066.800811,-2068.457845
418.512796,3256.906145,-9104.533087,-1455.581446
418.513118,962.267725,-8882.471304,-1532.190996
418.513441,-1110.308913,-8882.471304,-1838.629195
418.513763,-2812.782580,-9992.780217,-2451.505594
418.514086,-4885.359217,-10732.986159,-2604.724693
418.514408,-6217.729913,-9844.739029,-1838.629195
418.514731,-7402.059420,-8660.409521,-1378.971896
418.515053,-6439.791695,-7476.080014,-995.924147
418.515375,-4293.194464,-6439.791695,-1991.848295
418.515698,-2294.638420,-6661.853478,-2374.896044
418.516020,0.000000,-7179.997637,-1838.629195
418.516343,2738.761985,-8216.285956,-1838.629195
418.516665,4663.297435,-9992.780217,-2451.505594
418.516987,5033.400406,-11769.274478,-842.705048
418.517310,4737.318029,-12213.398043,0.000000
418.517632,3478.967927,-11177.109724,-459.657299
418.517955,2368.659014,-10510.924376,-2145.067394
418.518277,518.144159,-10658.965565,-3370.820191
418.518599,-1924.535449,-10066.800811,-2145.067394
418.518922,-2960.823768,-8660.409521,-229.828649
418.519244,-4737.318029,-6735.874072,-459.657299
418.519567,-3701.029710,-7550.100608,-1378.971896
418.519889,-2738.761985,-8290.306550,-1915.238745
418.520211,-1554.432478,-9548.656652,-1838.629195
418.520534,-518.144159,-9696.697840,-306.438199
418.520856,1850.514855,-10658.965565,689.485948
418.521179,3849.070898,-10584.944971,0.000000
418.521501,3775.050304,-9326.594869,-689.485948
418.521823,2368.659014,-8290.306550,-689.485948
418.522146,962.267725,-7920.203579,-1685.410096
418.522468,-444.123565,-9178.553681,-2834.553343
418.522791,-1850.514855,-10881.027347,-3677.258390
418.523113,-3701.029710,-11325.150913,-2068.457845
418.523435,-5033.400406,-10288.862594,-995.924147
418.523758,-6143.709319,-9992.780217,-1455.581446
418.524080,-5477.523971,-9474.636058,-1455.581446
418.524403,-4663.297435,-7772.162391,-2451.505594
418.524725,-2960.823768,-5921.647536,-3294.210641
418.525047,-962.267725,-6587.832884,-2681.334243
418.525370,1998.556043,-8142.265362,-1685.410096
418.525692,4663.297435,-9474.636058,-1838.629195
418.526015,5699.585753,-11251.130318,-1762.019645
418.526337,4885.359217,-11473.192101,0.000000
418.526659,3775.050304,-11251.130318,-383.047749
418.526982,2294.638420,-10066.800811,-1838.629195
418.527304,444.123565,-9918.759623,-2221.676944
418.527627,-1554.432478,-9918.759623,-1225.752797
418.527949,-3478.967927,-8808.450710,-1149.143247
418.528272,-5033.400406,-7550.100608,-1225.752797
418.528594,-4515.256246,-7476.080014,-1378.971896
418.528916,-3330.926739,-8290.306550,-1225.752797
418.529239,-1554.432478,-9548.656652,-1838.629195
418.529561,-592.164754,-10881.027347,-459.657299
418.529884,1110.308913,-10807.006753,0.000000
418.530206,3108.864956,-10140.821405,-306.438199
418.530528,4293.194464,-9252.574275,-1532.190996
418.530851,3849.070898,-8438.347739,-1991.848295
418.531173,2072.576638,-8068.244768,-1608.800546
418.531496,0.000000,-8512.368333,-2374.896044
418.531818,-1480.411884,-10436.903782,-3217.601092
418.532140,-3182.885551,-11547.212695,-2987.772442
418.532463,-5403.503377,-11251.130318,-995.924147
418.532785,-6439.791695,-9918.759623,-306.438199
418.533108,-5773.606348,-8142.265362,-1991.848295
418.533430,-4441.235652,-6069.688724,-3294.210641
418.533752,-2442.679609,-5551.544565,-3907.087040
418.534075,-592.164754,-6661.853478,-2834.553343
418.534397,1998.556043,-7994.224174,-2221.676944
418.534720,4441.235652,-10362.883188,-1762.019645
418.535042,5921.647536,-12213.398043,-1838.629195
418.535364,5995.668130,-12509.480420,-842.705048
418.535687,5403.503377,-11473.192101,-612.876398
418.536009,4293.194464,-10140.821405,-1991.848295
418.536332,2960.823768,-10214.842000,-2987.772442
418.536654,888.247130,-10140.821405,-1762.019645
418.536976,-1258.350101,-8068.244768,0.000000
418.537299,-3034.844362,-6809.894666,-842.705048
418.537621,-3849.070898,-7031.956449,-1915.238745
418.537944,-3034.844362,-7920.203579,-1762.019645
418.538266,-2072.576638,-9252.574275,-1685.410096
418.538588,-1036.288319,-10288.862594,-842.705048
418.538911,666.185348,-10584.944971,-459.657299
418.539233,2590.720797,-9770.718434,-689.485948
418.539556,3627.009116,-9474.636058,-1378.971896
418.539878,2960.823768,-9400.615463,-1225.752797
418.540200,962.267725,-9400.615463,-612.876398
418.540523,-888.247130,-8808.450710,-1532.190996
418.540845,-2368.659014,-9548.656652,-2911.162892
418.541168,-3627.009116,-10807.006753,-2911.162892
418.541490,-5477.523971,-10584.944971,-1149.143247
418.541812,-6883.915261,-9622.677246,-536.266849
418.542135,-6365.771101,-9474.636058,-1302.362347
418.542457,-4959.379811,-8438.347739,-1685.410096
418.542780,-3478.967927,-7031.956449,-1608.800546
418.543102,-2220.617826,-5551.544565,-1532.190996
418.543425,-148.041188,-6809.894666,-1072.533697
418.543747,2738.761985,-8586.388927,-1532.190996
418.544069,4219.173869,-10214.842000,-2298.286494
418.544392,3552.988522,-11917.315666,-1225.752797
418.544714,2886.803174,-12213.398043,229.828649
418.545037,2294.638420,-12435.459826,-1225.752797
418.545359,1258.350101,-11769.274478,-3217.601092
418.545681,-222.061783,-11251.130318,-2987.772442
418.546004,-2516.700203,-9696.697840,-459.657299
418.546326,-4441.235652,-7179.997637,842.705048
418.546649,-4515.256246,-6513.812290,-612.876398
418.546971,-4219.173869,-7105.977043,-2221.676944
418.547293,-3256.906145,-8586.388927,-2528.115143
418.547616,-1998.556043,-9622.677246,-1378.971896
418.547938,0.000000,-10436.903782,153.219100
418.548261,2442.679609,-11029.068536,306.438199
418.548583,3997.112087,-9918.759623,-612.876398
418.548905,3404.947333,-8882.471304,-229.828649
418.549228,1628.453072,-7402.059420,-612.876398
418.549550,148.041188,-7328.038826,-3217.601092
418.549873,-518.144159,-9548.656652,-5669.106685
418.550195,-1924.535449,-11325.150913,-3907.087040
418.550517,-4367.215058,-11325.150913,-1532.190996
418.550840,-4959.379811,-11251.130318,-306.438199
418.551162,-4885.359217,-11103.089130,-1225.752797
418.551485,-3478.967927,-9326.594869,-2451.505594
418.551807,-2664.741391,-5995.668130,-2987.772442
418.552129,-1480.411884,-5255.462188,-2834.553343
418.552452,592.164754,-6957.935855,-1378.971896
418.552774,4219.173869,-8068.244768,-1302.362347
418.553097,6365.771101,-8290.306550,-2757.943793
418.553419,6735.874072,-10732.986159,-2451.505594
418.553741,6217.729913,-12805.562797,-229.828649
418.554064,5107.421000,-12583.501014,153.219100
418.554386,3775.050304,-11177.109724,-2221.676944
418.554709,1628.453072,-11251.130318,-3524.039291
418.555031,-740.205942,-10214.842000,-1455.581446
418.555353,-3182.885551,-8660.409521,-229.828649
418.555676,-4737.318029,-6809.894666,-1225.752797
418.555998,-3849.070898,-7624.121203,-2681.334243
418.556321,-2516.700203,-8660.409521,-2604.724693
418.556643,-1332.370696,-10066.800811,-1225.752797
418.556966,0.000000,-10436.903782,-459.657299
418.557288,1628.453072,-10955.047942,766.095498
418.557610,3404.947333,-10362.883188,-689.485948
418.557933,3404.947333,-8586.388927,-1378.971896
418.558255,1332.370696,-6883.915261,-153.219100
418.558578,-666.185348,-6587.832884,-1455.581446
418.558900,-1776.494261,-8660.409521,-3217.601092
418.559222,-2960.823768,-11547.212695,-3907.087040
418.559545,-4663.297435,-11547.212695,-2451.505594
418.559867,-6069.688724,-11029.068536,-1225.752797
418.560190,-6809.894666,-10436.903782,-766.095498
418.560512,-5033.400406,-10288.862594,-2221.676944
418.560834,-3849.070898,-7476.080014,-3294.210641
418.561157,-2886.803174,-5995.668130,-2451.505594
418.561479,-1258.350101,-6365.771101,-1225.752797
418.561802,1258.350101,-7772.162391,-1608.800546
418.562124,3552.988522,-9400.615463,-3064.381992
418.562446,4515.256246,-10066.800811,-1915.238745
418.562769,3701.029710,-12065.356855,0.000000
418.563091,2738.761985,-13027.624579,383.047749
418.563414,1776.494261,-11621.233289,-612.876398
418.563736,666.185348,-10584.944971,-2604.724693
418.564058,-1184.329507,-9030.512492,-1838.629195
418.564381,-3182.885551,-7772.162391,-689.485948
418.564703,-4589.276840,-6809.894666,-1455.581446
418.565026,-4071.132681,-7328.038826,-1838.629195
418.565348,-2664.741391,-8808.450710,-1915.238745
418.565670,-962.267725,-10140.821405,-1532.190996
418.565993,740.205942,-11473.192101,-689.485948
418.566315,2072.576638,-11695.253884,-229.828649
418.566638,2738.761985,-10807.006753,0.000000
418.566960,2516.700203,-8808.450710,0.000000
418.567282,1776.494261,-6809.894666,-1149.143247
418.567605,740.205942,-7105.977043,-2757.943793
418.567927,-962.267725,-8586.388927,-3907.087040
418.568250,-1998.556043,-10807.006753,-2757.943793
418.568572,-3404.947333,-11621.233289,-995.924147
418.568894,-4589.276840,-11399.171507,-383.047749
418.569217,-4515.256246,-10436.903782,-1608.800546
418.569539,-4145.153275,-8142.265362,-1072.533697
418.569862,-3627.009116,-5625.565159,-2757.943793
418.570184,-2516.700203,-5033.400406,-3830.477490
418.570507,0.000000,-7031.956449,-3524.039291
418.570829,2886.803174,-7846.182985,-2145.067394
418.571151,5329.482782,-9474.636058,-2911.162892
418.571474,6587.832884,-12805.562797,-766.095498
418.571796,6143.709319,-14063.912898,1532.190996
418.572119,5033.400406,-12287.418637,536.266849
418.572441,3849.070898,-10510.924376,-1991.848295
418.572763,1850.514855,-9992.780217,-2604.724693
418.573086,-814.226536,-9696.697840,-1378.971896
418.573408,-2960.823768,-7179.997637,-536.266849
418.573731,-3478.967927,-5699.585753,-919.314598
418.574053,-3404.947333,-6069.688724,-1762.019645
418.574375,-1480.411884,-8068.244768,-2068.457845
418.574698,-1702.473667,-9474.636058,-1149.143247
418.575020,-1184.329507,-10955.047942,-612.876398
418.575343,74.020594,-11843.295072,-306.438199
418.575665,1998.556043,-11473.192101,-995.924147
418.575987,1776.494261,-9622.677246,-1685.410096
418.576310,592.164754,-7920.203579,-1991.848295
418.576632,-592.164754,-7402.059420,-2374.896044
418.576955,-1480.411884,-8364.327145,-3064.381992
418.577277,-2368.659014,-10732.986159,-3140.991542
418.577599,-3849.070898,-12435.459826,-2145.067394
418.577922,-5551.544565,-11621.233289,-1072.533697
418.578244,-5995.668130,-10584.944971,-1072.533697
418.578567,-5033.400406,-8808.450710,-1762.019645
418.578889,-2738.761985,-6735.874072,-1838.629195
418.579211,-1554.432478,-4959.379811,-1915.238745
418.579534,148.041188,-4737.318029,-766.095498
418.579856,1924.535449,-6439.791695,-459.657299
418.580179,3404.947333,-8512.368333,-842.705048
418.580501,4663.297435,-10881.027347,-1455.581446
418.580823,4441.235652,-12361.439231,-1532.190996
418.581146,3330.926739,-12583.501014,-1532.190996
418.581468,1998.556043,-11547.212695,-1608.800546
418.581791,740.205942,-11621.233289,-2068.457845
418.582113,-1406.391290,-10807.006753,-1608.800546
418.582435,-3627.009116,-8956.491898,-1149.143247
418.582758,-5699.585753,-7476.080014,-1991.848295
418.583080,-5181.441594,-8068.244768,-3600.648841
418.583403,-4367.215058,-8808.450710,-2987.772442
418.583725,-2442.679609,-10214.842000,-1991.848295
418.584048,-666.185348,-10362.883188,-306.438199
418.584370,1628.453072,-10066.800811,536.266849
418.584692,3182.885551,-10066.800811,76.609550
418.585015,3256.906145,-8586.388927,-153.219100
418.585337,2294.638420,-7846.182985,-306.438199
418.585660,666.185348,-6883.915261,-1685.410096
418.585982,74.020594,-7179.997637,-3447.429741
418.586304,-518.144159,-9696.697840,-3447.429741
418.586627,-1332.370696,-11029.068536,-1991.848295
418.586949,-3034.844362,-11029.068536,-919.314598
418.587272,-4145.153275,-10584.944971,-689.485948
418.587594,-3404.947333,-10436.903782,-2221.676944
418.587916,-2294.638420,-9400.615463,-3600.648841
418.588239,-1184.329507,-8364.327145,-3140.991542
418.588561,-222.061783,-8290.306550,-2374.896044
418.588884,2146.597232,-7772.162391,0.000000
418.589206,4589.276840,-7328.038826,-1072.533697
418.589528,5477.523971,-7920.203579,-2145.067394
418.589851,4737.318029,-9844.739029,-1762.019645
418.590173,3775.050304,-10881.027347,-536.266849
418.590496,1998.556043,-11473.192101,-1532.190996
418.590818,814.226536,-12065.356855,-2604.724693
418.591140,-740.205942,-11621.233289,-1991.848295
418.591463,-2664.741391,-9400.615463,-689.485948
418.591785,-4367.215058,-7846.182985,-842.705048
418.592107,-4959.379811,-8216.285956,-2221.676944
418.592430,-4145.153275,-8438.347739,-2834.553343
418.592752,-2368.659014,-9622.677246,-2757.943793
418.593075,-1332.370696,-9992.780217,-1378.971896
418.593397,296.082377,-11029.068536,0.000000
418.593719,1850.514855,-11251.130318,536.266849
418.594042,2812.782580,-9622.677246,459.657299
418.594364,1776.494261,-7476.080014,-383.047749
418.594686,0.000000,-6291.750507,-1225.752797
418.595009,-1184.329507,-6291.750507,-2145.067394
418.595331,-1036.288319,-8734.430116,-3753.867940
418.595653,-1924.535449,-10807.006753,-2298.286494
418.595976,-3478.967927,-11473.192101,-153.219100
418.596298,-4367.215058,-10288.862594,842.705048
418.596620,-4219.173869,-8882.471304,-766.095498
418.596943,-3330.926739,-7698.141797,-3294.210641
418.597265,-2812.782580,-7550.100608,-3830.477490
418.597587,-1702.473667,-7994.224174,-2451.505594
418.597910,-296.082377,-7994.224174,-1302.362347
418.598232,1850.514855,-8142.265362,-1455.581446
418.598554,3182.885551,-9030.512492,-1838.629195
418.598877,3552.988522,-11029.068536,-1532.190996
418.599199,2664.741391,-12435.459826,-766.095498
418.599521,1702.473667,-11843.295072,-1149.143247
418.599844,1184.329507,-10658.965565,-2221.676944
418.600166,296.082377,-9844.739029,-2145.067394
418.600488,-1184.329507,-9104.533087,-1302.362347
418.600811,-2812.782580,-7698.141797,-459.657299
418.601133,-4071.132681,-7402.059420,-1762.019645
418.601455,-3256.906145,-8734.430116,-2451.505594
418.601778,-1998.556043,-9770.718434,-2145.067394
418.602100,-518.144159,-10732.986159,-1225.752797
418.602422,1776.494261,-11029.068536,0.000000
418.602745,3849.070898,-10510.924376,153.219100
418.603067,4959.379811,-9252.574275,0.000000
418.603389,4441.235652,-7920.203579,-383.047749
418.603712,3034.844362,-6809.894666,-459.657299
418.604034,1110.308913,-6217.729913,-2221.676944
418.604357,0.000000,-9104.533087,-3907.087040
418.604679,-1184.329507,-11769.274478,-2681.334243
418.605001,-3404.947333,-11621.233289,-612.876398
418.605324,-5107.421000,-9918.759623,229.828649
418.605646,-5403.503377,-9030.512492,-1225.752797
418.605968,-3701.029710,-8586.388927,-3447.429741
418.606291,-2516.700203,-7105.977043,-3753.867940
418.606613,-2368.659014,-6069.688724,-2757.943793
418.606935,-1110.308913,-6587.832884,-2145.067394
418.607258,1110.308913,-7772.162391,-1838.629195
418.607580,3182.885551,-9770.718434,-2757.943793
418.607902,3404.947333,-10881.027347,-3217.601092
418.608225,2146.597232,-13101.645173,-2298.286494
418.608547,1332.370696,-13249.686362,-689.485948
418.608869,1110.308913,-11621.233289,-1302.362347
418.609192,666.185348,-10584.944971,-2451.505594
418.609514,-1184.329507,-8882.471304,-1302.362347
418.609836,-3108.864956,-7698.141797,-459.657299
418.610159,-3997.112087,-7402.059420,-1378.971896
418.610481,-3701.029710,-8216.285956,-2145.067394
418.610803,-1998.556043,-8660.409521,-1838.629195
418.611126,-592.164754,-9992.780217,-1149.143247
418.611448,740.205942,-10214.842000,153.219100
418.611770,2368.659014,-9918.759623,1225.752797
418.612093,3478.967927,-9178.553681,383.047749
418.612415,4441.235652,-9474.636058,-842.705048
418.612737,3404.947333,-8734.430116,-1072.533697
418.613060,1184.329507,-8364.327145,-1685.410096
418.613382,-962.267725,-8660.409521,-2374.896044
418.613704,-3330.926739,-10955.047942,-2451.505594
418.614027,-5625.565159,-11917.315666,-1991.848295
418.614349,-7698.141797,-9548.656652,-1838.629195
418.614671,-8290.306550,-7772.162391,-3447.429741
418.614994,-6735.874072,-8438.347739,-4136.915689
418.615316,-4219.173869,-9178.553681,-4213.525239
418.615638,-2220.617826,-8438.347739,-2681.334243
418.615961,-592.164754,-6883.915261,-536.266849
418.616283,1480.411884,-6883.915261,-995.924147
418.616606,3034.844362,-8660.409521,-2528.115143
418.616928,3701.029710,-9696.697840,-3140.991542
418.617250,2664.741391,-10362.883188,-2451.505594
418.617573,1110.308913,-10584.944971,-1991.848295
418.617895,1628.453072,-11695.253884,-1532.190996
418.618217,2294.638420,-12065.356855,-1072.533697
418.618540,1036.288319,-10362.883188,-995.924147
418.618862,-518.144159,-8586.388927,-153.219100
418.619184,-1554.432478,-8216.285956,-306.438199
418.619507,-1776.494261,-7920.203579,-1072.533697
418.619829,-1184.329507,-7624.121203,-1838.629195
418.620151,-222.061783,-8660.409521,-1838.629195
418.620474,1258.350101,-9844.739029,-612.876398
418.620796,3034.844362,-10436.903782,306.438199
418.621118,3997.112087,-10214.842000,919.314598
418.621441,3701.029710,-10066.800811,689.485948
418.621763,2368.659014,-9474.636058,0.000000
418.622085,222.061783,-8364.327145,-1225.752797
418.622408,-1628.453072,-7550.100608,-2911.162892
418.622730,-3256.906145,-8808.450710,-3907.087040
418.623052,-4293.194464,-11547.212695,-3064.381992
418.623375,-5699.585753,-11103.089130,-995.924147
418.623697,-7994.224174,-9474.636058,-1302.362347
418.624019,-7476.080014,-9326.594869,-1991.848295
418.624342,-5551.544565,-8956.491898,-2911.162892
418.624664,-3627.009116,-8290.306550,-3447.429741
418.624986,-1554.432478,-7105.977043,-2681.334243
418.625309,-222.061783,-6809.894666,-1225.752797
418.625631,1332.370696,-7550.100608,-459.657299
418.625953,2516.700203,-8808.450710,-1608.800546
418.626276,2442.679609,-10584.944971,-2145.067394
418.626598,1110.308913,-11251.130318,-1838.629195
418.626920,-148.041188,-11695.253884,-1378.971896
418.627243,-592.164754,-11325.150913,-1608.800546
418.627565,-1258.350101,-10732.986159,-1455.581446
418.627887,-2294.638420,-9474.636058,-383.047749
418.628210,-4145.153275,-8068.244768,-612.876398
418.628532,-6069.688724,-7698.141797,-1608.800546
418.628855,-6661.853478,-9030.512492,-1685.410096
418.629177,-6365.771101,-8660.409521,-1608.800546
418.629499,-5403.503377,-8660.409521,-612.876398
418.629822,-3775.050304,-8586.388927,-536.266849
418.630144,-592.164754,-9548.656652,-153.219100
418.630466,1258.350101,-9104.533087,-995.924147
418.630789,2738.761985,-9474.636058,-2298.286494
418.631111,2812.782580,-10436.903782,-2145.067394
418.631433,1702.473667,-9474.636058,-612.876398
418.631756,-666.185348,-8216.285956,-2145.067394
418.632078,-4293.194464,-9178.553681,-3064.381992
418.632400,-7402.059420,-11029.068536,-3064.381992
418.632723,-10510.924376,-11843.295072,-3217.601092
418.633045,-13101.645173,-11029.068536,-3370.820191
418.633367,-13249.686362,-10510.924376,-2834.553343
418.633690,-12509.480420,-9400.615463,-2374.896044
418.634012,-8808.450710,-8216.285956,-2757.943793
418.634334,-4589.276840,-6513.812290,-2451.505594
418.634657,-888.247130,-4737.318029,-1455.581446
418.634979,2516.700203,-4367.215058,-1072.533697
418.635301,5329.482782,-5403.503377,-1685.410096
418.635624,5921.647536,-7476.080014,-2221.676944
418.635946,5255.462188,-10658.965565,-2757.943793
418.636268,3997.112087,-12879.583391,-2068.457845
418.636591,2812.782580,-13693.809927,-995.924147
418.636913,740.205942,-12287.418637,-1608.800546
418.637235,-1924.535449,-10732.986159,-2451.505594
418.637558,-4293.194464,-9400.615463,-1685.410096
418.637880,-5921.647536,-9104.533087,-1225.752797
418.638202,-6883.915261,-9548.656652,-2451.505594
418.638525,-7179.997637,-10288.862594,-3600.648841
418.638847,-6439.791695,-10288.862594,-1762.019645
418.639169,-4737.318029,-9622.677246,1838.629195
418.639492,-3330.926739,-7105.977043,1302.362347
418.639814,-1184.329507,-7772.162391,-612.876398
418.640136,1332.370696,-7994.224174,-1302.362347
418.640459,2146.597232,-6439.791695,-3370.820191
418.640781,2442.679609,-7994.224174,-3140.991542
418.641104,3256.906145,-8882.471304,306.438199
418.641426,4663.297435,-7698.141797,-1072.533697
418.641748,5255.462188,-7476.080014,-5898.935335
418.642071,3404.947333,-11695.253884,-4979.620737
418.642393,1036.288319,-14434.015869,-1608.800546
418.642715,-3108.864956,-14137.933492,-1685.410096
418.643038,-5921.647536,-13619.789333,-1225.752797
418.643360,-7328.038826,-12953.603985,-1455.581446
418.643682,-7105.977043,-9918.759623,-2451.505594
418.644005,-6513.812290,-7550.100608,-3370.820191
418.644327,-6069.688724,-6217.729913,-536.266849
418.644649,-4293.194464,-5995.668130,1225.752797
418.644972,-2220.617826,-5033.400406,612.876398
418.645294,-1036.288319,-4145.153275,689.485948
418.645616,-1480.411884,-5625.565159,229.828649
418.645939,-2220.617826,-8956.491898,-1762.019645
418.646261,-2590.720797,-11103.089130,-2451.505594
418.646583,-2812.782580,-11917.315666,-1608.800546
418.646906,-2590.720797,-11843.295072,-1378.971896
418.647228,-1554.432478,-11843.295072,-1302.362347
418.647550,-592.164754,-10955.047942,-995.924147
418.647873,444.123565,-10881.027347,-1915.238745
418.648195,370.102971,-10955.047942,-2221.676944
418.648517,-888.247130,-10436.903782,-306.438199
418.648840,-2886.803174,-7994.224174,995.924147
418.649162,-4885.359217,-5847.626942,-1072.533697
418.649484,-5995.668130,-5773.606348,-2145.067394
418.649807,-6883.915261,-6217.729913,-2604.724693
418.650129,-7105.977043,-5699.585753,-3217.601092
418.650451,-6735.874072,-6735.874072,-2528.115143
418.650774,-5847.626942,-8586.388927,-1532.190996
418.651096,-5107.421000,-9992.780217,-1532.190996
418.651418,-4737.318029,-11029.068536,-2528.115143
418.651741,-4885.359217,-11769.274478,-3600.648841
418.652063,-4293.194464,-12583.501014,-4213.525239
418.652386,-3330.926739,-12213.398043,-4826.401637
418.652708,-2516.700203,-11103.089130,-3064.381992
418.653030,-2072.576638,-10584.944971,-2145.067394
418.653353,-296.082377,-10955.047942,-1302.362347
418.653675,1184.329507,-10955.047942,-995.924147
418.653997,1258.350101,-9770.718434,-1072.533697
418.654320,296.082377,-8068.244768,-229.828649
418.654642,370.102971,-7105.977043,0.000000
418.654964,296.082377,-6143.709319,0.000000
418.655287,-518.144159,-5921.647536,-612.876398
418.655609,-1406.391290,-6883.915261,-1302.362347
418.655931,-1480.411884,-8142.265362,-919.314598
418.656254,-962.267725,-9770.718434,-1608.800546
418.656576,-740.205942,-11473.192101,-1302.362347
418.656898,-666.185348,-12361.439231,-919.314598
418.657221,-1184.329507,-12583.501014,-1225.752797
418.657543,-1628.453072,-10955.047942,-1532.190996
418.657865,-1776.494261,-9844.739029,-2451.505594
418.658188,-2368.659014,-9104.533087,-2451.505594
418.658510,-3182.885551,-8512.368333,-2145.067394
418.658832,-4293.194464,-8438.347739,-1302.362347
418.659155,-5033.400406,-8438.347739,-612.876398
418.659477,-4515.256246,-8882.471304,-766.095498
418.659799,-4145.153275,-8586.388927,-2145.067394
418.660122,-4219.173869,-7772.162391,-2528.115143
418.660444,-3849.070898,-7105.977043,-2451.505594
418.660766,-3775.050304,-7476.080014,-2451.505594
418.661089,-3478.967927,-7772.162391,-1685.410096
418.661411,-4145.153275,-8438.347739,-1762.019645
418.661733,-4219.173869,-9178.553681,-2604.724693
418.662056,-3256.906145,-11251.130318,-3830.477490
418.662378,-1702.473667,-12509.480420,-2834.553343
418.662700,-444.123565,-12287.418637,0.000000
418.663023,296.082377,-10510.924376,459.657299
418.663345,1998.556043,-10288.862594,-153.219100
418.663667,2146.597232,-9104.533087,-536.266849
418.663990,592.164754,-7698.141797,383.047749
418.664312,-1702.473667,-7550.100608,612.876398
418.664635,-2960.823768,-8438.347739,-153.219100
418.664957,-4589.276840,-7698.141797,-995.924147
418.665279,-4959.379811,-7550.100608,-1685.410096
418.665602,-4663.297435,-9104.533087,-1762.019645
418.665924,-3997.112087,-10066.800811,-1302.362347
418.666246,-2960.823768,-9918.759623,-1608.800546
418.666569,-1776.494261,-9400.615463,-2911.162892
418.666891,-444.123565,-10436.903782,-3677.258390
418.667213,-296.082377,-11843.295072,-3294.210641
418.667536,-1110.308913,-12287.418637,-2834.553343
418.667858,-2368.659014,-12065.356855,-2451.505594
418.668180,-2664.741391,-12287.418637,-2911.162892
418.668503,-2072.576638,-13397.727550,-2298.286494
418.668825,-2368.659014,-12139.377449,-459.657299
418.669147,-2664.741391,-9992.780217,1149.143247
418.669470,-1406.391290,-8290.306550,1225.752797
418.669792,370.102971,-7105.977043,1072.533697
418.670114,1110.308913,-5921.647536,1302.362347
418.670437,2072.576638,-5995.668130,1762.019645
418.670759,2442.679609,-6365.771101,1762.019645
418.671081,3108.864956,-7254.018232,1532.190996
418.671404,3552.988522,-8586.388927,1378.971896
418.671726,3182.885551,-10658.965565,1225.752797
418.672048,3034.844362,-12213.398043,1225.752797
418.672371,2590.720797,-12065.356855,1455.581446
418.672693,2442.679609,-11473.192101,1149.143247
418.673015,2294.638420,-10732.986159,1455.581446
418.673338,1554.432478,-10955.047942,1378.971896
418.673660,74.020594,-9178.553681,2374.896044
418.673982,-1184.329507,-8068.244768,2068.457845
418.674305,-1850.514855,-8068.244768,1685.410096
418.674627,-2442.679609,-8068.244768,1762.019645
418.674949,-2738.761985,-8068.244768,3064.381992
418.675272,-3256.906145,-8512.368333,3447.429741
418.675594,-2960.823768,-8586.388927,3677.258390
418.675916,-2664.741391,-8512.368333,2911.162892
418.676239,-2738.761985,-8068.244768,2757.943793
418.676561,-2368.659014,-8586.388927,2757.943793
418.676884,-2368.659014,-8734.430116,2681.334243
418.677206,-1998.556043,-9474.636058,2221.676944
418.677528,-2146.597232,-10214.842000,2528.115143
418.677851,-2442.679609,-11325.150913,2987.772442
418.678173,-2738.761985,-11769.274478,2834.553343
418.678495,-3034.844362,-11695.253884,2834.553343
418.678818,-2516.700203,-11621.233289,2374.896044
418.679140,-2220.617826,-10436.903782,2298.286494
418.679462,-1554.432478,-9326.594869,2757.943793
418.679785,-888.247130,-8364.327145,3294.210641
418.680107,-518.144159,-8142.265362,3370.820191
418.680429,0.000000,-8290.306550,2757.943793
418.680752,-740.205942,-8882.471304,2374.896044
418.681074,-1406.391290,-9400.615463,1838.629195
418.681396,-1776.494261,-9918.759623,1302.362347
418.681719,-1850.514855,-10066.800811,995.924147
418.682041,-1850.514855,-9474.636058,-612.876398
418.682363,-2294.638420,-9474.636058,-612.876398
418.682686,-2294.638420,-10140.821405,-1072.533697
418.683008,-2368.659014,-10584.944971,-995.924147
418.683330,-2368.659014,-10807.006753,-995.924147
418.683653,-1776.494261,-10732.986159,-1072.533697
418.683975,-962.267725,-11029.068536,-995.924147
418.684297,148.041188,-10362.883188,-153.219100
418.684620,1554.432478,-9474.636058,229.828649
418.684942,2960.823768,-7994.224174,612.876398
418.685264,4737.318029,-6217.729913,0.000000
418.685587,5921.647536,-5625.565159,-1762.019645
418.685909,6513.812290,-6069.688724,-1838.629195
418.686231,5625.565159,-6735.874072,-1762.019645
418.686554,3923.091493,-8290.306550,-2298.286494
418.686876,666.185348,-11103.089130,-3600.648841
418.687198,-2368.659014,-12731.542202,-2681.334243
418.687521,-6291.750507,-11917.315666,-2374.896044
418.687843,-8364.327145,-10436.903782,-4213.525239
418.688166,-8882.471304,-10807.006753,-6205.373534
418.688488,-5773.606348,-11177.109724,-5592.497135
418.688810,-2072.576638,-10214.842000,-5209.449386
418.689133,740.205942,-11621.233289,-4136.915689
418.689455,3849.070898,-13175.665768,-383.047749
418.689777,7179.997637,-13619.789333,2451.505594
418.690100,7624.121203,-10807.006753,1378.971896
418.690422,7105.977043,-7624.121203,1915.238745
418.690744,7031.956449,-5847.626942,1685.410096
418.691067,6809.894666,-4737.318029,-1072.533697
418.691389,4071.132681,-4515.256246,153.219100
418.691711,-1184.329507,-2886.803174,2451.505594
418.692034,-5551.544565,-5033.400406,-383.047749
418.692356,-7476.080014,-9252.574275,-3064.381992
418.692679,-8512.368333,-13323.706956,-4213.525239
418.693001,-9844.739029,-13619.789333,-4443.353888
418.693324,-8364.327145,-14211.954086,-4519.963438
418.693646,-4663.297435,-15322.262999,-3753.867940
418.693969,-1110.308913,-15322.262999,-766.095498
418.694291,-1332.370696,-12361.439231,0.000000
418.694614,-2368.659014,-8882.471304,-1072.533697
418.694936,-3256.906145,-7772.162391,-2068.457845
418.695258,-3478.967927,-8364.327145,-2068.457845
418.695581,-3627.009116,-8734.430116,-995.924147
418.695903,-4441.235652,-9474.636058,1072.533697
418.696226,-4145.153275,-10140.821405,3830.477490
418.696548,-2664.741391,-10584.944971,5669.106685
418.696871,-2590.720797,-9474.636058,5515.887586
418.697193,-2442.679609,-7624.121203,5592.497135
418.697516,-2886.803174,-5255.462188,4826.401637
418.697838,-1480.411884,-5625.565159,2145.067394
418.698161,814.226536,-5699.585753,1455.581446
418.698483,2516.700203,-5551.544565,1455.581446
418.698805,3330.926739,-7031.956449,1838.629195
418.699128,4441.235652,-9622.677246,2911.162892
418.699450,6439.791695,-12509.480420,3677.258390
418.699773,6365.771101,-13397.727550,2834.553343
418.700095,5773.606348,-13619.789333,2451.505594
418.700418,3923.091493,-11769.274478,3064.381992
418.700740,2960.823768,-8586.388927,2834.553343
418.701063,1036.288319,-8882.471304,1532.190996
418.701385,-1480.411884,-9178.553681,4136.915689
418.701708,-5033.400406,-7328.038826,6281.983084
418.702030,-7920.203579,-6809.894666,4596.572988
418.702353,-6957.935855,-9770.718434,2528.115143
418.702675,-3182.885551,-11399.171507,2681.334243
418.702997,444.123565,-9918.759623,1455.581446
418.703320,3478.967927,-8586.388927,1072.533697
418.703642,6735.874072,-8290.306550,3600.648841
418.703965,9548.656652,-9252.574275,3830.477490
418.704287,9104.533087,-10066.800811,1608.800546
418.704610,5773.606348,-9252.574275,2911.162892
418.704932,4441.235652,-7624.121203,3524.039291
418.705255,4885.359217,-9030.512492,-3370.820191
418.705577,5847.626942,-12731.542202,-6511.811733
