#time,accel_x,accel_y,accel_z
398.479019,0.000000,-9326.594869,-1532.190996
398.479341,0.000000,-9178.553681,-1455.581446
398.479663,148.041188,-9252.574275,-1685.410096
398.479985,-148.041188,-9474.636058,-1762.019645
398.480306,-370.102971,-9770.718434,-1838.629195
398.480628,-370.102971,-9548.656652,-1762.019645
398.480950,-444.123565,-9474.636058,-1378.971896
398.481272,-222.061783,-9400.615463,-1532.190996
398.481594,0.000000,-9252.574275,-1685.410096
398.481916,-296.082377,-9326.594869,-1685.410096
398.482237,-444.123565,-9474.636058,-1608.800546
398.482559,-740.205942,-9548.656652,-1762.019645
398.482881,-592.164754,-9474.636058,-2298.286494
398.483203,-444.123565,-9474.636058,-1762.019645
398.483525,-518.144159,-9548.656652,-1685.410096
398.483847,-518.144159,-9548.656652,-1532.190996
398.484168,-592.164754,-9400.615463,-1532.190996
398.484490,-518.144159,-9474.636058,-1149.143247
398.484812,-222.061783,-9474.636058,-2145.067394
398.485134,-518.144159,-9474.636058,-1608.800546
398.485456,-592.164754,-9548.656652,-1532.190996
398.485778,-666.185348,-9474.636058,-1532.190996
398.486099,-518.144159,-9474.636058,-1225.752797
398.486421,-370.102971,-9548.656652,-995.924147
398.486743,-370.102971,-9400.615463,-1532.190996
398.487065,-444.123565,-9400.615463,-1225.752797
398.487387,-666.185348,-9474.636058,-1532.190996
398.487709,-518.144159,-9474.636058,-1378.971896
398.488030,-296.082377,-9104.533087,-1072.533697
398.488352,0.000000,-9178.553681,-1455.581446
398.488674,-444.123565,-9030.512492,-1072.533697
398.488996,-518.144159,-9474.636058,-1149.143247
398.489318,-518.144159,-9474.636058,-919.314598
398.489640,-518.144159,-9548.656652,-689.485948
398.489961,-370.102971,-9252.574275,-1149.143247
398.490283,-222.061783,-9030.512492,-1225.752797
398.490605,0.000000,-9474.636058,-1149.143247
398.490927,-222.061783,-9104.533087,-1302.362347
398.491249,0.000000,-9104.533087,-1149.143247
398.491571,-370.102971,-9400.615463,-1149.143247
398.491892,-518.144159,-9326.594869,-1072.533697
398.492214,-370.102971,-9696.697840,-1225.752797
398.492536,-296.082377,-9474.636058,-995.924147
398.492858,-296.082377,-9178.553681,-919.314598
398.493180,222.061783,-8956.491898,-1608.800546
398.493502,148.041188,-9178.553681,-1149.143247
398.493823,0.000000,-9104.533087,-1378.971896
398.494145,0.000000,-9400.615463,-1378.971896
398.494467,-148.041188,-9770.718434,-1378.971896
398.494789,-370.102971,-9844.739029,-1149.143247
398.495111,-148.041188,-9474.636058,-1072.533697
398.495433,0.000000,-9474.636058,-1455.581446
398.495754,-148.041188,-9178.553681,-1378.971896
398.496076,74.020594,-9030.512492,-1685.410096
398.496398,666.185348,-9326.594869,-1991.848295
398.496720,1480.411884,-9696.697840,-1225.752797
398.497042,1110.308913,-9918.759623,-766.095498
398.497364,370.102971,-9696.697840,-536.266849
398.497685,74.020594,-9178.553681,-1149.143247
398.498007,0.000000,-9178.553681,-2221.676944
398.498329,-1110.308913,-8882.471304,-2068.457845
398.498651,-1332.370696,-8660.409521,-1608.800546
398.498973,-1036.288319,-8956.491898,-2145.067394
398.499295,-74.020594,-9844.739029,-2221.676944
398.499616,0.000000,-10436.903782,-1608.800546
398.499938,-296.082377,-10214.842000,-995.924147
398.500260,148.041188,-9474.636058,-1608.800546
398.500582,814.226536,-9474.636058,-2221.676944
398.500904,1628.453072,-10288.862594,-2374.896044
398.501226,1332.370696,-9992.780217,-1225.752797
398.501547,1036.288319,-8956.491898,-612.876398
398.501869,2294.638420,-9030.512492,-1149.143247
398.502191,3256.906145,-9770.718434,-1225.752797
398.502513,3108.864956,-9474.636058,-766.095498
398.502835,2368.659014,-8512.368333,-306.438199
398.503157,2664.741391,-8290.306550,-612.876398
398.503478,3627.009116,-8956.491898,-1225.752797
398.503800,3108.864956,-9326.594869,-1072.533697
398.504122,2516.700203,-8438.347739,-1072.533697
398.504444,2812.782580,-8216.285956,-1991.848295
398.504766,4071.132681,-9104.533087,-2911.162892
398.505088,4441.235652,-10732.986159,-1991.848295
398.505409,3627.009116,-10436.903782,-1072.533697
398.505731,4145.153275,-9770.718434,-1532.190996
398.506053,4589.276840,-10658.965565,-2068.457845
398.506375,4589.276840,-10955.047942,-1838.629195
398.506697,3775.050304,-10140.821405,-2068.457845
398.507019,3108.864956,-8734.430116,-995.924147
398.507340,3256.906145,-8364.327145,-1225.752797
398.507662,4293.194464,-8438.347739,-1608.800546
398.507984,4811.338623,-8364.327145,-2145.067394
398.508306,5033.400406,-8734.430116,-1378.971896
398.508628,5403.503377,-9252.574275,-612.876398
398.508950,5403.503377,-9030.512492,-612.876398
398.509272,6069.688724,-9178.553681,-1532.190996
398.509593,5329.482782,-8734.430116,-1532.190996
398.509915,3997.112087,-9326.594869,-2221.676944
398.510237,2368.659014,-10214.842000,-2451.505594
398.510559,1110.308913,-11473.192101,-2145.067394
398.510881,370.102971,-12657.521608,-842.705048
398.511203,-370.102971,-13175.665768,-229.828649
398.511524,-444.123565,-12509.480420,306.438199
398.511846,0.000000,-12435.459826,689.485948
398.512168,370.102971,-10881.027347,919.314598
398.512490,444.123565,-9178.553681,1608.800546
398.512812,518.144159,-7179.997637,1991.848295
398.513134,-148.041188,-5921.647536,1378.971896
398.513455,-148.041188,-5033.400406,229.828649
398.513777,-296.082377,-4367.215058,-1302.362347
398.514099,814.226536,-4441.235652,-2681.334243
398.514421,2516.700203,-4811.338623,-3447.429741
398.514743,4737.318029,-6291.750507,-4213.525239
398.515065,5921.647536,-8438.347739,-4366.744339
398.515386,6513.812290,-11103.089130,-3983.696590
398.515708,6217.729913,-13249.686362,-3447.429741
398.516030,5551.544565,-14285.974681,-2911.162892
398.516352,5181.441594,-14878.139434,-2911.162892
398.516674,4515.256246,-13915.871710,-1378.971896
398.516996,2738.761985,-12879.583391,153.219100
398.517317,1628.453072,-10955.047942,2298.286494
398.517639,1036.288319,-8290.306550,2604.724693
398.517961,1628.453072,-6513.812290,2757.943793
398.518283,814.226536,-4811.338623,2911.162892
398.518605,222.061783,-4145.153275,2681.334243
398.518927,0.000000,-3923.091493,1302.362347
398.519248,518.144159,-5329.482782,-689.485948
398.519570,1110.308913,-6661.853478,-842.705048
398.519892,962.267725,-7994.224174,-2757.943793
398.520214,666.185348,-10510.924376,-5132.839837
398.520536,1258.350101,-13175.665768,-5669.106685
398.520858,1998.556043,-15470.304188,-5745.716235
398.521179,1924.535449,-16876.695478,-5975.544884
398.521501,1480.411884,-17468.860231,-4903.011187
398.521823,1258.350101,-14359.995275,-3217.601092
398.522145,2072.576638,-10214.842000,-3447.429741
398.522467,3330.926739,-9030.512492,-3753.867940
398.522789,4441.235652,-9474.636058,-995.924147
398.523110,5255.462188,-8660.409521,1072.533697
398.523432,5625.565159,-7179.997637,3064.381992
398.523754,7179.997637,-5995.668130,4596.572988
398.524076,9030.512492,-4367.215058,3600.648841
398.524398,8808.450710,-3256.906145,1455.581446
398.524720,6217.729913,-3478.967927,1838.629195
398.525041,3108.864956,-3775.050304,2451.505594
398.525363,1480.411884,-7105.977043,-1378.971896
398.525685,740.205942,-10955.047942,-4596.572988
398.526007,-888.247130,-11695.253884,-4443.353888
398.526329,-2516.700203,-12435.459826,-4290.134789
398.526651,-2960.823768,-15914.427753,-4136.915689
398.526972,-3034.844362,-16654.633695,-3830.477490
398.527294,-2960.823768,-12583.501014,-4826.401637
398.527616,-1184.329507,-9400.615463,-5898.935335
398.527938,1924.535449,-10584.944971,-5209.449386
398.528260,3256.906145,-10214.842000,-3064.381992
398.528582,4441.235652,-8734.430116,-1685.410096
398.528903,6809.894666,-7846.182985,766.095498
398.529225,9178.553681,-8882.471304,2068.457845
398.529547,9104.533087,-7920.203579,2451.505594
398.529869,7105.977043,-5995.668130,2068.457845
398.530191,5551.544565,-6291.750507,995.924147
398.530513,5033.400406,-8216.285956,612.876398
398.530834,3404.947333,-9252.574275,689.485948
398.531156,148.041188,-8734.430116,1225.752797
398.531478,-2516.700203,-8216.285956,2221.676944
398.531800,-3108.864956,-9770.718434,689.485948
398.532122,-2368.659014,-11103.089130,-2374.896044
398.532444,-2294.638420,-10214.842000,-3907.087040
398.532765,-1332.370696,-9622.677246,-2604.724693
398.533087,962.267725,-9770.718434,-1838.629195
398.533409,3627.009116,-9844.739029,-2681.334243
398.533731,4959.379811,-9696.697840,-3753.867940
398.534053,5625.565159,-9326.594869,-3447.429741
398.534375,5625.565159,-9474.636058,-2451.505594
398.534696,4811.338623,-9474.636058,-1991.848295
398.535018,4145.153275,-8882.471304,-1225.752797
398.535340,2664.741391,-7920.203579,-1149.143247
398.535662,2516.700203,-7698.141797,-995.924147
398.535984,2664.741391,-7550.100608,-1532.190996
398.536306,2368.659014,-9252.574275,-1915.238745
398.536627,814.226536,-9918.759623,306.438199
398.536949,-148.041188,-8438.347739,2911.162892
398.537271,-222.061783,-8216.285956,995.924147
398.537593,1554.432478,-10214.842000,-2451.505594
398.537915,3701.029710,-12583.501014,-2298.286494
398.538237,3404.947333,-12583.501014,-919.314598
398.538558,2960.823768,-12657.521608,-153.219100
398.538880,3701.029710,-13323.706956,1302.362347
398.539202,4219.173869,-11843.295072,612.876398
398.539524,5107.421000,-8438.347739,-1762.019645
398.539846,6143.709319,-7476.080014,-3983.696590
398.540168,7476.080014,-9474.636058,-3907.087040
398.540489,8882.471304,-10807.006753,-1608.800546
398.540811,7920.203579,-8734.430116,1225.752797
398.541133,6439.791695,-6217.729913,2298.286494
398.541455,5477.523971,-5699.585753,766.095498
398.541777,2960.823768,-4441.235652,-1915.238745
398.542099,-814.226536,-3256.906145,-3983.696590
398.542420,-4071.132681,-5107.421000,-2987.772442
398.542742,-4737.318029,-8512.368333,-1915.238745
398.543064,-4071.132681,-11399.171507,-3447.429741
398.543386,-3627.009116,-13027.624579,-4213.525239
398.543708,-3108.864956,-13471.748144,-2298.286494
398.544030,-3034.844362,-12583.501014,-1685.410096
398.544351,-2738.761985,-12361.439231,-3294.210641
398.544673,-1628.453072,-11843.295072,-4290.134789
398.544995,592.164754,-11843.295072,-3753.867940
398.545317,1924.535449,-13175.665768,-2911.162892
398.545639,2960.823768,-13027.624579,-2145.067394
398.545960,4885.359217,-11251.130318,1991.848295
398.546282,7328.038826,-6883.915261,3524.039291
398.546604,9474.636058,-4959.379811,1225.752797
398.546926,10362.883188,-8660.409521,-383.047749
398.547248,9474.636058,-9400.615463,1455.581446
398.547569,6513.812290,-6883.915261,2451.505594
398.547891,3034.844362,-4959.379811,1685.410096
398.548213,592.164754,-5551.544565,0.000000
398.548535,-2442.679609,-5329.482782,-1838.629195
398.548857,-6143.709319,-4811.338623,-4060.306139
398.549178,-8216.285956,-8586.388927,-4979.620737
398.549500,-8142.265362,-12583.501014,-3217.601092
398.549822,-8586.388927,-12657.521608,-3140.991542
398.550144,-8956.491898,-12731.542202,-4136.915689
398.550465,-7994.224174,-13545.768739,-4213.525239
398.550787,-8438.347739,-13841.851115,-4596.572988
398.551109,-9252.574275,-13175.665768,-4443.353888
398.551431,-7846.182985,-10658.965565,-3370.820191
398.551753,-4515.256246,-9030.512492,-2604.724693
398.552074,-740.205942,-9622.677246,-2298.286494
398.552396,2590.720797,-9252.574275,0.000000
398.552718,5847.626942,-6143.709319,2068.457845
398.553040,9992.780217,-3849.070898,1378.971896
398.553362,11843.295072,-5477.523971,1838.629195
398.553683,8956.491898,-6365.771101,3677.258390
398.554005,4219.173869,-4663.297435,2911.162892
398.554327,1924.535449,-4071.132681,-459.657299
398.554649,2442.679609,-7846.182985,-3677.258390
398.554971,2368.659014,-10362.883188,-4673.182538
398.555292,222.061783,-10807.006753,-2298.286494
398.555614,-1554.432478,-11399.171507,76.609550
398.555936,-962.267725,-13915.871710,-536.266849
398.556258,-2516.700203,-14656.077652,-3294.210641
398.556579,-6291.750507,-12879.583391,-4979.620737
398.556901,-9030.512492,-11029.068536,-4903.011187
398.557223,-9104.533087,-10807.006753,-4903.011187
398.557545,-7179.997637,-11621.233289,-2757.943793
398.557867,-4589.276840,-11547.212695,-612.876398
398.558188,-2220.617826,-9696.697840,1532.190996
398.558510,1406.391290,-7550.100608,995.924147
398.558832,4959.379811,-6661.853478,-995.924147
398.559154,6587.832884,-6217.729913,-842.705048
398.559476,5403.503377,-3701.029710,459.657299
398.559797,4145.153275,-2368.659014,0.000000
398.560119,3997.112087,-5107.421000,-2068.457845
398.560441,4515.256246,-8438.347739,-3524.039291
398.560763,4145.153275,-10584.944971,-3753.867940
398.561084,3775.050304,-12287.418637,-2221.676944
398.561406,3404.947333,-13619.789333,-536.266849
398.561728,2516.700203,-13693.809927,-1378.971896
398.562050,1110.308913,-13249.686362,-2374.896044
398.562372,-1628.453072,-12805.562797,-2145.067394
398.562693,-4145.153275,-12139.377449,-2451.505594
398.563015,-5033.400406,-11769.274478,-2298.286494
398.563337,-3552.988522,-12213.398043,-1225.752797
398.563659,-1924.535449,-10732.986159,1302.362347
398.563981,-518.144159,-8438.347739,3370.820191
398.564302,1850.514855,-6291.750507,2681.334243
398.564624,4515.256246,-4589.276840,0.000000
398.564946,3997.112087,-4515.256246,-1838.629195
398.565268,1184.329507,-4441.235652,0.000000
398.565590,-2072.576638,-3775.050304,612.876398
398.565911,-3182.885551,-5995.668130,-2987.772442
398.566233,-3182.885551,-9548.656652,-5209.449386
398.566555,-3849.070898,-10288.862594,-4826.401637
398.566877,-5255.462188,-10066.800811,-5209.449386
398.567198,-4885.359217,-12583.501014,-3753.867940
398.567520,-4515.256246,-15100.201217,-1455.581446
398.567842,-6365.771101,-13915.871710,-2221.676944
398.568164,-7476.080014,-11695.253884,-2681.334243
398.568486,-7105.977043,-10955.047942,-2834.553343
398.568807,-4663.297435,-10362.883188,-3217.601092
398.569129,-1776.494261,-10066.800811,-2451.505594
398.569451,1258.350101,-9474.636058,1455.581446
398.569773,4071.132681,-8512.368333,4903.011187
398.570095,6439.791695,-7254.018232,3600.648841
398.570416,9178.553681,-6735.874072,1685.410096
398.570738,9326.594869,-5921.647536,766.095498
398.571060,6735.874072,-4885.359217,306.438199
398.571382,4367.215058,-4367.215058,-1072.533697
398.571703,4441.235652,-7402.059420,-2604.724693
398.572025,3627.009116,-9770.718434,-4213.525239
398.572347,1184.329507,-10066.800811,-3600.648841
398.572669,-2294.638420,-9770.718434,-3140.991542
398.572991,-4441.235652,-11251.130318,-3447.429741
398.573312,-7105.977043,-13175.665768,-4903.011187
398.573634,-8808.450710,-13027.624579,-6435.202183
398.573956,-9696.697840,-12583.501014,-6128.763984
398.574278,-9178.553681,-13323.706956,-3447.429741
398.574600,-7624.121203,-13619.789333,-1378.971896
398.574921,-4737.318029,-12879.583391,-306.438199
398.575243,-962.267725,-10510.924376,459.657299
398.575565,1998.556043,-8660.409521,459.657299
398.575887,4737.318029,-6661.853478,536.266849
398.576209,6513.812290,-4885.359217,1455.581446
398.576530,6809.894666,-2960.823768,2221.676944
398.576852,6217.729913,-3330.926739,1685.410096
398.577174,4885.359217,-5255.462188,459.657299
398.577496,3404.947333,-7179.997637,-919.314598
398.577817,2886.803174,-9770.718434,-2451.505594
398.578139,1924.535449,-11029.068536,-2451.505594
398.578461,518.144159,-10214.842000,-2145.067394
398.578783,222.061783,-11103.089130,-2528.115143
398.579105,-1110.308913,-13101.645173,-2681.334243
398.579426,-3701.029710,-14063.912898,-2374.896044
398.579748,-6365.771101,-13175.665768,-2528.115143
398.580070,-6809.894666,-11473.192101,-2528.115143
398.580392,-4737.318029,-11843.295072,-2528.115143
398.580714,-2738.761985,-11103.089130,-1532.190996
398.581035,-962.267725,-8586.388927,842.705048
398.581357,888.247130,-6069.688724,2528.115143
398.581679,2664.741391,-4959.379811,1915.238745
398.582001,3849.070898,-5181.441594,612.876398
398.582323,1998.556043,-5403.503377,306.438199
398.582644,-148.041188,-5107.421000,919.314598
398.582966,-222.061783,-5921.647536,-383.047749
398.583288,962.267725,-7624.121203,-2451.505594
398.583610,1110.308913,-7920.203579,-2911.162892
398.583931,222.061783,-8364.327145,-2221.676944
398.584253,-1702.473667,-9622.677246,-1915.238745
398.584575,-2294.638420,-13027.624579,-2834.553343
398.584897,-4589.276840,-14656.077652,-4673.182538
398.585219,-7105.977043,-13027.624579,-4903.011187
398.585540,-7550.100608,-12953.603985,-4213.525239
398.585862,-5033.400406,-13989.892304,-3217.601092
398.586184,-1998.556043,-14211.954086,-2681.334243
398.586506,814.226536,-11991.336260,-766.095498
398.586828,3256.906145,-9844.739029,1762.019645
398.587149,5847.626942,-8438.347739,3140.991542
398.587471,7846.182985,-6957.935855,842.705048
398.587793,7772.162391,-5403.503377,0.000000
398.588115,5699.585753,-5107.421000,76.609550
398.588436,2590.720797,-5477.523971,1378.971896
398.588758,740.205942,-6217.729913,-229.828649
398.589080,592.164754,-8660.409521,-2604.724693
398.589402,-444.123565,-9252.574275,-4060.306139
398.589724,-1998.556043,-8734.430116,-2911.162892
398.590045,-4145.153275,-8956.491898,-2451.505594
398.590367,-5329.482782,-11251.130318,-3064.381992
398.590689,-6957.935855,-12583.501014,-3524.039291
398.591011,-8512.368333,-13101.645173,-4826.401637
398.591333,-9474.636058,-13323.706956,-4673.182538
398.591654,-7031.956449,-13767.830521,-3753.867940
398.591976,-2960.823768,-13175.665768,-2604.724693
398.592298,444.123565,-11473.192101,0.000000
398.592620,3404.947333,-8438.347739,2145.067394
398.592942,5477.523971,-5625.565159,3140.991542
398.593263,6883.915261,-4219.173869,1915.238745
398.593585,6809.894666,-3552.988522,536.266849
398.593907,4515.256246,-3330.926739,459.657299
398.594229,2146.597232,-4515.256246,766.095498
398.594550,1554.432478,-6661.853478,689.485948
398.594872,1332.370696,-8660.409521,-842.705048
398.595194,962.267725,-8364.327145,-2221.676944
398.595516,-1332.370696,-7624.121203,-2604.724693
398.595838,-3182.885551,-9326.594869,-3217.601092
398.596159,-4293.194464,-13693.809927,-3677.258390
398.596481,-6217.729913,-15396.283594,-3907.087040
398.596803,-7846.182985,-14730.098246,-3983.696590
398.597125,-7402.059420,-14211.954086,-3677.258390
398.597447,-4367.215058,-13915.871710,-2834.553343
398.597768,-518.144159,-11843.295072,-3447.429741
398.598090,2664.741391,-9770.718434,-1455.581446
398.598412,4737.318029,-7402.059420,995.924147
398.598734,6143.709319,-6735.874072,2221.676944
398.599055,5625.565159,-6587.832884,1532.190996
398.599377,3997.112087,-5477.523971,306.438199
398.599699,2442.679609,-4663.297435,-919.314598
398.600021,1480.411884,-5107.421000,-1532.190996
398.600343,1332.370696,-7254.018232,-995.924147
398.600664,740.205942,-8734.430116,-1838.629195
398.600986,0.000000,-8512.368333,-2145.067394
398.601308,-1776.494261,-8660.409521,-1915.238745
398.601630,-3478.967927,-10362.883188,-3600.648841
398.601952,-4959.379811,-14211.954086,-5898.935335
398.602273,-6513.812290,-16210.510130,-5898.935335
398.602595,-7846.182985,-16432.571912,-3830.477490
398.602917,-6069.688724,-14508.036463,-1532.190996
398.603239,-1850.514855,-13175.665768,-1685.410096
398.603561,2516.700203,-11621.233289,-2451.505594
398.603882,4589.276840,-8882.471304,-1072.533697
398.604204,5181.441594,-7105.977043,1838.629195
398.604526,5699.585753,-5995.668130,2987.772442
398.604848,4959.379811,-6069.688724,2987.772442
398.605169,3404.947333,-5329.482782,1838.629195
398.605491,1406.391290,-4589.276840,612.876398
398.605813,0.000000,-4737.318029,0.000000
398.606135,-444.123565,-5995.668130,0.000000
398.606457,-518.144159,-7031.956449,-766.095498
398.606778,-888.247130,-7624.121203,-766.095498
398.607100,-2368.659014,-7846.182985,-1072.533697
398.607422,-4145.153275,-10288.862594,-2068.457845
398.607744,-6513.812290,-13841.851115,-3524.039291
398.608066,-9030.512492,-14582.057057,-3983.696590
398.608387,-9992.780217,-13619.789333,-3907.087040
398.608709,-7105.977043,-13397.727550,-3600.648841
398.609031,-2516.700203,-13323.706956,-3064.381992
398.609353,962.267725,-11399.171507,-1225.752797
398.609674,3256.906145,-7624.121203,1302.362347
398.609996,5625.565159,-4959.379811,2451.505594
398.610318,7179.997637,-4515.256246,1915.238745
398.610640,5921.647536,-4737.318029,229.828649
398.610962,2590.720797,-5477.523971,766.095498
398.611283,222.061783,-5329.482782,995.924147
398.611605,444.123565,-5773.606348,229.828649
398.611927,1998.556043,-8290.306550,-2451.505594
398.612249,2368.659014,-8734.430116,-2451.505594
398.612571,888.247130,-7994.224174,-1378.971896
398.612892,-962.267725,-9548.656652,-1149.143247
398.613214,-2812.782580,-13027.624579,-2298.286494
398.613536,-4589.276840,-15618.345376,-4826.401637
398.613858,-7105.977043,-15396.283594,-5975.544884
398.614180,-8438.347739,-15396.283594,-4596.572988
398.614501,-6143.709319,-14730.098246,-3064.381992
398.614823,-2220.617826,-12509.480420,-3447.429741
398.615145,2294.638420,-10214.842000,-2145.067394
398.615467,4145.153275,-7698.141797,229.828649
398.615788,4885.359217,-6513.812290,1225.752797
398.616110,4663.297435,-6365.771101,536.266849
398.616432,3701.029710,-5625.565159,-612.876398
398.616754,1332.370696,-5477.523971,-1302.362347
398.617076,0.000000,-5921.647536,-2221.676944
398.617397,-296.082377,-7105.977043,-1991.848295
398.617719,592.164754,-9474.636058,-2604.724693
398.618041,962.267725,-10584.944971,-2374.896044
398.618363,296.082377,-9918.759623,-229.828649
398.618685,-1554.432478,-9474.636058,-1225.752797
398.619006,-3478.967927,-12509.480420,-2681.334243
398.619328,-5625.565159,-13915.871710,-3830.477490
398.619650,-7402.059420,-12731.542202,-4060.306139
398.619972,-6883.915261,-11547.212695,-2834.553343
398.620293,-3552.988522,-12287.418637,-1532.190996
398.620615,-1184.329507,-11325.150913,-689.485948
398.620937,666.185348,-9030.512492,1302.362347
398.621259,2886.803174,-6069.688724,2298.286494
398.621581,6217.729913,-4071.132681,306.438199
398.621902,7624.121203,-3997.112087,-1455.581446
398.622224,5403.503377,-4811.338623,766.095498
398.622546,2220.617826,-4959.379811,2374.896044
398.622868,444.123565,-5699.585753,766.095498
398.623190,1258.350101,-8512.368333,-2451.505594
398.623511,1184.329507,-10955.047942,-3830.477490
398.623833,-592.164754,-10510.924376,-2298.286494
398.624155,-2146.597232,-9770.718434,-612.876398
398.624477,-2220.617826,-11325.150913,-766.095498
398.624799,-3108.864956,-12805.562797,-2068.457845
398.625120,-5773.606348,-11399.171507,-3217.601092
398.625442,-8142.265362,-10214.842000,-4136.915689
398.625764,-8660.409521,-10881.027347,-3677.258390
398.626086,-5773.606348,-11991.336260,-2834.553343
398.626407,-2812.782580,-10658.965565,-2374.896044
398.626729,0.000000,-9474.636058,536.266849
398.627051,2960.823768,-8808.450710,2451.505594
398.627373,6069.688724,-7476.080014,689.485948
398.627695,6883.915261,-6365.771101,-1991.848295
398.628016,5625.565159,-5625.565159,-1685.410096
398.628338,4071.132681,-6365.771101,-1149.143247
398.628660,3256.906145,-7624.121203,-2221.676944
398.628982,2294.638420,-9400.615463,-3447.429741
398.629304,1850.514855,-11399.171507,-2068.457845
398.629625,962.267725,-11843.295072,-1608.800546
398.629947,-518.144159,-11547.212695,-1915.238745
398.630269,-1776.494261,-11991.336260,-2757.943793
398.630591,-2442.679609,-12287.418637,-3447.429741
398.630912,-4737.318029,-11621.233289,-2374.896044
398.631234,-6661.853478,-11473.192101,-1455.581446
398.631556,-6587.832884,-11251.130318,-995.924147
398.631878,-3997.112087,-11325.150913,-2221.676944
398.632200,-1110.308913,-10510.924376,-1838.629195
398.632521,1332.370696,-9992.780217,0.000000
398.632843,2738.761985,-8364.327145,1455.581446
398.633165,4737.318029,-6291.750507,689.485948
398.633487,5773.606348,-5921.647536,0.000000
398.633809,3923.091493,-6069.688724,0.000000
398.634130,814.226536,-5403.503377,-306.438199
398.634452,-962.267725,-5107.421000,-2374.896044
398.634774,-1406.391290,-8364.327145,-3753.867940
398.635096,-1850.514855,-9696.697840,-3447.429741
398.635418,-2664.741391,-9252.574275,-2145.067394
398.635739,-2812.782580,-9770.718434,-2451.505594
398.636061,-2368.659014,-11325.150913,-2451.505594
398.636383,-3775.050304,-12509.480420,-1838.629195
398.636705,-6439.791695,-11621.233289,-1532.190996
398.637026,-7105.977043,-10140.821405,-1762.019645
398.637348,-5107.421000,-10214.842000,-2068.457845
398.637670,-1924.535449,-10066.800811,-2604.724693
398.637992,444.123565,-8956.491898,-306.438199
398.638314,2516.700203,-7105.977043,2068.457845
398.638635,5181.441594,-6735.874072,2298.286494
398.638957,7402.059420,-7179.997637,612.876398
398.639279,6661.853478,-6661.853478,-766.095498
398.639601,3923.091493,-5329.482782,-306.438199
398.639923,1332.370696,-5551.544565,-1378.971896
398.640244,740.205942,-7624.121203,-3677.258390
398.640566,-222.061783,-9548.656652,-4826.401637
398.640888,-1776.494261,-10732.986159,-3370.820191
398.641210,-3256.906145,-10807.006753,-1991.848295
398.641531,-3552.988522,-11917.315666,-3064.381992
398.641853,-3923.091493,-14063.912898,-4749.792088
398.642175,-5033.400406,-14285.974681,-4366.744339
398.642497,-6143.709319,-13989.892304,-2987.772442
398.642819,-5847.626942,-12435.459826,-2068.457845
398.643140,-4441.235652,-11399.171507,-1991.848295
398.643462,-1924.535449,-9918.759623,-1915.238745
398.643784,666.185348,-8364.327145,-995.924147
398.644106,3552.988522,-7476.080014,0.000000
398.644428,6365.771101,-6883.915261,612.876398
398.644749,8068.244768,-6883.915261,76.609550
398.645071,7624.121203,-6883.915261,919.314598
398.645394,5477.523971,-7031.956449,306.438199
398.645716,3108.864956,-7105.977043,-1838.629195
398.646037,1702.473667,-8438.347739,-3830.477490
398.646359,296.082377,-10584.944971,-3677.258390
398.646681,-962.267725,-11251.130318,-2451.505594
398.647002,-2294.638420,-11473.192101,-2221.676944
398.647324,-2738.761985,-12139.377449,-2068.457845
398.647646,-3108.864956,-12805.562797,-1685.410096
398.647968,-4663.297435,-11843.295072,-2221.676944
398.648289,-7031.956449,-10436.903782,-1762.019645
398.648611,-7402.059420,-10214.842000,-1225.752797
398.648933,-5773.606348,-10955.047942,-612.876398
398.649255,-3775.050304,-8956.491898,612.876398
398.649576,-740.205942,-7105.977043,2374.896044
398.649898,2590.720797,-5477.523971,1225.752797
398.650220,6143.709319,-5551.544565,153.219100
398.650542,6439.791695,-5329.482782,1455.581446
398.650863,3627.009116,-3849.070898,2298.286494
398.651185,1036.288319,-4367.215058,76.609550
398.651507,0.000000,-5773.606348,-3983.696590
398.651828,-592.164754,-9474.636058,-5669.106685
398.652150,-1554.432478,-11103.089130,-4673.182538
398.652472,-2664.741391,-11029.068536,-2451.505594
398.652794,-2960.823768,-11695.253884,-1838.629195
398.653115,-1924.535449,-12435.459826,-1991.848295
398.653437,-2072.576638,-13693.809927,-3983.696590
398.653759,-4145.153275,-13397.727550,-3064.381992
398.654081,-5921.647536,-11769.274478,-1149.143247
398.654402,-5033.400406,-9770.718434,-612.876398
398.654724,-2072.576638,-9844.739029,-1378.971896
398.655046,888.247130,-8438.347739,-1302.362347
398.655368,2886.803174,-7402.059420,383.047749
398.655689,4885.359217,-5921.647536,1838.629195
398.656011,7031.956449,-6587.832884,1149.143247
398.656333,7105.977043,-7254.018232,383.047749
398.656654,5107.421000,-6735.874072,-459.657299
398.656976,3256.906145,-6809.894666,-3370.820191
398.657298,2368.659014,-7698.141797,-5515.887586
398.657620,1184.329507,-9548.656652,-5592.497135
398.657941,-962.267725,-11695.253884,-4903.011187
398.658263,-3478.967927,-12879.583391,-4136.915689
398.658585,-4441.235652,-14063.912898,-4213.525239
398.658907,-4219.173869,-16284.530724,-4366.744339
398.659228,-4959.379811,-15470.304188,-4443.353888
398.659550,-5699.585753,-13027.624579,-3447.429741
398.659872,-6143.709319,-10807.006753,-1532.190996
398.660194,-4737.318029,-9992.780217,689.485948
398.660515,-2146.597232,-8586.388927,1149.143247
398.660837,592.164754,-6217.729913,766.095498
398.661159,3478.967927,-5403.503377,1072.533697
398.661480,6143.709319,-5329.482782,2374.896044
398.661802,8068.244768,-5255.462188,2298.286494
398.662124,6735.874072,-5477.523971,2451.505594
398.662446,3997.112087,-5995.668130,1762.019645
398.662767,1628.453072,-7105.977043,-2374.896044
398.663089,666.185348,-9622.677246,-6128.763984
398.663411,-740.205942,-10955.047942,-5286.058936
398.663733,-2220.617826,-11547.212695,-3064.381992
398.664054,-3034.844362,-12435.459826,-2834.553343
398.664376,-3330.926739,-13989.892304,-3064.381992
398.664698,-3330.926739,-14137.933492,-3217.601092
398.665020,-4589.276840,-12509.480420,-3217.601092
398.665341,-5329.482782,-10510.924376,-612.876398
398.665663,-6587.832884,-8512.368333,766.095498
398.665985,-5699.585753,-7772.162391,919.314598
398.666306,-2812.782580,-6883.915261,766.095498
398.666628,148.041188,-5847.626942,1378.971896
398.666950,2368.659014,-5107.421000,2757.943793
398.667272,4737.318029,-5477.523971,3370.820191
398.667593,5403.503377,-5403.503377,2681.334243
398.667915,4663.297435,-5773.606348,1685.410096
398.668237,2738.761985,-6365.771101,0.000000
398.668559,1258.350101,-6513.812290,-3907.087040
398.668880,444.123565,-7476.080014,-6511.811733
398.669202,0.000000,-10140.821405,-6052.154434
398.669524,-1998.556043,-13545.768739,-3830.477490
398.669846,-3997.112087,-14582.057057,-2987.772442
398.670167,-4515.256246,-15100.201217,-3983.696590
398.670489,-4515.256246,-15396.283594,-4749.792088
398.670811,-5329.482782,-14137.933492,-4443.353888
398.671132,-6143.709319,-11843.295072,-2451.505594
398.671454,-5477.523971,-10066.800811,-612.876398
398.671776,-2590.720797,-8586.388927,76.609550
398.672098,962.267725,-7402.059420,-306.438199
398.672419,3182.885551,-6217.729913,689.485948
398.672741,4441.235652,-5847.626942,2145.067394
398.673063,5847.626942,-6143.709319,2068.457845
398.673385,6439.791695,-6809.894666,919.314598
398.673706,4811.338623,-7550.100608,153.219100
398.674028,2664.741391,-7994.224174,-1915.238745
398.674350,1702.473667,-8956.491898,-4749.792088
398.674672,1332.370696,-9992.780217,-5898.935335
398.674993,296.082377,-11991.336260,-4519.963438
398.675315,-1110.308913,-13323.706956,-3524.039291
398.675637,-2146.597232,-13545.768739,-3524.039291
398.675958,-2442.679609,-14211.954086,-4213.525239
398.676280,-3923.091493,-14359.995275,-3907.087040
398.676602,-5847.626942,-12731.542202,-2528.115143
398.676924,-7105.977043,-10362.883188,-1072.533697
398.677245,-6291.750507,-8882.471304,612.876398
398.677567,-3478.967927,-7402.059420,1455.581446
398.677889,-1036.288319,-5773.606348,1072.533697
398.678211,814.226536,-5181.441594,2374.896044
398.678532,3108.864956,-4663.297435,3140.991542
398.678854,5403.503377,-4663.297435,2221.676944
398.679176,5551.544565,-4959.379811,2068.457845
398.679498,4145.153275,-5699.585753,1072.533697
398.679819,1924.535449,-6735.874072,-1838.629195
398.680141,1406.391290,-7920.203579,-5515.887586
398.680463,1332.370696,-9474.636058,-6052.154434
398.680784,296.082377,-11547.212695,-4903.011187
398.681106,-1776.494261,-12953.603985,-3370.820191
398.681428,-2220.617826,-13841.851115,-2681.334243
398.681750,-2738.761985,-14434.015869,-3677.258390
398.682071,-3552.988522,-14359.995275,-3753.867940
398.682393,-4959.379811,-11917.315666,-1762.019645
398.682715,-6439.791695,-8882.471304,-766.095498
398.683037,-4515.256246,-8142.265362,0.000000
398.683358,-1480.411884,-7994.224174,612.876398
398.683680,370.102971,-6883.915261,842.705048
398.684002,1036.288319,-6217.729913,2451.505594
398.684324,2960.823768,-5551.544565,3064.381992
398.684645,4589.276840,-6439.791695,1838.629195
398.684967,4145.153275,-6957.935855,0.000000
398.685289,2072.576638,-7105.977043,-612.876398
398.685610,1036.288319,-7179.997637,-3600.648841
398.685932,1702.473667,-8808.450710,-6435.202183
398.686254,1332.370696,-10510.924376,-6205.373534
398.686576,-1184.329507,-11769.274478,-4213.525239
398.686897,-3034.844362,-13249.686362,-4826.401637
398.687219,-3997.112087,-14952.160028,-5515.887586
398.687541,-4811.338623,-16284.530724,-5898.935335
398.687863,-5477.523971,-15470.304188,-4979.620737
398.688184,-6291.750507,-14285.974681,-2834.553343
398.688506,-6217.729913,-11695.253884,0.000000
398.688828,-3923.091493,-10288.862594,1455.581446
398.689150,-888.247130,-7105.977043,2145.067394
398.689471,2072.576638,-3997.112087,1685.410096
398.689793,4663.297435,-3627.009116,1225.752797
398.690115,6587.832884,-4515.256246,2528.115143
398.690437,6587.832884,-5699.585753,3753.867940
398.690758,4737.318029,-5995.668130,3524.039291
398.691080,3034.844362,-6661.853478,1225.752797
398.691402,2368.659014,-8438.347739,-3677.258390
398.691723,2220.617826,-9770.718434,-6128.763984
398.692045,0.000000,-10436.903782,-4596.572988
398.692367,-2442.679609,-11103.089130,-2757.943793
398.692689,-4367.215058,-12065.356855,-2834.553343
398.693010,-4441.235652,-13545.768739,-4213.525239
398.693332,-5699.585753,-13989.892304,-5286.058936
398.693654,-6883.915261,-12731.542202,-4519.963438
398.693976,-7772.162391,-11251.130318,-1378.971896
398.694297,-7328.038826,-9178.553681,766.095498
398.694619,-4441.235652,-8142.265362,1072.533697
398.694941,-814.226536,-5995.668130,1302.362347
398.695263,2146.597232,-5625.565159,1991.848295
398.695584,4145.153275,-4885.359217,3140.991542
398.695906,6735.874072,-4515.256246,3600.648841
398.696228,7105.977043,-4589.276840,3370.820191
398.696549,6217.729913,-5033.400406,2987.772442
398.696871,3849.070898,-5699.585753,-383.047749
398.697193,2738.761985,-6957.935855,-4596.572988
398.697515,2442.679609,-9252.574275,-6435.202183
398.697836,1184.329507,-11547.212695,-5439.278036
398.698158,-296.082377,-13619.789333,-4519.963438
398.698480,-1850.514855,-14878.139434,-3370.820191
398.698802,-3034.844362,-15174.221811,-4596.572988
398.699123,-3997.112087,-15544.324782,-5592.497135
398.699445,-5329.482782,-14952.160028,-4749.792088
398.699767,-6809.894666,-12583.501014,-2221.676944
398.700089,-6439.791695,-9918.759623,-383.047749
398.700410,-3108.864956,-8438.347739,0.000000
398.700732,666.185348,-6735.874072,-536.266849
398.701054,3108.864956,-5699.585753,459.657299
398.701375,4515.256246,-5477.523971,2604.724693
398.701697,6069.688724,-5329.482782,2757.943793
398.702019,5403.503377,-6883.915261,1302.362347
398.702341,2368.659014,-7698.141797,536.266849
398.702662,-370.102971,-7846.182985,-1532.190996
398.702984,-222.061783,-9030.512492,-6358.592633
398.703306,1258.350101,-10436.903782,-7431.126331
398.703628,444.123565,-11325.150913,-4366.744339
398.703949,-1480.411884,-12435.459826,-2221.676944
398.704271,-3330.926739,-13915.871710,-2681.334243
398.704593,-4441.235652,-16062.468941,-4060.306139
398.704915,-5625.565159,-15470.304188,-5669.106685
398.705236,-6291.750507,-13545.768739,-4903.011187
398.705558,-6291.750507,-10881.027347,-1302.362347
398.705880,-5033.400406,-9548.656652,689.485948
398.706201,-2146.597232,-8068.244768,2757.943793
398.706523,1036.288319,-5033.400406,3524.039291
398.706845,3775.050304,-3256.906145,2911.162892
398.707167,6069.688724,-2886.803174,2681.334243
398.707488,7031.956449,-4367.215058,2604.724693
398.707810,4515.256246,-5921.647536,3524.039291
398.708132,888.247130,-5329.482782,3983.696590
398.708454,-592.164754,-6291.750507,-689.485948
398.708775,666.185348,-8734.430116,-6511.811733
398.709097,74.020594,-9918.759623,-7354.516781
398.709419,-2368.659014,-10140.821405,-3753.867940
398.709741,-3997.112087,-11843.295072,-2068.457845
398.710062,-4071.132681,-14063.912898,-3370.820191
398.710384,-4959.379811,-15174.221811,-4903.011187
398.710706,-7328.038826,-13545.768739,-4826.401637
398.711027,-7698.141797,-11473.192101,-3294.210641
398.711349,-6735.874072,-9622.677246,-2298.286494
398.711671,-4219.173869,-9548.656652,-612.876398
398.711993,-962.267725,-8290.306550,1915.238745
398.712314,2368.659014,-5699.585753,3677.258390
398.712636,5033.400406,-4589.276840,2068.457845
398.712958,7402.059420,-5477.523971,1378.971896
398.713280,7550.100608,-7179.997637,1685.410096
398.713601,5477.523971,-7179.997637,2068.457845
398.713923,3775.050304,-6661.853478,919.314598
398.714245,2738.761985,-7846.182985,-2451.505594
398.714567,3182.885551,-9104.533087,-6741.640382
398.714888,2220.617826,-9770.718434,-6894.859482
398.715210,222.061783,-11769.274478,-4903.011187
398.715532,-1554.432478,-14434.015869,-3907.087040
398.715853,-2368.659014,-15692.365970,-4673.182538
398.716175,-3775.050304,-16358.551318,-5515.887586
398.716497,-5699.585753,-16062.468941,-5132.839837
398.716819,-7402.059420,-13619.789333,-3677.258390
398.717140,-7179.997637,-10658.965565,-2068.457845
398.717462,-3849.070898,-8660.409521,-612.876398
398.717784,0.000000,-6735.874072,459.657299
398.718106,3034.844362,-4811.338623,1685.410096
398.718427,5181.441594,-4293.194464,2604.724693
398.718749,7179.997637,-4515.256246,3447.429741
398.719071,7846.182985,-5033.400406,2528.115143
398.719393,5477.523971,-6735.874072,1608.800546
398.719714,1110.308913,-6883.915261,919.314598
398.720036,-1406.391290,-7105.977043,-1685.410096
398.720358,-962.267725,-10288.862594,-5592.497135
398.720679,-296.082377,-11991.336260,-6052.154434
398.721001,-1184.329507,-11103.089130,-4060.306139
398.721323,-2442.679609,-10732.986159,-2987.772442
398.721645,-2812.782580,-13471.748144,-2145.067394
398.721966,-4219.173869,-15174.221811,-3064.381992
398.722288,-6587.832884,-13915.871710,-3983.696590
398.722610,-7624.121203,-10658.965565,-2911.162892
398.722932,-5995.668130,-8290.306550,-842.705048
398.723253,-2812.782580,-8290.306550,-153.219100
398.723575,222.061783,-6291.750507,1608.800546
398.723897,2812.782580,-3923.091493,3677.258390
398.724219,5551.544565,-3997.112087,3600.648841
398.724540,7550.100608,-6217.729913,2374.896044
398.724862,5625.565159,-7476.080014,3064.381992
398.725184,1998.556043,-6217.729913,2834.553343
398.725505,-222.061783,-6365.771101,-612.876398
398.725827,592.164754,-8216.285956,-4673.182538
398.726149,814.226536,-9178.553681,-5822.325785
398.726471,-740.205942,-9696.697840,-4366.744339
398.726792,-2368.659014,-11695.253884,-2834.553343
398.727114,-2590.720797,-13619.789333,-2528.115143
398.727436,-2738.761985,-15100.201217,-4596.572988
398.727758,-4515.256246,-14582.057057,-5745.716235
398.728079,-6291.750507,-12805.562797,-4826.401637
398.728401,-6587.832884,-11473.192101,-2681.334243
398.728723,-5477.523971,-10658.965565,-995.924147
398.729045,-3404.947333,-9474.636058,-766.095498
398.729366,-1110.308913,-7624.121203,-459.657299
398.729688,1702.473667,-7031.956449,459.657299
398.730010,4441.235652,-6735.874072,383.047749
398.730331,6365.771101,-7328.038826,153.219100
398.730653,6143.709319,-7328.038826,1302.362347
398.730975,4071.132681,-7846.182985,2068.457845
398.731297,1110.308913,-8364.327145,0.000000
398.731618,370.102971,-8586.388927,-3830.477490
398.731940,-518.144159,-9326.594869,-5669.106685
398.732262,-962.267725,-10658.965565,-5362.668486
398.732584,-1184.329507,-12139.377449,-3983.696590
398.732905,-1110.308913,-12583.501014,-2451.505594
398.733227,-1184.329507,-13397.727550,-1608.800546
398.733549,-2368.659014,-14285.974681,-1455.581446
398.733871,-4885.359217,-12805.562797,-2068.457845
398.734192,-6809.894666,-10066.800811,-2681.334243
398.734514,-5181.441594,-8512.368333,-1685.410096
398.734836,-2738.761985,-6661.853478,536.266849
398.735157,1036.288319,-4737.318029,919.314598
398.735479,2960.823768,-3923.091493,2298.286494
398.735801,5551.544565,-4737.318029,2757.943793
398.736123,6883.915261,-6883.915261,2681.334243
398.736444,4811.338623,-7105.977043,2298.286494
398.736766,2146.597232,-6883.915261,842.705048
398.737088,148.041188,-7698.141797,-1149.143247
398.737410,0.000000,-8734.430116,-2987.772442
398.737731,-222.061783,-8290.306550,-3524.039291
398.738053,-444.123565,-8882.471304,-3753.867940
398.738375,-962.267725,-10214.842000,-2681.334243
398.738697,-1628.453072,-12509.480420,-3447.429741
398.739018,-3701.029710,-13323.706956,-2911.162892
398.739340,-5181.441594,-13767.830521,-2528.115143
398.739662,-5921.647536,-13101.645173,-2757.943793
398.739984,-5477.523971,-10807.006753,-2757.943793
398.740305,-3330.926739,-10066.800811,-1762.019645
398.740627,-1036.288319,-8586.388927,-306.438199
398.740949,1776.494261,-7105.977043,995.924147
398.741270,4515.256246,-6957.935855,1991.848295
398.741592,7179.997637,-7031.956449,1149.143247
398.741914,7031.956449,-7550.100608,0.000000
398.742236,5773.606348,-8364.327145,612.876398
398.742557,2664.741391,-8216.285956,459.657299
398.742879,1036.288319,-7846.182985,-2834.553343
398.743201,1406.391290,-9400.615463,-5592.497135
398.743523,666.185348,-10955.047942,-5209.449386
398.743844,-1258.350101,-11029.068536,-4443.353888
398.744166,-3182.885551,-11399.171507,-3677.258390
398.744488,-3701.029710,-13397.727550,-3753.867940
398.744810,-4811.338623,-15174.221811,-4443.353888
398.745131,-6291.750507,-15100.201217,-5209.449386
398.745453,-7476.080014,-13101.645173,-2834.553343
398.745775,-6883.915261,-10362.883188,-612.876398
398.746096,-4293.194464,-9400.615463,-459.657299
398.746418,-1406.391290,-6957.935855,-383.047749
398.746740,1258.350101,-4811.338623,1302.362347
398.747062,3701.029710,-5033.400406,1838.629195
398.747383,5995.668130,-5995.668130,1762.019645
398.747705,5847.626942,-6513.812290,1838.629195
398.748027,3404.947333,-7031.956449,1991.848295
398.748349,1406.391290,-7698.141797,459.657299
398.748671,1406.391290,-7402.059420,-2298.286494
398.748992,1258.350101,-7624.121203,-4290.134789
398.749314,-222.061783,-9030.512492,-3064.381992
398.749636,-1998.556043,-10066.800811,-2451.505594
398.749958,-3330.926739,-11177.109724,-2451.505594
398.750280,-3552.988522,-13471.748144,-2681.334243
398.750602,-4293.194464,-14804.118840,-3370.820191
398.750924,-5773.606348,-12953.603985,-2987.772442
398.751246,-6957.935855,-9992.780217,-1685.410096
398.751567,-5551.544565,-8808.450710,-536.266849
398.751889,-2960.823768,-7920.203579,0.000000
398.752211,-518.144159,-5773.606348,459.657299
398.752533,1480.411884,-4811.338623,1302.362347
398.752855,4293.194464,-5551.544565,1378.971896
398.753177,5699.585753,-7402.059420,1532.190996
398.753499,4959.379811,-7846.182985,1991.848295
398.753821,2812.782580,-7846.182985,1225.752797
398.754142,2442.679609,-7476.080014,-2221.676944
398.754464,2590.720797,-8142.265362,-4826.401637
398.754786,2294.638420,-9918.759623,-4979.620737
398.755108,740.205942,-11029.068536,-3753.867940
398.755430,-148.041188,-11547.212695,-3447.429741
398.755752,0.000000,-12731.542202,-4136.915689
398.756074,-740.205942,-14211.954086,-4213.525239
398.756396,-2590.720797,-14508.036463,-4136.915689
398.756718,-4959.379811,-12879.583391,-3447.429741
398.757039,-5403.503377,-11621.233289,-2221.676944
398.757361,-3182.885551,-10732.986159,-689.485948
398.757683,-222.061783,-9178.553681,-153.219100
398.758005,1110.308913,-6661.853478,-229.828649
398.758327,3108.864956,-5847.626942,689.485948
398.758649,5181.441594,-6143.709319,1072.533697
398.758971,5921.647536,-6957.935855,689.485948
398.759293,4293.194464,-7402.059420,383.047749
398.759614,1776.494261,-7328.038826,229.828649
398.759936,296.082377,-8364.327145,-2757.943793
398.760258,222.061783,-10214.842000,-4979.620737
398.760580,-296.082377,-10881.027347,-4443.353888
398.760902,-1332.370696,-10955.047942,-3217.601092
398.761224,-1702.473667,-11917.315666,-3447.429741
398.761546,-1628.453072,-13323.706956,-2987.772442
398.761868,-2294.638420,-13767.830521,-2911.162892
398.762189,-4293.194464,-12509.480420,-3217.601092
398.762511,-5625.565159,-10955.047942,-1991.848295
398.762833,-4737.318029,-9252.574275,-612.876398
398.763155,-3627.009116,-8734.430116,76.609550
398.763477,-1406.391290,-6957.935855,766.095498
398.763799,666.185348,-5107.421000,1378.971896
398.764121,2516.700203,-4885.359217,1991.848295
398.764443,4293.194464,-5921.647536,2451.505594
398.764764,3256.906145,-6069.688724,2298.286494
398.765086,1110.308913,-5921.647536,995.924147
398.765408,-666.185348,-7105.977043,-766.095498
398.765730,-1406.391290,-8068.244768,-3447.429741
398.766052,-1184.329507,-8512.368333,-4060.306139
398.766374,-1702.473667,-9844.739029,-3753.867940
398.766696,-1702.473667,-12139.377449,-3294.210641
398.767018,-2664.741391,-12287.418637,-2528.115143
398.767339,-3552.988522,-12805.562797,-2757.943793
398.767661,-4293.194464,-13101.645173,-2987.772442
398.767983,-5181.441594,-11917.315666,-2834.553343
398.768305,-5995.668130,-9770.718434,-1991.848295
398.768627,-5551.544565,-8808.450710,0.000000
398.768949,-3182.885551,-8290.306550,1225.752797
398.769271,-962.267725,-6587.832884,689.485948
398.769593,1924.535449,-6069.688724,153.219100
398.769914,4811.338623,-7105.977043,1072.533697
398.770236,5921.647536,-7624.121203,1762.019645
398.770558,6069.688724,-7698.141797,842.705048
398.770880,4663.297435,-8364.327145,-306.438199
398.771202,3034.844362,-8956.491898,-1608.800546
398.771524,1776.494261,-9400.615463,-4136.915689
398.771846,1036.288319,-10881.027347,-5515.887586
398.772168,592.164754,-12731.542202,-5132.839837
398.772489,74.020594,-13619.789333,-3830.477490
398.772811,-962.267725,-13101.645173,-3907.087040
398.773133,-1110.308913,-13323.706956,-3064.381992
398.773455,-2590.720797,-13915.871710,-2528.115143
398.773777,-4737.318029,-12361.439231,-2604.724693
398.774099,-6587.832884,-10066.800811,-1455.581446
398.774421,-5773.606348,-8438.347739,229.828649
398.774743,-3701.029710,-8216.285956,0.000000
398.775064,-1332.370696,-7031.956449,76.609550
398.775386,1406.391290,-5477.523971,1072.533697
398.775708,4219.173869,-5255.462188,1685.410096
398.776030,5773.606348,-6217.729913,2221.676944
398.776352,5033.400406,-5995.668130,1608.800546
398.776674,3627.009116,-5181.441594,689.485948
398.776996,2072.576638,-7179.997637,-2757.943793
398.777318,1850.514855,-9844.739029,-4903.011187
398.777639,888.247130,-11473.192101,-4443.353888
398.777961,0.000000,-11843.295072,-3370.820191
398.778283,-370.102971,-11843.295072,-2451.505594
398.778605,-888.247130,-11695.253884,-1455.581446
398.778927,-2072.576638,-12213.398043,-2834.553343
398.779249,-4145.153275,-11029.068536,-2757.943793
398.779571,-5699.585753,-9844.739029,-1762.019645
398.779893,-5921.647536,-8660.409521,0.000000
398.780214,-4293.194464,-8438.347739,919.314598
398.780536,-2368.659014,-6809.894666,1378.971896
398.780858,-518.144159,-5477.523971,842.705048
398.781180,1332.370696,-6143.709319,1608.800546
398.781502,2812.782580,-6883.915261,1532.190996
398.781824,3701.029710,-6513.812290,536.266849
398.782146,2738.761985,-6735.874072,-612.876398
398.782468,2146.597232,-8512.368333,-1302.362347
398.782789,444.123565,-8956.491898,-2681.334243
398.783111,-296.082377,-9992.780217,-5132.839837
398.783433,0.000000,-12287.418637,-5898.935335
398.783755,0.000000,-13989.892304,-5515.887586
398.784077,-1850.514855,-13693.809927,-4519.963438
398.784399,-2886.803174,-12805.562797,-3447.429741
398.784721,-2960.823768,-13101.645173,-3217.601092
398.785043,-3701.029710,-11917.315666,-3983.696590
398.785364,-4663.297435,-10362.883188,-2834.553343
398.785686,-5329.482782,-9252.574275,0.000000
398.786008,-3997.112087,-9400.615463,536.266849
398.786330,-1554.432478,-8142.265362,76.609550
398.786652,888.247130,-6809.894666,76.609550
398.786974,3330.926739,-6661.853478,919.314598
398.787296,5255.462188,-7105.977043,1762.019645
398.787618,5033.400406,-7105.977043,1225.752797
398.787939,3997.112087,-7994.224174,-536.266849
398.788261,2368.659014,-9252.574275,-1915.238745
398.788583,444.123565,-9918.759623,-3447.429741
398.788905,592.164754,-11177.109724,-3677.258390
398.789227,-370.102971,-12065.356855,-4366.744339
398.789549,-444.123565,-11547.212695,-4136.915689
398.789871,-1184.329507,-11029.068536,-3677.258390
398.790193,-1850.514855,-11177.109724,-2604.724693
398.790514,-3330.926739,-11843.295072,-1455.581446
398.790836,-5773.606348,-11621.233289,-1685.410096
398.791158,-7254.018232,-11029.068536,-383.047749
398.791480,-6809.894666,-9770.718434,766.095498
398.791802,-4589.276840,-8290.306550,1225.752797
398.792124,-1702.473667,-6069.688724,1378.971896
398.792446,1332.370696,-3701.029710,1915.238745
398.792768,4515.256246,-3478.967927,1915.238745
398.793089,6587.832884,-4885.359217,2451.505594
398.793411,5625.565159,-5699.585753,2528.115143
398.793733,3478.967927,-6291.750507,1149.143247
398.794055,1776.494261,-7550.100608,-1532.190996
398.794377,592.164754,-8956.491898,-4213.525239
398.794699,0.000000,-10732.986159,-5209.449386
398.795021,-740.205942,-11547.212695,-4749.792088
398.795343,-1702.473667,-12065.356855,-2987.772442
398.795664,-2442.679609,-12287.418637,-2834.553343
398.795986,-2516.700203,-12731.542202,-3294.210641
398.796308,-3108.864956,-12879.583391,-3830.477490
398.796630,-4737.318029,-12139.377449,-2834.553343
398.796952,-5995.668130,-10881.027347,-842.705048
398.797274,-5329.482782,-8438.347739,766.095498
398.797596,-2886.803174,-7402.059420,306.438199
398.797918,-740.205942,-6661.853478,0.000000
398.798239,2516.700203,-7105.977043,229.828649
398.798561,5477.523971,-7402.059420,995.924147
398.798883,7402.059420,-7994.224174,1838.629195
398.799205,7624.121203,-7994.224174,1991.848295
398.799527,5477.523971,-8216.285956,612.876398
398.799849,3256.906145,-7846.182985,-3064.381992
398.800171,1850.514855,-8364.327145,-6665.030833
398.800493,592.164754,-10510.924376,-7124.688131
398.800814,-962.267725,-12213.398043,-5515.887586
398.801136,-2590.720797,-13101.645173,-3600.648841
398.801458,-3923.091493,-13693.809927,-3447.429741
398.801780,-4663.297435,-15470.304188,-2987.772442
398.802102,-5847.626942,-14952.160028,-3140.991542
398.802424,-7328.038826,-12213.398043,-2834.553343
398.802746,-7402.059420,-9252.574275,-1915.238745
398.803068,-4737.318029,-8290.306550,153.219100
398.803390,-3034.844362,-6661.853478,1225.752797
398.803711,-1110.308913,-3997.112087,1225.752797
398.804033,2368.659014,-3775.050304,1532.190996
398.804355,5033.400406,-5995.668130,1685.410096
398.804677,5847.626942,-7994.224174,1455.581446
398.804999,4145.153275,-7698.141797,1838.629195
398.805321,3034.844362,-7994.224174,-306.438199
398.805643,2886.803174,-8734.430116,-3294.210641
398.805965,2590.720797,-9474.636058,-4673.182538
398.806286,1258.350101,-10066.800811,-4366.744339
398.806608,-296.082377,-11251.130318,-3983.696590
398.806930,-1036.288319,-11991.336260,-2834.553343
398.807252,-1184.329507,-13249.686362,-2834.553343
398.807574,-1924.535449,-14359.995275,-1838.629195
398.807896,-3775.050304,-13249.686362,-1378.971896
398.808218,-5551.544565,-11029.068536,-689.485948
398.808540,-5403.503377,-8660.409521,919.314598
398.808861,-4071.132681,-7328.038826,1685.410096
398.809183,-2516.700203,-5107.421000,1225.752797
398.809505,222.061783,-3256.906145,766.095498
398.809827,2812.782580,-3775.050304,2145.067394
398.810149,4737.318029,-5551.544565,2757.943793
398.810471,4737.318029,-6069.688724,2145.067394
398.810793,4071.132681,-7105.977043,-689.485948
398.811115,2294.638420,-8512.368333,-3447.429741
398.811436,444.123565,-9104.533087,-5056.230287
398.811758,-296.082377,-10436.903782,-5898.935335
398.812080,-1110.308913,-12953.603985,-5898.935335
398.812402,-1628.453072,-13767.830521,-5209.449386
398.812724,-2220.617826,-14285.974681,-4979.620737
398.813046,-1850.514855,-14211.954086,-4290.134789
398.813368,-2072.576638,-14285.974681,-2298.286494
398.813690,-3701.029710,-11843.295072,-1532.190996
398.814011,-4737.318029,-9178.553681,-919.314598
398.814333,-3701.029710,-7550.100608,306.438199
398.814655,-1924.535449,-7179.997637,689.485948
398.814977,-370.102971,-6291.750507,536.266849
398.815299,1702.473667,-5255.462188,2374.896044
398.815621,4145.153275,-5477.523971,2451.505594
398.815943,6143.709319,-6735.874072,1149.143247
398.816265,5403.503377,-7772.162391,536.266849
398.816586,3256.906145,-8068.244768,-383.047749
398.816908,962.267725,-9104.533087,-4673.182538
398.817230,370.102971,-11103.089130,-6741.640382
398.817552,-740.205942,-12139.377449,-6741.640382
398.817874,-2886.803174,-12731.542202,-6052.154434
398.818196,-3627.009116,-13693.809927,-5745.716235
398.818518,-3404.947333,-14952.160028,-4749.792088
398.818840,-3478.967927,-14804.118840,-5132.839837
398.819161,-5107.421000,-13249.686362,-3294.210641
398.819483,-7105.977043,-11029.068536,-306.438199
398.819805,-7698.141797,-8512.368333,383.047749
398.820127,-6291.750507,-6661.853478,306.438199
398.820449,-2812.782580,-5995.668130,612.876398
398.820771,-518.144159,-4663.297435,2298.286494
398.821093,1776.494261,-4367.215058,4060.306139
398.821415,4219.173869,-5255.462188,4060.306139
398.821736,7105.977043,-6587.832884,3294.210641
398.822058,6513.812290,-6809.894666,1225.752797
398.822380,4737.318029,-6513.812290,0.000000
398.822702,2886.803174,-7031.956449,-2987.772442
398.823024,2442.679609,-8364.327145,-5592.497135
398.823346,2368.659014,-10140.821405,-5592.497135
398.823668,592.164754,-11325.150913,-4060.306139
398.823990,-1554.432478,-12953.603985,-2987.772442
398.824311,-3330.926739,-13545.768739,-3064.381992
398.824633,-4589.276840,-13989.892304,-4060.306139
398.824955,-6365.771101,-13175.665768,-3677.258390
398.825277,-7031.956449,-9992.780217,-612.876398
398.825599,-6513.812290,-7772.162391,-689.485948
398.825921,-4515.256246,-6587.832884,0.000000
398.826243,-2072.576638,-6143.709319,1455.581446
398.826565,296.082377,-5329.482782,2145.067394
398.826886,2368.659014,-5255.462188,2298.286494
398.827208,4441.235652,-6587.832884,3064.381992
398.827530,5551.544565,-7846.182985,2757.943793
398.827852,5551.544565,-8364.327145,229.828649
398.828174,4959.379811,-8734.430116,-2681.334243
398.828496,4589.276840,-8956.491898,-4366.744339
398.828818,3923.091493,-10807.006753,-4749.792088
398.829140,3034.844362,-12435.459826,-5362.668486
398.829461,1406.391290,-13693.809927,-5209.449386
398.829783,0.000000,-14137.933492,-5209.449386
398.830105,-1184.329507,-14211.954086,-4826.401637
398.830427,-2812.782580,-14878.139434,-3983.696590
398.830749,-5329.482782,-12879.583391,-3677.258390
398.831071,-6809.894666,-10881.027347,-2528.115143
398.831393,-6513.812290,-9474.636058,-689.485948
398.831715,-5403.503377,-8956.491898,536.266849
398.832036,-3997.112087,-7402.059420,842.705048
398.832358,-962.267725,-5921.647536,1838.629195
398.832680,2294.638420,-5255.462188,1532.190996
398.833002,4959.379811,-5921.647536,1991.848295
398.833324,4959.379811,-6217.729913,2451.505594
398.833646,3923.091493,-5477.523971,1838.629195
398.833968,2516.700203,-7179.997637,-1455.581446
398.834290,1480.411884,-8438.347739,-4596.572988
398.834611,370.102971,-9992.780217,-5822.325785
398.834933,-370.102971,-11843.295072,-5898.935335
398.835255,-1554.432478,-12953.603985,-4519.963438
398.835577,-2146.597232,-13397.727550,-3524.039291
398.835899,-2812.782580,-12213.398043,-3140.991542
398.836221,-3330.926739,-12213.398043,-2757.943793
398.836543,-5107.421000,-10807.006753,-2911.162892
398.836865,-6957.935855,-9326.594869,-1762.019645
398.837186,-7105.977043,-7994.224174,766.095498
398.837508,-5181.441594,-6439.791695,1838.629195
398.837830,-2146.597232,-5329.482782,612.876398
398.838152,592.164754,-4959.379811,1225.752797
398.838474,2960.823768,-5255.462188,2834.553343
398.838796,4589.276840,-5477.523971,3447.429741
398.839118,5403.503377,-5329.482782,2298.286494
398.839440,4885.359217,-6143.709319,-766.095498
398.839761,3404.947333,-8586.388927,-3370.820191
398.840083,1628.453072,-8734.430116,-4519.963438
398.840405,518.144159,-10436.903782,-5439.278036
398.840727,0.000000,-13175.665768,-5822.325785
398.841049,-370.102971,-14508.036463,-5669.106685
398.841371,-1924.535449,-14359.995275,-5362.668486
398.841693,-2220.617826,-14730.098246,-4826.401637
398.842015,-2590.720797,-14804.118840,-3677.258390
398.842336,-4441.235652,-12879.583391,-2911.162892
398.842658,-5181.441594,-10140.821405,-1455.581446
398.842980,-4441.235652,-8364.327145,0.000000
398.843302,-2442.679609,-7402.059420,76.609550
398.843624,-296.082377,-6439.791695,536.266849
398.843946,2146.597232,-5847.626942,2145.067394
398.844268,4885.359217,-5551.544565,2374.896044
398.844590,7624.121203,-6883.915261,1838.629195
398.844911,7031.956449,-8438.347739,1455.581446
398.845233,4441.235652,-8586.388927,536.266849
398.845555,2516.700203,-9622.677246,-2834.553343
398.845877,2590.720797,-11177.109724,-5592.497135
398.846199,2368.659014,-12509.480420,-5286.058936
398.846521,1110.308913,-12583.501014,-4749.792088
398.846843,-740.205942,-12731.542202,-3294.210641
398.847165,-1628.453072,-12879.583391,-2987.772442
398.847487,-2294.638420,-13175.665768,-3983.696590
398.847808,-4441.235652,-11621.233289,-3677.258390
398.848130,-6735.874072,-10140.821405,-1608.800546
398.848452,-8290.306550,-8142.265362,383.047749
398.848774,-7105.977043,-6883.915261,842.705048
398.849096,-4811.338623,-7254.018232,1455.581446
398.849418,-2442.679609,-6735.874072,1915.238745
398.849740,222.061783,-5181.441594,3370.820191
398.850061,3034.844362,-4959.379811,2451.505594
398.850383,4737.318029,-5847.626942,2834.553343
398.850705,5181.441594,-5255.462188,2374.896044
398.851027,4219.173869,-5773.606348,0.000000
398.851349,2664.741391,-7105.977043,-2757.943793
398.851671,1554.432478,-9844.739029,-4213.525239
398.851993,0.000000,-11769.274478,-3753.867940
398.852315,-1776.494261,-13175.665768,-3600.648841
398.852636,-2516.700203,-13101.645173,-3524.039291
398.852958,-2442.679609,-11843.295072,-4826.401637
398.853280,-2220.617826,-12879.583391,-4749.792088
398.853602,-4589.276840,-11325.150913,-2451.505594
398.853924,-6661.853478,-8956.491898,-1838.629195
398.854246,-7476.080014,-8068.244768,-1685.410096
398.854568,-5847.626942,-8290.306550,-459.657299
398.854890,-3627.009116,-8068.244768,-153.219100
398.855211,-814.226536,-7179.997637,0.000000
398.855533,1776.494261,-6883.915261,1915.238745
398.855855,4515.256246,-7476.080014,2681.334243
398.856177,5921.647536,-7179.997637,1915.238745
398.856499,6069.688724,-6365.771101,-153.219100
398.856821,4589.276840,-7476.080014,-2528.115143
398.857143,2886.803174,-9178.553681,-4749.792088
398.857464,2220.617826,-10288.862594,-5286.058936
398.857786,1110.308913,-12435.459826,-5132.839837
398.858108,592.164754,-13989.892304,-4519.963438
398.858430,-222.061783,-14063.912898,-3677.258390
398.858752,-1184.329507,-13989.892304,-4366.744339
398.859074,-2664.741391,-14359.995275,-3983.696590
398.859396,-4959.379811,-12879.583391,-3983.696590
398.859718,-6439.791695,-10436.903782,-3217.601092
398.860039,-5995.668130,-9474.636058,-766.095498
398.860361,-4145.153275,-8882.471304,383.047749
398.860683,-1480.411884,-7254.018232,-229.828649
398.861005,1702.473667,-7105.977043,995.924147
398.861327,4293.194464,-7698.141797,2834.553343
398.861649,6809.894666,-7105.977043,3753.867940
398.861971,7105.977043,-6513.812290,2604.724693
398.862293,5477.523971,-5995.668130,1302.362347
398.862614,3256.906145,-6883.915261,-689.485948
398.862936,1110.308913,-7846.182985,-3830.477490
398.863258,0.000000,-9326.594869,-4903.011187
398.863580,-740.205942,-11473.192101,-3677.258390
398.863902,-1776.494261,-11843.295072,-3064.381992
398.864224,-2442.679609,-11843.295072,-2604.724693
398.864546,-2886.803174,-12287.418637,-2834.553343
398.864867,-4145.153275,-12139.377449,-3217.601092
398.865189,-5921.647536,-10658.965565,-2068.457845
398.865511,-7698.141797,-8882.471304,-995.924147
398.865833,-7550.100608,-7105.977043,-612.876398
398.866155,-4959.379811,-7254.018232,-306.438199
398.866477,-1702.473667,-7105.977043,0.000000
398.866799,1406.391290,-6957.935855,1455.581446
398.867121,3923.091493,-6957.935855,3370.820191
398.867442,5847.626942,-7105.977043,3753.867940
398.867764,5921.647536,-5847.626942,2681.334243
398.868086,5033.400406,-5625.565159,383.047749
398.868408,3552.988522,-6957.935855,-2834.553343
398.868730,2516.700203,-7920.203579,-4826.401637
398.869052,1628.453072,-10140.821405,-4366.744339
398.869374,296.082377,-12731.542202,-3294.210641
398.869696,-740.205942,-13915.871710,-2834.553343
398.870017,-1850.514855,-13841.851115,-4060.306139
398.870339,-3330.926739,-14434.015869,-3907.087040
398.870661,-4737.318029,-14211.954086,-4366.744339
398.870983,-6587.832884,-11843.295072,-3983.696590
398.871305,-7328.038826,-10140.821405,-3217.601092
398.871627,-5921.647536,-9770.718434,-1532.190996
398.871949,-4071.132681,-9400.615463,-153.219100
398.872270,-1702.473667,-7105.977043,-229.828649
398.872592,962.267725,-5773.606348,766.095498
398.872914,3775.050304,-6661.853478,1072.533697
398.873236,5107.421000,-7698.141797,1762.019645
398.873558,4589.276840,-7328.038826,1685.410096
398.873880,2812.782580,-6883.915261,383.047749
398.874202,1554.432478,-8216.285956,-2987.772442
398.874524,1628.453072,-9548.656652,-4979.620737
398.874845,1110.308913,-10881.027347,-5209.449386
398.875167,740.205942,-12361.439231,-3600.648841
398.875489,-148.041188,-13027.624579,-2374.896044
398.875811,-1406.391290,-13323.706956,-2528.115143
398.876133,-2738.761985,-13101.645173,-2604.724693
398.876455,-5181.441594,-11769.274478,-3217.601092
398.876777,-7105.977043,-9696.697840,-3217.601092
398.877099,-7476.080014,-8586.388927,-2221.676944
398.877420,-5699.585753,-8364.327145,-153.219100
398.877742,-3256.906145,-7846.182985,306.438199
398.878064,0.000000,-7698.141797,2298.286494
398.878386,3182.885551,-7328.038826,3600.648841
398.878708,5921.647536,-5847.626942,2834.553343
398.879030,7179.997637,-5107.421000,2451.505594
398.879352,5995.668130,-4811.338623,2374.896044
398.879673,3108.864956,-5033.400406,842.705048
398.879995,1184.329507,-6809.894666,-3064.381992
398.880317,666.185348,-9400.615463,-4213.525239
398.880639,444.123565,-11621.233289,-4136.915689
398.880961,-518.144159,-12583.501014,-4060.306139
398.881283,-1110.308913,-12805.562797,-2374.896044
398.881605,-1036.288319,-12509.480420,-1762.019645
398.881927,-1850.514855,-11843.295072,-3140.991542
398.882248,-3627.009116,-11325.150913,-3753.867940
398.882570,-6069.688724,-10066.800811,-2145.067394
398.882892,-7772.162391,-8660.409521,-1149.143247
398.883214,-6587.832884,-7698.141797,-1149.143247
398.883536,-3627.009116,-6809.894666,-459.657299
398.883858,-148.041188,-6957.935855,0.000000
398.884180,3330.926739,-7920.203579,306.438199
398.884502,6439.791695,-8512.368333,919.314598
398.884823,8068.244768,-8216.285956,1838.629195
398.885145,6957.935855,-8216.285956,1378.971896
398.885467,4811.338623,-8068.244768,-306.438199
398.885789,3182.885551,-7698.141797,-3983.696590
398.886111,2146.597232,-9622.677246,-6358.592633
398.886433,518.144159,-11991.336260,-4979.620737
398.886755,-592.164754,-13693.809927,-3524.039291
398.887076,-740.205942,-13175.665768,-3370.820191
398.887398,-222.061783,-14359.995275,-3677.258390
398.887720,-1406.391290,-15618.345376,-3524.039291
398.888042,-4811.338623,-13101.645173,-1991.848295
398.888364,-7772.162391,-8734.430116,-1378.971896
398.888686,-7994.224174,-7254.018232,-1991.848295
398.889008,-5847.626942,-8882.471304,-2068.457845
398.889330,-3997.112087,-8660.409521,-766.095498
398.889651,-1554.432478,-7105.977043,1608.800546
398.889973,2146.597232,-7179.997637,2528.115143
398.890295,5477.523971,-8734.430116,2681.334243
398.890617,5255.462188,-8216.285956,2451.505594
398.890939,2960.823768,-5773.606348,1762.019645
398.891261,1036.288319,-5921.647536,-2451.505594
398.891583,1554.432478,-8956.491898,-5898.935335
398.891905,592.164754,-10214.842000,-5439.278036
398.892226,-1110.308913,-9992.780217,-2681.334243
398.892548,-2146.597232,-10658.965565,-1225.752797
398.892870,-1184.329507,-11103.089130,-1532.190996
398.893192,-1184.329507,-12361.439231,-2451.505594
398.893514,-3997.112087,-12213.398043,-2451.505594
398.893836,-7105.977043,-10510.924376,-919.314598
398.894158,-8364.327145,-7920.203579,-766.095498
398.894479,-7328.038826,-7698.141797,-995.924147
398.894801,-4515.256246,-7105.977043,0.000000
398.895123,-2368.659014,-5107.421000,383.047749
398.895445,518.144159,-4811.338623,1225.752797
398.895767,4515.256246,-6661.853478,2374.896044
398.896089,7031.956449,-7254.018232,2298.286494
398.896411,7031.956449,-6735.874072,766.095498
398.896733,4663.297435,-7031.956449,0.000000
398.897054,2368.659014,-8068.244768,-2145.067394
398.897376,962.267725,-8882.471304,-5592.497135
398.897698,0.000000,-11251.130318,-6511.811733
398.898020,-1110.308913,-14285.974681,-5132.839837
398.898342,-1924.535449,-14582.057057,-3524.039291
398.898664,-1850.514855,-13545.768739,-3140.991542
398.898986,-1776.494261,-13841.851115,-3140.991542
398.899308,-2590.720797,-12953.603985,-3370.820191
398.899629,-5033.400406,-10362.883188,-3064.381992
398.899951,-6809.894666,-8364.327145,-2451.505594
398.900273,-5329.482782,-8364.327145,-536.266849
398.900595,-2516.700203,-8290.306550,-536.266849
398.900917,148.041188,-7031.956449,-306.438199
398.901239,3478.967927,-6883.915261,536.266849
398.901561,6809.894666,-7994.224174,1455.581446
398.901882,8142.265362,-8660.409521,1685.410096
398.902204,6661.853478,-7994.224174,1149.143247
398.902526,4145.153275,-8068.244768,-1685.410096
398.902848,2442.679609,-9474.636058,-4673.182538
398.903170,1628.453072,-11399.171507,-5515.887586
398.903492,296.082377,-12361.439231,-4903.011187
398.903814,-666.185348,-11917.315666,-3370.820191
398.904136,-444.123565,-11843.295072,-2987.772442
398.904457,0.000000,-12509.480420,-3140.991542
398.904779,-2072.576638,-12657.521608,-2834.553343
398.905101,-5403.503377,-11547.212695,-1072.533697
398.905423,-8216.285956,-9178.553681,153.219100
398.905745,-8438.347739,-7328.038826,0.000000
398.906067,-6439.791695,-6883.915261,-459.657299
398.906389,-3701.029710,-6291.750507,-383.047749
398.906710,-518.144159,-5847.626942,1455.581446
398.907032,2590.720797,-5625.565159,2451.505594
398.907354,5847.626942,-6291.750507,2604.724693
398.907676,7328.038826,-7476.080014,3064.381992
398.907998,5625.565159,-6587.832884,1608.800546
398.908320,2812.782580,-6513.812290,-1302.362347
398.908642,1110.308913,-7846.182985,-4060.306139
398.908964,296.082377,-10140.821405,-4903.011187
398.909285,-1184.329507,-11991.336260,-4213.525239
398.909607,-1924.535449,-12731.542202,-2374.896044
398.909929,-1480.411884,-12065.356855,-1149.143247
398.910251,-518.144159,-12139.377449,-1608.800546
398.910573,-1776.494261,-11843.295072,-2374.896044
398.910895,-4737.318029,-10436.903782,-1838.629195
398.911217,-6957.935855,-7846.182985,-766.095498
398.911539,-7105.977043,-7254.018232,-766.095498
398.911860,-5329.482782,-7105.977043,-1302.362347
398.912182,-3182.885551,-7179.997637,-612.876398
398.912504,-1036.288319,-7772.162391,919.314598
398.912826,1702.473667,-8956.491898,1532.190996
398.913148,4589.276840,-9030.512492,1378.971896
398.913470,5847.626942,-8512.368333,-383.047749
398.913792,4737.318029,-8142.265362,-1915.238745
398.914113,2590.720797,-7698.141797,-3830.477490
398.914435,1110.308913,-8586.388927,-5209.449386
398.914757,0.000000,-11473.192101,-6128.763984
398.915079,-592.164754,-13841.851115,-5592.497135
398.915401,-1110.308913,-14508.036463,-4366.744339
398.915723,-1184.329507,-14063.912898,-3064.381992
398.916045,-888.247130,-14063.912898,-2374.896044
398.916367,-2146.597232,-12731.542202,-2145.067394
398.916688,-3478.967927,-9992.780217,-2068.457845
398.917010,-4811.338623,-7994.224174,-1302.362347
398.917332,-5329.482782,-8216.285956,-153.219100
398.917654,-4589.276840,-7550.100608,919.314598
398.917976,-2072.576638,-6217.729913,842.705048
398.918298,1628.453072,-6365.771101,1302.362347
398.918620,4959.379811,-7476.080014,1532.190996
398.918942,6735.874072,-7772.162391,2145.067394
398.919263,6069.688724,-6439.791695,2298.286494
398.919585,5033.400406,-6883.915261,-612.876398
398.919907,3552.988522,-8364.327145,-3447.429741
398.920229,1998.556043,-9844.739029,-5669.106685
398.920551,0.000000,-10584.944971,-4826.401637
398.920873,-1332.370696,-11621.233289,-3524.039291
398.921195,-1184.329507,-12435.459826,-3217.601092
398.921516,-1110.308913,-12361.439231,-3140.991542
398.921838,-2294.638420,-12065.356855,-2451.505594
398.922160,-4293.194464,-11103.089130,-1685.410096
398.922482,-6439.791695,-9548.656652,-612.876398
398.922804,-8068.244768,-7920.203579,995.924147
398.923126,-7550.100608,-6217.729913,1225.752797
398.923448,-4885.359217,-5181.441594,76.609550
398.923770,-1332.370696,-5477.523971,-306.438199
398.924091,2146.597232,-6957.935855,1762.019645
398.924413,4885.359217,-6735.874072,3140.991542
398.924735,6513.812290,-6365.771101,2451.505594
398.925057,6291.750507,-6957.935855,689.485948
398.925379,4515.256246,-8068.244768,-1455.581446
398.925701,1998.556043,-8808.450710,-4749.792088
398.926023,296.082377,-10288.862594,-5975.544884
398.926345,-740.205942,-13397.727550,-5132.839837
398.926666,-1850.514855,-15396.283594,-3753.867940
398.926988,-3034.844362,-14359.995275,-3447.429741
398.927310,-3330.926739,-13175.665768,-3370.820191
398.927632,-3701.029710,-13249.686362,-3064.381992
398.927954,-5625.565159,-11399.171507,-2451.505594
398.928276,-7698.141797,-9252.574275,-1915.238745
398.928598,-8512.368333,-7698.141797,-383.047749
398.928919,-6957.935855,-7698.141797,1072.533697
398.929241,-5181.441594,-6957.935855,-383.047749
398.929563,-3034.844362,-5847.626942,-689.485948
398.929885,-740.205942,-7402.059420,1532.190996
398.930207,814.226536,-8290.306550,1838.629195
398.930529,2368.659014,-8216.285956,536.266849
398.930851,2590.720797,-7772.162391,-1302.362347
398.931173,148.041188,-8142.265362,-2834.553343
398.931494,-2294.638420,-8364.327145,-4290.134789
398.931816,-4367.215058,-9992.780217,-6971.469032
398.932138,-4885.359217,-11991.336260,-7277.907231
398.932460,-5255.462188,-14137.933492,-5898.935335
398.932782,-6143.709319,-13989.892304,-4443.353888
398.933104,-6513.812290,-13693.809927,-2298.286494
398.933426,-6661.853478,-12805.562797,-1149.143247
398.933748,-6957.935855,-11029.068536,-2221.676944
398.934069,-6957.935855,-8586.388927,-1838.629195
398.934391,-7772.162391,-6291.750507,76.609550
398.934713,-8660.409521,-5403.503377,2374.896044
398.935035,-7402.059420,-5181.441594,1915.238745
398.935357,-4441.235652,-5551.544565,995.924147
398.935679,-1184.329507,-7254.018232,536.266849
398.936001,518.144159,-7550.100608,1072.533697
398.936322,2368.659014,-7254.018232,1072.533697
398.936644,3701.029710,-6217.729913,306.438199
398.936966,3404.947333,-6957.935855,-612.876398
398.937288,666.185348,-8290.306550,-1608.800546
398.937610,-2886.803174,-9474.636058,-3983.696590
398.937932,-5033.400406,-11251.130318,-5362.668486
398.938254,-6143.709319,-12953.603985,-5822.325785
398.938576,-7328.038826,-12361.439231,-4519.963438
398.938897,-8142.265362,-9918.759623,-3294.210641
398.939219,-7846.182985,-9030.512492,-2987.772442
398.939541,-7624.121203,-10362.883188,-3294.210641
398.939863,-6661.853478,-10362.883188,-2528.115143
398.940185,-5551.544565,-8956.491898,-2451.505594
398.940507,-4071.132681,-8660.409521,-1762.019645
398.940829,-3182.885551,-9252.574275,919.314598
398.941151,-3182.885551,-9326.594869,2681.334243
398.941472,-2886.803174,-9104.533087,2451.505594
398.941794,-1332.370696,-9326.594869,1302.362347
398.942116,-370.102971,-8660.409521,0.000000
398.942438,666.185348,-7772.162391,-766.095498
398.942760,1998.556043,-6883.915261,0.000000
398.943082,3849.070898,-7846.182985,-919.314598
398.943404,5329.482782,-9918.759623,-2528.115143
398.943725,4811.338623,-10658.965565,-2834.553343
398.944047,2664.741391,-10732.986159,-2528.115143
398.944369,148.041188,-10658.965565,-2681.334243
398.944691,-1480.411884,-11325.150913,-3753.867940
398.945013,-3627.009116,-11251.130318,-5286.058936
398.945335,-5329.482782,-11399.171507,-5362.668486
398.945657,-6957.935855,-11473.192101,-2757.943793
398.945979,-7920.203579,-10214.842000,-1302.362347
398.946300,-7920.203579,-7698.141797,-1455.581446
398.946622,-6513.812290,-7179.997637,-3447.429741
398.946944,-5847.626942,-8216.285956,-3677.258390
398.947266,-5699.585753,-9770.718434,-1455.581446
398.947588,-6513.812290,-9696.697840,1225.752797
398.947910,-5551.544565,-8660.409521,1685.410096
398.948232,-4071.132681,-8290.306550,306.438199
398.948553,-2294.638420,-7994.224174,-766.095498
398.948875,-1554.432478,-7179.997637,-1608.800546
398.949197,592.164754,-6735.874072,-1991.848295
398.949519,3775.050304,-7624.121203,-3140.991542
398.949841,5699.585753,-11325.150913,-4290.134789
398.950163,4441.235652,-14211.954086,-1378.971896
398.950484,962.267725,-14063.912898,1532.190996
398.950806,-3701.029710,-13249.686362,1762.019645
398.951128,-6809.894666,-12435.459826,-995.924147
398.951450,-8734.430116,-9252.574275,-3064.381992
398.951772,-10362.883188,-5477.523971,-4519.963438
398.952093,-10955.047942,-4071.132681,-3064.381992
398.952415,-10362.883188,-4959.379811,-766.095498
398.952737,-8882.471304,-5625.565159,0.000000
398.953059,-7402.059420,-7254.018232,-1072.533697
398.953381,-5847.626942,-9474.636058,-1072.533697
398.953703,-5033.400406,-10362.883188,-1838.629195
398.954024,-4219.173869,-9696.697840,-2757.943793
398.954346,-3404.947333,-8734.430116,-2987.772442
398.954668,-2146.597232,-8216.285956,-2757.943793
398.954990,-1924.535449,-7920.203579,-3370.820191
398.955312,-2812.782580,-8068.244768,-4443.353888
398.955634,-3478.967927,-9326.594869,-5056.230287
398.955955,-3627.009116,-11769.274478,-3447.429741
398.956277,-3997.112087,-13397.727550,-2221.676944
398.956599,-4663.297435,-13693.809927,0.000000
398.956921,-5255.462188,-12139.377449,689.485948
398.957243,-5181.441594,-10436.903782,229.828649
398.957564,-4737.318029,-7698.141797,-229.828649
398.957886,-4293.194464,-5403.503377,-1149.143247
398.958208,-2738.761985,-3775.050304,-1455.581446
398.958530,-370.102971,-3997.112087,-689.485948
398.958852,1480.411884,-5477.523971,76.609550
398.959174,2516.700203,-7254.018232,-766.095498
398.959495,1998.556043,-9326.594869,-1915.238745
398.959817,888.247130,-12139.377449,-3064.381992
398.960139,-962.267725,-14211.954086,-2757.943793
398.960461,-3108.864956,-14434.015869,-3064.381992
398.960783,-4441.235652,-13767.830521,-3677.258390
398.961105,-4515.256246,-13101.645173,-4366.744339
398.961426,-4737.318029,-12731.542202,-2911.162892
398.961748,-5921.647536,-10807.006753,-1149.143247
398.962070,-7105.977043,-8216.285956,-536.266849
398.962392,-6291.750507,-6513.812290,-1302.362347
398.962714,-4441.235652,-7031.956449,-2451.505594
398.963036,-3182.885551,-7624.121203,-3140.991542
398.963357,-3552.988522,-7476.080014,-1608.800546
398.963679,-3627.009116,-7031.956449,995.924147
398.964001,-3404.947333,-6439.791695,842.705048
398.964323,-2368.659014,-6957.935855,-1915.238745
398.964645,-1998.556043,-9252.574275,-4519.963438
398.964966,-1776.494261,-11991.336260,-4749.792088
398.965288,-1850.514855,-15692.365970,-1838.629195
398.965610,-1850.514855,-17616.901420,2604.724693
398.965932,-1184.329507,-14804.118840,4443.353888
398.966254,0.000000,-10881.027347,3294.210641
398.966576,1702.473667,-8660.409521,459.657299
398.966897,2516.700203,-7846.182985,536.266849
398.967219,2220.617826,-7920.203579,1991.848295
398.967541,222.061783,-7031.956449,4749.792088
398.967863,-740.205942,-5403.503377,6971.469032
398.968185,-2960.823768,-4071.132681,4749.792088
398.968507,-6735.874072,-3627.009116,1455.581446
398.968828,-9548.656652,-2664.741391,-766.095498
398.969150,-10658.965565,-3108.864956,-4673.182538
398.969472,-9622.677246,-6365.771101,-7354.516781
398.969794,-8956.491898,-7772.162391,-5286.058936
398.970116,-7994.224174,-9474.636058,-3677.258390
398.970437,-7624.121203,-14211.954086,-4136.915689
398.970759,-7179.997637,-18875.251521,-3600.648841
398.971081,-7105.977043,-19097.313304,-3524.039291
398.971403,-5995.668130,-15544.324782,-3140.991542
398.971725,-3330.926739,-12583.501014,-995.924147
398.972047,-2072.576638,-9548.656652,1608.800546
398.972368,-1776.494261,-5477.523971,2911.162892
398.972690,-888.247130,-2220.617826,3907.087040
398.973012,148.041188,-2516.700203,4596.572988
398.973334,370.102971,-3404.947333,2451.505594
398.973656,0.000000,-6661.853478,1225.752797
398.973978,-444.123565,-9918.759623,2528.115143
398.974299,-592.164754,-11843.295072,2834.553343
398.974621,1110.308913,-13101.645173,459.657299
398.974943,3256.906145,-11547.212695,-2528.115143
398.975265,3552.988522,-9474.636058,-3677.258390
398.975587,1702.473667,-11029.068536,-3983.696590
398.975908,148.041188,-15248.242405,-2528.115143
398.976230,444.123565,-16654.633695,-1915.238745
398.976552,740.205942,-16210.510130,-2374.896044
398.976874,1332.370696,-14137.933492,-2221.676944
398.977196,1406.391290,-12213.398043,1762.019645
398.977518,0.000000,-8734.430116,3064.381992
398.977839,-1554.432478,-4737.318029,3370.820191
398.978161,-740.205942,-2442.679609,3447.429741
398.978483,518.144159,-1406.391290,1608.800546
398.978805,1406.391290,-1110.308913,0.000000
398.979127,1554.432478,-3404.947333,919.314598
398.979449,1110.308913,-6291.750507,3217.601092
398.979770,1480.411884,-8364.327145,2451.505594
398.980092,3108.864956,-10584.944971,-1149.143247
398.980414,3478.967927,-12805.562797,-4519.963438
398.980736,1628.453072,-13101.645173,-4366.744339
398.981058,-370.102971,-14582.057057,-1915.238745
398.981380,-1480.411884,-16876.695478,383.047749
398.981701,-2220.617826,-16358.551318,842.705048
398.982023,-2516.700203,-13249.686362,-842.705048
398.982345,-2294.638420,-11695.253884,612.876398
398.982667,-1850.514855,-11399.171507,4290.134789
398.982989,-2664.741391,-10214.842000,6128.763984
398.983310,-3775.050304,-7624.121203,7277.907231
398.983632,-3404.947333,-6439.791695,8197.221829
398.983954,-3478.967927,-6809.894666,5822.325785
398.984276,-4071.132681,-7105.977043,3907.087040
398.984598,-3849.070898,-6439.791695,4366.744339
398.984920,-814.226536,-6365.771101,3983.696590
398.985241,3108.864956,-5995.668130,1685.410096
398.985563,4441.235652,-3552.988522,1685.410096
398.985885,3182.885551,-2664.741391,689.485948
398.986207,1850.514855,-7698.141797,-2681.334243
398.986529,296.082377,-14211.954086,-4749.792088
398.986851,-3256.906145,-16284.530724,-4826.401637
398.987172,-8808.450710,-16062.468941,-2987.772442
398.987494,-11399.171507,-18579.169144,1378.971896
398.987816,-11843.295072,-17764.942608,3983.696590
398.988138,-11917.315666,-12805.562797,2834.553343
398.988460,-10658.965565,-9104.533087,2451.505594
398.988781,-7772.162391,-8660.409521,4903.011187
398.989103,-4589.276840,-8364.327145,7354.516781
398.989425,-2516.700203,-5995.668130,9039.926876
398.989747,74.020594,-2368.659014,12180.918418
398.990069,3997.112087,-444.123565,10878.556072
398.990391,7994.224174,-296.082377,4903.011187
398.990712,9918.759623,-2072.576638,459.657299
398.991034,8512.368333,-5107.421000,1762.019645
398.991356,5995.668130,-9844.739029,3600.648841
398.991678,4071.132681,-16506.592507,3677.258390
398.992000,1554.432478,-19689.478057,689.485948
398.992322,-1554.432478,-19023.292709,-1991.848295
398.992643,-3849.070898,-17764.942608,-2604.724693
398.992965,-4589.276840,-15174.221811,-1072.533697
398.993287,-4293.194464,-9474.636058,-459.657299
398.993609,-3923.091493,-3182.885551,-689.485948
398.993931,-2812.782580,-3701.029710,919.314598
398.994252,-2294.638420,-7031.956449,3907.087040
398.994574,-4145.153275,-7624.121203,3907.087040
398.994896,-4219.173869,-7698.141797,3140.991542
398.995218,-814.226536,-9326.594869,4290.134789
398.995540,2146.597232,-10658.965565,6281.983084
398.995862,2368.659014,-7254.018232,7201.297681
398.996183,5625.565159,-2146.597232,4136.915689
398.996505,10288.862594,-2812.782580,-2911.162892
398.996827,12139.377449,-5329.482782,-5822.325785
398.997149,6587.832884,-6735.874072,-2604.724693
398.997471,148.041188,-11473.192101,0.000000
398.997793,-3478.967927,-19171.333898,-689.485948
398.998114,-5329.482782,-22354.219448,-4290.134789
398.998436,-6291.750507,-20429.683999,-7660.954980
398.998758,-4515.256246,-15692.365970,-6818.249932
398.999080,-740.205942,-11769.274478,-3524.039291
398.999402,518.144159,-8956.491898,0.000000
398.999724,740.205942,-7031.956449,3064.381992
399.000045,1776.494261,-6365.771101,3524.039291
399.000367,1924.535449,-7772.162391,0.000000
399.000689,814.226536,-9992.780217,306.438199
399.001011,1924.535449,-8142.265362,3677.258390
399.001333,3997.112087,-6809.894666,1072.533697
399.001654,6513.812290,-9104.533087,383.047749
399.001976,6143.709319,-10214.842000,3447.429741
399.002298,74.020594,-9918.759623,3294.210641
399.002620,-6735.874072,-9400.615463,1608.800546
399.002942,-9696.697840,-9252.574275,-612.876398
399.003264,-10955.047942,-8586.388927,-6971.469032
399.003585,-11103.089130,-9474.636058,-11108.384721
399.003907,-11325.150913,-12435.459826,-5745.716235
399.004229,-9548.656652,-14730.098246,689.485948
399.004551,-7105.977043,-14730.098246,459.657299
399.004873,-4441.235652,-14952.160028,1072.533697
399.005195,-3108.864956,-14137.933492,2374.896044
399.005516,-2072.576638,-9474.636058,2834.553343
399.005838,1332.370696,-3256.906145,1915.238745
399.006160,5995.668130,592.164754,612.876398
399.006482,9178.553681,592.164754,3830.477490
399.006804,9030.512492,-2516.700203,8580.269578
399.007125,5625.565159,-6661.853478,10035.851024
399.007447,2368.659014,-9548.656652,8810.098227
399.007769,74.020594,-11769.274478,5286.058936
399.008091,-1554.432478,-12065.356855,2757.943793
399.008413,-2072.576638,-10436.903782,1302.362347
399.008735,-1406.391290,-7772.162391,1532.190996
399.009056,-1110.308913,-7550.100608,2374.896044
399.009378,-1628.453072,-8808.450710,3677.258390
399.009700,-3256.906145,-9474.636058,3447.429741
399.010022,-5477.523971,-9844.739029,536.266849
399.010344,-5921.647536,-11843.295072,-1149.143247
399.010666,-4737.318029,-12361.439231,-383.047749
399.010987,-3108.864956,-10881.027347,1838.629195
399.011309,-740.205942,-9622.677246,3140.991542
399.011631,888.247130,-9696.697840,3447.429741
399.011953,1554.432478,-9770.718434,4213.525239
399.012275,1998.556043,-9326.594869,4290.134789
399.012596,3330.926739,-7698.141797,2757.943793
399.012918,5921.647536,-6291.750507,1225.752797
399.013240,7994.224174,-5921.647536,153.219100
399.013562,6661.853478,-8068.244768,2298.286494
399.013884,3330.926739,-10436.903782,3907.087040
399.014206,-962.267725,-11991.336260,2451.505594
399.014527,-3627.009116,-14582.057057,-1378.971896
399.014849,-5033.400406,-16580.613101,-3140.991542
399.015171,-4885.359217,-15914.427753,-2834.553343
399.015493,-3034.844362,-13545.768739,-1608.800546
399.015815,-444.123565,-11769.274478,0.000000
399.016137,1406.391290,-10955.047942,1532.190996
399.016458,1406.391290,-10214.842000,2145.067394
399.016780,518.144159,-9844.739029,766.095498
399.017102,-1776.494261,-9548.656652,-1532.190996
399.017424,-2590.720797,-8882.471304,-1302.362347
399.017746,-1110.308913,-8290.306550,0.000000
399.018068,1776.494261,-7846.182985,-306.438199
399.018389,3404.947333,-7624.121203,306.438199
399.018711,3849.070898,-7328.038826,1225.752797
399.019033,2442.679609,-7624.121203,1838.629195
399.019355,0.000000,-7402.059420,383.047749
399.019677,-2516.700203,-7328.038826,-2681.334243
399.019998,-5329.482782,-7105.977043,-4136.915689
399.020320,-6957.935855,-6513.812290,-4826.401637
399.020642,-6439.791695,-7402.059420,-4673.182538
399.020964,-5255.462188,-8808.450710,-4596.572988
399.021286,-4219.173869,-11177.109724,-4136.915689
399.021608,-3775.050304,-13841.851115,-2068.457845
399.021929,-2590.720797,-14730.098246,766.095498
399.022251,-1702.473667,-11621.233289,1149.143247
399.022573,296.082377,-8142.265362,-459.657299
399.022895,1850.514855,-4959.379811,-1378.971896
399.023217,2220.617826,-2516.700203,-919.314598
399.023539,2738.761985,-2738.761985,0.000000
399.023860,3701.029710,-5773.606348,-306.438199
399.024182,4885.359217,-9918.759623,-536.266849
399.024504,4885.359217,-12361.439231,612.876398
399.024826,4219.173869,-12065.356855,1762.019645
399.025148,2886.803174,-9918.759623,536.266849
399.025469,1110.308913,-7105.977043,-2681.334243
399.025791,-592.164754,-5181.441594,-5822.325785
399.026113,-3627.009116,-5625.565159,-8350.440928
399.026435,-6439.791695,-9474.636058,-8044.002729
399.026757,-8290.306550,-14434.015869,-5592.497135
399.027079,-7994.224174,-17098.757260,-3907.087040
399.027400,-6439.791695,-18579.169144,-3600.648841
399.027722,-3108.864956,-17690.922014,-3447.429741
399.028044,-888.247130,-15470.304188,-1991.848295
399.028366,-592.164754,-10807.006753,-306.438199
399.028688,-740.205942,-6439.791695,612.876398
399.029010,74.020594,-4663.297435,842.705048
399.029331,2146.597232,-4441.235652,536.266849
399.029653,2664.741391,-4663.297435,306.438199
399.029975,4145.153275,-5699.585753,1378.971896
399.030297,6661.853478,-9474.636058,2604.724693
399.030619,8290.306550,-12509.480420,2068.457845
399.030941,7476.080014,-13175.665768,2528.115143
399.031262,4515.256246,-10288.862594,2834.553343
399.031584,1924.535449,-7624.121203,919.314598
399.031906,0.000000,-6069.688724,-3830.477490
399.032228,-2146.597232,-4737.318029,-6971.469032
399.032550,-3849.070898,-6143.709319,-6818.249932
399.032871,-4589.276840,-9474.636058,-3983.696590
399.033193,-4737.318029,-14359.995275,-306.438199
399.033515,-4811.338623,-17098.757260,1838.629195
399.033837,-6439.791695,-16210.510130,2451.505594
399.034159,-5847.626942,-12213.398043,1378.971896
399.034481,-5033.400406,-7698.141797,-383.047749
399.034802,-3404.947333,-2960.823768,-842.705048
399.035124,-1628.453072,296.082377,-459.657299
399.035446,592.164754,-370.102971,1072.533697
399.035768,3108.864956,-4589.276840,2987.772442
399.036090,4145.153275,-9770.718434,2987.772442
399.036412,4663.297435,-13027.624579,1608.800546
399.036733,4589.276840,-13323.706956,1149.143247
399.037055,4441.235652,-10362.883188,0.000000
399.037377,4515.256246,-8586.388927,-2221.676944
399.037699,2368.659014,-6735.874072,-4213.525239
399.038021,0.000000,-7254.018232,-5056.230287
399.038342,-2812.782580,-9696.697840,-4673.182538
399.038664,-3997.112087,-13693.809927,-3447.429741
399.038986,-4663.297435,-16136.489536,-2681.334243
399.039308,-4293.194464,-14730.098246,-1915.238745
399.039630,-3552.988522,-12953.603985,-1149.143247
399.039952,-2442.679609,-11251.130318,0.000000
399.040273,-2664.741391,-9474.636058,459.657299
399.040595,-4145.153275,-7179.997637,306.438199
399.040917,-4737.318029,-5477.523971,0.000000
399.041239,-3330.926739,-5699.585753,-306.438199
399.041561,222.061783,-6809.894666,-919.314598
399.041883,3552.988522,-7550.100608,-1608.800546
399.042204,6143.709319,-8216.285956,-689.485948
399.042526,6957.935855,-7920.203579,229.828649
399.042848,4959.379811,-9474.636058,459.657299
399.043170,2146.597232,-10658.965565,-1762.019645
399.043492,-1628.453072,-10807.006753,-5056.230287
399.043813,-3701.029710,-11177.109724,-7277.907231
399.044135,-3701.029710,-10955.047942,-6894.859482
399.044457,-2072.576638,-11325.150913,-5056.230287
399.044779,-1110.308913,-11251.130318,-2298.286494
399.045101,-444.123565,-10658.965565,-153.219100
399.045423,-666.185348,-10584.944971,1149.143247
399.045744,-1406.391290,-9918.759623,229.828649
399.046066,-2590.720797,-8734.430116,-612.876398
399.046388,-3701.029710,-6513.812290,-536.266849
399.046710,-2738.761985,-6217.729913,536.266849
399.047032,-222.061783,-5625.565159,842.705048
399.047354,3108.864956,-6809.894666,383.047749
399.047675,5255.462188,-7550.100608,1149.143247
399.047997,5921.647536,-8142.265362,1225.752797
399.048319,4663.297435,-8290.306550,0.000000
399.048641,3108.864956,-8216.285956,-1532.190996
399.048963,1406.391290,-8216.285956,-4136.915689
399.049285,-1184.329507,-8808.450710,-6665.030833
399.049606,-3552.988522,-10066.800811,-6435.202183
399.049928,-5477.523971,-12065.356855,-4749.792088
399.050250,-5551.544565,-14582.057057,-3830.477490
399.050572,-5181.441594,-14804.118840,-2834.553343
399.050894,-3701.029710,-13989.892304,-1915.238745
399.051216,-2294.638420,-10658.965565,-1762.019645
399.051537,-1036.288319,-8734.430116,-1378.971896
399.051859,-1480.411884,-6143.709319,-229.828649
399.052181,-2072.576638,-5625.565159,76.609550
399.052503,-1850.514855,-6365.771101,842.705048
399.052825,0.000000,-7254.018232,766.095498
399.053147,2960.823768,-9326.594869,-229.828649
399.053468,6069.688724,-10066.800811,-306.438199
399.053790,8216.285956,-9770.718434,229.828649
399.054112,8364.327145,-8808.450710,536.266849
399.054434,6587.832884,-7846.182985,0.000000
399.054756,3627.009116,-7254.018232,-2374.896044
399.055078,0.000000,-7994.224174,-6205.373534
399.055399,-2590.720797,-9474.636058,-7507.735880
399.055721,-4441.235652,-11843.295072,-6128.763984
399.056043,-4589.276840,-14656.077652,-3447.429741
399.056365,-4071.132681,-15322.262999,-1302.362347
399.056687,-3256.906145,-14582.057057,-612.876398
399.057009,-3108.864956,-12435.459826,-536.266849
399.057330,-3775.050304,-10066.800811,153.219100
399.057652,-4441.235652,-6661.853478,459.657299
399.057974,-4145.153275,-4071.132681,-306.438199
399.058296,-2442.679609,-2516.700203,0.000000
399.058618,666.185348,-3997.112087,306.438199
399.058940,3330.926739,-6069.688724,1762.019645
399.059261,5255.462188,-8512.368333,2221.676944
399.059583,5995.668130,-10658.965565,995.924147
399.059905,5477.523971,-11473.192101,0.000000
399.060227,3775.050304,-10066.800811,-766.095498
399.060549,1258.350101,-8438.347739,-2604.724693
399.060871,-518.144159,-7994.224174,-5056.230287
399.061192,-2220.617826,-8068.244768,-6588.421283
399.061514,-3256.906145,-10288.862594,-6588.421283
399.061836,-4589.276840,-13841.851115,-4213.525239
399.062158,-4367.215058,-16580.613101,-612.876398
399.062480,-4885.359217,-16950.716072,1149.143247
399.062802,-4367.215058,-13915.871710,1378.971896
399.063123,-3330.926739,-10436.903782,766.095498
399.063445,-2146.597232,-6661.853478,0.000000
399.063767,-1036.288319,-2664.741391,0.000000
399.064089,148.041188,-1184.329507,536.266849
399.064411,2960.823768,-3923.091493,1685.410096
399.064732,4885.359217,-7920.203579,1915.238745
399.065054,5625.565159,-10510.924376,1149.143247
399.065376,5329.482782,-11399.171507,1149.143247
399.065698,4071.132681,-10807.006753,229.828649
399.066020,2516.700203,-9622.677246,-1149.143247
399.066342,592.164754,-8438.347739,-3677.258390
399.066663,-1480.411884,-8586.388927,-6128.763984
399.066985,-3849.070898,-9474.636058,-6052.154434
399.067307,-4367.215058,-12657.521608,-3830.477490
399.067629,-4441.235652,-15026.180623,-1072.533697
399.067951,-3775.050304,-14730.098246,-536.266849
399.068273,-3034.844362,-12139.377449,-306.438199
399.068594,-2368.659014,-9474.636058,0.000000
399.068916,-1998.556043,-7179.997637,689.485948
399.069238,-2516.700203,-4737.318029,306.438199
399.069560,-1924.535449,-4219.173869,689.485948
399.069882,0.000000,-4811.338623,1225.752797
399.070204,3034.844362,-6439.791695,1455.581446
399.070525,5403.503377,-7994.224174,1225.752797
399.070847,7031.956449,-9696.697840,536.266849
399.071169,7550.100608,-9104.533087,-459.657299
399.071491,6735.874072,-7328.038826,-2221.676944
399.071813,3034.844362,-7476.080014,-3447.429741
399.072135,-592.164754,-8956.491898,-4979.620737
399.072456,-3701.029710,-10288.862594,-7507.735880
399.072778,-5773.606348,-12731.542202,-8427.050478
399.073100,-6365.771101,-15544.324782,-6205.373534
399.073422,-6365.771101,-16136.489536,-2987.772442
399.073744,-5329.482782,-13915.871710,-1762.019645
399.074066,-3997.112087,-11251.130318,-1149.143247
399.074387,-2072.576638,-9622.677246,-1072.533697
399.074709,-2664.741391,-7105.977043,-1149.143247
399.075031,-2738.761985,-4737.318029,-383.047749
399.075353,-740.205942,-4441.235652,0.000000
399.075675,2294.638420,-5255.462188,-689.485948
399.075997,5181.441594,-7698.141797,-995.924147
399.076318,6439.791695,-8734.430116,153.219100
399.076640,7031.956449,-9770.718434,1225.752797
399.076962,6291.750507,-9918.759623,-766.095498
399.077284,3849.070898,-10436.903782,-2987.772442
399.077606,-740.205942,-8512.368333,-4749.792088
399.077928,-3108.864956,-7772.162391,-7277.907231
399.078249,-4737.318029,-9474.636058,-8656.879127
399.078571,-5625.565159,-12361.439231,-7354.516781
399.078893,-6587.832884,-14359.995275,-4749.792088
399.079215,-6513.812290,-15174.221811,-1991.848295
399.079537,-4959.379811,-15692.365970,-1302.362347
399.079859,-3627.009116,-13841.851115,-766.095498
399.080180,-3330.926739,-9918.759623,153.219100
399.080502,-3182.885551,-5477.523971,689.485948
399.080824,-1480.411884,-2812.782580,1225.752797
399.081146,1480.411884,-2516.700203,1685.410096
399.081468,4219.173869,-3552.988522,2068.457845
399.081790,6513.812290,-5033.400406,2911.162892
399.082111,8660.409521,-7105.977043,3217.601092
399.082433,9918.759623,-9844.739029,1532.190996
399.082755,9178.553681,-10436.903782,-153.219100
399.083077,6735.874072,-9400.615463,-919.314598
399.083399,3552.988522,-9178.553681,-2221.676944
399.083721,74.020594,-9770.718434,-3983.696590
399.084042,-3552.988522,-10584.944971,-4979.620737
399.084364,-5403.503377,-11769.274478,-4290.134789
399.084686,-5403.503377,-14285.974681,-3907.087040
399.085008,-4737.318029,-15174.221811,-2068.457845
399.085330,-4589.276840,-13693.809927,229.828649
399.085652,-4589.276840,-10584.944971,1991.848295
399.085973,-4145.153275,-8438.347739,2757.943793
399.086295,-3849.070898,-6661.853478,1915.238745
399.086617,-3849.070898,-5107.421000,459.657299
399.086939,-2738.761985,-3923.091493,-306.438199
399.087261,-518.144159,-4811.338623,766.095498
399.087583,2664.741391,-6957.935855,2681.334243
399.087904,5403.503377,-9252.574275,1378.971896
399.088226,6957.935855,-10288.862594,-459.657299
399.088548,6439.791695,-9474.636058,-1915.238745
399.088870,4663.297435,-9252.574275,-2068.457845
399.089192,1628.453072,-9622.677246,-3907.087040
399.089514,-1332.370696,-10881.027347,-6435.202183
399.089835,-3330.926739,-12731.542202,-7354.516781
399.090157,-5107.421000,-15026.180623,-5669.106685
399.090479,-6217.729913,-17246.798449,-2068.457845
399.090801,-5995.668130,-16580.613101,689.485948
399.091123,-5033.400406,-12065.356855,919.314598
399.091445,-2886.803174,-8512.368333,1225.752797
399.091766,-1850.514855,-5255.462188,995.924147
399.092088,-1184.329507,-3404.947333,766.095498
399.092410,0.000000,-3330.926739,459.657299
399.092732,1406.391290,-4885.359217,919.314598
399.093054,2812.782580,-7624.121203,1991.848295
399.093376,3997.112087,-9992.780217,1991.848295
399.093697,4737.318029,-11325.150913,0.000000
399.094019,5255.462188,-10214.842000,-2221.676944
399.094341,4367.215058,-7550.100608,-3753.867940
399.094663,1924.535449,-7402.059420,-4673.182538
399.094985,-740.205942,-8364.327145,-6052.154434
399.095307,-3997.112087,-9326.594869,-7660.954980
399.095628,-6439.791695,-11251.130318,-8503.660028
399.095950,-6513.812290,-14656.077652,-6128.763984
399.096272,-6217.729913,-15840.407159,-3600.648841
399.096594,-5625.565159,-13545.768739,-2145.067394
399.096916,-4663.297435,-11325.150913,-536.266849
399.097238,-3404.947333,-9252.574275,1455.581446
399.097559,-3182.885551,-5773.606348,1149.143247
399.097881,-2812.782580,-2442.679609,-153.219100
399.098203,-814.226536,-2294.638420,306.438199
399.098525,2220.617826,-3552.988522,1608.800546
399.098847,4811.338623,-4811.338623,2068.457845
399.099169,7031.956449,-6587.832884,1532.190996
399.099490,9178.553681,-8956.491898,919.314598
399.099812,9326.594869,-9474.636058,-2298.286494
399.100134,7624.121203,-9770.718434,-4366.744339
399.100456,5403.503377,-9474.636058,-5286.058936
399.100778,2294.638420,-9474.636058,-6205.373534
399.101100,-962.267725,-10436.903782,-7584.345430
399.101421,-2960.823768,-12583.501014,-7584.345430
399.101743,-4219.173869,-15174.221811,-6588.421283
399.102065,-5477.523971,-17246.798449,-5286.058936
399.102387,-6587.832884,-17320.819043,-2145.067394
399.102709,-6365.771101,-13841.851115,766.095498
399.103031,-4885.359217,-10214.842000,1072.533697
399.103352,-3404.947333,-7328.038826,229.828649
399.103674,-2960.823768,-4071.132681,-306.438199
399.103996,-2220.617826,-2146.597232,766.095498
399.104318,0.000000,-2960.823768,1378.971896
399.104640,2664.741391,-6143.709319,1915.238745
399.104962,3701.029710,-9252.574275,1991.848295
399.105283,3701.029710,-11029.068536,1915.238745
399.105605,3997.112087,-10807.006753,0.000000
399.105927,3997.112087,-9474.636058,-3600.648841
399.106249,2368.659014,-8216.285956,-6435.202183
399.106571,0.000000,-8660.409521,-6971.469032
399.106893,-3034.844362,-11103.089130,-6818.249932
399.107214,-4959.379811,-14804.118840,-6741.640382
399.107536,-6661.853478,-18505.148550,-4443.353888
399.107858,-7402.059420,-18801.230927,-1915.238745
399.108180,-6661.853478,-14952.160028,0.000000
399.108502,-4367.215058,-10436.903782,689.485948
399.108824,-2368.659014,-6883.915261,1532.190996
399.109145,-1776.494261,-3404.947333,1915.238745
399.109467,-888.247130,-1480.411884,3064.381992
399.109789,1036.288319,-1702.473667,3140.991542
399.110111,3923.091493,-3997.112087,3140.991542
399.110433,4737.318029,-7254.018232,3600.648841
399.110754,5403.503377,-9696.697840,3447.429741
399.111076,7105.977043,-10510.924376,2451.505594
399.111398,8068.244768,-8586.388927,-919.314598
399.111720,6217.729913,-6957.935855,-2911.162892
399.112042,2812.782580,-6957.935855,-3140.991542
399.112364,-518.144159,-8660.409521,-4213.525239
399.112685,-3775.050304,-11029.068536,-6511.811733
399.113007,-5477.523971,-14359.995275,-6588.421283
399.113329,-6439.791695,-16580.613101,-4136.915689
399.113651,-6587.832884,-15618.345376,-1149.143247
399.113973,-6217.729913,-12139.377449,-229.828649
399.114295,-5625.565159,-9622.677246,-153.219100
399.114616,-4737.318029,-7772.162391,459.657299
399.114938,-5329.482782,-4811.338623,459.657299
399.115260,-5477.523971,-3701.029710,536.266849
399.115582,-3552.988522,-3849.070898,1455.581446
399.115904,222.061783,-5403.503377,1072.533697
399.116226,2960.823768,-7254.018232,1378.971896
399.116547,5255.462188,-8586.388927,1455.581446
399.116869,6291.750507,-8734.430116,0.000000
399.117191,6587.832884,-8364.327145,-2757.943793
399.117513,5773.606348,-7920.203579,-4979.620737
399.117835,4071.132681,-9474.636058,-6435.202183
399.118157,2146.597232,-11399.171507,-7660.954980
399.118478,-592.164754,-12953.603985,-7967.393179
399.118800,-1924.535449,-15248.242405,-6205.373534
399.119122,-2368.659014,-17172.777854,-4596.572988
399.119444,-3108.864956,-17987.004391,-2757.943793
399.119766,-4737.318029,-15692.365970,-1762.019645
399.120088,-5181.441594,-11991.336260,76.609550
399.120409,-4219.173869,-7920.203579,1378.971896
399.120731,-2220.617826,-4663.297435,689.485948
399.121053,-444.123565,-2886.803174,-536.266849
399.121375,1036.288319,-2294.638420,919.314598
399.121697,3330.926739,-3923.091493,2145.067394
399.122019,5107.421000,-6365.771101,2298.286494
399.122340,4811.338623,-9696.697840,1685.410096
399.122662,2886.803174,-10066.800811,153.219100
399.122984,1776.494261,-9474.636058,-3524.039291
399.123306,666.185348,-8068.244768,-6511.811733
399.123628,-518.144159,-8068.244768,-6971.469032
399.123950,-2960.823768,-9770.718434,-7048.078582
399.124271,-5255.462188,-12435.459826,-6281.983084
399.124593,-6143.709319,-16432.571912,-4136.915689
399.124915,-6069.688724,-17098.757260,-3370.820191
399.125237,-5107.421000,-15322.262999,-2068.457845
399.125559,-4219.173869,-11177.109724,-689.485948
399.125881,-3404.947333,-7179.997637,919.314598
399.126202,-2738.761985,-4663.297435,2604.724693
399.126524,-1110.308913,-2146.597232,3064.381992
399.126846,518.144159,-2146.597232,2757.943793
399.127168,2812.782580,-3997.112087,2681.334243
399.127490,4663.297435,-7105.977043,2681.334243
399.127812,5699.585753,-9178.553681,2757.943793
399.128133,7476.080014,-10140.821405,3600.648841
399.128455,7846.182985,-8068.244768,919.314598
399.128777,6883.915261,-7698.141797,-3677.258390
399.129099,4219.173869,-8068.244768,-6052.154434
399.129421,222.061783,-8956.491898,-6281.983084
399.129743,-2960.823768,-10658.965565,-6205.373534
399.130064,-4959.379811,-14508.036463,-5669.106685
399.130386,-5699.585753,-16950.716072,-5056.230287
399.130708,-6217.729913,-16062.468941,-4596.572988
399.131030,-6291.750507,-14359.995275,-2681.334243
399.131352,-5773.606348,-11325.150913,0.000000
399.131674,-4959.379811,-9474.636058,0.000000
399.131995,-5477.523971,-6439.791695,-229.828649
399.132317,-4811.338623,-4811.338623,229.828649
399.132639,-3478.967927,-4811.338623,0.000000
399.132961,-962.267725,-5995.668130,0.000000
399.133283,2294.638420,-8142.265362,612.876398
399.133605,4293.194464,-9770.718434,2298.286494
399.133926,5699.585753,-10066.800811,1608.800546
399.134248,5329.482782,-9104.533087,-536.266849
399.134570,3923.091493,-8586.388927,-3140.991542
399.134892,2442.679609,-7698.141797,-4979.620737
399.135214,962.267725,-9178.553681,-6818.249932
399.135536,-814.226536,-11029.068536,-6818.249932
399.135857,-2146.597232,-12731.542202,-5669.106685
399.136179,-2738.761985,-14878.139434,-3447.429741
399.136501,-2738.761985,-15396.283594,-1378.971896
399.136823,-2220.617826,-13027.624579,-1225.752797
399.137145,-2146.597232,-9474.636058,-1532.190996
399.137467,-2072.576638,-7698.141797,-383.047749
399.137788,-2442.679609,-6883.915261,1762.019645
399.138110,-3108.864956,-5847.626942,2834.553343
399.138432,-2146.597232,-4441.235652,1838.629195
399.138754,592.164754,-5329.482782,2068.457845
399.139076,3182.885551,-6735.874072,1915.238745
399.139398,4219.173869,-7698.141797,2451.505594
399.139719,4441.235652,-7550.100608,2298.286494
399.140041,4219.173869,-7031.956449,76.609550
399.140363,3478.967927,-6439.791695,-3140.991542
399.140685,2442.679609,-7105.977043,-5132.839837
399.141007,148.041188,-8808.450710,-6128.763984
399.141329,-2146.597232,-10732.986159,-7048.078582
399.141650,-2960.823768,-13323.706956,-5439.278036
399.141972,-3330.926739,-15692.365970,-3217.601092
399.142294,-3627.009116,-15914.427753,-1455.581446
399.142616,-4145.153275,-13397.727550,-1149.143247
399.142938,-4219.173869,-10658.965565,-1608.800546
399.143260,-4219.173869,-8438.347739,-689.485948
399.143581,-3627.009116,-6439.791695,1302.362347
399.143903,-2960.823768,-4737.318029,1608.800546
399.144225,-1110.308913,-3997.112087,536.266849
399.144547,1924.535449,-5477.523971,383.047749
399.144869,4219.173869,-8438.347739,1532.190996
399.145191,4959.379811,-10140.821405,2528.115143
399.145512,4219.173869,-9104.533087,919.314598
399.145834,3849.070898,-9400.615463,-1532.190996
399.146156,3256.906145,-9770.718434,-4060.306139
399.146478,1184.329507,-9696.697840,-6358.592633
399.146800,-1036.288319,-9844.739029,-6818.249932
399.147122,-2146.597232,-11769.274478,-7354.516781
399.147443,-2220.617826,-14804.118840,-5592.497135
399.147765,-2738.761985,-15988.448347,-3907.087040
399.148087,-4219.173869,-15100.201217,-2145.067394
399.148409,-5329.482782,-12731.542202,-1149.143247
399.148731,-5477.523971,-10140.821405,-612.876398
399.149052,-4959.379811,-7846.182985,-383.047749
399.149374,-4663.297435,-5773.606348,306.438199
399.149696,-4293.194464,-4219.173869,1149.143247
399.150018,-1924.535449,-4737.318029,1685.410096
399.150340,1480.411884,-6661.853478,2451.505594
399.150661,3701.029710,-8660.409521,3064.381992
399.150983,3923.091493,-8438.347739,3217.601092
399.151305,4219.173869,-6587.832884,1455.581446
399.151627,4885.359217,-5699.585753,-2145.067394
399.151949,3997.112087,-4811.338623,-5209.449386
399.152271,2368.659014,-5847.626942,-5898.935335
399.152592,0.000000,-9474.636058,-5745.716235
399.152914,-2220.617826,-13471.748144,-4826.401637
399.153236,-3552.988522,-17616.901420,-3447.429741
399.153558,-3997.112087,-18061.024985,-2528.115143
399.153880,-3330.926739,-14804.118840,-3217.601092
399.154201,-1924.535449,-10732.986159,-3140.991542
399.154523,-888.247130,-7476.080014,-3217.601092
399.154845,-1184.329507,-5625.565159,-919.314598
399.155167,-1850.514855,-5329.482782,1378.971896
399.155489,-1924.535449,-6143.709319,2068.457845
399.155810,-814.226536,-8142.265362,1455.581446
399.156132,740.205942,-9696.697840,995.924147
399.156454,2220.617826,-9696.697840,1532.190996
399.156776,4367.215058,-8290.306550,2145.067394
399.157098,6439.791695,-6143.709319,383.047749
399.157420,7105.977043,-5255.462188,-2298.286494
399.157741,4515.256246,-5773.606348,-4826.401637
399.158063,740.205942,-7846.182985,-5209.449386
399.158385,-2146.597232,-10214.842000,-6665.030833
399.158707,-3182.885551,-14656.077652,-6741.640382
399.159029,-4071.132681,-16580.613101,-5898.935335
399.159350,-4885.359217,-16284.530724,-2911.162892
399.159672,-5477.523971,-15026.180623,-1991.848295
399.159994,-5181.441594,-12361.439231,-612.876398
399.160316,-4737.318029,-9622.677246,-459.657299
399.160638,-4293.194464,-5773.606348,-995.924147
399.160959,-3256.906145,-3923.091493,-536.266849
399.161281,-2368.659014,-2812.782580,306.438199
399.161603,444.123565,-4737.318029,919.314598
399.161925,3182.885551,-7624.121203,1532.190996
399.162247,4367.215058,-11177.109724,2911.162892
399.162568,3256.906145,-11621.233289,3753.867940
399.162890,3182.885551,-10362.883188,689.485948
399.163212,2960.823768,-8808.450710,-2987.772442
399.163534,2886.803174,-6957.935855,-4903.011187
399.163856,1850.514855,-5329.482782,-5822.325785
399.164178,740.205942,-6883.915261,-6818.249932
399.164499,-518.144159,-11325.150913,-4903.011187
399.164821,-2220.617826,-16136.489536,-2834.553343
399.165143,-4071.132681,-17690.922014,-1149.143247
399.165465,-4885.359217,-16210.510130,-612.876398
399.165787,-4293.194464,-12657.521608,-995.924147
399.166108,-2886.803174,-9178.553681,-1378.971896
399.166430,-2590.720797,-5107.421000,-153.219100
399.166752,-1998.556043,-2220.617826,1149.143247
399.167074,0.000000,-2368.659014,1225.752797
399.167396,2146.597232,-5403.503377,1302.362347
399.167717,3034.844362,-8290.306550,1532.190996
399.168039,2368.659014,-10436.903782,1991.848295
399.168361,2664.741391,-10881.027347,1225.752797
399.168683,3108.864956,-9918.759623,-1149.143247
399.169005,2368.659014,-8216.285956,-2757.943793
399.169327,740.205942,-6883.915261,-4060.306139
399.169648,-296.082377,-7772.162391,-6052.154434
399.169970,-2146.597232,-9918.759623,-7507.735880
399.170292,-2886.803174,-13175.665768,-6281.983084
399.170614,-3478.967927,-15692.365970,-3600.648841
399.170936,-3034.844362,-16210.510130,-1532.190996
399.171257,-3182.885551,-12953.603985,-1532.190996
399.171579,-2960.823768,-9622.677246,-1915.238745
399.171901,-2516.700203,-7476.080014,-1685.410096
399.172223,-2368.659014,-5921.647536,-995.924147
399.172545,-1998.556043,-5255.462188,-229.828649
399.172866,148.041188,-6069.688724,612.876398
399.173188,2664.741391,-7772.162391,1225.752797
399.173510,5107.421000,-9252.574275,1762.019645
399.173832,5847.626942,-9696.697840,2068.457845
399.174154,5329.482782,-8512.368333,689.485948
399.174476,4441.235652,-7698.141797,-2221.676944
399.174797,2738.761985,-7550.100608,-4749.792088
399.175119,666.185348,-9400.615463,-5056.230287
399.175441,-2442.679609,-10584.944971,-5822.325785
399.175763,-3478.967927,-12731.542202,-5439.278036
399.176085,-3997.112087,-14878.139434,-3983.696590
399.176406,-4071.132681,-14508.036463,-2834.553343
399.176728,-3997.112087,-13619.789333,-1915.238745
399.177050,-3627.009116,-9992.780217,-1302.362347
399.177372,-3404.947333,-7846.182985,-842.705048
399.177694,-3701.029710,-5773.606348,-842.705048
399.178015,-3923.091493,-4885.359217,76.609550
399.178337,-3701.029710,-4367.215058,766.095498
399.178659,-1628.453072,-6143.709319,689.485948
399.178981,962.267725,-8290.306550,459.657299
399.179303,2738.761985,-10066.800811,1225.752797
399.179625,3849.070898,-9474.636058,1838.629195
399.179946,4663.297435,-7476.080014,919.314598
399.180268,4145.153275,-7031.956449,-1915.238745
399.180590,1924.535449,-6883.915261,-3753.867940
399.180912,-370.102971,-7994.224174,-4979.620737
399.181234,-1998.556043,-10066.800811,-5898.935335
399.181555,-2072.576638,-12583.501014,-4749.792088
399.181877,-1554.432478,-15100.201217,-2604.724693
399.182199,-1332.370696,-15322.262999,-842.705048
399.182521,-814.226536,-12805.562797,0.000000
399.182843,222.061783,-10214.842000,0.000000
399.183164,444.123565,-8586.388927,-306.438199
399.183486,0.000000,-5921.647536,0.000000
399.183808,-888.247130,-4367.215058,1149.143247
399.184130,-148.041188,-4515.256246,919.314598
399.184452,2072.576638,-7402.059420,842.705048
399.184773,3108.864956,-9992.780217,689.485948
399.185095,3182.885551,-11103.089130,1072.533697
399.185417,2886.803174,-10881.027347,1455.581446
399.185739,2146.597232,-10288.862594,153.219100
399.186061,370.102971,-8586.388927,-2757.943793
399.186383,-1480.411884,-6883.915261,-5286.058936
399.186704,-3034.844362,-7698.141797,-7354.516781
399.187026,-4293.194464,-10510.924376,-7890.783629
399.187348,-5625.565159,-13767.830521,-5132.839837
399.187670,-6069.688724,-16358.551318,-2298.286494
399.187992,-5403.503377,-16136.489536,-1225.752797
399.188313,-3849.070898,-14285.974681,-1532.190996
399.188635,-2368.659014,-11695.253884,-1608.800546
399.188957,-1998.556043,-7846.182985,-1378.971896
399.189279,-1850.514855,-4145.153275,-536.266849
399.189601,-370.102971,-2664.741391,306.438199
399.189922,1850.514855,-4515.256246,919.314598
399.190244,3478.967927,-7328.038826,1378.971896
399.190566,4737.318029,-9252.574275,2145.067394
399.190888,5625.565159,-10436.903782,2757.943793
399.191210,5625.565159,-10362.883188,1455.581446
399.191532,4293.194464,-9992.780217,0.000000
399.191853,1406.391290,-7920.203579,-1072.533697
399.192175,-370.102971,-6587.832884,-3907.087040
399.192497,-1480.411884,-6661.853478,-6205.373534
399.192819,-2072.576638,-7846.182985,-7431.126331
399.193141,-2368.659014,-9770.718434,-5822.325785
399.193462,-2368.659014,-12509.480420,-3217.601092
399.193784,-2220.617826,-14878.139434,-766.095498
399.194106,-2960.823768,-14508.036463,0.000000
399.194428,-4293.194464,-12361.439231,-689.485948
399.194750,-5181.441594,-9326.594869,-689.485948
399.195071,-5033.400406,-6217.729913,-536.266849
399.195393,-3775.050304,-3330.926739,-536.266849
399.195715,0.000000,-1184.329507,-766.095498
399.196037,3256.906145,-3404.947333,-459.657299
399.196359,5625.565159,-6217.729913,1378.971896
399.196681,5699.585753,-9326.594869,2451.505594
399.197002,4959.379811,-11473.192101,76.609550
399.197324,3330.926739,-12583.501014,-2068.457845
399.197646,666.185348,-11103.089130,-3370.820191
399.197968,-1480.411884,-9770.718434,-4673.182538
399.198290,-2146.597232,-8808.450710,-5592.497135
399.198611,-1776.494261,-9474.636058,-6741.640382
399.198933,-1554.432478,-12731.542202,-6281.983084
399.199255,-1628.453072,-15248.242405,-3907.087040
399.199577,-2368.659014,-16728.654289,-1149.143247
399.199899,-3034.844362,-14804.118840,-766.095498
399.200220,-2516.700203,-11843.295072,-1302.362347
399.200542,-1924.535449,-8364.327145,-1608.800546
399.200864,-962.267725,-4811.338623,-1762.019645
399.201186,-592.164754,-3034.844362,-1532.190996
399.201508,1850.514855,-5255.462188,-153.219100
399.201830,3923.091493,-9474.636058,1378.971896
399.202151,4663.297435,-12435.459826,2604.724693
399.202473,4737.318029,-11917.315666,2987.772442
399.202795,3997.112087,-9474.636058,995.924147
399.203117,2960.823768,-7105.977043,-1302.362347
399.203439,1998.556043,-4885.359217,-3677.258390
399.203760,0.000000,-5255.462188,-5592.497135
399.204082,-2368.659014,-8660.409521,-5439.278036
399.204404,-5255.462188,-12953.603985,-2911.162892
399.204726,-7402.059420,-16580.613101,306.438199
399.205048,-7031.956449,-17246.798449,1072.533697
399.205369,-5255.462188,-14137.933492,-459.657299
399.205691,-3108.864956,-9770.718434,-2221.676944
399.206013,-2516.700203,-5625.565159,-1149.143247
399.206335,-2738.761985,-2664.741391,2298.286494
399.206657,-2738.761985,-3478.967927,3447.429741
399.206978,-2368.659014,-5403.503377,2451.505594
399.207300,-888.247130,-7698.141797,1225.752797
399.207622,1554.432478,-7772.162391,536.266849
399.207944,5255.462188,-8512.368333,229.828649
399.208266,7550.100608,-8586.388927,536.266849
399.208588,7550.100608,-8142.265362,229.828649
399.208909,4737.318029,-7179.997637,153.219100
399.209231,666.185348,-8142.265362,-1225.752797
399.209553,-2294.638420,-9992.780217,-4979.620737
399.209875,-4737.318029,-11325.150913,-6818.249932
399.210197,-4885.359217,-13323.706956,-6435.202183
399.210518,-3923.091493,-14211.954086,-3064.381992
399.210840,-1332.370696,-13841.851115,229.828649
399.211162,518.144159,-11621.233289,76.609550
399.211484,370.102971,-10658.965565,-383.047749
399.211806,-1480.411884,-9696.697840,536.266849
399.212127,-2960.823768,-7772.162391,536.266849
399.212449,-2738.761985,-6143.709319,-383.047749
399.212771,0.000000,-4811.338623,-1225.752797
399.213093,4219.173869,-4885.359217,-536.266849
399.213415,7031.956449,-5699.585753,536.266849
399.213737,8142.265362,-8512.368333,995.924147
399.214058,7328.038826,-10955.047942,76.609550
399.214380,5181.441594,-11843.295072,-1915.238745
399.214702,962.267725,-12657.521608,-3600.648841
399.215024,-3108.864956,-11769.274478,-4826.401637
399.215346,-5329.482782,-10140.821405,-6588.421283
399.215667,-5625.565159,-8586.388927,-8503.660028
399.215989,-5625.565159,-10510.924376,-6971.469032
399.216311,-6217.729913,-11917.315666,-3140.991542
399.216633,-6661.853478,-14211.954086,-1149.143247
399.216955,-7105.977043,-14434.015869,-459.657299
399.217276,-6513.812290,-13471.748144,-229.828649
399.217598,-5477.523971,-9770.718434,-612.876398
399.217920,-4145.153275,-5181.441594,-919.314598
399.218242,-1776.494261,-1924.535449,-842.705048
399.218564,2294.638420,-666.185348,-229.828649
399.218886,7031.956449,-3849.070898,-229.828649
399.219207,8882.471304,-9030.512492,0.000000
399.219529,8660.409521,-12509.480420,1378.971896
399.219851,6957.935855,-11917.315666,1838.629195
399.220173,4663.297435,-10658.965565,766.095498
399.220495,2738.761985,-8364.327145,-1915.238745
399.220816,1332.370696,-5477.523971,-5669.106685
399.221138,-814.226536,-5033.400406,-8120.612279
399.221460,-3108.864956,-8734.430116,-5592.497135
399.221782,-4293.194464,-13693.809927,-919.314598
399.222104,-4959.379811,-15470.304188,536.266849
399.222425,-5107.421000,-15544.324782,0.000000
399.222747,-4441.235652,-13693.809927,-612.876398
399.223069,-3849.070898,-10584.944971,-536.266849
399.223391,-4071.132681,-5625.565159,383.047749
399.223713,-2960.823768,-2886.803174,766.095498
399.224035,-1184.329507,-3552.988522,153.219100
399.224356,962.267725,-5847.626942,76.609550
399.224678,2072.576638,-8142.265362,536.266849
399.225000,3627.009116,-9548.656652,995.924147
399.225322,6069.688724,-10066.800811,-76.609550
399.225644,6883.915261,-10214.842000,-3140.991542
399.225965,6069.688724,-10510.924376,-3447.429741
399.226287,2590.720797,-9622.677246,-2451.505594
399.226609,-1036.288319,-9844.739029,-3217.601092
399.226931,-3478.967927,-10955.047942,-4826.401637
399.227253,-4515.256246,-12435.459826,-4979.620737
399.227574,-4737.318029,-13397.727550,-4443.353888
399.227896,-3849.070898,-13693.809927,-1991.848295
399.228218,-2738.761985,-13101.645173,1149.143247
399.228540,-2072.576638,-10510.924376,2451.505594
399.228862,-1628.453072,-8660.409521,2068.457845
399.229184,-2146.597232,-6883.915261,1532.190996
399.229505,-2220.617826,-5255.462188,306.438199
399.229827,-962.267725,-3923.091493,-612.876398
399.230149,2146.597232,-4959.379811,-306.438199
399.230471,4663.297435,-7254.018232,306.438199
399.230793,6587.832884,-9918.759623,689.485948
399.231114,6291.750507,-11103.089130,229.828649
399.231436,4293.194464,-11325.150913,-1072.533697
399.231758,1332.370696,-11177.109724,-2987.772442
399.232080,-1480.411884,-10807.006753,-4979.620737
399.232402,-4071.132681,-10140.821405,-6358.592633
399.232723,-5255.462188,-9992.780217,-6818.249932
399.233045,-5107.421000,-11103.089130,-4903.011187
399.233367,-5181.441594,-12213.398043,-1608.800546
399.233689,-4885.359217,-12435.459826,383.047749
399.234011,-4589.276840,-11029.068536,1149.143247
399.234332,-4145.153275,-9548.656652,536.266849
399.234654,-3997.112087,-8290.306550,1225.752797
399.234976,-3627.009116,-6587.832884,2221.676944
399.235298,-2812.782580,-4737.318029,1838.629195
399.235620,-666.185348,-3997.112087,1455.581446
399.235942,3256.906145,-5699.585753,2145.067394
399.236263,6439.791695,-7550.100608,459.657299
399.236585,7994.224174,-8512.368333,-612.876398
399.236907,7772.162391,-8290.306550,-689.485948
399.237229,5625.565159,-9252.574275,-766.095498
399.237551,3108.864956,-9918.759623,-1915.238745
399.237872,296.082377,-8882.471304,-4749.792088
399.238194,-2590.720797,-8882.471304,-7354.516781
399.238516,-4367.215058,-10584.944971,-6894.859482
399.238838,-4737.318029,-12657.521608,-4136.915689
399.239160,-4367.215058,-13397.727550,-2145.067394
399.239481,-3775.050304,-13915.871710,-1915.238745
399.239803,-3108.864956,-13471.748144,-689.485948
399.240125,-3034.844362,-11473.192101,1072.533697
399.240447,-3478.967927,-8290.306550,1378.971896
399.240769,-3552.988522,-5107.421000,536.266849
399.241091,-2072.576638,-4219.173869,-689.485948
399.241412,1406.391290,-4737.318029,-995.924147
399.241734,4959.379811,-6735.874072,-153.219100
399.242056,6957.935855,-8438.347739,1149.143247
399.242378,7772.162391,-9400.615463,1915.238745
399.242700,7846.182985,-9252.574275,-153.219100
399.243021,7105.977043,-9474.636058,-4136.915689
399.243343,5181.441594,-10658.965565,-6511.811733
399.243665,1850.514855,-10658.965565,-7277.907231
399.243987,-2368.659014,-11769.274478,-6281.983084
399.244309,-4737.318029,-14063.912898,-4826.401637
399.244630,-6069.688724,-15248.242405,-3447.429741
399.244952,-6513.812290,-14878.139434,-3830.477490
399.245274,-6143.709319,-12879.583391,-3140.991542
399.245596,-4515.256246,-9992.780217,-1991.848295
399.245918,-3256.906145,-8364.327145,383.047749
399.246240,-3775.050304,-6735.874072,2221.676944
399.246561,-4219.173869,-7031.956449,2451.505594
399.246883,-3552.988522,-6439.791695,2068.457845
399.247205,-1554.432478,-5921.647536,1072.533697
399.247527,888.247130,-5921.647536,459.657299
399.247849,3330.926739,-7328.038826,-766.095498
399.248170,5847.626942,-7698.141797,-766.095498
399.248492,6883.915261,-8290.306550,-1302.362347
399.248814,4737.318029,-8734.430116,-2374.896044
399.249136,814.226536,-8956.491898,-2911.162892
399.249458,-1702.473667,-9178.553681,-4366.744339
399.249779,-3478.967927,-10140.821405,-7124.688131
399.250101,-4515.256246,-12361.439231,-7814.174080
399.250423,-4811.338623,-14434.015869,-4519.963438
399.250745,-4589.276840,-14211.954086,-153.219100
399.251066,-3701.029710,-12509.480420,2374.896044
399.251388,-2072.576638,-10362.883188,2451.505594
399.251710,-2146.597232,-9178.553681,1838.629195
399.252032,-2664.741391,-5625.565159,1685.410096
399.252353,-2072.576638,-2960.823768,1072.533697
399.252675,1110.308913,-2442.679609,1225.752797
399.252997,3775.050304,-4293.194464,2451.505594
399.253318,4885.359217,-6735.874072,3830.477490
399.253640,5181.441594,-8808.450710,3753.867940
399.253962,5921.647536,-10066.800811,689.485948
399.254284,6143.709319,-9770.718434,-2681.334243
399.254605,4367.215058,-8512.368333,-3753.867940
399.254927,1998.556043,-8882.471304,-4749.792088
399.255249,-814.226536,-9696.697840,-4903.011187
399.255571,-2812.782580,-11029.068536,-5439.278036
399.255892,-4367.215058,-12953.603985,-5209.449386
399.256214,-5551.544565,-14730.098246,-4213.525239
399.256536,-5477.523971,-14952.160028,-2834.553343
399.256857,-5847.626942,-13693.809927,-1991.848295
399.257179,-4737.318029,-11621.233289,-229.828649
399.257501,-3552.988522,-9696.697840,1762.019645
399.257823,-3701.029710,-6957.935855,2451.505594
399.258144,-3552.988522,-4885.359217,1455.581446
399.258466,-1850.514855,-3775.050304,153.219100
399.258788,1554.432478,-5477.523971,76.609550
399.259110,4589.276840,-7402.059420,919.314598
399.259431,6365.771101,-8808.450710,842.705048
399.259753,7254.018232,-9104.533087,-383.047749
399.260075,7846.182985,-9104.533087,-2757.943793
399.260396,6661.853478,-9918.759623,-4596.572988
399.260718,3997.112087,-10510.924376,-6128.763984
399.261040,666.185348,-11547.212695,-7048.078582
399.261362,-2146.597232,-12953.603985,-6665.030833
399.261683,-3330.926739,-14878.139434,-4749.792088
399.262005,-3997.112087,-14582.057057,-2834.553343
399.262327,-4293.194464,-14063.912898,-919.314598
399.262648,-4811.338623,-11843.295072,153.219100
399.262970,-4293.194464,-9030.512492,612.876398
399.263292,-3849.070898,-6291.750507,842.705048
399.263614,-2960.823768,-4589.276840,1149.143247
399.263935,-2294.638420,-4441.235652,1225.752797
399.264257,-1110.308913,-4737.318029,2068.457845
399.264579,0.000000,-5699.585753,3064.381992
399.264901,1406.391290,-6291.750507,2834.553343
399.265222,3849.070898,-7624.121203,-842.705048
399.265544,5181.441594,-8216.285956,-3677.258390
399.265866,4293.194464,-7698.141797,-4519.963438
399.266187,1332.370696,-7920.203579,-4136.915689
399.266509,-1110.308913,-9770.718434,-4366.744339
