#time,accel_x,accel_y,accel_z
285.905635,-518.144159,-9252.574275,-1532.190996
285.905957,-666.185348,-9400.615463,-1685.410096
285.906279,-444.123565,-9400.615463,-1532.190996
285.906600,-518.144159,-9474.636058,-1378.971896
285.906922,-370.102971,-9474.636058,-1762.019645
285.907244,-740.205942,-9474.636058,-1762.019645
285.907566,-814.226536,-9474.636058,-1685.410096
285.907888,-518.144159,-9474.636058,-1685.410096
285.908209,-592.164754,-9474.636058,-1762.019645
285.908531,-370.102971,-9326.594869,-919.314598
285.908853,-296.082377,-9474.636058,-1608.800546
285.909175,-666.185348,-9474.636058,-1608.800546
285.909497,-370.102971,-9622.677246,-1838.629195
285.909819,-518.144159,-9548.656652,-1608.800546
285.910140,-592.164754,-9400.615463,-1302.362347
285.910462,-444.123565,-9326.594869,-1838.629195
285.910784,-444.123565,-9178.553681,-1378.971896
285.911106,-296.082377,-9326.594869,-1532.190996
285.911428,-148.041188,-9252.574275,-1762.019645
285.911749,-148.041188,-9548.656652,-1608.800546
285.912071,-444.123565,-9474.636058,-1455.581446
285.912393,74.020594,-9770.718434,-1685.410096
285.912715,-222.061783,-9474.636058,-1455.581446
285.913037,-222.061783,-9326.594869,-1455.581446
285.913359,0.000000,-9474.636058,-1685.410096
285.913680,0.000000,-9400.615463,-1915.238745
285.914002,0.000000,-9104.533087,-1455.581446
285.914324,0.000000,-9474.636058,-1608.800546
285.914646,0.000000,-9548.656652,-1455.581446
285.914968,0.000000,-9474.636058,-1685.410096
285.915289,0.000000,-9400.615463,-1991.848295
285.915611,0.000000,-9326.594869,-842.705048
285.915933,-148.041188,-9326.594869,-1378.971896
285.916255,0.000000,-9326.594869,-1378.971896
285.916577,-148.041188,-9252.574275,-1302.362347
285.916899,-296.082377,-9178.553681,-1455.581446
285.917220,0.000000,-9104.533087,-1838.629195
285.917542,-370.102971,-9178.553681,-1149.143247
285.917864,-370.102971,-9400.615463,-1149.143247
285.918186,-444.123565,-9474.636058,-1225.752797
285.918508,-666.185348,-9400.615463,-1302.362347
285.918829,-296.082377,-9030.512492,-1225.752797
285.919151,-444.123565,-9104.533087,-1225.752797
285.919473,-666.185348,-9400.615463,-1302.362347
285.919795,-518.144159,-9474.636058,-1378.971896
285.920117,-592.164754,-9474.636058,-1225.752797
285.920438,-518.144159,-9400.615463,-1149.143247
285.920760,-370.102971,-9400.615463,-1455.581446
285.921082,-666.185348,-9326.594869,-1149.143247
285.921404,-370.102971,-9326.594869,-1302.362347
285.921726,-740.205942,-9326.594869,-1225.752797
285.922048,-148.041188,-9252.574275,-1149.143247
285.922369,74.020594,-9474.636058,-1685.410096
285.922691,888.247130,-9770.718434,-1762.019645
285.923013,814.226536,-9548.656652,-689.485948
285.923335,296.082377,-8956.491898,-383.047749
285.923657,0.000000,-8734.430116,-995.924147
285.923978,0.000000,-8808.450710,-1378.971896
285.924300,-962.267725,-9252.574275,-1608.800546
285.924622,-1480.411884,-8956.491898,-1378.971896
285.924944,-1258.350101,-9030.512492,-1302.362347
285.925266,-370.102971,-9622.677246,-1991.848295
285.925588,0.000000,-10140.821405,-1302.362347
285.925909,-518.144159,-9622.677246,-689.485948
285.926231,0.000000,-8882.471304,-1685.410096
285.926553,1258.350101,-9474.636058,-2298.286494
285.926875,1924.535449,-10362.883188,-1991.848295
285.927197,1406.391290,-9918.759623,-995.924147
285.927518,1480.411884,-8808.450710,-766.095498
285.927840,2442.679609,-9030.512492,-689.485948
285.928162,3997.112087,-9918.759623,-1378.971896
285.928484,3849.070898,-9252.574275,-536.266849
285.928806,3256.906145,-8216.285956,-459.657299
285.929128,3404.947333,-8068.244768,-536.266849
285.929449,4293.194464,-9178.553681,-1225.752797
285.929771,2960.823768,-9622.677246,-842.705048
285.930093,2294.638420,-8808.450710,-536.266849
285.930415,2590.720797,-8364.327145,-1532.190996
285.930737,3552.988522,-9030.512492,-2528.115143
285.931058,4589.276840,-10584.944971,-2145.067394
285.931380,3923.091493,-10140.821405,-1762.019645
285.931702,3997.112087,-9622.677246,-1532.190996
285.932024,4145.153275,-10066.800811,-1991.848295
285.932346,4293.194464,-10658.965565,-1991.848295
285.932668,3478.967927,-10066.800811,-2451.505594
285.932989,2590.720797,-8660.409521,-1915.238745
285.933311,3034.844362,-9548.656652,-1915.238745
285.933633,3775.050304,-9474.636058,-1838.629195
285.933955,4811.338623,-9104.533087,-2221.676944
285.934277,5921.647536,-9252.574275,-2068.457845
285.934598,6809.894666,-9474.636058,-1225.752797
285.934920,7105.977043,-9400.615463,-919.314598
285.935242,6291.750507,-9178.553681,-536.266849
285.935564,5329.482782,-8734.430116,-1302.362347
285.935886,4145.153275,-9252.574275,-1991.848295
285.936207,2664.741391,-9992.780217,-2451.505594
285.936529,1554.432478,-11177.109724,-1991.848295
285.936851,740.205942,-12583.501014,-766.095498
285.937173,222.061783,-13101.645173,153.219100
285.937495,296.082377,-13175.665768,919.314598
285.937817,666.185348,-12139.377449,1378.971896
285.938138,1184.329507,-10214.842000,2145.067394
285.938460,888.247130,-8512.368333,1532.190996
285.938782,0.000000,-6439.791695,1225.752797
285.939104,-1110.308913,-4737.318029,612.876398
285.939426,-1184.329507,-4515.256246,-689.485948
285.939747,-592.164754,-5033.400406,-2068.457845
285.940069,666.185348,-5625.565159,-2834.553343
285.940391,1998.556043,-6217.729913,-3294.210641
285.940713,3997.112087,-7476.080014,-4060.306139
285.941035,5847.626942,-8808.450710,-4673.182538
285.941357,6217.729913,-11103.089130,-4596.572988
285.941678,5477.523971,-13175.665768,-3753.867940
285.942000,4441.235652,-14508.036463,-2528.115143
285.942322,4293.194464,-14508.036463,-1991.848295
285.942644,3108.864956,-13693.809927,-766.095498
285.942966,2072.576638,-12361.439231,1302.362347
285.943287,1184.329507,-9696.697840,3217.601092
285.943609,1110.308913,-7254.018232,2987.772442
285.943931,1554.432478,-5181.441594,2911.162892
285.944253,1258.350101,-3775.050304,2451.505594
285.944575,740.205942,-3775.050304,1915.238745
285.944897,0.000000,-5181.441594,1225.752797
285.945218,148.041188,-8216.285956,-229.828649
285.945540,814.226536,-8660.409521,-1378.971896
285.945862,1110.308913,-9178.553681,-4213.525239
285.946184,1036.288319,-11177.109724,-5669.106685
285.946506,1406.391290,-14285.974681,-4903.011187
285.946827,296.082377,-17172.777854,-4903.011187
285.947149,-1036.288319,-17320.819043,-4519.963438
285.947471,-962.267725,-15100.201217,-3753.867940
285.947793,0.000000,-11547.212695,-3830.477490
285.948115,888.247130,-8364.327145,-3983.696590
285.948437,1998.556043,-7402.059420,-1991.848295
285.948758,3256.906145,-6661.853478,0.000000
285.949080,4145.153275,-7994.224174,1915.238745
285.949402,4959.379811,-7031.956449,3830.477490
285.949724,4589.276840,-6365.771101,4443.353888
285.950046,4663.297435,-5699.585753,2911.162892
285.950367,5625.565159,-4145.153275,766.095498
285.950689,4885.359217,-3997.112087,-536.266849
285.951011,2590.720797,-5033.400406,536.266849
285.951333,-296.082377,-6809.894666,842.705048
285.951655,-1554.432478,-10214.842000,-2757.943793
285.951976,-1036.288319,-12879.583391,-5286.058936
285.952298,-1628.453072,-12879.583391,-7201.297681
285.952620,-2664.741391,-14137.933492,-6971.469032
285.952942,-3849.070898,-16580.613101,-4443.353888
285.953264,-4737.318029,-15692.365970,-1991.848295
285.953586,-5329.482782,-11547.212695,-3983.696590
285.953907,-3775.050304,-8808.450710,-6818.249932
285.954229,-888.247130,-9178.553681,-6281.983084
285.954551,148.041188,-8660.409521,-4673.182538
285.954873,1480.411884,-7846.182985,-995.924147
285.955195,4293.194464,-7772.162391,2757.943793
285.955516,7105.977043,-8512.368333,2681.334243
285.955838,8364.327145,-9400.615463,0.000000
285.956160,6809.894666,-9918.759623,0.000000
285.956482,4885.359217,-8142.265362,1455.581446
285.956804,3478.967927,-5995.668130,1302.362347
285.957126,2442.679609,-6661.853478,-306.438199
285.957447,-666.185348,-7550.100608,689.485948
285.957769,-5403.503377,-8290.306550,612.876398
285.958091,-9252.574275,-10288.862594,-1225.752797
285.958413,-11177.109724,-12361.439231,-2604.724693
285.958735,-11547.212695,-12509.480420,-3753.867940
285.959056,-11399.171507,-9992.780217,-4443.353888
285.959378,-9030.512492,-8290.306550,-4826.401637
285.959700,-4589.276840,-8586.388927,-4903.011187
285.960022,-1480.411884,-9030.512492,-4826.401637
285.960344,-148.041188,-10214.842000,-2451.505594
285.960666,888.247130,-10214.842000,-766.095498
285.960987,2368.659014,-9548.656652,-1762.019645
285.961309,4663.297435,-10066.800811,-2451.505594
285.961631,5551.544565,-9770.718434,-766.095498
285.961953,5773.606348,-7105.977043,1072.533697
285.962275,5773.606348,-4441.235652,1378.971896
285.962596,4737.318029,-5921.647536,1991.848295
285.962918,2220.617826,-8512.368333,2451.505594
285.963240,-1554.432478,-8734.430116,1838.629195
285.963562,-3330.926739,-8734.430116,383.047749
285.963884,-2368.659014,-9696.697840,-1302.362347
285.964206,-1184.329507,-10658.965565,-1532.190996
285.964527,-2146.597232,-10584.944971,0.000000
285.964849,-2738.761985,-9918.759623,842.705048
285.965171,-1776.494261,-10807.006753,-1072.533697
285.965493,592.164754,-11991.336260,-3907.087040
285.965815,2442.679609,-11843.295072,-4903.011187
285.966136,4071.132681,-11843.295072,-4290.134789
285.966458,5551.544565,-12583.501014,-3447.429741
285.966780,7179.997637,-12879.583391,-995.924147
285.967102,7179.997637,-10436.903782,766.095498
285.967424,4589.276840,-6809.894666,383.047749
285.967745,1628.453072,-4885.359217,-1302.362347
285.968067,-1776.494261,-5403.503377,-1685.410096
285.968389,-5403.503377,-5921.647536,-536.266849
285.968711,-8956.491898,-5625.565159,995.924147
285.969033,-11029.068536,-7105.977043,1149.143247
285.969355,-10584.944971,-9400.615463,0.000000
285.969676,-9474.636058,-9992.780217,-2068.457845
285.969998,-7402.059420,-10140.821405,-3217.601092
285.970320,-3997.112087,-11399.171507,-2757.943793
285.970642,-592.164754,-12287.418637,-2145.067394
285.970964,2368.659014,-11177.109724,-1608.800546
285.971285,5551.544565,-10881.027347,-2221.676944
285.971607,10214.842000,-11917.315666,-4213.525239
285.971929,12953.603985,-12361.439231,-6358.592633
285.972251,13175.665768,-11547.212695,-4290.134789
285.972573,11103.089130,-10140.821405,995.924147
285.972894,8586.388927,-7698.141797,2451.505594
285.973216,5403.503377,-6439.791695,306.438199
285.973538,2368.659014,-7550.100608,-1608.800546
285.973860,-1998.556043,-7179.997637,-1378.971896
285.974182,-7105.977043,-6365.771101,0.000000
285.974503,-9918.759623,-4589.276840,919.314598
285.974825,-9548.656652,-5033.400406,76.609550
285.975147,-9474.636058,-8068.244768,-3294.210641
285.975469,-9474.636058,-11177.109724,-4290.134789
285.975791,-9252.574275,-12213.398043,-3447.429741
285.976112,-7402.059420,-13175.665768,-3064.381992
285.976434,-4367.215058,-13619.789333,-2987.772442
285.976756,0.000000,-13101.645173,-2987.772442
285.977078,3478.967927,-11695.253884,-5592.497135
285.977400,7476.080014,-12731.542202,-7890.783629
285.977721,10732.986159,-13841.851115,-4903.011187
285.978043,10510.924376,-11325.150913,229.828649
285.978365,7179.997637,-6217.729913,1762.019645
285.978687,4811.338623,-5699.585753,842.705048
285.979009,2664.741391,-7179.997637,0.000000
285.979330,-1480.411884,-5921.647536,-1378.971896
285.979652,-7105.977043,-4737.318029,-1455.581446
285.979974,-10362.883188,-5477.523971,2451.505594
285.980296,-10732.986159,-8290.306550,4136.915689
285.980617,-10288.862594,-10658.965565,689.485948
285.980939,-9104.533087,-9104.533087,-2374.896044
285.981261,-5477.523971,-7254.018232,-2528.115143
285.981583,-1258.350101,-8882.471304,-3447.429741
285.981905,148.041188,-12731.542202,-2604.724693
285.982226,1406.391290,-13471.748144,-383.047749
285.982548,2886.803174,-11991.336260,-2528.115143
285.982870,5551.544565,-13175.665768,-4903.011187
285.983192,6809.894666,-12657.521608,-3753.867940
285.983514,5921.647536,-8734.430116,-2451.505594
285.983835,4589.276840,-6735.874072,-1762.019645
285.984157,3627.009116,-7031.956449,1072.533697
285.984479,1776.494261,-7328.038826,2757.943793
285.984801,-2146.597232,-5255.462188,1762.019645
285.985123,-4737.318029,-2516.700203,536.266849
285.985444,-6143.709319,-2886.803174,-1532.190996
285.985766,-7031.956449,-7031.956449,-1225.752797
285.986088,-8216.285956,-10140.821405,1302.362347
285.986410,-7254.018232,-11917.315666,1302.362347
285.986732,-3701.029710,-11103.089130,-995.924147
285.987053,370.102971,-11991.336260,-2451.505594
285.987375,2442.679609,-13249.686362,-1838.629195
285.987697,3627.009116,-12953.603985,-1532.190996
285.988019,6957.935855,-12953.603985,-2987.772442
285.988341,10584.944971,-13471.748144,-4903.011187
285.988662,12065.356855,-13619.789333,-3830.477490
285.988984,8956.491898,-11103.089130,0.000000
285.989306,4885.359217,-8290.306550,1225.752797
285.989628,2220.617826,-7254.018232,383.047749
285.989949,-666.185348,-7698.141797,0.000000
285.990271,-4811.338623,-5699.585753,-229.828649
285.990593,-9474.636058,-4219.173869,-919.314598
285.990915,-11251.130318,-4663.297435,0.000000
285.991237,-11843.295072,-6143.709319,383.047749
285.991558,-11473.192101,-7254.018232,-1149.143247
285.991880,-9252.574275,-9696.697840,-3294.210641
285.992202,-5921.647536,-12139.377449,-4136.915689
285.992524,-2738.761985,-12509.480420,-3600.648841
285.992846,370.102971,-12953.603985,-2757.943793
285.993167,4737.318029,-14434.015869,-2068.457845
285.993489,8290.306550,-14063.912898,-3830.477490
285.993811,10214.842000,-11843.295072,-4673.182538
285.994133,10214.842000,-9326.594869,-1838.629195
285.994455,8956.491898,-7994.224174,229.828649
285.994776,7328.038826,-7254.018232,-536.266849
285.995098,5255.462188,-7105.977043,-766.095498
285.995420,1998.556043,-5847.626942,1455.581446
285.995742,-1036.288319,-5551.544565,1608.800546
285.996064,-3627.009116,-4219.173869,536.266849
285.996385,-5551.544565,-4145.153275,-306.438199
285.996707,-7105.977043,-7105.977043,-1532.190996
285.997029,-8216.285956,-10510.924376,-1225.752797
285.997351,-8068.244768,-9918.759623,-1838.629195
285.997672,-5403.503377,-10881.027347,-3600.648841
285.997994,-2220.617826,-13767.830521,-3983.696590
285.998316,222.061783,-15766.386565,-2528.115143
285.998638,2294.638420,-13989.892304,-2604.724693
285.998960,4737.318029,-12361.439231,-4213.525239
285.999281,8290.306550,-13027.624579,-5362.668486
285.999603,9622.677246,-11991.336260,-3524.039291
285.999925,7624.121203,-7846.182985,-1915.238745
286.000247,3849.070898,-5403.503377,-536.266849
286.000569,1480.411884,-7920.203579,536.266849
286.000890,-2072.576638,-7698.141797,1685.410096
286.001212,-6883.915261,-4219.173869,0.000000
286.001534,-10140.821405,-4367.215058,-1838.629195
286.001856,-11843.295072,-8512.368333,0.000000
286.002178,-12879.583391,-9474.636058,1991.848295
286.002499,-11991.336260,-6957.935855,-1072.533697
286.002821,-7031.956449,-6883.915261,-4366.744339
286.003143,-1258.350101,-9918.759623,-4673.182538
286.003465,962.267725,-12879.583391,-3753.867940
286.003787,1554.432478,-14804.118840,-1225.752797
286.004108,4811.338623,-13915.871710,-536.266849
286.004430,8586.388927,-13027.624579,-3600.648841
286.004752,10881.027347,-12065.356855,-4673.182538
286.005074,9252.574275,-9326.594869,-1532.190996
286.005396,6513.812290,-6365.771101,-536.266849
286.005717,5329.482782,-7031.956449,-1149.143247
286.006039,3701.029710,-8364.327145,1149.143247
286.006361,0.000000,-7254.018232,2145.067394
286.006683,-4737.318029,-4663.297435,1302.362347
286.007004,-6883.915261,-4071.132681,536.266849
286.007326,-7476.080014,-5699.585753,-995.924147
286.007648,-7698.141797,-8142.265362,-2145.067394
286.007970,-8882.471304,-8512.368333,-766.095498
286.008292,-7994.224174,-9918.759623,-383.047749
286.008613,-5033.400406,-12139.377449,-1608.800546
286.008935,-1554.432478,-13989.892304,-2145.067394
286.009257,1554.432478,-12731.542202,-2221.676944
286.009579,5477.523971,-12361.439231,-3907.087040
286.009901,8882.471304,-13989.892304,-4903.011187
286.010222,10510.924376,-13693.809927,-2757.943793
286.010544,9400.615463,-9918.759623,-383.047749
286.010866,6513.812290,-7105.977043,383.047749
286.011188,3997.112087,-8586.388927,0.000000
286.011510,370.102971,-8512.368333,919.314598
286.011831,-3478.967927,-6143.709319,689.485948
286.012153,-6661.853478,-5551.544565,0.000000
286.012475,-8660.409521,-7105.977043,1532.190996
286.012797,-10066.800811,-7476.080014,2681.334243
286.013119,-11029.068536,-7105.977043,-229.828649
286.013440,-9104.533087,-7254.018232,-2911.162892
286.013762,-5329.482782,-9104.533087,-4366.744339
286.014084,-2294.638420,-12139.377449,-3983.696590
286.014406,0.000000,-14508.036463,-1225.752797
286.014728,2294.638420,-14508.036463,0.000000
286.015049,6513.812290,-13249.686362,-2834.553343
286.015371,9918.759623,-12805.562797,-5209.449386
286.015693,9918.759623,-11251.130318,-2911.162892
286.016015,6587.832884,-7105.977043,-1225.752797
286.016336,4293.194464,-5995.668130,-612.876398
286.016658,3404.947333,-7402.059420,76.609550
286.016980,1998.556043,-7846.182985,689.485948
286.017302,-2516.700203,-6217.729913,459.657299
286.017624,-6513.812290,-5107.421000,842.705048
286.017945,-7846.182985,-4293.194464,1072.533697
286.018267,-7920.203579,-5033.400406,-1455.581446
286.018589,-8216.285956,-7328.038826,-3140.991542
286.018911,-7402.059420,-10510.924376,-2528.115143
286.019233,-5329.482782,-12361.439231,-2834.553343
286.019554,-2812.782580,-13841.851115,-2451.505594
286.019876,1036.288319,-13989.892304,-995.924147
286.020198,5033.400406,-13397.727550,-3217.601092
286.020520,8512.368333,-13915.871710,-5822.325785
286.020842,10066.800811,-14359.995275,-4826.401637
286.021163,9326.594869,-12361.439231,-1532.190996
286.021485,6439.791695,-8882.471304,0.000000
286.021807,3849.070898,-7550.100608,-306.438199
286.022129,1554.432478,-7476.080014,-383.047749
286.022451,-2220.617826,-6291.750507,-459.657299
286.022772,-6143.709319,-4885.359217,-306.438199
286.023094,-8142.265362,-4959.379811,229.828649
286.023416,-9696.697840,-5699.585753,2451.505594
286.023738,-10807.006753,-5699.585753,1225.752797
286.024060,-11325.150913,-7402.059420,-1685.410096
286.024381,-9030.512492,-9400.615463,-4596.572988
286.024703,-4885.359217,-10288.862594,-5975.544884
286.025025,-1036.288319,-12731.542202,-4290.134789
286.025347,1480.411884,-15470.304188,-1608.800546
286.025668,4737.318029,-14508.036463,-459.657299
286.025990,7920.203579,-12879.583391,-3294.210641
286.026312,10288.862594,-11843.295072,-4519.963438
286.026634,10510.924376,-8660.409521,-2451.505594
286.026956,8216.285956,-5477.523971,-2528.115143
286.027277,5625.565159,-6143.709319,-1149.143247
286.027599,4441.235652,-8586.388927,2374.896044
286.027921,1628.453072,-7772.162391,3217.601092
286.028243,-1924.535449,-5551.544565,1915.238745
286.028565,-4293.194464,-3775.050304,842.705048
286.028886,-5255.462188,-5033.400406,-153.219100
286.029208,-6439.791695,-7179.997637,-2068.457845
286.029530,-7476.080014,-9104.533087,-1149.143247
286.029852,-6513.812290,-10362.883188,-229.828649
286.030174,-4367.215058,-12213.398043,-2221.676944
286.030495,-1776.494261,-14063.912898,-2451.505594
286.030817,370.102971,-13915.871710,-2757.943793
286.031139,3404.947333,-13767.830521,-4290.134789
286.031461,7105.977043,-14434.015869,-5362.668486
286.031783,9326.594869,-14434.015869,-3983.696590
286.032104,8142.265362,-10732.986159,-842.705048
286.032426,5329.482782,-6661.853478,229.828649
286.032748,3108.864956,-6291.750507,-689.485948
286.033070,518.144159,-7772.162391,-1378.971896
286.033392,-3552.988522,-6809.894666,-383.047749
286.033713,-7105.977043,-5477.523971,229.828649
286.034035,-8734.430116,-6809.894666,995.924147
286.034357,-9622.677246,-8512.368333,2757.943793
286.034679,-10881.027347,-7846.182985,1685.410096
286.035000,-9770.718434,-7179.997637,-2145.067394
286.035322,-6217.729913,-7624.121203,-5132.839837
286.035644,-2294.638420,-9918.759623,-4826.401637
286.035966,-444.123565,-13101.645173,-3294.210641
286.036288,1702.473667,-15100.201217,-612.876398
286.036609,4737.318029,-14656.077652,-689.485948
286.036931,7476.080014,-13915.871710,-3064.381992
286.037253,9030.512492,-12213.398043,-3447.429741
286.037575,7624.121203,-8364.327145,-2145.067394
286.037897,5625.565159,-5699.585753,-1838.629195
286.038218,4293.194464,-6365.771101,-536.266849
286.038540,2590.720797,-7328.038826,2068.457845
286.038862,-1036.288319,-5847.626942,2528.115143
286.039184,-4367.215058,-5255.462188,1072.533697
286.039506,-6809.894666,-4811.338623,0.000000
286.039827,-8142.265362,-5181.441594,-1532.190996
286.040149,-9474.636058,-6513.812290,-1991.848295
286.040471,-9030.512492,-8438.347739,-1532.190996
286.040793,-6883.915261,-10510.924376,-2298.286494
286.041115,-2886.803174,-13397.727550,-3753.867940
286.041436,148.041188,-15100.201217,-3217.601092
286.041758,3182.885551,-15248.242405,-2298.286494
286.042080,6291.750507,-14656.077652,-3140.991542
286.042402,8734.430116,-13397.727550,-3447.429741
286.042723,8734.430116,-10807.006753,-2221.676944
286.043045,6439.791695,-7624.121203,-766.095498
286.043367,4589.276840,-6883.915261,-1149.143247
286.043689,3034.844362,-7328.038826,-1225.752797
286.044011,0.000000,-7179.997637,306.438199
286.044332,-3404.947333,-5995.668130,1378.971896
286.044654,-5477.523971,-4959.379811,1532.190996
286.044976,-6439.791695,-5551.544565,-306.438199
286.045298,-9178.553681,-6439.791695,-459.657299
286.045620,-11399.171507,-7994.224174,0.000000
286.045941,-10214.842000,-10066.800811,-2987.772442
286.046263,-6439.791695,-11251.130318,-5669.106685
286.046585,-1628.453072,-12509.480420,-5669.106685
286.046907,2368.659014,-14508.036463,-3907.087040
286.047229,5847.626942,-15840.407159,-1455.581446
286.047550,9030.512492,-14211.954086,-1225.752797
286.047872,10881.027347,-11103.089130,-2604.724693
286.048194,10584.944971,-8142.265362,-3370.820191
286.048516,7772.162391,-6809.894666,-2145.067394
286.048838,3849.070898,-6291.750507,-1302.362347
286.049159,2072.576638,-6661.853478,-306.438199
286.049481,740.205942,-6587.832884,1378.971896
286.049803,-1480.411884,-6661.853478,1455.581446
286.050125,-4663.297435,-5699.585753,1225.752797
286.050447,-7254.018232,-4737.318029,612.876398
286.050768,-8290.306550,-5403.503377,-1762.019645
286.051090,-7105.977043,-8586.388927,-3830.477490
286.051412,-6217.729913,-11473.192101,-4903.011187
286.051734,-4663.297435,-13397.727550,-3600.648841
286.052055,-2442.679609,-14508.036463,-1225.752797
286.052377,518.144159,-14730.098246,-153.219100
286.052699,4219.173869,-14063.912898,-2681.334243
286.053021,8438.347739,-13915.871710,-6128.763984
286.053343,10732.986159,-13397.727550,-5822.325785
286.053664,10066.800811,-10881.027347,-1608.800546
286.053986,7624.121203,-7846.182985,1915.238745
286.054308,4811.338623,-5625.565159,2068.457845
286.054630,2516.700203,-5329.482782,536.266849
286.054952,-1406.391290,-5181.441594,-919.314598
286.055273,-5773.606348,-6217.729913,-2068.457845
286.055595,-9622.677246,-7328.038826,0.000000
286.055917,-11769.274478,-6957.935855,2374.896044
286.056239,-11621.233289,-7550.100608,1838.629195
286.056561,-9844.739029,-8438.347739,-1915.238745
286.056882,-6883.915261,-7994.224174,-5439.278036
286.057204,-4145.153275,-9474.636058,-5362.668486
286.057526,-1554.432478,-13545.768739,-2911.162892
286.057848,888.247130,-15544.324782,-995.924147
286.058170,4737.318029,-14285.974681,-1532.190996
286.058491,7476.080014,-12805.562797,-4213.525239
286.058813,9178.553681,-12065.356855,-2987.772442
286.059135,7624.121203,-8364.327145,-1225.752797
286.059457,4811.338623,-5107.421000,-1378.971896
286.059779,4293.194464,-5255.462188,-536.266849
286.060100,3182.885551,-6513.812290,612.876398
286.060422,-222.061783,-6587.832884,1225.752797
286.060744,-4663.297435,-4885.359217,1302.362347
286.061066,-6735.874072,-3997.112087,919.314598
286.061387,-6661.853478,-6439.791695,-1532.190996
286.061709,-6661.853478,-10732.986159,-3140.991542
286.062031,-7476.080014,-12361.439231,-1915.238745
286.062353,-6291.750507,-11695.253884,-1149.143247
286.062675,-3552.988522,-12139.377449,-1455.581446
286.062996,0.000000,-13175.665768,-1532.190996
286.063318,2960.823768,-12361.439231,-2298.286494
286.063640,6069.688724,-12361.439231,-5439.278036
286.063962,9474.636058,-13619.789333,-6052.154434
286.064284,11029.068536,-13397.727550,-1915.238745
286.064605,8956.491898,-9844.739029,2298.286494
286.064927,4589.276840,-4737.318029,2374.896044
286.065249,2146.597232,-4737.318029,-229.828649
286.065571,74.020594,-6365.771101,-2298.286494
286.065893,-3997.112087,-6883.915261,-2834.553343
286.066214,-9992.780217,-7105.977043,-153.219100
286.066536,-13101.645173,-7328.038826,4213.525239
286.066858,-12287.418637,-8438.347739,1762.019645
286.067180,-10955.047942,-8364.327145,-3447.429741
286.067502,-8882.471304,-6957.935855,-5822.325785
286.067823,-6143.709319,-8512.368333,-5132.839837
286.068145,-3552.988522,-13101.645173,-3524.039291
286.068467,-1110.308913,-14878.139434,-766.095498
286.068789,2812.782580,-14137.933492,-842.705048
286.069111,7698.141797,-12731.542202,-4136.915689
286.069432,11325.150913,-12805.562797,-4903.011187
286.069754,10584.944971,-9474.636058,-2451.505594
286.070076,7254.018232,-5995.668130,306.438199
286.070398,5551.544565,-5995.668130,1072.533697
286.070719,4737.318029,-7920.203579,612.876398
286.071041,2368.659014,-7402.059420,-766.095498
286.071363,-1258.350101,-5551.544565,-1149.143247
286.071685,-3775.050304,-4737.318029,689.485948
286.072007,-5699.585753,-4959.379811,1302.362347
286.072329,-7328.038826,-6439.791695,842.705048
286.072651,-8216.285956,-8956.491898,-1532.190996
286.072973,-7179.997637,-11547.212695,-4366.744339
286.073294,-4959.379811,-12361.439231,-5056.230287
286.073616,-2516.700203,-13101.645173,-2451.505594
286.073938,-518.144159,-14211.954086,-306.438199
286.074260,3775.050304,-13545.768739,-1608.800546
286.074582,7476.080014,-12805.562797,-4749.792088
286.074904,9844.739029,-12583.501014,-4903.011187
286.075226,9474.636058,-11103.089130,-2528.115143
286.075548,6587.832884,-8734.430116,-536.266849
286.075870,2812.782580,-6809.894666,153.219100
286.076191,666.185348,-6809.894666,612.876398
286.076513,-1332.370696,-5847.626942,-229.828649
286.076835,-4737.318029,-5625.565159,-2145.067394
286.077157,-8068.244768,-5995.668130,-995.924147
286.077479,-10955.047942,-7179.997637,2145.067394
286.077801,-10955.047942,-9548.656652,1378.971896
286.078123,-8734.430116,-10288.862594,-2451.505594
286.078445,-5773.606348,-8734.430116,-4903.011187
286.078767,-2072.576638,-9548.656652,-4749.792088
286.079088,0.000000,-12805.562797,-2298.286494
286.079410,2442.679609,-14730.098246,229.828649
286.079732,5329.482782,-13027.624579,-1762.019645
286.080054,8438.347739,-12065.356855,-4596.572988
286.080376,10066.800811,-11991.336260,-2987.772442
286.080698,8364.327145,-9474.636058,-919.314598
286.081020,4811.338623,-5699.585753,-689.485948
286.081342,4589.276840,-5995.668130,-459.657299
286.081664,4367.215058,-7624.121203,536.266849
286.081985,296.082377,-7254.018232,612.876398
286.082307,-4515.256246,-5921.647536,1378.971896
286.082629,-7105.977043,-4811.338623,1532.190996
286.082951,-7402.059420,-6217.729913,-229.828649
286.083273,-7698.141797,-8956.491898,-3753.867940
286.083595,-7624.121203,-11251.130318,-3600.648841
286.083917,-6439.791695,-11177.109724,-2451.505594
286.084239,-4145.153275,-11769.274478,-842.705048
286.084561,-1702.473667,-13249.686362,229.828649
286.084883,1480.411884,-12435.459826,-766.095498
286.085204,4959.379811,-11177.109724,-5209.449386
286.085526,8734.430116,-11843.295072,-7354.516781
286.085848,10732.986159,-12361.439231,-3677.258390
286.086170,10140.821405,-10955.047942,1072.533697
286.086492,6513.812290,-7105.977043,2604.724693
286.086814,3034.844362,-5773.606348,1378.971896
286.087136,962.267725,-6365.771101,-842.705048
286.087458,-2294.638420,-6661.853478,-3677.258390
286.087780,-7624.121203,-6735.874072,-3294.210641
286.088101,-12065.356855,-7624.121203,1608.800546
286.088423,-13027.624579,-8364.327145,3524.039291
286.088745,-11991.336260,-9178.553681,-459.657299
286.089067,-9326.594869,-7328.038826,-4903.011187
286.089389,-5995.668130,-7402.059420,-5439.278036
286.089711,-3552.988522,-12065.356855,-4366.744339
286.090033,-1998.556043,-14582.057057,-1072.533697
286.090355,1258.350101,-13693.809927,383.047749
286.090677,6217.729913,-12065.356855,-3140.991542
286.090998,9992.780217,-11843.295072,-5439.278036
286.091320,9770.718434,-10436.903782,-3447.429741
286.091642,6809.894666,-7105.977043,-1378.971896
286.091964,5033.400406,-5921.647536,-306.438199
286.092286,4885.359217,-7994.224174,0.000000
286.092608,2960.823768,-9030.512492,-383.047749
286.092930,-1332.370696,-6809.894666,459.657299
286.093252,-4737.318029,-5107.421000,383.047749
286.093574,-6143.709319,-5551.544565,612.876398
286.093895,-7105.977043,-6957.935855,0.000000
286.094217,-8734.430116,-7920.203579,-1455.581446
286.094539,-8290.306550,-9696.697840,-3217.601092
286.094861,-5329.482782,-11251.130318,-3217.601092
286.095183,-2072.576638,-12435.459826,-2451.505594
286.095505,1110.308913,-13175.665768,-1302.362347
286.095827,4663.297435,-13989.892304,-1302.362347
286.096149,7105.977043,-13693.809927,-2374.896044
286.096471,9474.636058,-12657.521608,-3524.039291
286.096792,9252.574275,-11621.233289,-2528.115143
286.097114,6809.894666,-9474.636058,-459.657299
286.097436,3330.926739,-6661.853478,-153.219100
286.097758,1258.350101,-5329.482782,-153.219100
286.098080,-592.164754,-5403.503377,0.000000
286.098402,-3478.967927,-6291.750507,-1149.143247
286.098724,-7698.141797,-7105.977043,76.609550
286.099046,-10881.027347,-7105.977043,2604.724693
286.099368,-11547.212695,-8290.306550,1762.019645
286.099690,-9918.759623,-9622.677246,-2451.505594
286.100011,-7846.182985,-8512.368333,-4979.620737
286.100333,-5403.503377,-8586.388927,-3983.696590
286.100655,-2960.823768,-11473.192101,-1991.848295
286.100977,296.082377,-13545.768739,-306.438199
286.101299,4219.173869,-12509.480420,-1378.971896
286.101621,7698.141797,-11843.295072,-4903.011187
286.101943,10436.903782,-12657.521608,-3983.696590
286.102265,9992.780217,-10807.006753,-842.705048
286.102587,7550.100608,-7772.162391,-229.828649
286.102908,5995.668130,-6439.791695,306.438199
286.103230,4663.297435,-7031.956449,1608.800546
286.103552,814.226536,-6957.935855,995.924147
286.103874,-3552.988522,-5403.503377,0.000000
286.104196,-5921.647536,-5181.441594,76.609550
286.104518,-6439.791695,-6735.874072,229.828649
286.104840,-7624.121203,-7772.162391,383.047749
286.105162,-8438.347739,-8438.347739,-919.314598
286.105484,-7624.121203,-9474.636058,-3370.820191
286.105805,-4959.379811,-10955.047942,-4903.011187
286.106127,-2812.782580,-13101.645173,-3753.867940
286.106449,-1406.391290,-15100.201217,-1991.848295
286.106771,1628.453072,-14730.098246,-1991.848295
286.107093,4885.359217,-13175.665768,-3677.258390
286.107415,8734.430116,-12139.377449,-4903.011187
286.107737,10658.965565,-10807.006753,-3600.648841
286.108059,9548.656652,-8142.265362,-1762.019645
286.108381,6883.915261,-6587.832884,-995.924147
286.108702,2812.782580,-6587.832884,1685.410096
286.109024,-666.185348,-7254.018232,1915.238745
286.109346,-5107.421000,-5921.647536,-153.219100
286.109668,-8364.327145,-5921.647536,-2604.724693
286.109990,-9622.677246,-7846.182985,-919.314598
286.110312,-10510.924376,-9104.533087,1302.362347
286.110634,-9622.677246,-7624.121203,306.438199
286.110956,-5921.647536,-7624.121203,-3064.381992
286.111278,-1406.391290,-10140.821405,-5056.230287
286.111600,1184.329507,-11843.295072,-4136.915689
286.111921,2442.679609,-13545.768739,-1915.238745
286.112243,4737.318029,-14211.954086,-1838.629195
286.112565,8068.244768,-14285.974681,-3064.381992
286.112887,9326.594869,-12361.439231,-3524.039291
286.113209,7698.141797,-9474.636058,-2068.457845
286.113531,4959.379811,-6587.832884,-1225.752797
286.113853,3997.112087,-5551.544565,-1685.410096
286.114175,2220.617826,-6883.915261,-1762.019645
286.114497,-1554.432478,-7254.018232,536.266849
286.114818,-6143.709319,-5847.626942,1685.410096
286.115140,-8808.450710,-5255.462188,612.876398
286.115462,-8956.491898,-7402.059420,-1378.971896
286.115784,-9400.615463,-9696.697840,-2681.334243
286.116106,-9252.574275,-10658.965565,-3064.381992
286.116428,-7105.977043,-10214.842000,-1685.410096
286.116750,-3478.967927,-11621.233289,-1302.362347
286.117072,-296.082377,-12731.542202,-1149.143247
286.117394,3034.844362,-12583.501014,-1225.752797
286.117715,6809.894666,-12731.542202,-3753.867940
286.118037,9474.636058,-13841.851115,-5898.935335
286.118359,11177.109724,-13915.871710,-2757.943793
286.118681,9918.759623,-10436.903782,2068.457845
286.119003,5995.668130,-6069.688724,2221.676944
286.119325,3404.947333,-5699.585753,0.000000
286.119647,666.185348,-7031.956449,-383.047749
286.119969,-3034.844362,-6291.750507,-1991.848295
286.120291,-7920.203579,-6143.709319,-1302.362347
286.120612,-11251.130318,-7254.018232,2834.553343
286.120934,-12509.480420,-7476.080014,4136.915689
286.121256,-11991.336260,-7772.162391,-766.095498
286.121578,-9844.739029,-7105.977043,-4596.572988
286.121900,-6217.729913,-7846.182985,-4596.572988
286.122222,-3627.009116,-10658.965565,-3447.429741
286.122544,-1850.514855,-13693.809927,-1302.362347
286.122866,1628.453072,-13471.748144,76.609550
286.123188,6291.750507,-12139.377449,-3140.991542
286.123510,9770.718434,-12583.501014,-5592.497135
286.123831,10140.821405,-11621.233289,-2451.505594
286.124153,7254.018232,-8512.368333,153.219100
286.124475,4663.297435,-6439.791695,919.314598
286.124797,3997.112087,-7550.100608,995.924147
286.125119,2294.638420,-7846.182985,306.438199
286.125441,-1406.391290,-5847.626942,-689.485948
286.125763,-4885.359217,-3701.029710,229.828649
286.126085,-5477.523971,-5625.565159,842.705048
286.126407,-6069.688724,-7402.059420,612.876398
286.126728,-6883.915261,-9696.697840,-995.924147
286.127050,-6809.894666,-11029.068536,-1608.800546
286.127372,-4441.235652,-10436.903782,-2298.286494
286.127694,-1480.411884,-11473.192101,-3294.210641
286.128016,1036.288319,-13915.871710,-2911.162892
286.128338,3701.029710,-13841.851115,-1915.238745
286.128660,6439.791695,-13175.665768,-4136.915689
286.128982,9400.615463,-13767.830521,-5056.230287
286.129304,10584.944971,-13693.809927,-2451.505594
286.129625,7920.203579,-10362.883188,-306.438199
286.129947,3923.091493,-6143.709319,-689.485948
286.130269,1332.370696,-5995.668130,-306.438199
286.130591,-1776.494261,-6365.771101,306.438199
286.130913,-6217.729913,-4885.359217,-2221.676944
286.131235,-10140.821405,-4219.173869,-2221.676944
286.131557,-11177.109724,-7402.059420,0.000000
286.131879,-10732.986159,-10510.924376,612.876398
286.132201,-9178.553681,-10066.800811,-1072.533697
286.132522,-5847.626942,-8586.388927,-3140.991542
286.132844,-1406.391290,-9178.553681,-4136.915689
286.133166,1184.329507,-10732.986159,-2834.553343
286.133488,2368.659014,-12139.377449,-1608.800546
286.133810,4737.318029,-12287.418637,-2528.115143
286.134132,8290.306550,-12509.480420,-5822.325785
286.134454,11325.150913,-13323.706956,-5592.497135
286.134776,10362.883188,-11621.233289,-2068.457845
286.135098,7994.224174,-8512.368333,995.924147
286.135419,5773.606348,-6661.853478,536.266849
286.135741,3997.112087,-7031.956449,-306.438199
286.136063,0.000000,-6661.853478,0.000000
286.136385,-4885.359217,-4885.359217,-995.924147
286.136707,-8586.388927,-5181.441594,-536.266849
286.137029,-8956.491898,-7031.956449,306.438199
286.137351,-8438.347739,-8586.388927,-919.314598
286.137673,-7550.100608,-9474.636058,-2298.286494
286.137995,-5477.523971,-10436.903782,-2374.896044
286.138317,-3552.988522,-11399.171507,-2221.676944
286.138638,-2664.741391,-12583.501014,-2145.067394
286.138960,0.000000,-13249.686362,-1608.800546
286.139282,3108.864956,-13101.645173,-3983.696590
286.139604,6661.853478,-12583.501014,-6511.811733
286.139926,8734.430116,-12509.480420,-4903.011187
286.140248,9326.594869,-11695.253884,-919.314598
286.140570,7031.956449,-8956.491898,1072.533697
286.140892,4071.132681,-7031.956449,842.705048
286.141214,888.247130,-7031.956449,0.000000
286.141535,-2146.597232,-6365.771101,-612.876398
286.141857,-6291.750507,-6587.832884,-1915.238745
286.142179,-10436.903782,-6809.894666,459.657299
286.142501,-11843.295072,-7031.956449,2987.772442
286.142823,-10881.027347,-8438.347739,1302.362347
286.143145,-7846.182985,-7994.224174,-2757.943793
286.143467,-4441.235652,-7476.080014,-3294.210641
286.143789,-1554.432478,-8882.471304,-2604.724693
286.144111,0.000000,-12213.398043,-1532.190996
286.144432,2368.659014,-13545.768739,0.000000
286.144754,5403.503377,-12213.398043,-2298.286494
286.145076,7624.121203,-11843.295072,-4673.182538
286.145398,8734.430116,-12435.459826,-3064.381992
286.145720,6661.853478,-9992.780217,-1225.752797
286.146042,3701.029710,-7402.059420,-995.924147
286.146364,2590.720797,-7328.038826,536.266849
286.146686,1110.308913,-7698.141797,1608.800546
286.147008,-2220.617826,-6513.812290,459.657299
286.147329,-5773.606348,-4811.338623,0.000000
286.147651,-7328.038826,-5625.565159,383.047749
286.147973,-7550.100608,-7179.997637,689.485948
286.148295,-8660.409521,-7698.141797,76.609550
286.148617,-7328.038826,-8808.450710,-1302.362347
286.148939,-4885.359217,-10510.924376,-2911.162892
286.149261,-1184.329507,-12287.418637,-2681.334243
286.149583,1554.432478,-13323.706956,-1991.848295
286.149905,3923.091493,-13989.892304,-1532.190996
286.150227,6883.915261,-13841.851115,-2451.505594
286.150548,9474.636058,-12731.542202,-3600.648841
286.150870,9844.739029,-11843.295072,-2834.553343
286.151192,7920.203579,-10214.842000,-1685.410096
286.151514,4737.318029,-8068.244768,-1225.752797
286.151836,2146.597232,-7402.059420,-306.438199
286.152158,-1184.329507,-7328.038826,306.438199
286.152480,-4367.215058,-6587.832884,229.828649
286.152802,-7105.977043,-5181.441594,-842.705048
286.153124,-8882.471304,-6217.729913,-612.876398
286.153445,-9622.677246,-7846.182985,-229.828649
286.153767,-9030.512492,-8586.388927,-306.438199
286.154089,-7179.997637,-8956.491898,-2374.896044
286.154411,-3849.070898,-10140.821405,-3524.039291
286.154733,-666.185348,-10955.047942,-2757.943793
286.155055,1850.514855,-11177.109724,-2298.286494
286.155377,5181.441594,-12139.377449,-3217.601092
286.155699,8586.388927,-12213.398043,-4519.963438
286.156021,10881.027347,-11695.253884,-4826.401637
286.156342,10658.965565,-10881.027347,-2681.334243
286.156664,7846.182985,-10214.842000,-306.438199
286.156986,5181.441594,-8882.471304,-689.485948
286.157308,2442.679609,-7994.224174,-306.438199
286.157630,-666.185348,-7328.038826,-689.485948
286.157952,-4515.256246,-6587.832884,-842.705048
286.158274,-7254.018232,-5551.544565,-536.266849
286.158596,-8290.306550,-5699.585753,536.266849
286.158918,-7698.141797,-7105.977043,153.219100
286.159239,-7179.997637,-7994.224174,-1991.848295
286.159561,-5773.606348,-9030.512492,-2451.505594
286.159883,-3701.029710,-10881.027347,-2681.334243
286.160205,-2072.576638,-13619.789333,-2604.724693
286.160527,666.185348,-14878.139434,-1762.019645
286.160849,3849.070898,-13175.665768,-2681.334243
286.161171,7328.038826,-13101.645173,-5439.278036
286.161493,9770.718434,-12657.521608,-4443.353888
286.161815,9770.718434,-10807.006753,-1685.410096
286.162137,7179.997637,-8290.306550,-536.266849
286.162458,3923.091493,-7254.018232,-612.876398
286.162780,444.123565,-8512.368333,153.219100
286.163102,-3552.988522,-7254.018232,-459.657299
286.163424,-7698.141797,-6217.729913,-1378.971896
286.163746,-10658.965565,-6143.709319,0.000000
286.164068,-11843.295072,-6513.812290,2298.286494
286.164390,-11843.295072,-7402.059420,1532.190996
286.164712,-9474.636058,-7254.018232,-995.924147
286.165034,-5551.544565,-6587.832884,-3447.429741
286.165355,-1332.370696,-8882.471304,-3600.648841
286.165677,1110.308913,-11991.336260,-1608.800546
286.165999,3182.885551,-13101.645173,76.609550
286.166321,5921.647536,-11917.315666,-1838.629195
286.166643,8660.409521,-11769.274478,-4519.963438
286.166965,10066.800811,-12435.459826,-3677.258390
286.167287,8438.347739,-11103.089130,-1685.410096
286.167609,5773.606348,-7846.182985,-1302.362347
286.167931,4811.338623,-7031.956449,-383.047749
286.168252,3256.906145,-7550.100608,1225.752797
286.168574,-666.185348,-6587.832884,1302.362347
286.168896,-5033.400406,-5107.421000,689.485948
286.169218,-6957.935855,-5033.400406,229.828649
286.169540,-7254.018232,-7031.956449,-995.924147
286.169862,-8882.471304,-9104.533087,-1149.143247
286.170184,-9622.677246,-9474.636058,229.828649
286.170506,-8068.244768,-8956.491898,-1072.533697
286.170828,-3627.009116,-10732.986159,-4519.963438
286.171149,0.000000,-13397.727550,-4213.525239
286.171471,2072.576638,-14434.015869,-3140.991542
286.171793,3182.885551,-13545.768739,-1991.848295
286.172115,5551.544565,-12657.521608,-2451.505594
286.172437,7994.224174,-12287.418637,-2681.334243
286.172759,8882.471304,-10807.006753,-3294.210641
286.173080,6439.791695,-8290.306550,-3140.991542
286.173402,3552.988522,-8512.368333,-1608.800546
286.173724,0.000000,-9770.718434,1378.971896
286.174046,-3256.906145,-8660.409521,2987.772442
286.174368,-5995.668130,-5699.585753,383.047749
286.174689,-7328.038826,-5477.523971,-1838.629195
286.175011,-8660.409521,-8290.306550,-612.876398
286.175333,-10362.883188,-8438.347739,459.657299
286.175655,-9696.697840,-6069.688724,-153.219100
286.175977,-5107.421000,-7105.977043,-2145.067394
286.176299,74.020594,-10584.944971,-3524.039291
286.176620,2146.597232,-11843.295072,-3447.429741
286.176942,3034.844362,-11769.274478,-2221.676944
286.177264,5551.544565,-12657.521608,-1685.410096
286.177586,8512.368333,-13841.851115,-2681.334243
286.177908,8808.450710,-11769.274478,-3830.477490
286.178229,6217.729913,-8660.409521,-2374.896044
286.178551,4071.132681,-7254.018232,-1608.800546
286.178873,2738.761985,-7550.100608,-1608.800546
286.179195,518.144159,-7254.018232,-612.876398
286.179517,-2368.659014,-6439.791695,1072.533697
286.179839,-5033.400406,-6069.688724,459.657299
286.180160,-6587.832884,-6439.791695,383.047749
286.180482,-8142.265362,-7550.100608,-153.219100
286.180804,-8956.491898,-7402.059420,-1225.752797
286.181126,-8068.244768,-6291.750507,-2298.286494
286.181448,-5477.523971,-8882.471304,-3524.039291
286.181769,-1628.453072,-12731.542202,-3217.601092
286.182091,2442.679609,-14359.995275,-2987.772442
286.182413,5033.400406,-14582.057057,-1991.848295
286.182735,8142.265362,-15470.304188,-766.095498
286.183057,9992.780217,-14211.954086,-689.485948
286.183379,10214.842000,-10214.842000,-1838.629195
286.183700,8364.327145,-6291.750507,-2604.724693
286.184022,5477.523971,-7402.059420,-2145.067394
286.184344,1998.556043,-8586.388927,-1225.752797
286.184666,-2516.700203,-7772.162391,689.485948
286.184988,-5625.565159,-6069.688724,2221.676944
286.185309,-7254.018232,-6069.688724,612.876398
286.185631,-8142.265362,-7698.141797,0.000000
286.185953,-10584.944971,-7254.018232,0.000000
286.186275,-11843.295072,-5551.544565,-766.095498
286.186597,-8882.471304,-6217.729913,-2911.162892
286.186919,-4145.153275,-9992.780217,-4826.401637
286.187240,-2072.576638,-12657.521608,-4290.134789
286.187562,0.000000,-12435.459826,-1762.019645
286.187884,3627.009116,-12213.398043,-1685.410096
286.188206,7920.203579,-13249.686362,-3294.210641
286.188528,10807.006753,-13249.686362,-4366.744339
286.188849,9918.759623,-9622.677246,-2681.334243
286.189171,7624.121203,-7328.038826,-1072.533697
286.189493,5699.585753,-7476.080014,-383.047749
286.189815,3701.029710,-8364.327145,0.000000
286.190137,-222.061783,-7031.956449,229.828649
286.190458,-3701.029710,-6143.709319,919.314598
286.190780,-6513.812290,-7031.956449,766.095498
286.191102,-6883.915261,-7476.080014,0.000000
286.191424,-7476.080014,-8068.244768,-612.876398
286.191746,-7328.038826,-7402.059420,-842.705048
286.192068,-5625.565159,-8142.265362,-1991.848295
286.192389,-2960.823768,-11325.150913,-3217.601092
286.192711,-444.123565,-13989.892304,-3217.601092
286.193033,1924.535449,-14359.995275,-2221.676944
286.193355,4515.256246,-14063.912898,-2145.067394
286.193677,7105.977043,-14211.954086,-3294.210641
286.193998,8216.285956,-13175.665768,-3447.429741
286.194320,7772.162391,-9548.656652,-2221.676944
286.194642,5181.441594,-6439.791695,-1991.848295
286.194964,2368.659014,-7698.141797,-1762.019645
286.195286,-962.267725,-9030.512492,76.609550
286.195608,-4737.318029,-7772.162391,459.657299
286.195929,-8364.327145,-6217.729913,0.000000
286.196251,-9400.615463,-7179.997637,-229.828649
286.196573,-9844.739029,-8290.306550,459.657299
286.196895,-10510.924376,-7254.018232,689.485948
286.197217,-9178.553681,-6069.688724,-1378.971896
286.197538,-4811.338623,-7476.080014,-2604.724693
286.197860,-1480.411884,-9844.739029,-3064.381992
286.198182,296.082377,-12139.377449,-2298.286494
286.198504,2442.679609,-12879.583391,-995.924147
286.198826,6069.688724,-13175.665768,-2068.457845
286.199148,9474.636058,-14211.954086,-4749.792088
286.199469,10362.883188,-12805.562797,-2834.553343
286.199791,8956.491898,-9400.615463,-689.485948
286.200113,6217.729913,-5995.668130,-383.047749
286.200435,4515.256246,-6661.853478,-612.876398
286.200757,1258.350101,-6439.791695,459.657299
286.201078,-2886.803174,-5033.400406,459.657299
286.201400,-6661.853478,-4737.318029,-766.095498
286.201722,-7772.162391,-6809.894666,-459.657299
286.202044,-8660.409521,-9400.615463,153.219100
286.202366,-9770.718434,-8364.327145,383.047749
286.202688,-8586.388927,-8438.347739,-689.485948
286.203009,-5329.482782,-9622.677246,-3524.039291
286.203331,-1924.535449,-11991.336260,-4519.963438
286.203653,222.061783,-13397.727550,-3600.648841
286.203975,1924.535449,-13841.851115,-2451.505594
286.204297,5033.400406,-13545.768739,-2374.896044
286.204618,7772.162391,-13249.686362,-3294.210641
286.204940,8808.450710,-11843.295072,-2757.943793
286.205262,7402.059420,-8956.491898,-2068.457845
286.205584,4515.256246,-7994.224174,-1225.752797
286.205906,1554.432478,-8364.327145,229.828649
286.206228,-1406.391290,-7476.080014,1762.019645
286.206549,-3849.070898,-5329.482782,1072.533697
286.206871,-5477.523971,-4663.297435,-689.485948
286.207193,-6883.915261,-7105.977043,-536.266849
286.207515,-8290.306550,-8290.306550,1302.362347
286.207837,-9548.656652,-7994.224174,1149.143247
286.208158,-7254.018232,-8512.368333,-919.314598
286.208480,-3701.029710,-9622.677246,-3677.258390
286.208802,-814.226536,-10807.006753,-4136.915689
286.209124,1110.308913,-11843.295072,-2374.896044
286.209446,3552.988522,-11917.315666,-1838.629195
286.209768,6809.894666,-12657.521608,-3064.381992
286.210089,8882.471304,-11769.274478,-4213.525239
286.210411,8882.471304,-10066.800811,-2911.162892
286.210733,7179.997637,-8586.388927,-1302.362347
286.211055,5033.400406,-7476.080014,-1149.143247
286.211377,3256.906145,-7550.100608,-612.876398
286.211698,962.267725,-7328.038826,383.047749
286.212020,-2146.597232,-6957.935855,1302.362347
286.212342,-5329.482782,-6365.771101,766.095498
286.212664,-6809.894666,-6735.874072,459.657299
286.212986,-7994.224174,-7105.977043,0.000000
286.213307,-7994.224174,-6883.915261,-766.095498
286.213629,-6661.853478,-7550.100608,-2757.943793
286.213951,-3552.988522,-11177.109724,-3983.696590
286.214273,518.144159,-13693.809927,-3753.867940
286.214595,2294.638420,-15100.201217,-2298.286494
286.214917,4219.173869,-15470.304188,-842.705048
286.215238,6957.935855,-14285.974681,-1225.752797
286.215560,8290.306550,-11991.336260,-2911.162892
286.215882,7920.203579,-8586.388927,-3370.820191
286.216204,6069.688724,-7476.080014,-3064.381992
286.216526,3330.926739,-7476.080014,-2374.896044
286.216847,370.102971,-8586.388927,0.000000
286.217169,-3256.906145,-8290.306550,2068.457845
286.217491,-6069.688724,-7179.997637,1762.019645
286.217813,-7476.080014,-7476.080014,-383.047749
286.218135,-8956.491898,-7994.224174,-383.047749
286.218457,-10881.027347,-7624.121203,0.000000
286.218778,-10658.965565,-6143.709319,-536.266849
286.219100,-7328.038826,-6365.771101,-3064.381992
286.219422,-3182.885551,-8882.471304,-4443.353888
286.219744,-444.123565,-10510.924376,-3447.429741
286.220066,1480.411884,-12361.439231,-2298.286494
286.220387,4441.235652,-13915.871710,-2221.676944
286.220709,7624.121203,-14582.057057,-2911.162892
286.221031,9474.636058,-12509.480420,-3294.210641
286.221353,8882.471304,-9770.718434,-1838.629195
286.221675,7402.059420,-7105.977043,-1608.800546
286.221997,4811.338623,-5921.647536,-1915.238745
286.222318,2886.803174,-5921.647536,-459.657299
286.222640,-296.082377,-6439.791695,1072.533697
286.222962,-4071.132681,-6809.894666,995.924147
286.223284,-5847.626942,-7698.141797,76.609550
286.223606,-7254.018232,-8956.491898,0.000000
286.223927,-8586.388927,-8586.388927,0.000000
286.224249,-8660.409521,-6957.935855,-995.924147
286.224571,-6587.832884,-8068.244768,-3447.429741
286.224893,-3330.926739,-11325.150913,-4136.915689
286.225215,-222.061783,-13249.686362,-3524.039291
286.225537,1924.535449,-13619.789333,-2528.115143
286.225858,4737.318029,-14508.036463,-2145.067394
286.226180,6883.915261,-14211.954086,-2221.676944
286.226502,7550.100608,-11843.295072,-2298.286494
286.226824,6735.874072,-7698.141797,-2451.505594
286.227146,4293.194464,-7105.977043,-3140.991542
286.227467,1998.556043,-8660.409521,-1991.848295
286.227789,-1554.432478,-9104.533087,0.000000
286.228111,-5107.421000,-7698.141797,1532.190996
286.228433,-7105.977043,-6661.853478,1378.971896
286.228755,-7698.141797,-7846.182985,-612.876398
286.229077,-8290.306550,-8882.471304,-383.047749
286.229398,-9918.759623,-6957.935855,459.657299
286.229720,-9178.553681,-5921.647536,0.000000
286.230042,-4885.359217,-7105.977043,-2528.115143
286.230364,-814.226536,-9548.656652,-3983.696590
286.230686,1406.391290,-11473.192101,-3140.991542
286.231007,3108.864956,-12435.459826,-1532.190996
286.231329,6661.853478,-13397.727550,-1225.752797
286.231651,9548.656652,-13027.624579,-1991.848295
286.231973,9770.718434,-11029.068536,-2451.505594
286.232295,8142.265362,-7698.141797,-1608.800546
286.232617,5551.544565,-6291.750507,-2068.457845
286.232938,3256.906145,-7402.059420,-1608.800546
286.233260,814.226536,-7550.100608,459.657299
286.233582,-2812.782580,-6587.832884,919.314598
286.233904,-4737.318029,-6587.832884,76.609550
286.234226,-6439.791695,-8068.244768,76.609550
286.234547,-7698.141797,-9178.553681,0.000000
286.234869,-9104.533087,-7846.182985,-536.266849
286.235191,-8142.265362,-7031.956449,-1838.629195
286.235513,-5403.503377,-9104.533087,-3907.087040
286.235835,-1480.411884,-11917.315666,-4136.915689
286.236156,1406.391290,-13027.624579,-3370.820191
286.236478,3849.070898,-14285.974681,-2298.286494
286.236800,7105.977043,-15396.283594,-1378.971896
286.237122,9030.512492,-13619.789333,-995.924147
286.237444,9326.594869,-10807.006753,-2604.724693
286.237766,7624.121203,-8290.306550,-2757.943793
286.238087,5181.441594,-8512.368333,-2604.724693
286.238409,1554.432478,-8808.450710,-1685.410096
286.238731,-1924.535449,-8142.265362,995.924147
286.239053,-4219.173869,-7105.977043,2068.457845
286.239375,-6513.812290,-6957.935855,0.000000
286.239696,-7698.141797,-8216.285956,-1302.362347
286.240018,-9844.739029,-8438.347739,-306.438199
286.240340,-11029.068536,-6587.832884,-153.219100
286.240662,-9474.636058,-5847.626942,-1532.190996
286.240984,-5329.482782,-8660.409521,-4749.792088
286.241306,-1480.411884,-11473.192101,-4903.011187
286.241627,814.226536,-12139.377449,-3370.820191
286.241949,2960.823768,-12953.603985,-2451.505594
286.242271,6735.874072,-13915.871710,-2451.505594
286.242593,8956.491898,-11991.336260,-2451.505594
286.242915,9326.594869,-9474.636058,-3370.820191
286.243236,8142.265362,-7105.977043,-3370.820191
286.243558,6291.750507,-7402.059420,-1762.019645
286.243880,3775.050304,-8512.368333,-459.657299
286.244202,74.020594,-7179.997637,1915.238745
286.244524,-2516.700203,-6365.771101,1838.629195
286.244846,-4811.338623,-7031.956449,0.000000
286.245167,-6883.915261,-8586.388927,-459.657299
286.245489,-8438.347739,-7179.997637,306.438199
286.245811,-8882.471304,-5329.482782,-995.924147
286.246133,-6365.771101,-6661.853478,-2911.162892
286.246455,-2368.659014,-10658.965565,-3294.210641
286.246776,592.164754,-13397.727550,-3753.867940
286.247098,3108.864956,-14063.912898,-2987.772442
286.247420,6587.832884,-14804.118840,-995.924147
286.247742,9400.615463,-13841.851115,0.000000
286.248064,9622.677246,-11991.336260,-1532.190996
286.248386,7402.059420,-8734.430116,-2451.505594
286.248707,4959.379811,-7105.977043,-3217.601092
286.249029,2072.576638,-7402.059420,-3370.820191
286.249351,-1332.370696,-8438.347739,-2068.457845
286.249673,-5181.441594,-8216.285956,1072.533697
286.249995,-7920.203579,-7994.224174,1762.019645
286.250316,-9696.697840,-9474.636058,689.485948
286.250638,-10658.965565,-9474.636058,0.000000
286.250960,-11695.253884,-6513.812290,-383.047749
286.251282,-10288.862594,-4071.132681,-2451.505594
286.251604,-7105.977043,-5773.606348,-4290.134789
286.251926,-3182.885551,-9030.512492,-4213.525239
286.252247,-444.123565,-11103.089130,-2604.724693
286.252569,2590.720797,-12657.521608,-1608.800546
286.252891,7105.977043,-14211.954086,-2298.286494
286.253213,10288.862594,-14804.118840,-3447.429741
286.253535,11325.150913,-12953.603985,-2757.943793
286.253856,10214.842000,-9474.636058,-1378.971896
286.254178,8290.306550,-7031.956449,-1149.143247
286.254500,5995.668130,-6439.791695,-1532.190996
286.254822,2294.638420,-6883.915261,76.609550
286.255144,-1924.535449,-6291.750507,995.924147
286.255466,-5255.462188,-5921.647536,153.219100
286.255787,-7254.018232,-7772.162391,0.000000
286.256109,-8882.471304,-8882.471304,459.657299
286.256431,-10436.903782,-8068.244768,76.609550
286.256753,-9992.780217,-7105.977043,-1532.190996
286.257075,-7179.997637,-8142.265362,-3294.210641
286.257396,-3478.967927,-11769.274478,-4366.744339
286.257718,-962.267725,-12731.542202,-3524.039291
286.258040,1998.556043,-13175.665768,-2145.067394
286.258362,4811.338623,-13915.871710,-1915.238745
286.258684,7476.080014,-14582.057057,-2221.676944
286.259006,8216.285956,-12805.562797,-2068.457845
286.259327,6735.874072,-9104.533087,-2528.115143
286.259649,4071.132681,-8068.244768,-2528.115143
286.259971,1702.473667,-9474.636058,-995.924147
286.260293,-1924.535449,-9252.574275,766.095498
286.260615,-5107.421000,-6883.915261,1685.410096
286.260936,-7031.956449,-5551.544565,229.828649
286.261258,-7179.997637,-6809.894666,306.438199
286.261580,-8586.388927,-8068.244768,689.485948
286.261902,-9918.759623,-6809.894666,612.876398
286.262224,-8068.244768,-7105.977043,-1149.143247
286.262545,-3923.091493,-8438.347739,-2528.115143
286.262867,-370.102971,-9400.615463,-2757.943793
286.263189,1998.556043,-10066.800811,-2911.162892
286.263511,4145.153275,-11325.150913,-2068.457845
286.263833,7476.080014,-12731.542202,-2374.896044
286.264155,9696.697840,-12509.480420,-3447.429741
286.264476,10140.821405,-11251.130318,-2834.553343
286.264798,8364.327145,-8586.388927,-1225.752797
286.265120,6217.729913,-7179.997637,-995.924147
286.265442,3552.988522,-7105.977043,-1225.752797
286.265764,814.226536,-6957.935855,-153.219100
286.266085,-2368.659014,-6439.791695,0.000000
286.266407,-5107.421000,-6809.894666,-766.095498
286.266729,-6587.832884,-9178.553681,-1072.533697
286.267051,-7846.182985,-8734.430116,0.000000
286.267373,-7994.224174,-6365.771101,-229.828649
286.267695,-6513.812290,-5995.668130,-2987.772442
286.268016,-3404.947333,-9474.636058,-4060.306139
286.268338,518.144159,-12953.603985,-4213.525239
286.268660,2368.659014,-14730.098246,-4060.306139
286.268982,4811.338623,-15766.386565,-1149.143247
286.269304,7846.182985,-14211.954086,919.314598
286.269625,9844.739029,-11991.336260,-1378.971896
286.269947,9622.677246,-9474.636058,-4136.915689
286.270269,7550.100608,-8438.347739,-4060.306139
286.270591,3997.112087,-8882.471304,-2681.334243
286.270913,0.000000,-9622.677246,-306.438199
286.271235,-3775.050304,-8586.388927,2451.505594
286.271557,-6069.688724,-6661.853478,689.485948
286.271879,-6809.894666,-7476.080014,-1991.848295
286.272201,-8660.409521,-9474.636058,-1762.019645
286.272523,-10732.986159,-8068.244768,0.000000
286.272845,-11103.089130,-5551.544565,0.000000
286.273167,-7994.224174,-6069.688724,-1838.629195
286.273488,-3849.070898,-8512.368333,-4366.744339
286.273810,-1184.329507,-11029.068536,-4903.011187
286.274132,888.247130,-12139.377449,-2911.162892
286.274454,3849.070898,-12139.377449,-1915.238745
286.274776,8068.244768,-13397.727550,-2374.896044
286.275098,9844.739029,-12509.480420,-3064.381992
286.275420,8956.491898,-10584.944971,-1838.629195
286.275742,6661.853478,-7698.141797,-1532.190996
286.276064,4293.194464,-6957.935855,-1455.581446
286.276386,1406.391290,-7328.038826,229.828649
286.276708,-1850.514855,-6365.771101,1685.410096
286.277030,-5107.421000,-5847.626942,919.314598
286.277352,-6513.812290,-7179.997637,383.047749
286.277674,-6735.874072,-8438.347739,842.705048
286.277996,-7698.141797,-7402.059420,536.266849
286.278318,-8364.327145,-6217.729913,-919.314598
286.278640,-7031.956449,-8216.285956,-2068.457845
286.278962,-3923.091493,-10807.006753,-3370.820191
286.279284,-1776.494261,-11843.295072,-3600.648841
286.279606,1110.308913,-13101.645173,-3064.381992
286.279928,4589.276840,-14656.077652,-2451.505594
286.280250,6513.812290,-14804.118840,-2221.676944
286.280572,7698.141797,-12805.562797,-1608.800546
286.280894,6365.771101,-9622.677246,-1685.410096
286.281216,4663.297435,-8808.450710,-2451.505594
286.281538,1628.453072,-9030.512492,-2911.162892
286.281860,-1480.411884,-9474.636058,-919.314598
286.282182,-4515.256246,-8808.450710,1302.362347
286.282504,-6365.771101,-7994.224174,1532.190996
286.282826,-6883.915261,-7846.182985,306.438199
286.283148,-7254.018232,-7179.997637,536.266849
286.283470,-8364.327145,-6069.688724,383.047749
286.283792,-8068.244768,-5181.441594,-612.876398
286.284114,-5107.421000,-7402.059420,-2221.676944
286.284435,-962.267725,-9696.697840,-3830.477490
286.284757,1924.535449,-11103.089130,-3524.039291
286.285079,4589.276840,-12213.398043,-1991.848295
286.285401,7105.977043,-13767.830521,-1302.362347
286.285723,9252.574275,-13767.830521,-1378.971896
286.286045,9474.636058,-11251.130318,-2298.286494
286.286367,8660.409521,-8660.409521,-2604.724693
286.286689,6069.688724,-7179.997637,-2528.115143
286.287011,3256.906145,-7772.162391,-1302.362347
286.287333,814.226536,-7254.018232,536.266849
286.287655,-1628.453072,-6217.729913,1149.143247
286.287977,-3627.009116,-6365.771101,0.000000
286.288299,-6365.771101,-7550.100608,-229.828649
286.288621,-9178.553681,-8068.244768,689.485948
286.288943,-10510.924376,-6809.894666,0.000000
286.289265,-9400.615463,-6143.709319,-2681.334243
286.289587,-5921.647536,-8512.368333,-5132.839837
286.289909,-1184.329507,-11917.315666,-5515.887586
286.290231,2368.659014,-13767.830521,-4519.963438
286.290553,6291.750507,-14211.954086,-1991.848295
286.290875,9918.759623,-14285.974681,842.705048
286.291197,11695.253884,-13841.851115,0.000000
286.291519,9474.636058,-11621.233289,-1762.019645
286.291841,5921.647536,-8882.471304,-3140.991542
286.292163,2590.720797,-8734.430116,-4136.915689
286.292485,-592.164754,-9400.615463,-2451.505594
286.292807,-3404.947333,-8068.244768,1072.533697
286.293129,-5699.585753,-5921.647536,2604.724693
286.293451,-6513.812290,-6439.791695,1838.629195
286.293773,-7550.100608,-8142.265362,76.609550
286.294095,-9178.553681,-7994.224174,-766.095498
286.294417,-9992.780217,-5329.482782,-1072.533697
286.294739,-8956.491898,-5107.421000,-2911.162892
286.295060,-5477.523971,-8734.430116,-4213.525239
286.295382,-2590.720797,-12065.356855,-3524.039291
286.295704,-740.205942,-12139.377449,-2374.896044
286.296026,2590.720797,-12287.418637,-3830.477490
286.296348,7105.977043,-13989.892304,-3983.696590
286.296670,9474.636058,-14211.954086,-3140.991542
286.296992,9030.512492,-10807.006753,-2374.896044
286.297314,7476.080014,-7254.018232,-1225.752797
286.297636,6143.709319,-7105.977043,-229.828649
286.297958,3775.050304,-8142.265362,0.000000
286.298280,0.000000,-7772.162391,842.705048
286.298602,-3478.967927,-6439.791695,1685.410096
286.298924,-4885.359217,-6513.812290,766.095498
286.299246,-4811.338623,-8068.244768,0.000000
286.299568,-5625.565159,-7772.162391,0.000000
286.299890,-6735.874072,-6069.688724,76.609550
286.300212,-5921.647536,-6513.812290,-995.924147
286.300534,-3404.947333,-10436.903782,-3294.210641
286.300856,-592.164754,-13767.830521,-4136.915689
286.301178,1110.308913,-13767.830521,-3140.991542
286.301500,3256.906145,-13027.624579,-2068.457845
286.301822,5921.647536,-14434.015869,-1685.410096
286.302144,7550.100608,-13841.851115,-2221.676944
286.302466,7254.018232,-10140.821405,-3064.381992
286.302788,4663.297435,-7402.059420,-2834.553343
286.303110,1628.453072,-8586.388927,-2298.286494
286.303432,-1480.411884,-9548.656652,-383.047749
286.303754,-4737.318029,-7846.182985,842.705048
286.304076,-7031.956449,-6143.709319,1072.533697
286.304398,-7402.059420,-7179.997637,76.609550
286.304720,-7698.141797,-8290.306550,383.047749
286.305042,-9326.594869,-7328.038826,919.314598
286.305364,-8808.450710,-5921.647536,306.438199
286.305685,-5477.523971,-6661.853478,-1685.410096
286.306007,-1776.494261,-8438.347739,-3524.039291
286.306329,370.102971,-9844.739029,-3217.601092
286.306651,2368.659014,-11029.068536,-2145.067394
286.306973,4441.235652,-13027.624579,-1608.800546
286.307295,7031.956449,-14359.995275,-2221.676944
286.307617,7920.203579,-13397.727550,-2451.505594
286.307939,7698.141797,-10362.883188,-2145.067394
286.308261,6513.812290,-7698.141797,-1302.362347
286.308583,4885.359217,-7402.059420,-1072.533697
286.308905,2220.617826,-7402.059420,229.828649
286.309227,-666.185348,-6069.688724,1991.848295
286.309549,-3923.091493,-5403.503377,1149.143247
286.309871,-5551.544565,-6809.894666,-306.438199
286.310193,-7254.018232,-7698.141797,-1532.190996
286.310515,-8882.471304,-8364.327145,-842.705048
286.310837,-9252.574275,-6957.935855,0.000000
286.311159,-7031.956449,-7772.162391,-1762.019645
286.311481,-2664.741391,-10732.986159,-4673.182538
286.311803,1332.370696,-13249.686362,-5132.839837
286.312125,2960.823768,-13545.768739,-3447.429741
286.312447,4219.173869,-14508.036463,-919.314598
286.312769,5921.647536,-14211.954086,76.609550
286.313091,6735.874072,-11843.295072,-1762.019645
286.313413,5699.585753,-8734.430116,-3753.867940
286.313735,4589.276840,-8956.491898,-4060.306139
286.314057,1998.556043,-9770.718434,-1838.629195
286.314379,-888.247130,-9474.636058,689.485948
286.314701,-2664.741391,-7624.121203,2604.724693
286.315023,-3478.967927,-6291.750507,2221.676944
286.315345,-4959.379811,-6587.832884,-306.438199
286.315667,-6883.915261,-7698.141797,-995.924147
286.315989,-8734.430116,-7105.977043,-383.047749
286.316311,-8512.368333,-7031.956449,-842.705048
286.316632,-5255.462188,-8660.409521,-2221.676944
286.316954,-888.247130,-11177.109724,-3140.991542
286.317276,1850.514855,-11695.253884,-2987.772442
286.317598,4071.132681,-11103.089130,-2145.067394
286.317920,6587.832884,-12213.398043,-1532.190996
286.318242,8882.471304,-12879.583391,-1455.581446
286.318564,8364.327145,-10362.883188,-2604.724693
286.318886,6809.894666,-7994.224174,-2528.115143
286.319208,4959.379811,-7328.038826,-1608.800546
286.319530,2812.782580,-7624.121203,-919.314598
286.319852,-148.041188,-7698.141797,229.828649
286.320174,-3256.906145,-7105.977043,1072.533697
286.320496,-5181.441594,-7031.956449,919.314598
286.320818,-6217.729913,-7698.141797,-995.924147
286.321140,-7476.080014,-9104.533087,-1838.629195
286.321462,-8364.327145,-7402.059420,-1072.533697
286.321784,-6957.935855,-6291.750507,-2528.115143
286.322106,-3849.070898,-8586.388927,-3983.696590
286.322428,296.082377,-11843.295072,-4903.011187
286.322750,2960.823768,-14434.015869,-3447.429741
286.323072,4737.318029,-15544.324782,-1762.019645
286.323394,7624.121203,-14804.118840,612.876398
286.323716,9696.697840,-11843.295072,0.000000
286.324038,9622.677246,-8660.409521,-2911.162892
286.324360,7920.203579,-7920.203579,-3447.429741
286.324682,4589.276840,-8512.368333,-1685.410096
286.325004,370.102971,-8882.471304,-612.876398
286.325326,-3108.864956,-8734.430116,919.314598
286.325648,-5255.462188,-7624.121203,1532.190996
286.325970,-7105.977043,-7179.997637,-306.438199
286.326292,-9400.615463,-7994.224174,-1608.800546
286.326614,-10658.965565,-7476.080014,-1225.752797
286.326936,-10436.903782,-5847.626942,-1532.190996
286.327257,-7624.121203,-6069.688724,-2604.724693
286.327579,-4145.153275,-8956.491898,-4060.306139
286.327901,-2072.576638,-11991.336260,-3370.820191
286.328223,-148.041188,-12213.398043,-2221.676944
286.328545,2590.720797,-12213.398043,-2757.943793
286.328867,6439.791695,-12657.521608,-3600.648841
286.329189,8882.471304,-12361.439231,-3217.601092
286.329511,7772.162391,-10362.883188,-1991.848295
286.329833,6069.688724,-7772.162391,-689.485948
286.330155,4737.318029,-6661.853478,153.219100
286.330477,2664.741391,-6883.915261,229.828649
286.330799,-148.041188,-7105.977043,383.047749
286.331121,-3701.029710,-6217.729913,306.438199
286.331443,-5551.544565,-6957.935855,-306.438199
286.331765,-6291.750507,-8512.368333,-153.219100
286.332087,-7254.018232,-9400.615463,-229.828649
286.332409,-7550.100608,-9326.594869,-995.924147
286.332731,-5699.585753,-8364.327145,-1762.019645
286.333053,-2886.803174,-9918.759623,-3140.991542
286.333375,-370.102971,-13175.665768,-3830.477490
286.333697,1332.370696,-14063.912898,-1838.629195
286.334019,3256.906145,-12657.521608,-919.314598
286.334341,5551.544565,-11843.295072,-1991.848295
286.334663,6661.853478,-11843.295072,-2451.505594
286.334985,6735.874072,-10066.800811,-2374.896044
286.335307,4737.318029,-7994.224174,-3064.381992
286.335629,2072.576638,-8734.430116,-1762.019645
286.335951,-592.164754,-9844.739029,1762.019645
286.336273,-4071.132681,-8438.347739,3217.601092
286.336595,-6883.915261,-6513.812290,383.047749
286.336917,-7698.141797,-6661.853478,-1762.019645
286.337239,-7772.162391,-8142.265362,-1685.410096
286.337561,-8808.450710,-7476.080014,-306.438199
286.337883,-8290.306550,-6291.750507,-766.095498
286.338204,-4145.153275,-7476.080014,-1915.238745
286.338526,-296.082377,-9696.697840,-2451.505594
286.338848,1110.308913,-11547.212695,-2451.505594
286.339170,2220.617826,-12435.459826,-2221.676944
286.339492,4885.359217,-12509.480420,-2298.286494
286.339814,8364.327145,-11843.295072,-2987.772442
286.340136,9548.656652,-10584.944971,-2528.115143
286.340458,8512.368333,-8438.347739,-383.047749
286.340780,6217.729913,-6513.812290,0.000000
286.341102,3775.050304,-7476.080014,-689.485948
286.341424,962.267725,-8438.347739,-306.438199
286.341746,-1924.535449,-7624.121203,76.609550
286.342068,-3775.050304,-7772.162391,-1378.971896
286.342390,-5255.462188,-9104.533087,-1532.190996
286.342712,-7179.997637,-9474.636058,919.314598
286.343034,-9104.533087,-7254.018232,1762.019645
286.343356,-8290.306550,-5329.482782,-1378.971896
286.343678,-4441.235652,-8142.265362,-5822.325785
286.344000,0.000000,-12213.398043,-6818.249932
286.344322,2368.659014,-14434.015869,-3447.429741
286.344644,3997.112087,-15100.201217,153.219100
286.344966,7105.977043,-13915.871710,2528.115143
286.345288,9548.656652,-11177.109724,459.657299
286.345610,9030.512492,-8586.388927,-3830.477490
286.345932,6735.874072,-8216.285956,-5056.230287
286.346254,4219.173869,-9326.594869,-3447.429741
286.346576,888.247130,-9326.594869,-536.266849
286.346898,-2072.576638,-8290.306550,2374.896044
286.347220,-3997.112087,-6883.915261,3294.210641
286.347542,-5329.482782,-6735.874072,0.000000
286.347864,-7476.080014,-7994.224174,-2911.162892
286.348186,-9548.656652,-8808.450710,-2068.457845
286.348508,-9918.759623,-7476.080014,-459.657299
286.348829,-8808.450710,-6883.915261,-1455.581446
286.349151,-5699.585753,-8808.450710,-3677.258390
286.349473,-2146.597232,-10732.986159,-3983.696590
286.349795,518.144159,-11103.089130,-3447.429741
286.350117,2442.679609,-11251.130318,-3753.867940
286.350439,5329.482782,-12435.459826,-3370.820191
286.350761,7624.121203,-11843.295072,-2374.896044
286.351083,8290.306550,-9844.739029,-2221.676944
286.351405,7698.141797,-8142.265362,-2221.676944
286.351727,6661.853478,-7476.080014,-1302.362347
286.352049,3701.029710,-8438.347739,-842.705048
286.352371,-222.061783,-8586.388927,1532.190996
286.352693,-3478.967927,-7698.141797,2145.067394
286.353015,-4663.297435,-7550.100608,-383.047749
286.353337,-4811.338623,-7698.141797,-1455.581446
286.353659,-6365.771101,-7698.141797,-995.924147
286.353981,-7402.059420,-6439.791695,-459.657299
286.354303,-6291.750507,-6883.915261,-1608.800546
286.354625,-3627.009116,-10510.924376,-3600.648841
286.354947,-1184.329507,-14211.954086,-4136.915689
286.355269,740.205942,-14730.098246,-3370.820191
286.355591,2368.659014,-13471.748144,-1685.410096
286.355913,5625.565159,-12731.542202,-1991.848295
286.356235,7105.977043,-11769.274478,-2298.286494
286.356557,6957.935855,-8586.388927,-2681.334243
286.356879,5033.400406,-7550.100608,-2374.896044
286.357201,2368.659014,-9474.636058,-2834.553343
286.357523,-1258.350101,-10436.903782,-383.047749
286.357845,-4589.276840,-8956.491898,1685.410096
286.358167,-6365.771101,-7031.956449,1455.581446
286.358489,-6661.853478,-7624.121203,-536.266849
286.358811,-6809.894666,-8438.347739,-766.095498
286.359133,-8808.450710,-7254.018232,76.609550
286.359455,-8660.409521,-5625.565159,0.000000
286.359776,-5551.544565,-6291.750507,-1838.629195
286.360098,-1480.411884,-9252.574275,-2757.943793
286.360420,666.185348,-10732.986159,-2528.115143
286.360742,1776.494261,-11029.068536,-1608.800546
286.361064,4145.153275,-12583.501014,-1532.190996
286.361386,7179.997637,-12657.521608,-1608.800546
286.361708,8660.409521,-11473.192101,-2757.943793
286.362030,8438.347739,-9622.677246,-2604.724693
286.362352,6439.791695,-8216.285956,-229.828649
286.362674,3997.112087,-7698.141797,153.219100
286.362996,666.185348,-6957.935855,459.657299
286.363318,-2220.617826,-5995.668130,1225.752797
286.363640,-4293.194464,-5847.626942,-842.705048
286.363962,-5255.462188,-7402.059420,-2987.772442
286.364284,-6661.853478,-9918.759623,-1455.581446
286.364606,-8364.327145,-9474.636058,1762.019645
286.364928,-8364.327145,-7624.121203,1455.581446
286.365250,-5403.503377,-8142.265362,-2604.724693
286.365572,-1184.329507,-11103.089130,-5362.668486
286.365894,1480.411884,-12879.583391,-5592.497135
286.366216,2516.700203,-14211.954086,-2374.896044
286.366538,4663.297435,-13619.789333,536.266849
286.366860,7328.038826,-11843.295072,612.876398
286.367182,8660.409521,-10288.862594,-1915.238745
286.367504,7624.121203,-8364.327145,-3524.039291
286.367826,5625.565159,-8660.409521,-3524.039291
286.368148,2442.679609,-9844.739029,-1838.629195
286.368470,-1036.288319,-9844.739029,1532.190996
286.368792,-3552.988522,-7698.141797,3600.648841
286.369114,-4737.318029,-6439.791695,689.485948
286.369436,-5699.585753,-7772.162391,-2451.505594
286.369758,-7920.203579,-8290.306550,-2681.334243
286.370080,-9844.739029,-7179.997637,-612.876398
286.370401,-9326.594869,-6809.894666,-306.438199
286.370723,-5921.647536,-8438.347739,-1762.019645
286.371045,-2220.617826,-10881.027347,-3753.867940
286.371367,296.082377,-11177.109724,-3217.601092
286.371689,2368.659014,-11177.109724,-2911.162892
286.372011,5699.585753,-11843.295072,-2834.553343
286.372333,8734.430116,-11769.274478,-3140.991542
286.372655,9400.615463,-9918.759623,-2681.334243
286.372977,7994.224174,-7254.018232,-1302.362347
286.373299,5995.668130,-7031.956449,-919.314598
286.373621,2738.761985,-8142.265362,-1378.971896
286.373943,-740.205942,-8438.347739,-383.047749
286.374265,-3849.070898,-7402.059420,0.000000
286.374587,-5477.523971,-7994.224174,-1608.800546
286.374909,-5773.606348,-10288.862594,-1838.629195
286.375231,-7031.956449,-10362.883188,-306.438199
286.375553,-7994.224174,-7105.977043,766.095498
286.375875,-6661.853478,-5329.482782,-1149.143247
286.376197,-3330.926739,-8290.306550,-4443.353888
286.376519,-370.102971,-11769.274478,-5439.278036
286.376841,1110.308913,-14434.015869,-3907.087040
286.377163,2368.659014,-14878.139434,-995.924147
286.377485,5255.462188,-14137.933492,536.266849
286.377807,7920.203579,-11621.233289,-536.266849
286.378129,8068.244768,-9252.574275,-3677.258390
286.378450,6587.832884,-7698.141797,-4290.134789
286.378772,4071.132681,-8808.450710,-2834.553343
286.379094,518.144159,-9918.759623,-766.095498
286.379416,-2664.741391,-9030.512492,1762.019645
286.379738,-4589.276840,-6957.935855,2298.286494
286.380060,-5921.647536,-7846.182985,-766.095498
286.380382,-7328.038826,-9474.636058,-2068.457845
286.380704,-8956.491898,-8364.327145,-612.876398
286.381026,-9178.553681,-6069.688724,0.000000
286.381348,-6735.874072,-6143.709319,-1378.971896
286.381670,-2516.700203,-8290.306550,-2757.943793
286.381992,148.041188,-10140.821405,-2834.553343
286.382314,1850.514855,-10584.944971,-2298.286494
286.382636,4145.153275,-11843.295072,-1762.019645
286.382958,7031.956449,-13101.645173,-1455.581446
286.383280,8290.306550,-12213.398043,-1685.410096
286.383602,7550.100608,-9696.697840,-1685.410096
286.383924,7105.977043,-7846.182985,-1532.190996
286.384246,6143.709319,-7698.141797,-1302.362347
286.384568,3182.885551,-8216.285956,-766.095498
286.384889,-518.144159,-7846.182985,1149.143247
286.385211,-4293.194464,-7254.018232,1455.581446
286.385533,-5995.668130,-8364.327145,-383.047749
286.385855,-7031.956449,-9474.636058,-1072.533697
286.386177,-7846.182985,-8438.347739,-842.705048
286.386499,-7846.182985,-6883.915261,-1225.752797
286.386821,-5551.544565,-7328.038826,-2451.505594
286.387143,-3256.906145,-9474.636058,-1915.238745
286.387465,-1332.370696,-11621.233289,-2145.067394
286.387787,592.164754,-12657.521608,-1762.019645
286.388109,3256.906145,-13397.727550,-1991.848295
286.388431,5995.668130,-12805.562797,-2451.505594
286.388753,7994.224174,-11251.130318,-2145.067394
286.389075,8364.327145,-9400.615463,-1915.238745
286.389397,6809.894666,-8216.285956,-1608.800546
286.389719,3849.070898,-8956.491898,-995.924147
286.390041,-222.061783,-9252.574275,76.609550
286.390363,-3997.112087,-8364.327145,766.095498
286.390685,-6883.915261,-7698.141797,-766.095498
286.391007,-8512.368333,-8142.265362,-2298.286494
286.391328,-9918.759623,-8586.388927,-1455.581446
286.391650,-9992.780217,-7772.162391,-306.438199
286.391972,-7994.224174,-6661.853478,-1838.629195
286.392294,-4367.215058,-7550.100608,-3140.991542
286.392616,-1776.494261,-9622.677246,-2604.724693
286.392938,-518.144159,-11177.109724,-1532.190996
286.393260,1110.308913,-11621.233289,-1149.143247
286.393582,4589.276840,-11621.233289,-2911.162892
286.393904,7994.224174,-11843.295072,-4826.401637
286.394226,9474.636058,-11325.150913,-3677.258390
286.394548,8142.265362,-8808.450710,-842.705048
286.394870,5699.585753,-7105.977043,306.438199
286.395192,3552.988522,-7846.182985,229.828649
286.395514,740.205942,-8808.450710,-306.438199
286.395836,-4367.215058,-7476.080014,-612.876398
286.396158,-7698.141797,-6143.709319,-1838.629195
286.396480,-8808.450710,-7476.080014,-1991.848295
286.396802,-8290.306550,-9622.677246,-1608.800546
286.397124,-8142.265362,-9252.574275,-995.924147
286.397446,-7105.977043,-8734.430116,-1685.410096
286.397768,-4737.318029,-9622.677246,-1915.238745
286.398089,-1850.514855,-11251.130318,-2987.772442
286.398411,444.123565,-12287.418637,-3370.820191
286.398733,2516.700203,-12213.398043,-2298.286494
286.399055,5255.462188,-11843.295072,-1991.848295
286.399377,7698.141797,-11917.315666,-1915.238745
286.399699,9252.574275,-11103.089130,-1455.581446
286.400021,9252.574275,-9844.739029,-1225.752797
286.400343,7772.162391,-9400.615463,-1302.362347
286.400665,3997.112087,-8734.430116,689.485948
286.400987,-592.164754,-8882.471304,2145.067394
286.401309,-4367.215058,-6439.791695,1915.238745
286.401631,-6365.771101,-5255.462188,-1149.143247
286.401953,-7476.080014,-6809.894666,-2911.162892
286.402275,-8660.409521,-9030.512492,-1685.410096
286.402597,-8882.471304,-9474.636058,-536.266849
286.402919,-7105.977043,-8290.306550,-1072.533697
286.403241,-2960.823768,-8734.430116,-2145.067394
286.403563,148.041188,-10436.903782,-2757.943793
286.403885,1406.391290,-11103.089130,-2374.896044
286.404207,2442.679609,-9992.780217,-2221.676944
286.404528,5847.626942,-10436.903782,-2834.553343
286.404850,8734.430116,-11325.150913,-3294.210641
286.405172,9400.615463,-10732.986159,-2068.457845
286.405494,7624.121203,-8956.491898,0.000000
286.405816,5477.523971,-8068.244768,1072.533697
286.406138,2960.823768,-8512.368333,612.876398
286.406460,666.185348,-7846.182985,459.657299
286.406782,-2146.597232,-6439.791695,-1455.581446
286.407104,-3627.009116,-7254.018232,-2987.772442
286.407426,-5033.400406,-10140.821405,-536.266849
286.407748,-7179.997637,-8808.450710,2757.943793
286.408070,-8290.306550,-6291.750507,766.095498
286.408392,-6069.688724,-7179.997637,-3753.867940
286.408714,-1924.535449,-11473.192101,-6281.983084
286.409036,74.020594,-14804.118840,-5439.278036
286.409358,222.061783,-15396.283594,-1685.410096
286.409680,2072.576638,-13101.645173,1915.238745
286.410002,5625.565159,-10732.986159,612.876398
286.410324,8216.285956,-9030.512492,-4596.572988
286.410646,7994.224174,-8216.285956,-6588.421283
286.410967,5625.565159,-8438.347739,-3140.991542
286.411289,1406.391290,-9104.533087,-383.047749
286.411611,-2516.700203,-9474.636058,2911.162892
286.411933,-5033.400406,-8586.388927,3524.039291
286.412255,-7402.059420,-7105.977043,-842.705048
286.412577,-9178.553681,-7328.038826,-3983.696590
286.412899,-10658.965565,-7550.100608,-3064.381992
286.413221,-11251.130318,-8068.244768,-229.828649
286.413543,-8808.450710,-7105.977043,-153.219100
286.413865,-5033.400406,-7105.977043,-2298.286494
286.414187,-1628.453072,-9400.615463,-3294.210641
286.414509,222.061783,-10510.924376,-3447.429741
286.414831,1258.350101,-11251.130318,-2528.115143
286.415153,3701.029710,-11769.274478,-3294.210641
286.415475,6957.935855,-12657.521608,-3447.429741
286.415797,8512.368333,-12805.562797,-1991.848295
286.416119,7476.080014,-10807.006753,229.828649
286.416441,7031.956449,-7772.162391,153.219100
286.416763,5181.441594,-6587.832884,-766.095498
286.417085,2146.597232,-7105.977043,-229.828649
286.417406,-2368.659014,-6809.894666,995.924147
286.417728,-5551.544565,-6365.771101,0.000000
286.418050,-7031.956449,-7624.121203,-1532.190996
286.418372,-7031.956449,-10140.821405,-919.314598
286.418694,-7994.224174,-9104.533087,-766.095498
286.419016,-8364.327145,-7846.182985,-1455.581446
286.419338,-6143.709319,-8956.491898,-2145.067394
286.419660,-2738.761985,-11029.068536,-3294.210641
286.419982,-888.247130,-12953.603985,-3830.477490
286.420304,740.205942,-12879.583391,-2451.505594
286.420626,3404.947333,-12657.521608,-1762.019645
286.420948,6143.709319,-11991.336260,-2145.067394
286.421270,7772.162391,-11029.068536,-2145.067394
286.421592,7550.100608,-8956.491898,-1608.800546
286.421914,5995.668130,-8808.450710,-1685.410096
286.422236,3478.967927,-9326.594869,-612.876398
286.422558,148.041188,-8660.409521,1915.238745
286.422880,-2368.659014,-6365.771101,1685.410096
286.423202,-3627.009116,-5847.626942,-229.828649
286.423524,-5329.482782,-7550.100608,-1302.362347
286.423845,-7105.977043,-8586.388927,459.657299
286.424167,-8068.244768,-8216.285956,842.705048
286.424489,-6143.709319,-8290.306550,-766.095498
286.424811,-2220.617826,-9104.533087,-2451.505594
286.425133,444.123565,-10066.800811,-2987.772442
286.425455,1110.308913,-10955.047942,-2374.896044
286.425777,2960.823768,-10584.944971,-1302.362347
286.426099,5551.544565,-10288.862594,-2374.896044
286.426421,8142.265362,-10140.821405,-3524.039291
286.426743,9252.574275,-9696.697840,-2681.334243
286.427065,7698.141797,-9030.512492,-1838.629195
286.427387,5477.523971,-8808.450710,-689.485948
286.427709,2738.761985,-9178.553681,229.828649
286.428031,-296.082377,-8290.306550,536.266849
286.428353,-3256.906145,-6809.894666,-459.657299
286.428675,-4145.153275,-7402.059420,-3140.991542
286.428997,-5625.565159,-9030.512492,-2757.943793
286.429319,-7031.956449,-9474.636058,612.876398
286.429641,-7698.141797,-7550.100608,1685.410096
286.429963,-6069.688724,-6883.915261,-1685.410096
286.430285,-2516.700203,-9992.780217,-4979.620737
286.430606,0.000000,-13027.624579,-5362.668486
286.430928,888.247130,-14211.954086,-2911.162892
286.431250,2368.659014,-13323.706956,-153.219100
286.431572,5773.606348,-11843.295072,0.000000
286.431894,8512.368333,-10658.965565,-1915.238745
286.432216,9104.533087,-9918.759623,-3983.696590
286.432538,6735.874072,-8882.471304,-3524.039291
286.432860,3256.906145,-9474.636058,-1378.971896
286.433182,-888.247130,-10436.903782,919.314598
286.433504,-4293.194464,-9474.636058,1685.410096
286.433826,-6883.915261,-6957.935855,-612.876398
286.434148,-9252.574275,-7179.997637,-3370.820191
286.434470,-10584.944971,-8364.327145,-2451.505594
286.434792,-11251.130318,-7402.059420,-1455.581446
286.435114,-9474.636058,-6365.771101,-1685.410096
286.435436,-5699.585753,-7402.059420,-2604.724693
286.435758,-2590.720797,-10140.821405,-2604.724693
286.436080,-1332.370696,-11473.192101,-1838.629195
286.436402,592.164754,-11029.068536,-1915.238745
286.436724,4293.194464,-10881.027347,-3600.648841
286.437045,8068.244768,-11621.233289,-4673.182538
286.437367,9178.553681,-12213.398043,-2451.505594
286.437689,7698.141797,-9252.574275,689.485948
286.438011,6291.750507,-6439.791695,995.924147
286.438333,5551.544565,-6587.832884,-459.657299
286.438655,2812.782580,-8216.285956,-689.485948
286.438977,-1924.535449,-7328.038826,383.047749
286.439299,-5699.585753,-6217.729913,459.657299
286.439621,-6661.853478,-7254.018232,-383.047749
286.439943,-5995.668130,-9474.636058,-1302.362347
286.440265,-6291.750507,-9474.636058,-1838.629195
286.440587,-6661.853478,-9252.574275,-1762.019645
286.440909,-5847.626942,-9696.697840,-1991.848295
286.441231,-3627.009116,-11325.150913,-1991.848295
286.441553,-1258.350101,-11991.336260,-2834.553343
286.441875,962.267725,-11991.336260,-3447.429741
286.442197,4367.215058,-12065.356855,-3983.696590
286.442519,7402.059420,-12065.356855,-2451.505594
286.442841,8660.409521,-10510.924376,-919.314598
286.443163,8512.368333,-8364.327145,-306.438199
286.443484,7105.977043,-8142.265362,-919.314598
286.443806,3775.050304,-9918.759623,-919.314598
286.444128,-888.247130,-9548.656652,1072.533697
286.444450,-4811.338623,-7994.224174,1225.752797
286.444772,-6809.894666,-7031.956449,-306.438199
286.445094,-7402.059420,-8216.285956,-1225.752797
286.445416,-8512.368333,-8882.471304,-689.485948
286.445738,-9030.512492,-8216.285956,306.438199
286.446060,-6809.894666,-7624.121203,-766.095498
286.446382,-3256.906145,-7846.182985,-2757.943793
286.446704,-666.185348,-10214.842000,-3064.381992
286.447026,222.061783,-11695.253884,-1378.971896
286.447348,1406.391290,-11103.089130,-995.924147
286.447670,4663.297435,-10732.986159,-1762.019645
286.447992,7550.100608,-11103.089130,-3064.381992
286.448314,8142.265362,-9992.780217,-1915.238745
286.448636,7179.997637,-7846.182985,-229.828649
286.448958,5773.606348,-7328.038826,0.000000
286.449280,4737.318029,-8438.347739,0.000000
286.449602,1406.391290,-8734.430116,0.000000
286.449923,-2368.659014,-7624.121203,-689.485948
286.450245,-5033.400406,-7402.059420,-1072.533697
286.450567,-6587.832884,-8068.244768,-689.485948
286.450889,-7550.100608,-8808.450710,-689.485948
286.451211,-8586.388927,-7846.182985,-1225.752797
286.451533,-7772.162391,-7772.162391,-1685.410096
286.451855,-5181.441594,-8956.491898,-3217.601092
286.452177,-2368.659014,-12287.418637,-3830.477490
286.452499,-222.061783,-14211.954086,-2604.724693
286.452821,2220.617826,-13101.645173,-1455.581446
286.453143,4589.276840,-11621.233289,-995.924147
286.453465,6809.894666,-11177.109724,-995.924147
286.453787,7698.141797,-9178.553681,-1532.190996
286.454109,6809.894666,-6735.874072,-3447.429741
286.454431,5255.462188,-7994.224174,-2834.553343
286.454753,2738.761985,-10288.862594,-306.438199
286.455075,-1258.350101,-10732.986159,1608.800546
286.455397,-4589.276840,-8660.409521,995.924147
286.455719,-5773.606348,-7920.203579,-1302.362347
286.456041,-6661.853478,-8290.306550,-2451.505594
286.456363,-7698.141797,-8142.265362,-2604.724693
286.456684,-8734.430116,-7105.977043,-2221.676944
286.457006,-6587.832884,-7179.997637,-2528.115143
286.457328,-2442.679609,-9474.636058,-2604.724693
286.457650,148.041188,-11695.253884,-1991.848295
286.457972,1850.514855,-12213.398043,-1225.752797
286.458294,4071.132681,-10510.924376,-1685.410096
286.458616,7328.038826,-10140.821405,-2681.334243
286.458938,9474.636058,-9622.677246,-2451.505594
286.459260,9622.677246,-8068.244768,-1685.410096
286.459582,8142.265362,-6365.771101,-1149.143247
286.459904,6143.709319,-7550.100608,-842.705048
286.460226,3256.906145,-9548.656652,229.828649
286.460548,-592.164754,-9622.677246,459.657299
286.460870,-4071.132681,-8660.409521,-766.095498
286.461192,-5847.626942,-8956.491898,-1991.848295
286.461514,-6735.874072,-10214.842000,-1991.848295
286.461836,-8290.306550,-9030.512492,-1302.362347
286.462158,-8364.327145,-7031.956449,-1455.581446
286.462480,-6809.894666,-6957.935855,-3217.601092
286.462802,-4219.173869,-10362.883188,-4060.306139
286.463123,-1702.473667,-12953.603985,-2221.676944
286.463445,74.020594,-14063.912898,-842.705048
286.463767,2368.659014,-12953.603985,-383.047749
286.464089,5921.647536,-11251.130318,229.828649
286.464411,8364.327145,-9474.636058,-612.876398
286.464733,8586.388927,-6957.935855,-2451.505594
286.465055,7550.100608,-7105.977043,-2451.505594
286.465377,4515.256246,-8882.471304,-842.705048
286.465699,-222.061783,-10140.821405,1455.581446
286.466021,-4145.153275,-9622.677246,2374.896044
286.466343,-6587.832884,-8364.327145,-229.828649
286.466665,-8216.285956,-8808.450710,-2987.772442
286.466987,-10214.842000,-9696.697840,-2451.505594
286.467309,-11103.089130,-8216.285956,-1072.533697
286.467631,-9844.739029,-5329.482782,-1225.752797
286.467953,-6069.688724,-6365.771101,-3217.601092
286.468275,-2664.741391,-10510.924376,-3447.429741
286.468597,-1258.350101,-12509.480420,-1991.848295
286.468919,-222.061783,-11103.089130,-1608.800546
286.469241,3404.947333,-11103.089130,-2145.067394
286.469562,7328.038826,-11843.295072,-1685.410096
286.469884,8364.327145,-10732.986159,-1149.143247
286.470206,7254.018232,-7328.038826,0.000000
286.470528,6291.750507,-5921.647536,229.828649
286.470850,5921.647536,-6365.771101,-229.828649
286.471172,3404.947333,-7179.997637,-689.485948
286.471494,-1036.288319,-7476.080014,76.609550
286.471816,-4959.379811,-7624.121203,766.095498
286.472138,-6143.709319,-8808.450710,0.000000
286.472460,-6587.832884,-10732.986159,-1991.848295
286.472782,-7031.956449,-9992.780217,-2834.553343
286.473104,-6513.812290,-9104.533087,-2987.772442
286.473426,-4959.379811,-9400.615463,-1915.238745
286.473748,-2738.761985,-11843.295072,-1225.752797
286.474070,-296.082377,-12139.377449,-1072.533697
286.474392,1924.535449,-11621.233289,-2757.943793
286.474714,4663.297435,-11473.192101,-2757.943793
286.475036,6809.894666,-11917.315666,-1455.581446
286.475358,7920.203579,-9622.677246,-459.657299
286.475680,8142.265362,-7254.018232,-842.705048
286.476002,7772.162391,-7105.977043,-1378.971896
286.476323,4959.379811,-9030.512492,-383.047749
286.476645,222.061783,-9844.739029,459.657299
286.476967,-4367.215058,-8956.491898,1072.533697
286.477289,-6661.853478,-8734.430116,-689.485948
286.477611,-7328.038826,-9104.533087,-2451.505594
286.477933,-8364.327145,-9474.636058,-2681.334243
286.478255,-8586.388927,-8660.409521,-2221.676944
286.478577,-6587.832884,-7698.141797,-2451.505594
286.478899,-3182.885551,-9030.512492,-2374.896044
286.479221,-1480.411884,-11547.212695,-2145.067394
286.479543,-444.123565,-12139.377449,-1072.533697
286.479865,1924.535449,-10288.862594,-2374.896044
286.480187,5921.647536,-9696.697840,-2757.943793
286.480509,8882.471304,-9622.677246,-2068.457845
286.480831,9918.759623,-7402.059420,-766.095498
286.481153,8882.471304,-5181.441594,-153.219100
286.481475,7031.956449,-5847.626942,459.657299
286.481797,4293.194464,-8734.430116,153.219100
286.482119,148.041188,-9474.636058,-689.485948
286.482441,-4219.173869,-8734.430116,-1455.581446
286.482763,-6587.832884,-9030.512492,-2145.067394
286.483085,-6883.915261,-10288.862594,-2374.896044
286.483407,-7105.977043,-9622.677246,-2451.505594
286.483729,-7402.059420,-8068.244768,-2451.505594
286.484050,-6439.791695,-7698.141797,-2145.067394
286.484372,-4293.194464,-10140.821405,-2221.676944
286.484694,-2960.823768,-12731.542202,-3064.381992
286.485016,-814.226536,-13175.665768,-2528.115143
286.485338,1776.494261,-12139.377449,-1455.581446
286.485660,5033.400406,-10510.924376,-689.485948
286.485982,7254.018232,-9844.739029,-842.705048
286.486304,8290.306550,-8216.285956,-1225.752797
286.486626,8364.327145,-7179.997637,-1532.190996
286.486948,6069.688724,-7920.203579,-1149.143247
286.487270,1628.453072,-9918.759623,459.657299
286.487592,-3108.864956,-9696.697840,1302.362347
286.487914,-6439.791695,-8660.409521,76.609550
286.488236,-8068.244768,-8290.306550,-2451.505594
286.488558,-9400.615463,-9030.512492,-2681.334243
286.488880,-10436.903782,-9104.533087,-1762.019645
286.489202,-9844.739029,-7476.080014,-2298.286494
286.489524,-6735.874072,-7179.997637,-3140.991542
286.489846,-2812.782580,-9696.697840,-3217.601092
286.490168,-592.164754,-11843.295072,-2681.334243
286.490490,814.226536,-10807.006753,-2298.286494
286.490812,3627.009116,-9400.615463,-2528.115143
286.491134,7179.997637,-10658.965565,-1838.629195
286.491456,8660.409521,-10732.986159,-1378.971896
286.491777,7550.100608,-8438.347739,-306.438199
286.492099,6291.750507,-6069.688724,0.000000
286.492421,5255.462188,-6957.935855,-306.438199
286.492743,2960.823768,-8364.327145,-612.876398
286.493065,-740.205942,-8882.471304,-689.485948
286.493387,-4145.153275,-8290.306550,-229.828649
286.493709,-5773.606348,-8808.450710,-459.657299
286.494031,-6809.894666,-10288.862594,-842.705048
286.494353,-8068.244768,-9622.677246,-1455.581446
286.494675,-8290.306550,-7920.203579,-2145.067394
286.494997,-6587.832884,-8734.430116,-3140.991542
286.495319,-2886.803174,-11843.295072,-2757.943793
286.495641,-296.082377,-13249.686362,-1838.629195
286.495963,1776.494261,-12139.377449,-1072.533697
286.496285,3997.112087,-10881.027347,-612.876398
286.496607,6957.935855,-11325.150913,-612.876398
286.496929,7920.203579,-9696.697840,-1685.410096
286.497251,6661.853478,-7105.977043,-2221.676944
286.497573,4737.318029,-6957.935855,-1532.190996
286.497895,2220.617826,-9326.594869,689.485948
286.498217,-1332.370696,-9844.739029,1685.410096
286.498539,-4515.256246,-9400.615463,995.924147
286.498861,-6809.894666,-9030.512492,-229.828649
286.499183,-7698.141797,-9400.615463,-1455.581446
286.499504,-8734.430116,-8512.368333,-1225.752797
286.499826,-9104.533087,-5847.626942,-2068.457845
286.500148,-7402.059420,-6291.750507,-3217.601092
286.500470,-3775.050304,-9400.615463,-3294.210641
286.500792,-1258.350101,-12435.459826,-2451.505594
286.501114,148.041188,-12509.480420,-1149.143247
286.501436,3182.885551,-10584.944971,-383.047749
286.501758,7328.038826,-10510.924376,-1302.362347
286.502080,9696.697840,-10140.821405,-1915.238745
286.502402,9474.636058,-8142.265362,-1225.752797
286.502724,8364.327145,-5329.482782,0.000000
286.503046,7105.977043,-4737.318029,-766.095498
286.503368,4959.379811,-8068.244768,-229.828649
286.503690,1258.350101,-9252.574275,153.219100
286.504012,-2664.741391,-8364.327145,0.000000
286.504334,-5181.441594,-8808.450710,-919.314598
286.504656,-6735.874072,-10288.862594,-842.705048
286.504978,-8438.347739,-9844.739029,-536.266849
286.505300,-8882.471304,-7402.059420,-2681.334243
286.505622,-7031.956449,-7624.121203,-4443.353888
286.505944,-3552.988522,-10288.862594,-3753.867940
286.506266,-592.164754,-12583.501014,-2987.772442
286.506588,740.205942,-13249.686362,-2528.115143
286.506910,3923.091493,-13619.789333,-1149.143247
286.507231,6957.935855,-12731.542202,-229.828649
286.507553,8586.388927,-11029.068536,-1378.971896
286.507875,7920.203579,-8216.285956,-1991.848295
286.508197,5847.626942,-5995.668130,-1378.971896
286.508519,4367.215058,-6809.894666,-1302.362347
286.508841,1184.329507,-7772.162391,-689.485948
286.509163,-2368.659014,-8734.430116,153.219100
286.509485,-5699.585753,-8364.327145,-153.219100
286.509807,-8216.285956,-8808.450710,-1302.362347
286.510129,-9770.718434,-9992.780217,-1149.143247
286.510451,-10732.986159,-10140.821405,-1991.848295
286.510773,-9992.780217,-8290.306550,-3064.381992
286.511095,-7402.059420,-7994.224174,-4596.572988
286.511417,-3849.070898,-10658.965565,-3907.087040
286.511739,-666.185348,-12361.439231,-1838.629195
286.512061,2072.576638,-11769.274478,-1762.019645
286.512383,5033.400406,-10584.944971,-2145.067394
286.512705,8734.430116,-10732.986159,-1685.410096
286.513027,9622.677246,-9326.594869,-1915.238745
286.513349,8512.368333,-6883.915261,-1302.362347
286.513671,7328.038826,-5551.544565,-842.705048
286.513993,5699.585753,-6587.832884,0.000000
286.514315,2812.782580,-8660.409521,-153.219100
286.514637,-1406.391290,-8956.491898,536.266849
286.514958,-4589.276840,-7994.224174,306.438199
286.515280,-6143.709319,-8660.409521,-1302.362347
286.515602,-6883.915261,-9770.718434,-1225.752797
286.515924,-9030.512492,-8586.388927,-995.924147
286.516246,-9030.512492,-7031.956449,-2757.943793
286.516568,-6661.853478,-8512.368333,-4596.572988
286.516890,-2590.720797,-12361.439231,-4366.744339
286.517212,0.000000,-14952.160028,-2451.505594
286.517534,2294.638420,-13841.851115,-1685.410096
286.517856,5329.482782,-12509.480420,-766.095498
286.518178,8364.327145,-11547.212695,0.000000
286.518500,8586.388927,-8956.491898,-383.047749
286.518822,6957.935855,-5773.606348,-1225.752797
286.519144,4885.359217,-5403.503377,-1685.410096
286.519466,3552.988522,-7402.059420,-842.705048
286.519788,444.123565,-8956.491898,76.609550
286.520110,-3330.926739,-9548.656652,1532.190996
286.520432,-5921.647536,-10436.903782,2221.676944
286.520754,-7105.977043,-11251.130318,612.876398
286.521076,-8438.347739,-9844.739029,-1225.752797
286.521398,-9252.574275,-7772.162391,-2374.896044
286.521720,-8438.347739,-5699.585753,-3524.039291
286.522042,-5773.606348,-6587.832884,-4366.744339
286.522363,-2664.741391,-9992.780217,-3830.477490
286.522685,74.020594,-13619.789333,-2221.676944
286.523007,1406.391290,-14285.974681,-1762.019645
286.523329,3997.112087,-14137.933492,-1378.971896
286.523651,6957.935855,-12361.439231,-995.924147
286.523973,8290.306550,-9178.553681,-1608.800546
286.524295,7920.203579,-4811.338623,-2451.505594
286.524617,7328.038826,-3701.029710,-1455.581446
286.524939,5181.441594,-5033.400406,76.609550
286.525261,1332.370696,-6735.874072,1455.581446
286.525583,-2294.638420,-7772.162391,1838.629195
286.525905,-4959.379811,-8956.491898,306.438199
286.526227,-6661.853478,-11029.068536,-1455.581446
286.526549,-8586.388927,-11029.068536,-842.705048
286.526871,-9474.636058,-8290.306550,-1378.971896
286.527193,-7254.018232,-6291.750507,-3830.477490
286.527515,-3478.967927,-8586.388927,-5209.449386
286.527837,-370.102971,-13101.645173,-3600.648841
286.528159,0.000000,-13989.892304,-1685.410096
286.528481,1776.494261,-13249.686362,-766.095498
286.528803,5403.503377,-13323.706956,-689.485948
286.529125,8438.347739,-11991.336260,-2145.067394
286.529447,7994.224174,-8660.409521,-2068.457845
286.529769,5847.626942,-5255.462188,-995.924147
286.530090,3849.070898,-5403.503377,-229.828649
286.530412,1480.411884,-7550.100608,-153.219100
286.530734,-1628.453072,-8364.327145,-459.657299
286.531056,-4737.318029,-8882.471304,-153.219100
286.531378,-7846.182985,-9326.594869,-689.485948
286.531700,-9400.615463,-10436.903782,-842.705048
286.532022,-10214.842000,-9992.780217,-1225.752797
286.532344,-9770.718434,-7179.997637,-2834.553343
286.532666,-7698.141797,-6217.729913,-4213.525239
286.532988,-3997.112087,-9474.636058,-4903.011187
286.533310,-1480.411884,-12213.398043,-2834.553343
286.533632,888.247130,-12731.542202,-1532.190996
286.533954,4515.256246,-11103.089130,-1608.800546
286.534276,9104.533087,-11251.130318,-1915.238745
286.534598,11103.089130,-10214.842000,-1149.143247
286.534920,10510.924376,-7920.203579,-1072.533697
286.535242,8956.491898,-5107.421000,-383.047749
286.535564,7105.977043,-5551.544565,229.828649
286.535886,3775.050304,-7698.141797,459.657299
286.536208,-370.102971,-8364.327145,919.314598
286.536530,-3701.029710,-7846.182985,-536.266849
286.536852,-5625.565159,-9326.594869,-1991.848295
286.537174,-6957.935855,-11769.274478,-1838.629195
286.537496,-8438.347739,-10362.883188,-842.705048
286.537817,-8808.450710,-6735.874072,-2221.676944
286.538139,-6439.791695,-6957.935855,-5132.839837
286.538461,-2812.782580,-11695.253884,-5362.668486
286.538783,-518.144159,-14508.036463,-3907.087040
286.539105,888.247130,-14508.036463,-2528.115143
286.539427,3923.091493,-13841.851115,-919.314598
286.539749,8142.265362,-13175.665768,76.609550
286.540071,9918.759623,-10510.924376,-1149.143247
286.540393,8808.450710,-7105.977043,-2068.457845
286.540715,7179.997637,-5699.585753,-1149.143247
286.541037,4885.359217,-6587.832884,0.000000
286.541359,1258.350101,-8142.265362,383.047749
286.541681,-2812.782580,-8216.285956,1608.800546
286.542003,-6217.729913,-8956.491898,536.266849
286.542325,-8364.327145,-9548.656652,-689.485948
286.542647,-10214.842000,-9548.656652,-1072.533697
286.542969,-10955.047942,-8512.368333,-1378.971896
286.543291,-9474.636058,-6513.812290,-2757.943793
286.543613,-5995.668130,-6587.832884,-3983.696590
286.543935,-3108.864956,-9252.574275,-3753.867940
286.544257,-1110.308913,-12139.377449,-1991.848295
286.544579,1036.288319,-12435.459826,-1302.362347
286.544901,4589.276840,-12065.356855,-3140.991542
286.545223,7846.182985,-12361.439231,-2451.505594
286.545544,9252.574275,-11399.171507,-919.314598
286.545866,7994.224174,-7920.203579,0.000000
286.546188,6661.853478,-4959.379811,-306.438199
286.546510,5551.544565,-4737.318029,153.219100
286.546832,2368.659014,-5921.647536,536.266849
286.547154,-1776.494261,-7031.956449,383.047749
286.547476,-5699.585753,-7920.203579,76.609550
286.547798,-7698.141797,-9622.677246,153.219100
286.548120,-8734.430116,-11177.109724,-612.876398
286.548442,-8808.450710,-9696.697840,-1762.019645
286.548764,-8068.244768,-7254.018232,-3600.648841
286.549086,-5403.503377,-8216.285956,-4213.525239
286.549408,-2294.638420,-12435.459826,-3370.820191
286.549730,-148.041188,-13915.871710,-2298.286494
286.550052,1998.556043,-12361.439231,-1915.238745
286.550374,5255.462188,-11991.336260,-1838.629195
286.550696,7846.182985,-12139.377449,-1149.143247
286.551018,8438.347739,-9918.759623,-1608.800546
286.551340,7105.977043,-6809.894666,-1838.629195
286.551662,5181.441594,-6883.915261,-919.314598
286.551984,2294.638420,-9030.512492,0.000000
286.552306,-2590.720797,-9474.636058,536.266849
286.552628,-6291.750507,-8734.430116,0.000000
286.552950,-8660.409521,-8808.450710,-1608.800546
286.553271,-9622.677246,-9474.636058,-1762.019645
286.553593,-10732.986159,-8660.409521,-689.485948
286.553915,-10658.965565,-7179.997637,-1225.752797
286.554237,-7994.224174,-6439.791695,-3294.210641
286.554559,-4145.153275,-8216.285956,-4519.963438
286.554881,-1554.432478,-11177.109724,-3753.867940
286.555203,518.144159,-12805.562797,-1915.238745
286.555525,3404.947333,-12509.480420,-1302.362347
286.555847,6883.915261,-11991.336260,-2145.067394
286.556169,9992.780217,-12065.356855,-1915.238745
286.556491,10066.800811,-9918.759623,-612.876398
286.556813,8586.388927,-6291.750507,-306.438199
286.557135,7254.018232,-5033.400406,-995.924147
286.557457,5403.503377,-6809.894666,-153.219100
286.557779,2072.576638,-7402.059420,76.609550
286.558101,-2146.597232,-7105.977043,-306.438199
286.558423,-5329.482782,-8290.306550,-1072.533697
286.558745,-7105.977043,-10288.862594,-153.219100
286.559067,-8956.491898,-9696.697840,-536.266849
286.559389,-9326.594869,-7476.080014,-3217.601092
286.559711,-7105.977043,-7698.141797,-5209.449386
286.560033,-2886.803174,-10955.047942,-4519.963438
286.560355,-370.102971,-12953.603985,-3064.381992
286.560677,2072.576638,-13323.706956,-1915.238745
286.560998,4811.338623,-13323.706956,-306.438199
286.561320,8290.306550,-13101.645173,229.828649
286.561642,9030.512492,-10807.006753,-919.314598
286.561964,7994.224174,-7846.182985,-1378.971896
286.562286,6587.832884,-6291.750507,-459.657299
286.562608,4663.297435,-6661.853478,-306.438199
286.562930,1554.432478,-7328.038826,766.095498
286.563252,-2072.576638,-7846.182985,1838.629195
286.563574,-4515.256246,-7772.162391,1149.143247
286.563896,-6291.750507,-8216.285956,-536.266849
286.564218,-8364.327145,-8586.388927,-1072.533697
286.564540,-9992.780217,-9622.677246,-1378.971896
286.564862,-9548.656652,-8808.450710,-2834.553343
286.565184,-7105.977043,-7624.121203,-4826.401637
286.565506,-3478.967927,-9474.636058,-4673.182538
286.565828,-666.185348,-12213.398043,-3370.820191
286.566150,1628.453072,-13619.789333,-1838.629195
286.566472,3997.112087,-12805.562797,-1685.410096
286.566794,7328.038826,-11695.253884,-1915.238745
286.567116,9326.594869,-10732.986159,-1225.752797
286.567438,8956.491898,-7846.182985,-689.485948
286.567760,7476.080014,-5403.503377,-1608.800546
286.568082,5921.647536,-5107.421000,-766.095498
286.568403,3108.864956,-7179.997637,689.485948
286.568725,-518.144159,-7994.224174,1378.971896
286.569047,-3849.070898,-7846.182985,0.000000
286.569369,-5995.668130,-9844.739029,-1915.238745
286.569691,-7550.100608,-11473.192101,-612.876398
286.570013,-9030.512492,-9622.677246,-766.095498
286.570335,-8586.388927,-6809.894666,-3983.696590
286.570657,-5551.544565,-7772.162391,-5898.935335
286.570979,-1776.494261,-11325.150913,-4673.182538
286.571301,-666.185348,-14285.974681,-3217.601092
286.571623,592.164754,-14285.974681,-1225.752797
286.571945,3923.091493,-13323.706956,-306.438199
286.572267,7179.997637,-11695.253884,-2221.676944
286.572589,7920.203579,-9992.780217,-3370.820191
286.572911,6069.688724,-6957.935855,-1685.410096
286.573233,3552.988522,-5773.606348,-766.095498
286.573555,1406.391290,-6809.894666,-842.705048
286.573871,-1332.370696,-8290.306550,383.047749
286.574193,-4441.235652,-8660.409521,919.314598
286.574515,-7402.059420,-9104.533087,-689.485948
286.574837,-8808.450710,-9622.677246,-1685.410096
286.575159,-9992.780217,-9104.533087,-766.095498
286.575481,-10066.800811,-7105.977043,-1532.190996
286.575803,-8660.409521,-5699.585753,-4060.306139
286.576125,-5181.441594,-7402.059420,-5439.278036
286.576446,-2368.659014,-12139.377449,-4366.744339
286.576768,-222.061783,-14359.995275,-1149.143247
286.577090,1924.535449,-13323.706956,-689.485948
286.577412,5773.606348,-11917.315666,-1225.752797
286.577734,8882.471304,-11843.295072,-995.924147
286.578056,9104.533087,-9474.636058,-383.047749
286.578378,7920.203579,-5403.503377,-612.876398
286.578700,6661.853478,-4071.132681,-383.047749
286.579022,4811.338623,-5995.668130,536.266849
286.579344,1554.432478,-7772.162391,1225.752797
286.579665,-2664.741391,-7476.080014,1302.362347
286.579987,-5255.462188,-8068.244768,-229.828649
286.580309,-6513.812290,-9696.697840,-1608.800546
286.580631,-7920.203579,-10955.047942,-1838.629195
286.580953,-8660.409521,-9104.533087,-2068.457845
286.581275,-7254.018232,-6957.935855,-2987.772442
286.581597,-3627.009116,-9326.594869,-4290.134789
286.581919,-592.164754,-13323.706956,-3217.601092
286.582241,1332.370696,-14359.995275,-1991.848295
286.582563,3478.967927,-13101.645173,-1608.800546
286.582884,7031.956449,-13101.645173,-766.095498
286.583206,9252.574275,-12953.603985,536.266849
286.583528,8808.450710,-8660.409521,-153.219100
286.583850,7550.100608,-4959.379811,-1378.971896
286.584172,5995.668130,-5773.606348,-1072.533697
286.584494,2812.782580,-8068.244768,153.219100
286.584816,-1258.350101,-8438.347739,1915.238745
286.585138,-4737.318029,-7476.080014,1915.238745
286.585460,-6439.791695,-9104.533087,-689.485948
286.585782,-7846.182985,-11251.130318,-1072.533697
286.586103,-10140.821405,-9844.739029,-919.314598
286.586425,-10881.027347,-6217.729913,-2451.505594
286.586747,-7846.182985,-6217.729913,-4596.572988
286.587069,-3627.009116,-9844.739029,-5669.106685
286.587391,-1110.308913,-13249.686362,-4213.525239
286.587713,148.041188,-13619.789333,-2221.676944
286.588035,2590.720797,-13175.665768,-383.047749
286.588357,6513.812290,-11917.315666,-153.219100
286.588679,8216.285956,-8956.491898,-1302.362347
286.589001,7624.121203,-6143.709319,-2451.505594
286.589322,6439.791695,-5403.503377,-1378.971896
286.589644,5329.482782,-5699.585753,-536.266849
286.589966,2664.741391,-6883.915261,612.876398
286.590288,444.123565,-8068.244768,1532.190996
286.590610,-2516.700203,-8364.327145,306.438199
286.590932,-4885.359217,-9770.718434,-1302.362347
286.591254,-7402.059420,-9548.656652,-1455.581446
286.591576,-8734.430116,-8290.306550,-1915.238745
286.591898,-8216.285956,-7031.956449,-3753.867940
286.592219,-5255.462188,-8660.409521,-6052.154434
286.592541,-2294.638420,-12657.521608,-5286.058936
286.592863,-370.102971,-15322.262999,-2834.553343
286.593185,1776.494261,-16062.468941,-1149.143247
286.593507,4959.379811,-13989.892304,-612.876398
286.593829,8290.306550,-12287.418637,-1915.238745
286.594151,8512.368333,-9104.533087,-1302.362347
286.594473,6587.832884,-5699.585753,-919.314598
286.594795,4737.318029,-4367.215058,-1302.362347
286.595117,3108.864956,-5033.400406,-1302.362347
286.595438,518.144159,-7179.997637,0.000000
286.595760,-3182.885551,-8512.368333,1302.362347
286.596082,-6291.750507,-10214.842000,842.705048
286.596404,-7920.203579,-10732.986159,-689.485948
286.596726,-9030.512492,-9992.780217,-1072.533697
286.597048,-9622.677246,-7105.977043,-1762.019645
286.597370,-9030.512492,-5773.606348,-4903.011187
286.597692,-6217.729913,-7328.038826,-6281.983084
286.598014,-2442.679609,-11029.068536,-4979.620737
286.598336,-370.102971,-14211.954086,-2451.505594
286.598657,1702.473667,-14582.057057,0.000000
286.598979,5107.421000,-14063.912898,-229.828649
286.599301,7402.059420,-11991.336260,-995.924147
286.599623,8734.430116,-9178.553681,-1225.752797
286.599945,8586.388927,-5329.482782,-1072.533697
286.600267,7846.182985,-3256.906145,-1225.752797
286.600589,6439.791695,-4071.132681,-153.219100
286.600911,3330.926739,-6735.874072,2374.896044
286.601233,-666.185348,-8216.285956,2451.505594
286.601555,-4219.173869,-10066.800811,-306.438199
286.601876,-6513.812290,-12361.439231,-1532.190996
286.602198,-8734.430116,-10807.006753,-689.485948
286.602520,-10066.800811,-6883.915261,-1762.019645
286.602842,-8290.306550,-6365.771101,-4519.963438
286.603164,-3701.029710,-9770.718434,-5439.278036
286.603486,-814.226536,-12731.542202,-3983.696590
286.603808,222.061783,-14063.912898,-2221.676944
286.604130,1998.556043,-13915.871710,153.219100
286.604452,5477.523971,-13397.727550,689.485948
286.604774,7328.038826,-10214.842000,-1378.971896
286.605095,6957.935855,-7624.121203,-2298.286494
286.605417,5699.585753,-5995.668130,-1149.143247
286.605739,4367.215058,-5625.565159,-306.438199
286.606061,2072.576638,-6883.915261,0.000000
286.606383,-1776.494261,-8438.347739,1991.848295
286.606705,-4737.318029,-9992.780217,2298.286494
286.607027,-6809.894666,-10436.903782,-536.266849
286.607349,-8438.347739,-9844.739029,-1915.238745
286.607671,-9844.739029,-8882.471304,-1455.581446
286.607993,-10288.862594,-7402.059420,-2451.505594
286.608314,-9178.553681,-6365.771101,-4136.915689
286.608636,-6217.729913,-8142.265362,-4673.182538
286.608958,-3552.988522,-12213.398043,-3677.258390
286.609280,-1702.473667,-14285.974681,-1378.971896
286.609602,1406.391290,-13471.748144,-1838.629195
286.609924,5107.421000,-12065.356855,-1532.190996
286.610246,8290.306550,-11029.068536,-612.876398
286.610568,9104.533087,-8068.244768,-229.828649
286.610890,7994.224174,-4219.173869,-1149.143247
286.611212,7254.018232,-3108.864956,-1685.410096
286.611533,4811.338623,-5773.606348,-459.657299
286.611855,666.185348,-8438.347739,612.876398
286.612177,-3256.906145,-9252.574275,306.438199
286.612499,-5329.482782,-10436.903782,-1225.752797
286.612821,-6439.791695,-11251.130318,-2145.067394
286.613143,-7624.121203,-9992.780217,-1838.629195
286.613465,-8142.265362,-6439.791695,-2451.505594
286.613787,-6957.935855,-5995.668130,-4749.792088
286.614109,-3256.906145,-9918.759623,-4979.620737
286.614431,-296.082377,-13397.727550,-4213.525239
286.614752,1480.411884,-14359.995275,-2451.505594
286.615074,4145.153275,-14656.077652,-995.924147
286.615396,7476.080014,-13989.892304,689.485948
286.615718,9252.574275,-10510.924376,459.657299
286.616040,8512.368333,-5921.647536,-1302.362347
286.616362,7476.080014,-4515.256246,-2068.457845
286.616684,5995.668130,-6069.688724,-1378.971896
286.617006,2516.700203,-7846.182985,-229.828649
286.617328,-1554.432478,-9030.512492,842.705048
286.617650,-3849.070898,-10066.800811,766.095498
286.617971,-5181.441594,-10510.924376,-919.314598
286.618293,-7402.059420,-10584.944971,-2221.676944
286.618615,-9474.636058,-8808.450710,-1455.581446
286.618937,-9622.677246,-7031.956449,-2757.943793
286.619259,-7254.018232,-7105.977043,-4826.401637
286.619581,-3627.009116,-9474.636058,-4826.401637
286.619903,-666.185348,-12583.501014,-3370.820191
286.620225,1110.308913,-13767.830521,-1762.019645
286.620547,4663.297435,-13323.706956,-383.047749
286.620868,7920.203579,-12065.356855,306.438199
286.621190,9474.636058,-8734.430116,536.266849
286.621512,8734.430116,-5773.606348,-766.095498
286.621834,7698.141797,-5107.421000,-1225.752797
286.622156,6291.750507,-5403.503377,-1149.143247
286.622478,3701.029710,-7105.977043,536.266849
286.622800,296.082377,-8882.471304,1915.238745
286.623122,-2294.638420,-10362.883188,1762.019645
286.623444,-5181.441594,-11251.130318,-1302.362347
286.623766,-7772.162391,-11695.253884,-1608.800546
286.624087,-9252.574275,-8586.388927,-1685.410096
286.624409,-9030.512492,-6143.709319,-3830.477490
286.624731,-6735.874072,-7402.059420,-5515.887586
286.625053,-2590.720797,-11251.130318,-3447.429741
286.625375,-740.205942,-13027.624579,-2145.067394
286.625697,1776.494261,-13767.830521,-995.924147
286.626019,5181.441594,-13915.871710,0.000000
286.626341,7772.162391,-11917.315666,229.828649
286.626663,7476.080014,-7994.224174,-919.314598
286.626985,5625.565159,-5255.462188,-1532.190996
286.627306,3849.070898,-5107.421000,-1608.800546
286.627628,2146.597232,-6365.771101,-1762.019645
286.627950,-1036.288319,-7994.224174,-689.485948
286.628272,-4293.194464,-10362.883188,766.095498
286.628594,-7031.956449,-11695.253884,1455.581446
286.628916,-8660.409521,-11177.109724,0.000000
286.629238,-9770.718434,-9252.574275,-1608.800546
286.629560,-10140.821405,-7179.997637,-3064.381992
286.629882,-9844.739029,-5625.565159,-4596.572988
286.630204,-7920.203579,-6809.894666,-4903.011187
286.630525,-5625.565159,-9548.656652,-3140.991542
286.630847,-2442.679609,-12139.377449,-1838.629195
286.631169,592.164754,-13175.665768,-1915.238745
286.631491,3849.070898,-13027.624579,-1838.629195
286.631813,6883.915261,-11843.295072,-1072.533697
286.632135,8512.368333,-9548.656652,-612.876398
286.632457,9104.533087,-6439.791695,-995.924147
286.632779,8438.347739,-4737.318029,-1532.190996
286.633101,6735.874072,-5329.482782,-919.314598
286.633423,2886.803174,-7328.038826,536.266849
286.633744,-1406.391290,-9178.553681,459.657299
286.634066,-4145.153275,-10807.006753,-383.047749
286.634388,-5699.585753,-11399.171507,-2221.676944
286.634710,-7550.100608,-10881.027347,-1915.238745
286.635032,-8734.430116,-8290.306550,-1225.752797
286.635354,-8068.244768,-5625.565159,-2681.334243
286.635676,-5107.421000,-8068.244768,-4366.744339
286.635998,-1850.514855,-11695.253884,-4366.744339
286.636320,222.061783,-13249.686362,-2757.943793
286.636642,2368.659014,-13989.892304,-1608.800546
286.636963,5329.482782,-13989.892304,76.609550
286.637285,8364.327145,-11917.315666,1685.410096
286.637607,8734.430116,-7402.059420,-383.047749
286.637929,7328.038826,-4737.318029,-2451.505594
286.638251,5699.585753,-6143.709319,-2145.067394
286.638573,3256.906145,-8142.265362,-919.314598
286.638895,-518.144159,-8808.450710,229.828649
286.639217,-3256.906145,-9622.677246,842.705048
286.639539,-4515.256246,-10881.027347,306.438199
286.639861,-6069.688724,-11177.109724,-1302.362347
286.640182,-8142.265362,-9548.656652,-1225.752797
286.640504,-9030.512492,-6365.771101,-1532.190996
286.640826,-7476.080014,-5403.503377,-3064.381992
286.641148,-4293.194464,-8142.265362,-4903.011187
286.641470,-444.123565,-11029.068536,-3217.601092
286.641792,1628.453072,-12139.377449,-1225.752797
286.642114,3997.112087,-12287.418637,0.000000
286.642436,7105.977043,-12213.398043,1991.848295
286.642758,8734.430116,-9844.739029,1302.362347
286.643080,8142.265362,-6439.791695,-1378.971896
286.643401,7179.997637,-5477.523971,-2681.334243
286.643723,6365.771101,-6365.771101,-1915.238745
286.644045,3404.947333,-7994.224174,-689.485948
286.644367,0.000000,-9030.512492,1685.410096
286.644689,-3256.906145,-9844.739029,2068.457845
286.645011,-5107.421000,-10807.006753,-1072.533697
286.645333,-7254.018232,-10881.027347,-3294.210641
286.645655,-9474.636058,-8586.388927,-2221.676944
286.645977,-9696.697840,-6143.709319,-2451.505594
286.646299,-7698.141797,-6587.832884,-4060.306139
286.646620,-3552.988522,-10436.903782,-4366.744339
286.646942,-592.164754,-13323.706956,-2757.943793
286.647264,888.247130,-13619.789333,-1991.848295
286.647586,3552.988522,-13767.830521,0.000000
286.647908,6735.874072,-12953.603985,919.314598
286.648230,7846.182985,-9030.512492,-612.876398
286.648552,7105.977043,-5329.482782,-2681.334243
286.648874,5847.626942,-5107.421000,-2757.943793
286.649196,4589.276840,-6809.894666,-1991.848295
286.649517,814.226536,-8660.409521,-1455.581446
286.649839,-2812.782580,-10807.006753,919.314598
286.650161,-5329.482782,-11843.295072,1302.362347
286.650483,-7402.059420,-11325.150913,-1149.143247
286.650805,-8734.430116,-9770.718434,-3294.210641
286.651127,-9622.677246,-7328.038826,-2757.943793
286.651449,-8956.491898,-6069.688724,-3294.210641
286.651771,-7328.038826,-5773.606348,-3907.087040
286.652093,-4515.256246,-8216.285956,-3217.601092
286.652415,-1554.432478,-11325.150913,-2068.457845
286.652736,962.267725,-12509.480420,-1608.800546
286.653058,4071.132681,-12213.398043,-1915.238745
286.653380,6735.874072,-11843.295072,-995.924147
286.653702,7846.182985,-10140.821405,-536.266849
286.654024,7328.038826,-7105.977043,-1455.581446
286.654346,7031.956449,-6143.709319,-2221.676944
286.654668,5699.585753,-6513.812290,-2145.067394
286.654990,2294.638420,-8438.347739,-766.095498
286.655312,-1554.432478,-9918.759623,306.438199
286.655634,-4737.318029,-11251.130318,153.219100
286.655955,-7031.956449,-11695.253884,-612.876398
286.656277,-9252.574275,-9844.739029,-766.095498
286.656599,-10288.862594,-7550.100608,-2451.505594
286.656921,-9252.574275,-6513.812290,-4213.525239
286.657243,-5181.441594,-7994.224174,-5209.449386
286.657565,-1776.494261,-10066.800811,-3907.087040
286.657887,1776.494261,-11917.315666,-1532.190996
286.658209,4367.215058,-12657.521608,76.609550
286.658531,7476.080014,-12805.562797,612.876398
286.658853,9252.574275,-10584.944971,0.000000
286.659174,8882.471304,-7624.121203,-919.314598
286.659496,7698.141797,-6439.791695,-1378.971896
286.659818,5477.523971,-6661.853478,-1149.143247
286.660140,3330.926739,-8660.409521,-995.924147
286.660462,370.102971,-9770.718434,153.219100
286.660784,-1924.535449,-11103.089130,995.924147
286.661106,-4367.215058,-11547.212695,76.609550
286.661428,-7105.977043,-9844.739029,-459.657299
286.661750,-9622.677246,-7105.977043,-306.438199
286.662072,-10881.027347,-4737.318029,-1915.238745
286.662393,-9696.697840,-5477.523971,-4826.401637
286.662715,-5551.544565,-8438.347739,-5592.497135
286.663037,-1554.432478,-11177.109724,-3600.648841
286.663359,1036.288319,-13101.645173,-1225.752797
286.663681,4367.215058,-14878.139434,1378.971896
286.664003,7402.059420,-13397.727550,2451.505594
286.664325,8956.491898,-9474.636058,229.828649
286.664647,8586.388927,-5921.647536,-1838.629195
286.664969,7772.162391,-5773.606348,-2757.943793
286.665291,5773.606348,-5921.647536,-2451.505594
286.665612,3108.864956,-7254.018232,-153.219100
286.665934,296.082377,-9548.656652,2298.286494
286.666256,-1998.556043,-11695.253884,2681.334243
286.666578,-3923.091493,-11325.150913,229.828649
286.666900,-5847.626942,-10214.842000,-2145.067394
286.667222,-7920.203579,-9030.512492,-2604.724693
286.667544,-9030.512492,-7179.997637,-2068.457845
286.667866,-8956.491898,-5477.523971,-2911.162892
286.668188,-6217.729913,-6809.894666,-4060.306139
286.668510,-2294.638420,-11029.068536,-3983.696590
286.668831,814.226536,-14211.954086,-3140.991542
286.669153,2886.803174,-15174.221811,-1838.629195
286.669475,5403.503377,-14582.057057,766.095498
286.669797,7105.977043,-11325.150913,1685.410096
286.670119,7846.182985,-7179.997637,-306.438199
286.670441,6217.729913,-4441.235652,-4060.306139
286.670763,4441.235652,-6069.688724,-4060.306139
286.671085,888.247130,-8364.327145,-1915.238745
286.671407,-3404.947333,-10066.800811,919.314598
286.671729,-5995.668130,-10881.027347,2834.553343
286.672050,-6439.791695,-11029.068536,689.485948
286.672372,-7476.080014,-10584.944971,-2068.457845
286.672694,-8586.388927,-8364.327145,-2681.334243
286.673016,-8512.368333,-5921.647536,-2604.724693
286.673338,-6883.915261,-4959.379811,-3294.210641
286.673660,-4219.173869,-6587.832884,-3294.210641
286.673982,-2220.617826,-9400.615463,-2298.286494
286.674304,518.144159,-11103.089130,-2145.067394
286.674626,3849.070898,-11991.336260,-2757.943793
286.674948,7254.018232,-12583.501014,-2451.505594
286.675269,9400.615463,-11473.192101,-536.266849
286.675591,9474.636058,-8512.368333,0.000000
286.675913,8290.306550,-6735.874072,-1302.362347
286.676235,6513.812290,-7698.141797,-1685.410096
286.676557,3256.906145,-8660.409521,-1225.752797
286.676879,-740.205942,-8586.388927,-995.924147
286.677201,-3997.112087,-9104.533087,-1455.581446
286.677523,-4515.256246,-11251.130318,-1378.971896
286.677845,-5921.647536,-11103.089130,-995.924147
286.678166,-7698.141797,-9252.574275,-306.438199
286.678488,-8142.265362,-6439.791695,-919.314598
286.678810,-6661.853478,-5847.626942,-3447.429741
286.679132,-3404.947333,-8956.491898,-5362.668486
286.679454,-518.144159,-11843.295072,-4060.306139
286.679776,2146.597232,-13101.645173,-2451.505594
286.680098,5107.421000,-14211.954086,-536.266849
286.680420,8364.327145,-13619.789333,1685.410096
286.680742,9400.615463,-9918.759623,1762.019645
286.681064,8438.347739,-6143.709319,-1762.019645
286.681385,6735.874072,-5921.647536,-3677.258390
286.681707,4145.153275,-8882.471304,-2604.724693
286.682029,0.000000,-9844.739029,-612.876398
286.682351,-3997.112087,-10140.821405,1685.410096
286.682673,-6217.729913,-11399.171507,1762.019645
286.682995,-7179.997637,-10807.006753,0.000000
286.683317,-8660.409521,-9252.574275,-1991.848295
286.683639,-9844.739029,-6809.894666,-1838.629195
286.683961,-8734.430116,-5625.565159,-1991.848295
286.684283,-6809.894666,-5699.585753,-2221.676944
286.684604,-4071.132681,-7476.080014,-2451.505594
286.684926,-1406.391290,-9252.574275,-1225.752797
286.685248,1110.308913,-10807.006753,-1225.752797
286.685570,3478.967927,-11917.315666,-1915.238745
286.685892,5773.606348,-12361.439231,0.000000
286.686214,7624.121203,-10955.047942,0.000000
286.686536,7994.224174,-9030.512492,-766.095498
286.686858,7254.018232,-7476.080014,-1455.581446
286.687180,5033.400406,-7031.956449,-1532.190996
286.687502,518.144159,-6735.874072,-229.828649
286.687823,-3256.906145,-8068.244768,612.876398
286.688145,-6069.688724,-9548.656652,-995.924147
286.688467,-7772.162391,-11103.089130,-2834.553343
286.688789,-8808.450710,-11843.295072,-1762.019645
286.689111,-9474.636058,-9696.697840,-612.876398
286.689433,-7994.224174,-7328.038826,-1455.581446
286.689755,-4737.318029,-6587.832884,-2145.067394
286.690077,-1628.453072,-7624.121203,-2987.772442
286.690399,222.061783,-9918.759623,-2987.772442
286.690721,2368.659014,-11991.336260,-1608.800546
286.691042,4589.276840,-13175.665768,-306.438199
286.691364,7105.977043,-12287.418637,0.000000
286.691686,8216.285956,-10955.047942,153.219100
