#time,accel_x,accel_y,accel_z
371.275197,-148.041188,-9178.553681,-1455.581446
371.275520,0.000000,-9474.636058,-1532.190996
371.275842,-296.082377,-9252.574275,-1455.581446
371.276165,-296.082377,-9252.574275,-1455.581446
371.276488,-518.144159,-9474.636058,-1302.362347
371.276811,-444.123565,-9400.615463,-1608.800546
371.277134,-518.144159,-9178.553681,-1378.971896
371.277457,-518.144159,-9400.615463,-1455.581446
371.277779,-666.185348,-9326.594869,-1608.800546
371.278102,-222.061783,-9474.636058,-1302.362347
371.278425,0.000000,-9178.553681,-1378.971896
371.278748,0.000000,-9252.574275,-1532.190996
371.279071,-444.123565,-9252.574275,-1762.019645
371.279394,-518.144159,-9400.615463,-1685.410096
371.279716,-444.123565,-9622.677246,-1378.971896
371.280039,-592.164754,-9548.656652,-1685.410096
371.280362,-592.164754,-9252.574275,-842.705048
371.280685,-370.102971,-9030.512492,-1455.581446
371.281008,-296.082377,-8956.491898,-1532.190996
371.281331,-296.082377,-9252.574275,-1532.190996
371.281653,-222.061783,-9326.594869,-1455.581446
371.281976,-370.102971,-9252.574275,-1302.362347
371.282299,-296.082377,-9770.718434,-1532.190996
371.282622,-518.144159,-9474.636058,-1838.629195
371.282945,-592.164754,-9400.615463,-1685.410096
371.283267,-370.102971,-9400.615463,-1455.581446
371.283590,0.000000,-9326.594869,-1455.581446
371.283913,-222.061783,-9030.512492,-1532.190996
371.284236,-296.082377,-9030.512492,-1608.800546
371.284559,-444.123565,-9326.594869,-1532.190996
371.284882,-666.185348,-9400.615463,-1378.971896
371.285204,-518.144159,-9474.636058,-1532.190996
371.285527,-814.226536,-9400.615463,-1685.410096
371.285850,-370.102971,-9326.594869,-1685.410096
371.286173,-148.041188,-9104.533087,-1685.410096
371.286496,-148.041188,-9104.533087,-1685.410096
371.286819,-222.061783,-8956.491898,-1685.410096
371.287141,-370.102971,-9104.533087,-1608.800546
371.287464,-592.164754,-9474.636058,-1608.800546
371.287787,-666.185348,-9474.636058,-1838.629195
371.288110,-740.205942,-9474.636058,-1608.800546
371.288433,-444.123565,-9474.636058,-1838.629195
371.288756,-296.082377,-9326.594869,-1225.752797
371.289078,-444.123565,-8734.430116,-1378.971896
371.289401,0.000000,-9104.533087,-1915.238745
371.289724,-370.102971,-9178.553681,-1685.410096
371.290047,-148.041188,-9474.636058,-1838.629195
371.290370,-592.164754,-9548.656652,-1685.410096
371.290692,-592.164754,-9474.636058,-1915.238745
371.291015,-518.144159,-9474.636058,-1608.800546
371.291338,-518.144159,-9474.636058,-1685.410096
371.291661,0.000000,-9030.512492,-1532.190996
371.291984,-148.041188,-9104.533087,-1608.800546
371.292307,-74.020594,-9474.636058,-1991.848295
371.292629,-370.102971,-9326.594869,-1685.410096
371.292952,-666.185348,-9474.636058,-1608.800546
371.293275,-740.205942,-9696.697840,-1608.800546
371.293598,-592.164754,-9622.677246,-1532.190996
371.293921,-592.164754,-9252.574275,-1532.190996
371.294244,-222.061783,-9030.512492,-1378.971896
371.294566,148.041188,-8808.450710,-1378.971896
371.294889,1406.391290,-9326.594869,-1915.238745
371.295212,2664.741391,-9844.739029,-1915.238745
371.295535,2590.720797,-9696.697840,-842.705048
371.295858,2072.576638,-9252.574275,0.000000
371.296181,888.247130,-9400.615463,-1072.533697
371.296503,-370.102971,-9326.594869,-2298.286494
371.296826,-1998.556043,-9030.512492,-2374.896044
371.297149,-3404.947333,-8956.491898,-2068.457845
371.297472,-3849.070898,-9104.533087,-2451.505594
371.297795,-2738.761985,-9030.512492,-2834.553343
371.298117,0.000000,-10288.862594,-2604.724693
371.298440,2590.720797,-11621.233289,-1762.019645
371.298763,3627.009116,-11473.192101,0.000000
371.299086,2886.803174,-9474.636058,766.095498
371.299409,2442.679609,-7994.224174,0.000000
371.299732,2738.761985,-8882.471304,-1685.410096
371.300054,2960.823768,-9474.636058,-2145.067394
371.300377,1332.370696,-8660.409521,-919.314598
371.300700,-222.061783,-7105.977043,229.828649
371.301023,0.000000,-7105.977043,-536.266849
371.301346,1776.494261,-9474.636058,-2604.724693
371.301669,1110.308913,-10510.924376,-1915.238745
371.301991,-1480.411884,-9178.553681,229.828649
371.302314,-2442.679609,-8586.388927,-766.095498
371.302637,-1258.350101,-8882.471304,-3830.477490
371.302960,148.041188,-9030.512492,-3983.696590
371.303283,296.082377,-10066.800811,-2374.896044
371.303606,814.226536,-11177.109724,-1455.581446
371.303928,2442.679609,-10436.903782,-1685.410096
371.304251,4145.153275,-10510.924376,-1532.190996
371.304574,5329.482782,-11547.212695,-995.924147
371.304897,4737.318029,-11325.150913,0.000000
371.305220,3256.906145,-9252.574275,-919.314598
371.305542,2294.638420,-7254.018232,-995.924147
371.305865,2442.679609,-7254.018232,-842.705048
371.306188,2590.720797,-7328.038826,-1685.410096
371.306511,1998.556043,-7179.997637,-689.485948
371.306834,1184.329507,-7254.018232,-536.266849
371.307157,1776.494261,-9696.697840,-229.828649
371.307479,2442.679609,-11251.130318,-689.485948
371.307802,2220.617826,-9992.780217,-2068.457845
371.308125,1776.494261,-9918.759623,-2221.676944
371.308448,1998.556043,-9918.759623,-1608.800546
371.308771,2738.761985,-9918.759623,-2374.896044
371.309094,2590.720797,-9474.636058,-3064.381992
371.309416,2368.659014,-9696.697840,-2604.724693
371.309739,3182.885551,-10881.027347,-1838.629195
371.310062,3404.947333,-10214.842000,-1378.971896
371.310385,2812.782580,-9770.718434,-2068.457845
371.310708,2664.741391,-9474.636058,-1762.019645
371.311031,2072.576638,-8660.409521,-919.314598
371.311353,1406.391290,-7254.018232,-766.095498
371.311676,296.082377,-7105.977043,-1072.533697
371.311999,-592.164754,-8068.244768,-1762.019645
371.312322,-592.164754,-9474.636058,-995.924147
371.312645,-148.041188,-10288.862594,-612.876398
371.312967,0.000000,-11325.150913,-1072.533697
371.313290,740.205942,-12139.377449,-1915.238745
371.313613,1258.350101,-11621.233289,0.000000
371.313936,1702.473667,-10510.924376,0.000000
371.314259,2072.576638,-9474.636058,-995.924147
371.314582,2294.638420,-8956.491898,-1838.629195
371.314904,2072.576638,-8364.327145,-1915.238745
371.315227,1554.432478,-8734.430116,-306.438199
371.315550,1110.308913,-8882.471304,-842.705048
371.315873,1258.350101,-9030.512492,-1685.410096
371.316196,1406.391290,-8808.450710,-1608.800546
371.316519,1332.370696,-8290.306550,-1608.800546
371.316841,1406.391290,-7328.038826,-1685.410096
371.317164,1406.391290,-7328.038826,-2068.457845
371.317487,1776.494261,-8290.306550,-1915.238745
371.317810,1850.514855,-9104.533087,-1532.190996
371.318133,1628.453072,-9548.656652,-1762.019645
371.318456,888.247130,-10584.944971,-1762.019645
371.318778,1258.350101,-11917.315666,-1532.190996
371.319101,1110.308913,-11843.295072,-612.876398
371.319424,1332.370696,-11177.109724,-1149.143247
371.319747,1776.494261,-10362.883188,-1455.581446
371.320070,2664.741391,-10288.862594,-689.485948
371.320393,3182.885551,-9844.739029,-306.438199
371.320715,3478.967927,-9030.512492,-459.657299
371.321038,3775.050304,-8364.327145,-766.095498
371.321361,4885.359217,-7994.224174,-1378.971896
371.321684,5921.647536,-7846.182985,-1838.629195
371.322007,5921.647536,-8290.306550,-766.095498
371.322329,5181.441594,-8586.388927,-1072.533697
371.322652,4663.297435,-9548.656652,-1608.800546
371.322975,3701.029710,-10658.965565,-2528.115143
371.323298,2516.700203,-11473.192101,-2604.724693
371.323621,1258.350101,-11917.315666,-1762.019645
371.323944,814.226536,-11843.295072,-1378.971896
371.324266,0.000000,-10362.883188,-689.485948
371.324589,0.000000,-9326.594869,0.000000
371.324912,-666.185348,-7920.203579,-306.438199
371.325235,-740.205942,-7179.997637,0.000000
371.325558,-1036.288319,-6513.812290,-229.828649
371.325881,0.000000,-6069.688724,-995.924147
371.326203,444.123565,-6439.791695,-995.924147
371.326526,666.185348,-7179.997637,-1149.143247
371.326849,518.144159,-7994.224174,-1532.190996
371.327172,814.226536,-9770.718434,-2221.676944
371.327495,518.144159,-10732.986159,-1608.800546
371.327818,0.000000,-11103.089130,-2757.943793
371.328140,-962.267725,-10807.006753,-3447.429741
371.328463,-1924.535449,-11177.109724,-3294.210641
371.328786,-2220.617826,-11621.233289,-2451.505594
371.329109,-2960.823768,-11325.150913,-2757.943793
371.329432,-4071.132681,-11473.192101,-1991.848295
371.329754,-4367.215058,-11547.212695,-1455.581446
371.330077,-4293.194464,-10955.047942,-1072.533697
371.330400,-3775.050304,-10066.800811,-536.266849
371.330723,-2960.823768,-9104.533087,-459.657299
371.331046,-1702.473667,-8364.327145,76.609550
371.331369,0.000000,-7254.018232,0.000000
371.331691,1110.308913,-6365.771101,-229.828649
371.332014,1998.556043,-5477.523971,-766.095498
371.332337,3997.112087,-5773.606348,-1149.143247
371.332660,6069.688724,-6883.915261,-3064.381992
371.332983,6143.709319,-8882.471304,-4213.525239
371.333306,5477.523971,-11103.089130,-3064.381992
371.333628,3775.050304,-11843.295072,-1991.848295
371.333951,1702.473667,-13027.624579,-1608.800546
371.334274,-222.061783,-13619.789333,-1685.410096
371.334597,-3330.926739,-11547.212695,-2451.505594
371.334920,-5255.462188,-9104.533087,-2681.334243
371.335243,-5995.668130,-8290.306550,-3294.210641
371.335565,-6587.832884,-8956.491898,-2757.943793
371.335888,-6143.709319,-8734.430116,229.828649
371.336211,-5699.585753,-5699.585753,0.000000
371.336534,-4737.318029,-5847.626942,-2145.067394
371.336857,-1554.432478,-9918.759623,-2911.162892
371.337179,1628.453072,-11029.068536,-2681.334243
371.337502,3256.906145,-10807.006753,-2834.553343
371.337825,5921.647536,-11621.233289,-1915.238745
371.338148,9030.512492,-11695.253884,-459.657299
371.338471,11991.336260,-10732.986159,-1838.629195
371.338794,12065.356855,-8438.347739,-1532.190996
371.339116,9918.759623,-6143.709319,76.609550
371.339439,8216.285956,-7328.038826,-2374.896044
371.339762,6513.812290,-11769.274478,-2834.553343
371.340085,3775.050304,-12731.542202,306.438199
371.340408,-518.144159,-10510.924376,1302.362347
371.340731,-3849.070898,-9474.636058,1455.581446
371.341053,-4885.359217,-8290.306550,2298.286494
371.341376,-4663.297435,-5625.565159,1072.533697
371.341699,-6439.791695,-4663.297435,-2604.724693
371.342022,-8216.285956,-6365.771101,-995.924147
371.342345,-9918.759623,-6661.853478,1532.190996
371.342667,-10140.821405,-6365.771101,-2221.676944
371.342990,-8734.430116,-10362.883188,-5822.325785
371.343313,-6513.812290,-14582.057057,-6281.983084
371.343635,-4589.276840,-14952.160028,-5975.544884
371.343958,-2442.679609,-15618.345376,-4979.620737
371.344281,518.144159,-14508.036463,-2451.505594
371.344603,4219.173869,-11547.212695,-1762.019645
371.344926,6735.874072,-6661.853478,-3447.429741
371.345249,7031.956449,-4737.318029,-3217.601092
371.345571,7105.977043,-6883.915261,-2298.286494
371.345894,6735.874072,-9474.636058,-995.924147
371.346217,4885.359217,-10066.800811,3140.991542
371.346539,1110.308913,-9400.615463,6128.763984
371.346862,-1036.288319,-9770.718434,4903.011187
371.347184,-1554.432478,-7031.956449,1378.971896
371.347507,-2442.679609,-4737.318029,-1149.143247
371.347830,-3552.988522,-4367.215058,-919.314598
371.348152,-3997.112087,-5847.626942,-306.438199
371.348475,-4145.153275,-8808.450710,-2145.067394
371.348798,-4737.318029,-10066.800811,-1608.800546
371.349120,-5625.565159,-11843.295072,-3753.867940
371.349443,-5995.668130,-14508.036463,-6511.811733
371.349766,-4293.194464,-16136.489536,-6741.640382
371.350088,-2146.597232,-14730.098246,-6665.030833
371.350411,0.000000,-11843.295072,-5592.497135
371.350734,2590.720797,-10584.944971,-3600.648841
371.351056,4515.256246,-7994.224174,-1532.190996
371.351379,5107.421000,-5625.565159,-2221.676944
371.351702,4737.318029,-5329.482782,-1991.848295
371.352024,3701.029710,-7402.059420,-612.876398
371.352347,2516.700203,-9918.759623,2068.457845
371.352670,0.000000,-9844.739029,3753.867940
371.352992,-1776.494261,-8512.368333,3677.258390
371.353315,-2072.576638,-6587.832884,1685.410096
371.353637,-1036.288319,-4885.359217,-306.438199
371.353960,-1110.308913,-4737.318029,-153.219100
371.354283,-2294.638420,-5921.647536,0.000000
371.354605,-3108.864956,-8808.450710,-766.095498
371.354928,-2738.761985,-11843.295072,-2298.286494
371.355251,-2368.659014,-14285.974681,-3217.601092
371.355573,-1998.556043,-15988.448347,-4979.620737
371.355896,-1850.514855,-14804.118840,-5822.325785
371.356219,-592.164754,-12361.439231,-4673.182538
371.356541,1332.370696,-10658.965565,-3447.429741
371.356864,3330.926739,-8808.450710,-2911.162892
371.357187,3552.988522,-6513.812290,-3524.039291
371.357509,3330.926739,-5773.606348,-2987.772442
371.357832,2960.823768,-7031.956449,-1532.190996
371.358155,2368.659014,-9400.615463,-995.924147
371.358477,888.247130,-9918.759623,459.657299
371.358800,-1554.432478,-8586.388927,2298.286494
371.359123,-3108.864956,-7476.080014,2068.457845
371.359445,-3034.844362,-6809.894666,-536.266849
371.359768,-2886.803174,-6143.709319,-2451.505594
371.360090,-3330.926739,-6513.812290,-2987.772442
371.360413,-3478.967927,-7846.182985,-766.095498
371.360736,-2516.700203,-9252.574275,-919.314598
371.361058,-2072.576638,-11103.089130,-2145.067394
371.361381,-1184.329507,-13693.809927,-3370.820191
371.361704,-296.082377,-15322.262999,-3677.258390
371.362026,592.164754,-14582.057057,-3753.867940
371.362349,1702.473667,-11991.336260,-3524.039291
371.362672,3108.864956,-9474.636058,-1991.848295
371.362994,4589.276840,-7698.141797,-1608.800546
371.363317,4959.379811,-6513.812290,-2145.067394
371.363640,4663.297435,-6365.771101,-2145.067394
371.363962,3330.926739,-7846.182985,-2451.505594
371.364285,962.267725,-9474.636058,153.219100
371.364608,-2072.576638,-10658.965565,2145.067394
371.364930,-5033.400406,-9770.718434,1991.848295
371.365253,-6957.935855,-8660.409521,1072.533697
371.365576,-6217.729913,-7328.038826,-1225.752797
371.365898,-5995.668130,-6439.791695,-1991.848295
371.366221,-4885.359217,-6883.915261,-2604.724693
371.366543,-4959.379811,-7476.080014,-995.924147
371.366866,-4145.153275,-8734.430116,229.828649
371.367189,-3552.988522,-10362.883188,-995.924147
371.367511,-3330.926739,-12287.418637,-3753.867940
371.367834,-2368.659014,-13619.789333,-4290.134789
371.368157,-1184.329507,-12139.377449,-3064.381992
371.368479,592.164754,-9918.759623,-2374.896044
371.368802,3849.070898,-8068.244768,-1991.848295
371.369125,6143.709319,-7624.121203,-2298.286494
371.369447,7624.121203,-7031.956449,-2145.067394
371.369770,6587.832884,-6291.750507,-1072.533697
371.370093,4293.194464,-7476.080014,153.219100
371.370415,2072.576638,-9992.780217,1149.143247
371.370738,-222.061783,-10140.821405,1378.971896
371.371061,-2960.823768,-8956.491898,459.657299
371.371383,-4145.153275,-7698.141797,-766.095498
371.371706,-3330.926739,-8290.306550,-2681.334243
371.372029,-2146.597232,-8586.388927,-2451.505594
371.372351,-2590.720797,-8142.265362,0.000000
371.372674,-2590.720797,-7105.977043,-383.047749
371.372996,-2368.659014,-9992.780217,-2987.772442
371.373319,-370.102971,-14211.954086,-4443.353888
371.373642,148.041188,-14656.077652,-4979.620737
371.373964,0.000000,-13323.706956,-4903.011187
371.374287,2072.576638,-12509.480420,-3447.429741
371.374610,4737.318029,-11843.295072,-1608.800546
371.374932,6735.874072,-8586.388927,-766.095498
371.375255,6809.894666,-5477.523971,-1608.800546
371.375578,5847.626942,-5921.647536,-2451.505594
371.375900,4737.318029,-8956.491898,-2374.896044
371.376223,2590.720797,-9696.697840,-383.047749
371.376546,-444.123565,-8882.471304,1455.581446
371.376868,-3404.947333,-8882.471304,1378.971896
371.377191,-4663.297435,-8364.327145,1685.410096
371.377514,-5107.421000,-6143.709319,383.047749
371.377836,-5847.626942,-5403.503377,-536.266849
371.378159,-7031.956449,-7105.977043,-2221.676944
371.378482,-6809.894666,-9696.697840,-2451.505594
371.378804,-6069.688724,-10288.862594,-1149.143247
371.379127,-5477.523971,-9622.677246,-2757.943793
371.379449,-4737.318029,-12065.356855,-4903.011187
371.379772,-2812.782580,-14582.057057,-4826.401637
371.380095,-1332.370696,-14063.912898,-3600.648841
371.380417,0.000000,-12065.356855,-3447.429741
371.380740,1924.535449,-10732.986159,-2528.115143
371.381063,4959.379811,-8956.491898,-1991.848295
371.381385,7105.977043,-6439.791695,-1608.800546
371.381708,7105.977043,-5403.503377,-1532.190996
371.382031,6217.729913,-6661.853478,-383.047749
371.382353,4737.318029,-8660.409521,1225.752797
371.382676,2368.659014,-8808.450710,2757.943793
371.382999,-1258.350101,-8660.409521,3447.429741
371.383321,-3552.988522,-7994.224174,306.438199
371.383644,-4145.153275,-6883.915261,-1302.362347
371.383967,-4589.276840,-6365.771101,-995.924147
371.384289,-5329.482782,-6587.832884,-229.828649
371.384612,-6513.812290,-7624.121203,-1302.362347
371.384935,-6513.812290,-10584.944971,-3294.210641
371.385257,-6291.750507,-11991.336260,-4213.525239
371.385580,-6439.791695,-13101.645173,-5056.230287
371.385903,-5625.565159,-14730.098246,-5898.935335
371.386225,-2664.741391,-13989.892304,-5822.325785
371.386548,296.082377,-12361.439231,-5515.887586
371.386870,3182.885551,-11177.109724,-4060.306139
371.387193,5625.565159,-9696.697840,-1762.019645
371.387516,6291.750507,-7772.162391,-1378.971896
371.387838,6143.709319,-5551.544565,-1762.019645
371.388161,4515.256246,-6217.729913,0.000000
371.388484,3256.906145,-8734.430116,1149.143247
371.388806,1776.494261,-10066.800811,1838.629195
371.389129,-518.144159,-9252.574275,2374.896044
371.389452,-1776.494261,-7698.141797,2451.505594
371.389774,-1184.329507,-6957.935855,766.095498
371.390097,-444.123565,-6291.750507,-612.876398
371.390420,-1036.288319,-6513.812290,-842.705048
371.390742,-2146.597232,-7994.224174,-995.924147
371.391065,-2738.761985,-10214.842000,-1302.362347
371.391388,-3256.906145,-12213.398043,-2221.676944
371.391710,-4515.256246,-12953.603985,-2987.772442
371.392033,-4367.215058,-13545.768739,-4903.011187
371.392356,-3330.926739,-12805.562797,-5745.716235
371.392678,-1628.453072,-10807.006753,-4673.182538
371.393001,222.061783,-9178.553681,-3140.991542
371.393323,1776.494261,-7328.038826,-1685.410096
371.393646,2590.720797,-6143.709319,-1991.848295
371.393969,2664.741391,-5995.668130,-1762.019645
371.394291,2442.679609,-7698.141797,-1532.190996
371.394614,1406.391290,-9474.636058,-383.047749
371.394937,0.000000,-9770.718434,1149.143247
371.395259,-962.267725,-8586.388927,2528.115143
371.395582,-1480.411884,-7550.100608,1455.581446
371.395905,-962.267725,-7254.018232,-153.219100
371.396227,-592.164754,-7105.977043,-1149.143247
371.396550,-666.185348,-8216.285956,-1532.190996
371.396873,-814.226536,-9548.656652,-1685.410096
371.397195,-518.144159,-10658.965565,-1378.971896
371.397518,-592.164754,-11547.212695,-1991.848295
371.397841,-370.102971,-12805.562797,-3677.258390
371.398163,148.041188,-14211.954086,-4290.134789
371.398486,1184.329507,-13767.830521,-3753.867940
371.398809,2368.659014,-12287.418637,-3600.648841
371.399131,3256.906145,-10436.903782,-2068.457845
371.399454,3627.009116,-8512.368333,-919.314598
371.399776,3256.906145,-6587.832884,-1608.800546
371.400099,2072.576638,-6587.832884,-2374.896044
371.400422,814.226536,-7772.162391,-1838.629195
371.400744,-222.061783,-9918.759623,-1072.533697
371.401067,-2516.700203,-10214.842000,612.876398
371.401390,-4737.318029,-9474.636058,1762.019645
371.401712,-5699.585753,-8142.265362,995.924147
371.402035,-5033.400406,-6957.935855,-1302.362347
371.402358,-5255.462188,-6661.853478,-2298.286494
371.402680,-5847.626942,-6809.894666,-1685.410096
371.403003,-6291.750507,-7328.038826,-1532.190996
371.403326,-5329.482782,-9030.512492,-1455.581446
371.403648,-4071.132681,-11325.150913,-2374.896044
371.403971,-2368.659014,-13397.727550,-3600.648841
371.404294,-1850.514855,-12879.583391,-3907.087040
371.404616,0.000000,-11843.295072,-3370.820191
371.404939,2368.659014,-10658.965565,-2451.505594
371.405262,4885.359217,-9104.533087,-2221.676944
371.405584,5847.626942,-7624.121203,-1608.800546
371.405907,5477.523971,-6735.874072,-1225.752797
371.406229,4959.379811,-6661.853478,-995.924147
371.406552,4219.173869,-8216.285956,-842.705048
371.406875,2738.761985,-9178.553681,-76.609550
371.407197,592.164754,-9918.759623,1225.752797
371.407520,-2442.679609,-9030.512492,1838.629195
371.407843,-3108.864956,-8660.409521,0.000000
371.408165,-3330.926739,-9252.574275,-2987.772442
371.408488,-3404.947333,-8808.450710,-2145.067394
371.408811,-3627.009116,-7179.997637,-1225.752797
371.409133,-3552.988522,-6365.771101,-1685.410096
371.409456,-2738.761985,-9474.636058,-2911.162892
371.409779,-740.205942,-12287.418637,-3217.601092
371.410101,-148.041188,-13619.789333,-4673.182538
371.410424,296.082377,-13915.871710,-4826.401637
371.410747,1332.370696,-13323.706956,-1991.848295
371.411069,3182.885551,-11547.212695,-1149.143247
371.411392,5477.523971,-7920.203579,-689.485948
371.411715,6217.729913,-5625.565159,-2451.505594
371.412037,5921.647536,-7402.059420,-2681.334243
371.412360,4737.318029,-9030.512492,-689.485948
371.412682,2072.576638,-7328.038826,1838.629195
371.413005,-2146.597232,-8364.327145,1455.581446
371.413328,-4367.215058,-9622.677246,995.924147
371.413650,-5329.482782,-8438.347739,459.657299
371.413973,-6439.791695,-6809.894666,-842.705048
371.414296,-7105.977043,-6587.832884,-1608.800546
371.414618,-5847.626942,-9178.553681,-2298.286494
371.414941,-4663.297435,-10584.944971,-3294.210641
371.415264,-3849.070898,-11325.150913,-1378.971896
371.415586,-4071.132681,-10436.903782,-2298.286494
371.415909,-3552.988522,-12361.439231,-4519.963438
371.416232,-1554.432478,-15100.201217,-4443.353888
371.416554,-592.164754,-12731.542202,-3753.867940
371.416877,-444.123565,-10214.842000,-2911.162892
371.417200,1850.514855,-8512.368333,-1378.971896
371.417522,5329.482782,-8364.327145,-1378.971896
371.417845,7624.121203,-8216.285956,-2068.457845
371.418168,7550.100608,-7254.018232,-1225.752797
371.418490,5699.585753,-6957.935855,1532.190996
371.418813,3182.885551,-8142.265362,3294.210641
371.419136,888.247130,-8734.430116,3677.258390
371.419458,-1998.556043,-7031.956449,1072.533697
371.419781,-4589.276840,-5033.400406,-2374.896044
371.420103,-5995.668130,-6069.688724,-2528.115143
371.420426,-5477.523971,-7476.080014,-612.876398
371.420749,-5403.503377,-9252.574275,-2145.067394
371.421071,-3701.029710,-11473.192101,-4443.353888
371.421394,-3108.864956,-11843.295072,-2757.943793
371.421717,-2590.720797,-12657.521608,-2451.505594
371.422039,-3182.885551,-13027.624579,-4213.525239
371.422362,-2146.597232,-13323.706956,-5592.497135
371.422685,222.061783,-11843.295072,-6128.763984
371.423007,2516.700203,-10955.047942,-4903.011187
371.423330,4219.173869,-10881.027347,-1072.533697
371.423653,5181.441594,-8882.471304,1378.971896
371.423975,6661.853478,-6439.791695,-689.485948
371.424298,8068.244768,-7179.997637,-2145.067394
371.424621,7550.100608,-8512.368333,383.047749
371.424943,4885.359217,-9178.553681,1838.629195
371.425266,814.226536,-7994.224174,3064.381992
371.425589,-2294.638420,-6735.874072,2987.772442
371.425911,-3701.029710,-6217.729913,842.705048
371.426234,-3997.112087,-5699.585753,-2451.505594
371.426556,-4959.379811,-5921.647536,-2987.772442
371.426879,-5847.626942,-8734.430116,-1838.629195
371.427202,-4737.318029,-11177.109724,-2298.286494
371.427524,-3034.844362,-13249.686362,-3064.381992
371.427847,-2886.803174,-13915.871710,-2528.115143
371.428170,-3997.112087,-12805.562797,-3983.696590
371.428492,-4737.318029,-12509.480420,-5132.839837
371.428815,-3849.070898,-11473.192101,-4903.011187
371.429138,-1702.473667,-9178.553681,-4366.744339
371.429460,222.061783,-7550.100608,-3447.429741
371.429783,3404.947333,-7476.080014,-2298.286494
371.430106,5625.565159,-8068.244768,-842.705048
371.430428,6365.771101,-8290.306550,-153.219100
371.430751,5847.626942,-8586.388927,842.705048
371.431074,3997.112087,-8068.244768,2374.896044
371.431396,1406.391290,-7105.977043,2298.286494
371.431719,-814.226536,-6513.812290,383.047749
371.432042,-2886.803174,-5921.647536,-919.314598
371.432364,-3627.009116,-6661.853478,-2528.115143
371.432687,-3552.988522,-8512.368333,-2374.896044
371.433009,-2664.741391,-9622.677246,-1302.362347
371.433332,-1628.453072,-10881.027347,-2451.505594
371.433655,-740.205942,-13101.645173,-3064.381992
371.433977,-592.164754,-14137.933492,-2528.115143
371.434300,-1480.411884,-13101.645173,-2757.943793
371.434623,-2294.638420,-11917.315666,-3983.696590
371.434945,-1998.556043,-10436.903782,-4979.620737
371.435268,-370.102971,-9326.594869,-4596.572988
371.435591,1628.453072,-8586.388927,-2911.162892
371.435913,3256.906145,-7402.059420,-1378.971896
371.436236,4219.173869,-8660.409521,-612.876398
371.436559,5033.400406,-9696.697840,0.000000
371.436881,4811.338623,-9252.574275,153.219100
371.437204,2442.679609,-8364.327145,919.314598
371.437527,-962.267725,-7550.100608,1608.800546
371.437849,-3775.050304,-7179.997637,306.438199
371.438172,-4811.338623,-7550.100608,-1072.533697
371.438495,-5477.523971,-7772.162391,-1685.410096
371.438817,-5107.421000,-9104.533087,-1378.971896
371.439140,-4293.194464,-9992.780217,-1302.362347
371.439462,-2516.700203,-11399.171507,-1608.800546
371.439785,-740.205942,-11769.274478,-2528.115143
371.440108,-370.102971,-12731.542202,-2528.115143
371.440430,-518.144159,-12583.501014,-1608.800546
371.440753,-1554.432478,-10881.027347,-2221.676944
371.441076,-1332.370696,-8956.491898,-3217.601092
371.441398,518.144159,-7994.224174,-4060.306139
371.441721,2886.803174,-8660.409521,-2911.162892
371.442044,4885.359217,-8660.409521,-1072.533697
371.442366,5255.462188,-8364.327145,383.047749
371.442689,4663.297435,-8512.368333,1072.533697
371.443011,3330.926739,-8586.388927,1378.971896
371.443334,962.267725,-8438.347739,459.657299
371.443656,-2072.576638,-7254.018232,-229.828649
371.443979,-4145.153275,-6439.791695,-2145.067394
371.444301,-5255.462188,-6809.894666,-1762.019645
371.444624,-4811.338623,-7476.080014,-1072.533697
371.444946,-3701.029710,-8808.450710,-689.485948
371.445269,-2368.659014,-10658.965565,-1838.629195
371.445591,-1628.453072,-11991.336260,-2834.553343
371.445914,-1554.432478,-12657.521608,-2068.457845
371.446236,-1776.494261,-11843.295072,-1991.848295
371.446559,-1924.535449,-10955.047942,-3140.991542
371.446881,-962.267725,-10066.800811,-4290.134789
371.447204,666.185348,-9474.636058,-3907.087040
371.447526,2516.700203,-8512.368333,-2757.943793
371.447849,4737.318029,-9104.533087,-1762.019645
371.448171,6291.750507,-9474.636058,-766.095498
371.448494,7105.977043,-9770.718434,-383.047749
371.448816,6143.709319,-8956.491898,153.219100
371.449138,3849.070898,-7772.162391,306.438199
371.449461,592.164754,-8142.265362,0.000000
371.449783,-1924.535449,-7772.162391,-459.657299
371.450106,-4219.173869,-7254.018232,-1149.143247
371.450428,-5995.668130,-7179.997637,-2068.457845
371.450751,-6291.750507,-8882.471304,-2068.457845
371.451073,-5033.400406,-10658.965565,-1915.238745
371.451396,-3108.864956,-11843.295072,-2757.943793
371.451718,-2368.659014,-11029.068536,-2451.505594
371.452041,-2146.597232,-10288.862594,-1991.848295
371.452363,-2368.659014,-10214.842000,-1838.629195
371.452686,-2368.659014,-10288.862594,-3140.991542
371.453008,-2368.659014,-9844.739029,-4213.525239
371.453331,-1184.329507,-8660.409521,-4596.572988
371.453653,1554.432478,-8660.409521,-3064.381992
371.453976,4219.173869,-9104.533087,-842.705048
371.454298,6587.832884,-10658.965565,-766.095498
371.454621,7402.059420,-9992.780217,306.438199
371.454943,5921.647536,-8364.327145,1072.533697
371.455266,3478.967927,-7994.224174,1225.752797
371.455588,296.082377,-7772.162391,229.828649
371.455911,-2664.741391,-6439.791695,-689.485948
371.456233,-4737.318029,-5625.565159,-1532.190996
371.456556,-5773.606348,-7105.977043,-2068.457845
371.456878,-5403.503377,-9104.533087,-1225.752797
371.457201,-3997.112087,-10288.862594,-1302.362347
371.457523,-2590.720797,-11325.150913,-3294.210641
371.457846,-2146.597232,-11843.295072,-3064.381992
371.458168,-1702.473667,-12287.418637,-2145.067394
371.458490,-2368.659014,-11547.212695,-2298.286494
371.458813,-2590.720797,-10732.986159,-3830.477490
371.459135,-1554.432478,-10732.986159,-4443.353888
371.459458,1110.308913,-9992.780217,-3600.648841
371.459780,2886.803174,-9474.636058,-2528.115143
371.460103,4589.276840,-9252.574275,-1225.752797
371.460425,5847.626942,-9770.718434,76.609550
371.460748,6587.832884,-9474.636058,459.657299
371.461070,5625.565159,-8068.244768,766.095498
371.461393,2294.638420,-7254.018232,536.266849
371.461715,-962.267725,-7624.121203,76.609550
371.462038,-3701.029710,-7476.080014,459.657299
371.462360,-5551.544565,-7550.100608,-459.657299
371.462683,-6587.832884,-8438.347739,-1762.019645
371.463005,-5995.668130,-9844.739029,-1532.190996
371.463328,-4441.235652,-11103.089130,-1762.019645
371.463650,-2886.803174,-11103.089130,-2374.896044
371.463973,-2442.679609,-10881.027347,-2451.505594
371.464295,-2812.782580,-10881.027347,-2681.334243
371.464618,-3034.844362,-11029.068536,-1838.629195
371.464940,-2886.803174,-10362.883188,-3830.477490
371.465263,-1850.514855,-9474.636058,-4903.011187
371.465585,814.226536,-9992.780217,-4596.572988
371.465908,3627.009116,-9622.677246,-1685.410096
371.466230,5625.565159,-8364.327145,612.876398
371.466553,6587.832884,-7846.182985,612.876398
371.466875,7105.977043,-7846.182985,612.876398
371.467198,6365.771101,-7846.182985,0.000000
371.467520,3997.112087,-7550.100608,0.000000
371.467842,592.164754,-7254.018232,536.266849
371.468165,-1258.350101,-7402.059420,459.657299
371.468487,-1924.535449,-7994.224174,-766.095498
371.468810,-2294.638420,-8808.450710,-612.876398
371.469132,-2664.741391,-9844.739029,-1225.752797
371.469455,-2886.803174,-10732.986159,-2068.457845
371.469777,-2590.720797,-9992.780217,-1838.629195
371.470100,-2442.679609,-9252.574275,-2911.162892
371.470422,-2368.659014,-10362.883188,-3677.258390
371.470745,-1924.535449,-11621.233289,-4290.134789
371.471067,-1406.391290,-11547.212695,-4903.011187
371.471390,0.000000,-11917.315666,-4673.182538
371.471712,1776.494261,-11695.253884,-2681.334243
371.472035,3330.926739,-10955.047942,-766.095498
371.472357,3849.070898,-7698.141797,229.828649
371.472680,4071.132681,-5625.565159,-995.924147
371.473002,3775.050304,-6809.894666,-2987.772442
371.473325,2960.823768,-9326.594869,-2068.457845
371.473647,814.226536,-8290.306550,0.000000
371.473970,-2812.782580,-7624.121203,689.485948
371.474292,-4959.379811,-9030.512492,766.095498
371.474615,-5477.523971,-9770.718434,76.609550
371.474937,-5995.668130,-8808.450710,-383.047749
371.475260,-6809.894666,-8512.368333,-2681.334243
371.475582,-6513.812290,-9474.636058,-2604.724693
371.475905,-5255.462188,-9622.677246,-2757.943793
371.476227,-3997.112087,-9696.697840,-2987.772442
371.476550,-3108.864956,-10288.862594,-3524.039291
371.476872,-2516.700203,-12139.377449,-3830.477490
371.477194,-1702.473667,-12657.521608,-3294.210641
371.477517,0.000000,-11325.150913,-2987.772442
371.477839,1850.514855,-10362.883188,-3140.991542
371.478162,4071.132681,-10066.800811,-1991.848295
371.478484,5107.421000,-8734.430116,-306.438199
371.478807,5329.482782,-6661.853478,229.828649
371.479129,4293.194464,-6143.709319,0.000000
371.479452,2664.741391,-7179.997637,383.047749
371.479774,592.164754,-7994.224174,1225.752797
371.480097,-2368.659014,-8142.265362,1072.533697
371.480419,-4737.318029,-8290.306550,0.000000
371.480742,-5033.400406,-9030.512492,-1455.581446
371.481064,-4293.194464,-9178.553681,-2374.896044
371.481387,-3182.885551,-9030.512492,-2451.505594
371.481709,-2368.659014,-9474.636058,-919.314598
371.482032,-2146.597232,-7920.203579,-1225.752797
371.482354,-1184.329507,-10362.883188,-2911.162892
371.482677,148.041188,-13693.809927,-3524.039291
371.482999,1406.391290,-13989.892304,-4213.525239
371.483322,1924.535449,-12879.583391,-4519.963438
371.483644,3256.906145,-11843.295072,-1991.848295
371.483967,4737.318029,-10362.883188,689.485948
371.484289,6513.812290,-7550.100608,1225.752797
371.484612,6365.771101,-5033.400406,-1225.752797
371.484934,5477.523971,-5403.503377,-1915.238745
371.485257,4737.318029,-7772.162391,-536.266849
371.485579,2738.761985,-8586.388927,1455.581446
371.485902,-296.082377,-8586.388927,2298.286494
371.486224,-3034.844362,-8808.450710,1685.410096
371.486546,-4145.153275,-8660.409521,766.095498
371.486869,-4811.338623,-7994.224174,-1225.752797
371.487191,-5921.647536,-7254.018232,-2298.286494
371.487514,-6661.853478,-8660.409521,-3600.648841
371.487836,-6217.729913,-10584.944971,-3753.867940
371.488159,-5255.462188,-11325.150913,-2451.505594
371.488481,-4959.379811,-10807.006753,-2451.505594
371.488804,-4589.276840,-12731.542202,-4749.792088
371.489126,-2590.720797,-13767.830521,-4443.353888
371.489449,-1036.288319,-11917.315666,-3753.867940
371.489771,0.000000,-9252.574275,-2451.505594
371.490094,2294.638420,-7698.141797,-1455.581446
371.490416,5107.421000,-7254.018232,-1378.971896
371.490739,6809.894666,-7328.038826,-2145.067394
371.491061,6291.750507,-7031.956449,0.000000
371.491384,3849.070898,-7698.141797,1149.143247
371.491706,1776.494261,-9696.697840,1991.848295
371.492029,-518.144159,-9400.615463,2451.505594
371.492351,-2664.741391,-7254.018232,0.000000
371.492674,-4293.194464,-6291.750507,-2757.943793
371.492996,-5107.421000,-6883.915261,-2451.505594
371.493319,-5477.523971,-7846.182985,-1532.190996
371.493641,-5403.503377,-9696.697840,-2987.772442
371.493964,-4663.297435,-10214.842000,-3140.991542
371.494286,-4145.153275,-11991.336260,-3064.381992
371.494609,-3330.926739,-13027.624579,-3524.039291
371.494931,-2146.597232,-13619.789333,-4290.134789
371.495254,-592.164754,-13027.624579,-5286.058936
371.495576,1036.288319,-10658.965565,-4826.401637
371.495898,2960.823768,-9770.718434,-1915.238745
371.496221,4737.318029,-8216.285956,842.705048
371.496543,6143.709319,-6365.771101,-1455.581446
371.496866,6143.709319,-7105.977043,-3294.210641
371.497188,6143.709319,-8882.471304,-383.047749
371.497511,4737.318029,-8290.306550,1991.848295
371.497833,740.205942,-7254.018232,1915.238745
371.498156,-2146.597232,-8068.244768,1532.190996
371.498478,-4293.194464,-7698.141797,612.876398
371.498801,-5921.647536,-7328.038826,-1225.752797
371.499123,-6439.791695,-7624.121203,-2221.676944
371.499446,-7254.018232,-8808.450710,-2681.334243
371.499768,-5477.523971,-11251.130318,-4290.134789
371.500091,-3552.988522,-12287.418637,-3064.381992
371.500413,-3552.988522,-11325.150913,-2068.457845
371.500736,-3849.070898,-12583.501014,-3294.210641
371.501058,-2072.576638,-14582.057057,-3983.696590
371.501381,-370.102971,-13249.686362,-5056.230287
371.501703,740.205942,-10436.903782,-4979.620737
371.502026,1850.514855,-9178.553681,-2145.067394
371.502348,4737.318029,-7105.977043,1149.143247
371.502671,7402.059420,-5773.606348,536.266849
371.502993,8438.347739,-5995.668130,-1378.971896
371.503316,8216.285956,-8586.388927,0.000000
371.503638,5773.606348,-8808.450710,3064.381992
371.503961,2294.638420,-8216.285956,3600.648841
371.504283,-740.205942,-7994.224174,2374.896044
371.504606,-2664.741391,-6957.935855,-306.438199
371.504928,-3849.070898,-5921.647536,-1915.238745
371.505250,-4515.256246,-6513.812290,-1991.848295
371.505573,-4885.359217,-9400.615463,-2681.334243
371.505895,-4219.173869,-12361.439231,-2987.772442
371.506218,-3256.906145,-11917.315666,-1378.971896
371.506540,-3552.988522,-11029.068536,-2757.943793
371.506863,-3404.947333,-13027.624579,-4826.401637
371.507185,-2294.638420,-13915.871710,-5515.887586
371.507508,-740.205942,-12287.418637,-5056.230287
371.507830,74.020594,-10214.842000,-3983.696590
371.508153,1998.556043,-10214.842000,-1838.629195
371.508475,4145.153275,-8882.471304,919.314598
371.508798,5699.585753,-6069.688724,612.876398
371.509120,5995.668130,-5107.421000,-1991.848295
371.509443,5699.585753,-8586.388927,-842.705048
371.509765,4293.194464,-9770.718434,2298.286494
371.510088,444.123565,-7328.038826,3600.648841
371.510410,-3478.967927,-6883.915261,2604.724693
371.510733,-5107.421000,-7550.100608,689.485948
371.511055,-5107.421000,-6809.894666,-2298.286494
371.511378,-5551.544565,-6439.791695,-3600.648841
371.511700,-6957.935855,-8142.265362,-1915.238745
371.512023,-6809.894666,-10732.986159,-1608.800546
371.512345,-5329.482782,-12805.562797,-3140.991542
371.512668,-4441.235652,-12953.603985,-4136.915689
371.512990,-4663.297435,-13619.789333,-4366.744339
371.513313,-4589.276840,-13397.727550,-4979.620737
371.513635,-2590.720797,-11843.295072,-4979.620737
371.513958,-814.226536,-9548.656652,-2911.162892
371.514280,1850.514855,-7402.059420,-2451.505594
371.514602,4515.256246,-7476.080014,-3294.210641
371.514925,5995.668130,-8660.409521,-1838.629195
371.515247,6143.709319,-7476.080014,612.876398
371.515570,4589.276840,-7105.977043,612.876398
371.515892,2664.741391,-8586.388927,1072.533697
371.516215,444.123565,-8734.430116,2528.115143
371.516537,-1998.556043,-7105.977043,766.095498
371.516860,-3775.050304,-6291.750507,-1455.581446
371.517182,-4145.153275,-7179.997637,-2145.067394
371.517505,-3552.988522,-7772.162391,-2145.067394
371.517827,-3108.864956,-9030.512492,-2451.505594
371.518150,-2072.576638,-10584.944971,-2528.115143
371.518472,-1776.494261,-11843.295072,-2451.505594
371.518795,-1628.453072,-12583.501014,-3217.601092
371.519117,-1110.308913,-13915.871710,-3830.477490
371.519440,-518.144159,-13545.768739,-4519.963438
371.519762,666.185348,-11399.171507,-5209.449386
371.520085,2442.679609,-9696.697840,-4060.306139
371.520407,4367.215058,-9622.677246,-1225.752797
371.520730,6217.729913,-7624.121203,1149.143247
371.521052,6365.771101,-5921.647536,-689.485948
371.521375,5625.565159,-6957.935855,-1685.410096
371.521697,4663.297435,-9326.594869,842.705048
371.522020,2812.782580,-8660.409521,2374.896044
371.522342,-814.226536,-7624.121203,1608.800546
371.522665,-3404.947333,-7476.080014,919.314598
371.522987,-4367.215058,-6957.935855,306.438199
371.523310,-4663.297435,-6735.874072,-1302.362347
371.523632,-4811.338623,-7328.038826,-2451.505594
371.523954,-5181.441594,-9770.718434,-2604.724693
371.524277,-4589.276840,-11769.274478,-3217.601092
371.524599,-3849.070898,-12805.562797,-3140.991542
371.524922,-3404.947333,-12435.459826,-2604.724693
371.525244,-3108.864956,-12731.542202,-3524.039291
371.525567,-2442.679609,-12287.418637,-4596.572988
371.525889,-888.247130,-11325.150913,-3983.696590
371.526212,814.226536,-8808.450710,-2757.943793
371.526534,2664.741391,-7476.080014,-1608.800546
371.526857,5033.400406,-7476.080014,-1455.581446
371.527179,6291.750507,-8290.306550,-383.047749
371.527502,6365.771101,-7994.224174,536.266849
371.527824,4589.276840,-7698.141797,1378.971896
371.528147,2368.659014,-8808.450710,2451.505594
371.528469,0.000000,-8734.430116,2451.505594
371.528792,-2516.700203,-7031.956449,459.657299
371.529114,-4737.318029,-5921.647536,-1915.238745
371.529437,-4959.379811,-7402.059420,-2298.286494
371.529759,-3849.070898,-9104.533087,-1762.019645
371.530082,-3256.906145,-10362.883188,-2604.724693
371.530404,-3108.864956,-11029.068536,-2528.115143
371.530727,-2886.803174,-11843.295072,-1838.629195
371.531049,-2590.720797,-12509.480420,-3064.381992
371.531372,-2220.617826,-13323.706956,-4519.963438
371.531694,-1036.288319,-12139.377449,-4903.011187
371.532017,0.000000,-10140.821405,-5056.230287
371.532339,1998.556043,-8956.491898,-2757.943793
371.532662,3997.112087,-8216.285956,919.314598
371.532984,5033.400406,-7476.080014,-536.266849
371.533306,4959.379811,-7624.121203,-2681.334243
371.533629,5033.400406,-9178.553681,-1072.533697
371.533951,2960.823768,-7772.162391,2374.896044
371.534274,74.020594,-7550.100608,1532.190996
371.534596,-2664.741391,-7772.162391,1225.752797
371.534919,-4219.173869,-6883.915261,842.705048
371.535241,-5255.462188,-6661.853478,-1378.971896
371.535564,-5477.523971,-7550.100608,-1532.190996
371.535886,-5699.585753,-8438.347739,-2451.505594
371.536209,-5181.441594,-10288.862594,-3294.210641
371.536531,-3330.926739,-11473.192101,-3064.381992
371.536854,-2442.679609,-12065.356855,-2374.896044
371.537176,-2590.720797,-12361.439231,-3064.381992
371.537499,-2368.659014,-12065.356855,-4749.792088
371.537821,-1628.453072,-11621.233289,-4673.182538
371.538144,666.185348,-10510.924376,-4673.182538
371.538466,2738.761985,-9400.615463,-3524.039291
371.538789,4071.132681,-8734.430116,-1149.143247
371.539111,5625.565159,-7402.059420,0.000000
371.539434,5921.647536,-7105.977043,-842.705048
371.539756,5625.565159,-8142.265362,-612.876398
371.540079,3923.091493,-9104.533087,766.095498
371.540401,1036.288319,-9178.553681,1072.533697
371.540724,-1702.473667,-8364.327145,536.266849
371.541046,-2590.720797,-7920.203579,0.000000
371.541369,-2738.761985,-7698.141797,-1685.410096
371.541691,-3034.844362,-7920.203579,-1991.848295
371.542014,-3552.988522,-8956.491898,-1532.190996
371.542336,-4071.132681,-9696.697840,-1608.800546
371.542659,-3552.988522,-10658.965565,-2221.676944
371.542981,-2664.741391,-11843.295072,-3600.648841
371.543304,-1628.453072,-12879.583391,-4979.620737
371.543626,-740.205942,-13027.624579,-5822.325785
371.543949,296.082377,-12213.398043,-4060.306139
371.544271,1850.514855,-10955.047942,-1685.410096
371.544594,3552.988522,-9474.636058,-995.924147
371.544916,4145.153275,-8364.327145,-1378.971896
371.545239,3330.926739,-7328.038826,-689.485948
371.545561,2442.679609,-6883.915261,-459.657299
371.545884,1628.453072,-7402.059420,-995.924147
371.546206,1110.308913,-7772.162391,1072.533697
371.546529,0.000000,-8512.368333,1838.629195
371.546851,-1850.514855,-8142.265362,1762.019645
371.547174,-2812.782580,-8364.327145,1455.581446
371.547497,-2812.782580,-8586.388927,153.219100
371.547819,-3182.885551,-8068.244768,-1762.019645
371.548142,-3849.070898,-8068.244768,-2451.505594
371.548464,-4515.256246,-8586.388927,-1915.238745
371.548787,-4515.256246,-9770.718434,-2221.676944
371.549109,-3552.988522,-11473.192101,-3294.210641
371.549432,-2220.617826,-12657.521608,-4060.306139
371.549754,-1036.288319,-12583.501014,-4596.572988
371.550077,0.000000,-12435.459826,-3983.696590
371.550399,1702.473667,-11399.171507,-1991.848295
371.550722,3256.906145,-9474.636058,-919.314598
371.551044,3923.091493,-7179.997637,-995.924147
371.551367,3997.112087,-5847.626942,-1762.019645
371.551690,3478.967927,-5699.585753,-842.705048
371.552012,2812.782580,-7105.977043,-842.705048
371.552335,2220.617826,-8956.491898,536.266849
371.552657,296.082377,-9326.594869,1915.238745
371.552980,-1110.308913,-8808.450710,1915.238745
371.553302,-1332.370696,-9548.656652,0.000000
371.553625,-2294.638420,-9400.615463,-1225.752797
371.553947,-2590.720797,-8808.450710,-1685.410096
371.554270,-3182.885551,-7624.121203,-2451.505594
371.554592,-2738.761985,-7772.162391,-3294.210641
371.554915,-2072.576638,-9770.718434,-3753.867940
371.555237,-962.267725,-12065.356855,-3753.867940
371.555560,-148.041188,-13471.748144,-3370.820191
371.555883,444.123565,-13545.768739,-3907.087040
371.556205,1850.514855,-12657.521608,-3600.648841
371.556528,3552.988522,-11399.171507,-2681.334243
371.556850,4367.215058,-9326.594869,-1762.019645
371.557173,4219.173869,-7179.997637,-842.705048
371.557495,3775.050304,-5033.400406,-995.924147
371.557818,3775.050304,-5551.544565,-1991.848295
371.558140,2664.741391,-7328.038826,-612.876398
371.558463,888.247130,-9400.615463,842.705048
371.558785,-1998.556043,-10288.862594,1608.800546
371.559108,-4367.215058,-10288.862594,842.705048
371.559430,-5181.441594,-9474.636058,-229.828649
371.559753,-5329.482782,-7994.224174,-1608.800546
371.560075,-6069.688724,-6069.688724,-2757.943793
371.560398,-5847.626942,-7105.977043,-3524.039291
371.560721,-5477.523971,-8660.409521,-3677.258390
371.561043,-3997.112087,-11621.233289,-3983.696590
371.561366,-2812.782580,-14063.912898,-3830.477490
371.561688,-1998.556043,-15248.242405,-2911.162892
371.562011,-740.205942,-13767.830521,-2911.162892
371.562333,1480.411884,-11399.171507,-3447.429741
371.562656,3552.988522,-9104.533087,-2068.457845
371.562978,4441.235652,-6365.771101,-766.095498
371.563301,4293.194464,-4737.318029,-995.924147
371.563623,3923.091493,-4959.379811,-995.924147
371.563946,3182.885551,-6661.853478,-306.438199
371.564268,1332.370696,-8882.471304,612.876398
371.564591,-296.082377,-10584.944971,1915.238745
371.564914,-1776.494261,-10436.903782,1991.848295
371.565236,-3034.844362,-9030.512492,306.438199
371.565559,-4071.132681,-8216.285956,-1225.752797
371.565881,-4071.132681,-7846.182985,-1378.971896
371.566204,-4441.235652,-7254.018232,-2451.505594
371.566526,-3923.091493,-8586.388927,-4443.353888
371.566849,-2590.720797,-10658.965565,-4290.134789
371.567171,-814.226536,-13323.706956,-3294.210641
371.567494,148.041188,-15026.180623,-2911.162892
371.567816,1258.350101,-14804.118840,-2451.505594
371.568139,2368.659014,-12731.542202,-2374.896044
371.568461,3849.070898,-10066.800811,-2451.505594
371.568784,5033.400406,-7476.080014,-995.924147
371.569106,4885.359217,-5477.523971,-153.219100
371.569429,3997.112087,-4811.338623,-153.219100
371.569752,3034.844362,-6143.709319,0.000000
371.570074,2368.659014,-7994.224174,1302.362347
371.570397,1332.370696,-8956.491898,1532.190996
371.570719,-888.247130,-9474.636058,1532.190996
371.571042,-3256.906145,-8290.306550,1991.848295
371.571364,-4441.235652,-7402.059420,612.876398
371.571687,-5181.441594,-6661.853478,-1532.190996
371.572009,-5995.668130,-7402.059420,-2221.676944
371.572332,-6883.915261,-8142.265362,-3064.381992
371.572654,-7105.977043,-9918.759623,-4366.744339
371.572977,-5699.585753,-12361.439231,-4213.525239
371.573299,-3627.009116,-14211.954086,-4290.134789
371.573622,-2220.617826,-15100.201217,-4213.525239
371.573945,-1110.308913,-13915.871710,-2834.553343
371.574267,814.226536,-11399.171507,-2834.553343
371.574590,2738.761985,-8882.471304,-2834.553343
371.574912,4737.318029,-7031.956449,-2451.505594
371.575235,5255.462188,-5477.523971,-1225.752797
371.575557,4885.359217,-5329.482782,-689.485948
371.575880,4071.132681,-6365.771101,689.485948
371.576202,3849.070898,-8142.265362,1149.143247
371.576525,2590.720797,-9474.636058,1455.581446
371.576847,518.144159,-9252.574275,1072.533697
371.577170,-1184.329507,-8956.491898,306.438199
371.577492,-2886.803174,-8290.306550,-229.828649
371.577815,-3701.029710,-7476.080014,-1225.752797
371.578137,-5181.441594,-7105.977043,-2757.943793
371.578460,-4959.379811,-8882.471304,-4443.353888
371.578783,-4515.256246,-10732.986159,-5132.839837
371.579105,-3256.906145,-13175.665768,-5132.839837
371.579428,-2072.576638,-15174.221811,-4673.182538
371.579750,-740.205942,-15470.304188,-3524.039291
371.580073,1110.308913,-13841.851115,-3370.820191
371.580395,3108.864956,-10584.944971,-3524.039291
371.580718,4737.318029,-8438.347739,-3370.820191
371.581040,4737.318029,-6587.832884,-2374.896044
371.581363,4663.297435,-5847.626942,0.000000
371.581685,3552.988522,-5921.647536,689.485948
371.582008,2738.761985,-6365.771101,689.485948
371.582330,1702.473667,-7920.203579,612.876398
371.582653,962.267725,-9252.574275,1072.533697
371.582976,-1184.329507,-8882.471304,1532.190996
371.583298,-2812.782580,-7920.203579,766.095498
371.583621,-3849.070898,-7328.038826,306.438199
371.583943,-4737.318029,-7179.997637,-612.876398
371.584266,-6069.688724,-7402.059420,-2681.334243
371.584588,-6587.832884,-9030.512492,-4366.744339
371.584911,-6439.791695,-11843.295072,-4903.011187
371.585233,-5477.523971,-14582.057057,-4290.134789
371.585556,-4219.173869,-15766.386565,-3524.039291
371.585878,-2738.761985,-14878.139434,-2987.772442
371.586201,-296.082377,-13101.645173,-3370.820191
371.586523,1924.535449,-10510.924376,-3447.429741
371.586846,3701.029710,-7698.141797,-2374.896044
371.587169,4367.215058,-5551.544565,-1072.533697
371.587491,4441.235652,-4589.276840,0.000000
371.587814,3849.070898,-5033.400406,995.924147
371.588136,2960.823768,-6513.812290,1608.800546
371.588459,2368.659014,-8438.347739,995.924147
371.588781,1184.329507,-9474.636058,919.314598
371.589104,148.041188,-9474.636058,1072.533697
371.589426,-814.226536,-9030.512492,1149.143247
371.589749,-1998.556043,-8142.265362,459.657299
371.590071,-2960.823768,-7550.100608,-689.485948
371.590394,-3997.112087,-7772.162391,-3447.429741
371.590716,-3627.009116,-9770.718434,-4903.011187
371.591039,-2960.823768,-11473.192101,-5362.668486
371.591361,-1406.391290,-13693.809927,-4060.306139
371.591684,-444.123565,-14878.139434,-3370.820191
371.592007,1258.350101,-15544.324782,-2298.286494
371.592329,2738.761985,-13471.748144,-2681.334243
371.592652,3997.112087,-10140.821405,-3294.210641
371.592974,4589.276840,-8142.265362,-2451.505594
371.593297,4811.338623,-6513.812290,-153.219100
371.593619,4219.173869,-5107.421000,306.438199
371.593942,2738.761985,-4589.276840,766.095498
371.594264,2072.576638,-6143.709319,612.876398
371.594587,962.267725,-7772.162391,1072.533697
371.594909,-592.164754,-8068.244768,1378.971896
371.595232,-2516.700203,-8438.347739,1149.143247
371.595554,-4293.194464,-8660.409521,229.828649
371.595877,-5921.647536,-8364.327145,-383.047749
371.596200,-7402.059420,-7550.100608,-1532.190996
371.596522,-8808.450710,-7476.080014,-3753.867940
371.596845,-8364.327145,-9474.636058,-6205.373534
371.597167,-7105.977043,-12287.418637,-6052.154434
371.597490,-5329.482782,-13989.892304,-4826.401637
371.597812,-3701.029710,-15544.324782,-3753.867940
371.598135,-1702.473667,-15322.262999,-2528.115143
371.598457,1036.288319,-12731.542202,-2911.162892
371.598780,3478.967927,-9474.636058,-3294.210641
371.599102,4885.359217,-5921.647536,-1915.238745
371.599425,5773.606348,-4441.235652,-766.095498
371.599747,5403.503377,-4367.215058,-383.047749
371.600070,4737.318029,-5773.606348,842.705048
371.600392,3404.947333,-7550.100608,1838.629195
371.600715,1776.494261,-9252.574275,1532.190996
371.601038,74.020594,-10362.883188,1225.752797
371.601360,-1406.391290,-9918.759623,1302.362347
371.601683,-2368.659014,-7994.224174,76.609550
371.602005,-3108.864956,-7550.100608,-1149.143247
371.602328,-4811.338623,-8216.285956,-2221.676944
371.602650,-6291.750507,-8290.306550,-3294.210641
371.602973,-6069.688724,-9992.780217,-5056.230287
371.603295,-5181.441594,-12065.356855,-6052.154434
371.603618,-3627.009116,-14359.995275,-4749.792088
371.603940,-1998.556043,-15988.448347,-3677.258390
371.604263,0.000000,-14434.015869,-3753.867940
371.604585,2072.576638,-12213.398043,-3447.429741
371.604908,4737.318029,-9696.697840,-2987.772442
371.605231,6069.688724,-7402.059420,-2681.334243
371.605553,5699.585753,-4737.318029,0.000000
371.605876,5107.421000,-4293.194464,1455.581446
371.606198,4589.276840,-5625.565159,842.705048
371.606521,4515.256246,-8734.430116,1225.752797
371.606843,3701.029710,-9474.636058,2834.553343
371.607166,1554.432478,-8586.388927,2528.115143
371.607488,-370.102971,-7624.121203,2068.457845
371.607811,-1702.473667,-7179.997637,1685.410096
371.608133,-2738.761985,-6735.874072,459.657299
371.608456,-4663.297435,-6883.915261,-2145.067394
371.608778,-6661.853478,-8364.327145,-3370.820191
371.609101,-7328.038826,-11029.068536,-3677.258390
371.609424,-6365.771101,-13101.645173,-3983.696590
371.609746,-4959.379811,-14285.974681,-3830.477490
371.610069,-3923.091493,-14804.118840,-3370.820191
371.610391,-2516.700203,-13693.809927,-3600.648841
371.610714,-444.123565,-10881.027347,-3753.867940
371.611036,1110.308913,-8586.388927,-3600.648841
371.611359,2368.659014,-6883.915261,-2451.505594
371.611681,3034.844362,-5477.523971,-1225.752797
371.612004,2960.823768,-4811.338623,-1302.362347
371.612326,3108.864956,-6661.853478,-1225.752797
371.612649,3256.906145,-8290.306550,229.828649
371.612971,2516.700203,-9622.677246,1455.581446
371.613294,1184.329507,-9696.697840,2068.457845
371.613616,-444.123565,-8586.388927,1378.971896
371.613939,-1480.411884,-7772.162391,-766.095498
371.614262,-3034.844362,-7254.018232,-1455.581446
371.614584,-3627.009116,-7624.121203,-1762.019645
371.614907,-4737.318029,-8364.327145,-3217.601092
371.615229,-4515.256246,-10066.800811,-4443.353888
371.615552,-3108.864956,-12287.418637,-4136.915689
371.615874,-2368.659014,-14434.015869,-3140.991542
371.616197,-1776.494261,-15174.221811,-3294.210641
371.616519,-296.082377,-13619.789333,-3983.696590
371.616842,1850.514855,-11473.192101,-4366.744339
371.617164,4145.153275,-9548.656652,-3524.039291
371.617487,5181.441594,-7994.224174,-1302.362347
371.617809,5107.421000,-6365.771101,-229.828649
371.618132,3997.112087,-5477.523971,0.000000
371.618455,3256.906145,-6735.874072,-766.095498
371.618777,2590.720797,-8956.491898,-229.828649
371.619100,518.144159,-9474.636058,995.924147
371.619422,-2220.617826,-8438.347739,1378.971896
371.619745,-3849.070898,-7994.224174,842.705048
371.620067,-4515.256246,-8216.285956,-306.438199
371.620390,-5033.400406,-7550.100608,-1072.533697
371.620712,-5477.523971,-7105.977043,-2604.724693
371.621035,-6217.729913,-7402.059420,-4366.744339
371.621357,-5551.544565,-10140.821405,-4673.182538
371.621680,-4145.153275,-12361.439231,-4443.353888
371.622002,-3330.926739,-14211.954086,-3830.477490
371.622325,-2368.659014,-15396.283594,-3140.991542
371.622647,-148.041188,-13767.830521,-2987.772442
371.622970,2072.576638,-10584.944971,-3907.087040
371.623293,4071.132681,-8290.306550,-3294.210641
371.623615,5329.482782,-6809.894666,-995.924147
371.623938,5403.503377,-5847.626942,-229.828649
371.624260,4737.318029,-5181.441594,612.876398
371.624583,3701.029710,-6217.729913,459.657299
371.624905,2368.659014,-8586.388927,766.095498
371.625228,888.247130,-9918.759623,1149.143247
371.625550,-962.267725,-9992.780217,1608.800546
371.625873,-2220.617826,-9030.512492,995.924147
371.626195,-2886.803174,-7624.121203,766.095498
371.626518,-3478.967927,-7179.997637,-689.485948
371.626840,-4441.235652,-7031.956449,-2528.115143
371.627163,-4811.338623,-8808.450710,-4443.353888
371.627486,-4293.194464,-11325.150913,-4673.182538
371.627808,-2812.782580,-13693.809927,-4136.915689
371.628131,-1924.535449,-14582.057057,-3753.867940
371.628453,-148.041188,-14804.118840,-3447.429741
371.628776,2294.638420,-13397.727550,-3370.820191
371.629098,4293.194464,-10658.965565,-3064.381992
371.629421,5329.482782,-8660.409521,-1762.019645
371.629743,4959.379811,-6587.832884,-306.438199
371.630066,4219.173869,-5329.482782,536.266849
371.630388,3108.864956,-5107.421000,689.485948
371.630711,2294.638420,-7105.977043,689.485948
371.631033,1480.411884,-9548.656652,1072.533697
371.631356,222.061783,-8956.491898,2451.505594
371.631678,-1332.370696,-8068.244768,2221.676944
371.632001,-2738.761985,-7254.018232,1302.362347
371.632324,-3627.009116,-7179.997637,689.485948
371.632646,-5033.400406,-6883.915261,-612.876398
371.632969,-6513.812290,-7105.977043,-3294.210641
371.633291,-6513.812290,-9400.615463,-4749.792088
371.633614,-5699.585753,-12065.356855,-4596.572988
371.633936,-4441.235652,-13767.830521,-3983.696590
371.634259,-2960.823768,-14211.954086,-3600.648841
371.634581,-1110.308913,-14359.995275,-3294.210641
371.634904,1258.350101,-12879.583391,-3217.601092
371.635226,2664.741391,-9474.636058,-3217.601092
371.635549,3775.050304,-7254.018232,-2757.943793
371.635871,3478.967927,-5403.503377,-1532.190996
371.636194,3108.864956,-4737.318029,-766.095498
371.636517,2812.782580,-5847.626942,-76.609550
371.636839,1850.514855,-7624.121203,229.828649
371.637162,740.205942,-9696.697840,306.438199
371.637484,-370.102971,-9622.677246,689.485948
371.637807,-1776.494261,-8956.491898,919.314598
371.638129,-2886.803174,-7920.203579,0.000000
371.638452,-3923.091493,-7179.997637,-842.705048
371.638774,-5329.482782,-6809.894666,-2987.772442
371.639097,-5699.585753,-8216.285956,-5056.230287
371.639419,-5033.400406,-10732.986159,-5745.716235
371.639742,-3330.926739,-13175.665768,-5286.058936
371.640064,-1924.535449,-14878.139434,-4443.353888
371.640387,-222.061783,-15988.448347,-3140.991542
371.640710,2220.617826,-14878.139434,-2604.724693
371.641032,4367.215058,-11621.233289,-3447.429741
371.641355,5847.626942,-8660.409521,-3370.820191
371.641677,6735.874072,-6735.874072,-1991.848295
371.642000,5847.626942,-5477.523971,-229.828649
371.642322,4441.235652,-5033.400406,459.657299
371.642645,3034.844362,-6365.771101,1072.533697
371.642967,2146.597232,-9178.553681,689.485948
371.643290,518.144159,-9844.739029,1149.143247
371.643612,-1036.288319,-9474.636058,1532.190996
371.643935,-3034.844362,-8586.388927,995.924147
371.644257,-4293.194464,-7402.059420,689.485948
371.644580,-5033.400406,-6439.791695,-1072.533697
371.644902,-6143.709319,-6439.791695,-3753.867940
371.645225,-6809.894666,-8068.244768,-4519.963438
371.645548,-6291.750507,-11843.295072,-4673.182538
371.645870,-5033.400406,-14730.098246,-4519.963438
371.646193,-3701.029710,-15766.386565,-4060.306139
371.646515,-1924.535449,-15470.304188,-2987.772442
371.646838,444.123565,-13027.624579,-3370.820191
371.647160,3330.926739,-9622.677246,-3447.429741
371.647483,4589.276840,-6217.729913,-1915.238745
371.647805,4959.379811,-4367.215058,-766.095498
371.648128,4959.379811,-4589.276840,0.000000
371.648450,4589.276840,-5995.668130,689.485948
371.648773,3552.988522,-7402.059420,2451.505594
371.649095,2664.741391,-9622.677246,2451.505594
371.649418,1628.453072,-9992.780217,2451.505594
371.649741,814.226536,-9252.574275,1915.238745
371.650063,-666.185348,-7846.182985,1532.190996
371.650386,-2368.659014,-7031.956449,536.266849
371.650708,-3997.112087,-6883.915261,-1072.533697
371.651031,-5403.503377,-7624.121203,-2757.943793
371.651353,-5773.606348,-9474.636058,-4903.011187
371.651676,-4663.297435,-12731.542202,-5362.668486
371.651998,-3330.926739,-14878.139434,-4213.525239
371.652321,-1776.494261,-15914.427753,-3600.648841
371.652643,-222.061783,-14878.139434,-2374.896044
371.652966,2072.576638,-12361.439231,-2681.334243
371.653288,4219.173869,-9474.636058,-3370.820191
371.653611,5033.400406,-6661.853478,-2834.553343
371.653934,4885.359217,-4811.338623,-612.876398
371.654256,3849.070898,-4663.297435,229.828649
371.654579,3552.988522,-6661.853478,0.000000
371.654901,2590.720797,-8734.430116,1072.533697
371.655224,1702.473667,-9400.615463,1838.629195
371.655546,0.000000,-8808.450710,1302.362347
371.655869,-1184.329507,-7772.162391,1532.190996
371.656191,-2812.782580,-7105.977043,536.266849
371.656514,-4441.235652,-6883.915261,-306.438199
371.656836,-6587.832884,-6735.874072,-1455.581446
371.657159,-7920.203579,-7772.162391,-3600.648841
371.657481,-8068.244768,-10066.800811,-5056.230287
371.657804,-6883.915261,-13545.768739,-6665.030833
371.658126,-5995.668130,-15322.262999,-5132.839837
371.658449,-4589.276840,-15322.262999,-4213.525239
371.658772,-2220.617826,-14582.057057,-3907.087040
371.659094,1480.411884,-12213.398043,-4060.306139
371.659417,4145.153275,-9548.656652,-4060.306139
371.659739,5847.626942,-6735.874072,-2757.943793
371.660062,6217.729913,-5477.523971,-842.705048
371.660384,5773.606348,-5107.421000,229.828649
371.660707,4737.318029,-5477.523971,76.609550
371.661029,3923.091493,-8068.244768,612.876398
371.661352,1924.535449,-9326.594869,1455.581446
371.661674,666.185348,-9252.574275,1072.533697
371.661997,-888.247130,-9030.512492,536.266849
371.662319,-2368.659014,-8364.327145,995.924147
371.662642,-3923.091493,-7105.977043,459.657299
371.662965,-5921.647536,-6291.750507,-1455.581446
371.663287,-6587.832884,-7179.997637,-4826.401637
371.663610,-6217.729913,-10881.027347,-6511.811733
371.663932,-5699.585753,-13175.665768,-6281.983084
371.664255,-4219.173869,-15248.242405,-4826.401637
371.664577,-1998.556043,-16432.571912,-4366.744339
371.664900,666.185348,-15396.283594,-3907.087040
371.665222,4071.132681,-12287.418637,-4060.306139
371.665545,5773.606348,-9178.553681,-3370.820191
371.665867,6365.771101,-6957.935855,-1762.019645
371.666190,6291.750507,-5995.668130,-689.485948
371.666512,4367.215058,-4959.379811,995.924147
371.666835,3404.947333,-5181.441594,1072.533697
371.667158,1998.556043,-7254.018232,689.485948
371.667480,1702.473667,-9178.553681,2068.457845
371.667803,814.226536,-8512.368333,3064.381992
371.668125,-518.144159,-7550.100608,2451.505594
371.668448,-2146.597232,-7476.080014,1762.019645
371.668770,-3552.988522,-7105.977043,459.657299
371.669093,-4737.318029,-6957.935855,-1915.238745
371.669415,-5403.503377,-8364.327145,-4443.353888
371.669738,-5403.503377,-10881.027347,-4826.401637
371.670060,-4589.276840,-13989.892304,-4903.011187
371.670383,-3108.864956,-15988.448347,-3370.820191
371.670705,-1554.432478,-16358.551318,-2145.067394
371.671028,0.000000,-14285.974681,-2374.896044
371.671350,2146.597232,-10732.986159,-3217.601092
371.671673,3627.009116,-7476.080014,-2911.162892
371.671996,3478.967927,-5255.462188,-1225.752797
371.672318,2738.761985,-3997.112087,153.219100
371.672641,2072.576638,-4219.173869,306.438199
371.672963,1702.473667,-6439.791695,383.047749
371.673286,1110.308913,-7772.162391,1685.410096
371.673608,666.185348,-9622.677246,1762.019645
371.673931,-370.102971,-9474.636058,1838.629195
371.674253,-814.226536,-9178.553681,1302.362347
371.674576,-1776.494261,-7994.224174,383.047749
371.674898,-3034.844362,-7328.038826,-383.047749
371.675221,-4589.276840,-7254.018232,-2987.772442
371.675543,-5625.565159,-8734.430116,-5209.449386
371.675866,-4959.379811,-11547.212695,-5822.325785
371.676189,-4071.132681,-13989.892304,-4519.963438
371.676511,-2738.761985,-15396.283594,-3907.087040
371.676834,-888.247130,-15322.262999,-2911.162892
371.677156,1998.556043,-13471.748144,-2834.553343
371.677479,4737.318029,-10658.965565,-2911.162892
371.677801,6735.874072,-7550.100608,-2451.505594
371.678124,6809.894666,-5255.462188,-306.438199
371.678446,5995.668130,-4441.235652,689.485948
371.678769,4219.173869,-5477.523971,766.095498
371.679091,2072.576638,-7698.141797,1072.533697
371.679414,296.082377,-9696.697840,919.314598
371.679736,-1036.288319,-9844.739029,383.047749
371.680059,-2368.659014,-9030.512492,0.000000
371.680381,-3330.926739,-8512.368333,0.000000
371.680704,-4293.194464,-7179.997637,-229.828649
371.681027,-5921.647536,-5995.668130,-1915.238745
371.681349,-7254.018232,-6735.874072,-4136.915689
371.681672,-8068.244768,-9030.512492,-6511.811733
371.681994,-7254.018232,-12287.418637,-7354.516781
371.682317,-5625.565159,-14952.160028,-6281.983084
371.682639,-3923.091493,-16284.530724,-4673.182538
371.682962,-1628.453072,-15692.365970,-2834.553343
371.683284,1036.288319,-12583.501014,-3064.381992
371.683607,3923.091493,-8882.471304,-3983.696590
371.683929,6069.688724,-6661.853478,-2911.162892
371.684252,6809.894666,-4811.338623,-919.314598
371.684574,6439.791695,-4219.173869,153.219100
371.684897,5329.482782,-5255.462188,536.266849
371.685220,4663.297435,-7772.162391,1685.410096
371.685542,3404.947333,-9992.780217,1915.238745
371.685865,1776.494261,-10807.006753,1915.238745
371.686187,-296.082377,-10140.821405,1608.800546
371.686510,-1850.514855,-9030.512492,919.314598
371.686832,-2738.761985,-7550.100608,76.609550
371.687155,-4145.153275,-6883.915261,-1302.362347
371.687477,-5033.400406,-8142.265362,-3753.867940
371.687800,-5033.400406,-9622.677246,-4826.401637
371.688122,-4145.153275,-11621.233289,-5286.058936
371.688445,-3034.844362,-14285.974681,-4366.744339
371.688767,-1776.494261,-16062.468941,-2911.162892
371.689090,-296.082377,-14952.160028,-1838.629195
371.689413,1628.453072,-11843.295072,-3140.991542
371.689735,3330.926739,-8586.388927,-3753.867940
371.690058,4293.194464,-6587.832884,-1608.800546
371.690380,3997.112087,-4885.359217,766.095498
371.690703,2960.823768,-4219.173869,459.657299
371.691025,1554.432478,-5773.606348,383.047749
371.691348,1036.288319,-7994.224174,1455.581446
371.691670,148.041188,-9326.594869,2145.067394
371.691993,-1184.329507,-9030.512492,1991.848295
371.692315,-2442.679609,-7994.224174,1762.019645
371.692638,-3330.926739,-7031.956449,1378.971896
371.692960,-3627.009116,-7105.977043,-306.438199
371.693283,-5107.421000,-7402.059420,-1762.019645
371.693605,-6143.709319,-8956.491898,-2757.943793
371.693928,-6217.729913,-10214.842000,-4136.915689
371.694251,-4663.297435,-12583.501014,-4366.744339
371.694573,-3701.029710,-14656.077652,-3677.258390
371.694896,-2368.659014,-15544.324782,-2681.334243
371.695218,-962.267725,-13619.789333,-2528.115143
371.695541,1406.391290,-10658.965565,-2757.943793
371.695863,3552.988522,-8882.471304,-3294.210641
371.696186,4441.235652,-6957.935855,-2528.115143
371.696508,3849.070898,-4811.338623,-459.657299
371.696831,2812.782580,-4219.173869,536.266849
371.697153,2590.720797,-6217.729913,0.000000
371.697476,2812.782580,-9400.615463,-459.657299
371.697798,2294.638420,-10362.883188,919.314598
371.698121,666.185348,-9844.739029,919.314598
371.698444,-666.185348,-9400.615463,536.266849
371.698766,-1628.453072,-8808.450710,536.266849
371.699089,-2516.700203,-7772.162391,-689.485948
371.699411,-4737.318029,-6883.915261,-2834.553343
371.699734,-5699.585753,-8216.285956,-5056.230287
371.700056,-5773.606348,-10214.842000,-6052.154434
371.700379,-4293.194464,-12065.356855,-5745.716235
371.700701,-2960.823768,-13619.789333,-4903.011187
371.701024,-888.247130,-14285.974681,-3983.696590
371.701346,1406.391290,-13101.645173,-3524.039291
371.701669,3404.947333,-10732.986159,-3677.258390
371.701991,4737.318029,-8808.450710,-3600.648841
371.702314,4811.338623,-7624.121203,-2298.286494
371.702637,4145.153275,-6883.915261,-995.924147
371.702959,3034.844362,-6735.874072,-229.828649
371.703282,2368.659014,-7254.018232,76.609550
371.703604,1850.514855,-8956.491898,459.657299
371.703927,1110.308913,-9844.739029,1149.143247
371.704249,296.082377,-9400.615463,1455.581446
371.704572,-814.226536,-8216.285956,1532.190996
371.704894,-1850.514855,-7476.080014,919.314598
371.705217,-2960.823768,-7179.997637,-383.047749
371.705539,-4145.153275,-7624.121203,-2298.286494
371.705862,-4737.318029,-8660.409521,-3677.258390
371.706184,-4515.256246,-10658.965565,-3983.696590
371.706507,-3849.070898,-13175.665768,-3907.087040
371.706829,-2812.782580,-14508.036463,-2604.724693
371.707152,-1850.514855,-13989.892304,-2451.505594
371.707475,-592.164754,-11917.315666,-2528.115143
371.707797,740.205942,-9548.656652,-3217.601092
371.708120,1850.514855,-7698.141797,-2604.724693
371.708442,1776.494261,-5625.565159,-1532.190996
371.708765,962.267725,-4515.256246,-995.924147
371.709087,518.144159,-5921.647536,-306.438199
371.709410,592.164754,-7624.121203,0.000000
371.709732,148.041188,-9252.574275,229.828649
371.710055,-592.164754,-10584.944971,1225.752797
371.710377,-1184.329507,-10362.883188,1991.848295
371.710700,-1406.391290,-9104.533087,1302.362347
371.711022,-2146.597232,-7772.162391,0.000000
371.711345,-2886.803174,-7179.997637,-919.314598
371.711668,-4515.256246,-6883.915261,-2451.505594
371.711990,-4589.276840,-7920.203579,-4519.963438
371.712313,-3330.926739,-10140.821405,-4979.620737
371.712635,-1406.391290,-12657.521608,-4213.525239
371.712958,370.102971,-14804.118840,-3524.039291
371.713280,2590.720797,-15248.242405,-1072.533697
371.713603,4145.153275,-13027.624579,-1072.533697
371.713925,6069.688724,-10362.883188,-2298.286494
371.714248,6735.874072,-7476.080014,-1915.238745
371.714570,5699.585753,-5699.585753,-995.924147
371.714893,3701.029710,-5181.441594,0.000000
371.715215,2072.576638,-6587.832884,306.438199
371.715538,888.247130,-8364.327145,229.828649
371.715861,222.061783,-10140.821405,229.828649
371.716183,-444.123565,-10436.903782,689.485948
371.716506,-1554.432478,-9474.636058,1302.362347
371.716828,-2442.679609,-8216.285956,383.047749
371.717151,-4219.173869,-6957.935855,0.000000
371.717473,-5477.523971,-5921.647536,-1762.019645
371.717796,-7476.080014,-5847.626942,-4060.306139
371.718118,-7402.059420,-8956.491898,-6205.373534
371.718441,-7031.956449,-11991.336260,-6818.249932
371.718763,-5033.400406,-14730.098246,-5439.278036
371.719086,-3034.844362,-15988.448347,-3753.867940
371.719408,-444.123565,-14508.036463,-2681.334243
371.719731,2146.597232,-12213.398043,-2987.772442
371.720053,4737.318029,-8956.491898,-3294.210641
371.720376,4959.379811,-6291.750507,-2451.505594
371.720699,4441.235652,-4811.338623,-1302.362347
371.721021,3849.070898,-4293.194464,-459.657299
371.721344,3478.967927,-5403.503377,-306.438199
371.721666,3108.864956,-7772.162391,1149.143247
371.721989,2886.803174,-10214.842000,995.924147
371.722311,2072.576638,-10955.047942,1608.800546
371.722634,444.123565,-10510.924376,919.314598
371.722956,-1332.370696,-9548.656652,919.314598
371.723279,-3923.091493,-8142.265362,689.485948
371.723601,-5477.523971,-6883.915261,-2604.724693
371.723924,-7254.018232,-7105.977043,-4519.963438
371.724246,-7105.977043,-9326.594869,-6281.983084
371.724569,-5477.523971,-11547.212695,-6358.592633
371.724892,-2960.823768,-14285.974681,-4673.182538
371.725214,-592.164754,-16062.468941,-2604.724693
371.725537,1110.308913,-14952.160028,-1532.190996
371.725859,2590.720797,-12435.459826,-2374.896044
371.726182,3330.926739,-9252.574275,-3294.210641
371.726504,3182.885551,-6513.812290,-2374.896044
371.726827,1924.535449,-4515.256246,-1762.019645
371.727149,1110.308913,-3997.112087,-1149.143247
371.727472,666.185348,-6365.771101,-536.266849
371.727794,1036.288319,-9178.553681,536.266849
371.728117,740.205942,-10510.924376,2145.067394
371.728439,-296.082377,-9992.780217,2451.505594
371.728762,-1184.329507,-9178.553681,2145.067394
371.729085,-2072.576638,-7476.080014,306.438199
371.729407,-3997.112087,-6809.894666,-766.095498
371.729730,-6661.853478,-6883.915261,-1915.238745
371.730052,-8438.347739,-7920.203579,-3140.991542
371.730375,-7698.141797,-9770.718434,-4673.182538
371.730697,-4885.359217,-12213.398043,-5439.278036
371.731020,-2072.576638,-14582.057057,-4213.525239
371.731342,666.185348,-15470.304188,-2221.676944
371.731665,2738.761985,-13915.871710,-612.876398
371.731987,4737.318029,-10955.047942,-766.095498
371.732310,5255.462188,-7698.141797,-1455.581446
371.732632,4811.338623,-5403.503377,-2374.896044
371.732955,4219.173869,-3849.070898,-1762.019645
371.733277,3849.070898,-4367.215058,-689.485948
371.733600,3627.009116,-7328.038826,0.000000
371.733923,3775.050304,-10510.924376,2374.896044
371.734245,3997.112087,-11473.192101,2757.943793
371.734568,2590.720797,-10732.986159,1532.190996
371.734890,1184.329507,-9844.739029,153.219100
371.735213,-1258.350101,-8364.327145,-459.657299
371.735535,-3330.926739,-6735.874072,-919.314598
371.735858,-5477.523971,-6069.688724,-3217.601092
371.736180,-7031.956449,-7031.956449,-4673.182538
371.736503,-5995.668130,-9844.739029,-5822.325785
371.736825,-3182.885551,-13249.686362,-5592.497135
371.737148,-1480.411884,-15248.242405,-3370.820191
371.737470,1184.329507,-15766.386565,-2298.286494
371.737793,2886.803174,-13619.789333,-1532.190996
371.738116,4663.297435,-10214.842000,-2451.505594
371.738438,5033.400406,-7254.018232,-2987.772442
371.738761,3701.029710,-5403.503377,-1991.848295
371.739083,2146.597232,-5033.400406,-1838.629195
371.739406,888.247130,-5551.544565,-1072.533697
371.739728,888.247130,-7994.224174,0.000000
371.740051,1110.308913,-11177.109724,1149.143247
371.740373,666.185348,-11769.274478,1838.629195
371.740696,0.000000,-10288.862594,1838.629195
371.741018,-1036.288319,-8808.450710,536.266849
371.741341,-2738.761985,-7624.121203,-383.047749
371.741663,-5181.441594,-6439.791695,-1072.533697
371.741986,-7624.121203,-5699.585753,-2528.115143
371.742309,-9030.512492,-7179.997637,-5056.230287
371.742631,-8068.244768,-10807.006753,-6205.373534
371.742954,-6217.729913,-14211.954086,-5362.668486
371.743276,-3701.029710,-15396.283594,-3677.258390
371.743599,-1628.453072,-14582.057057,-2528.115143
371.743921,222.061783,-12953.603985,-1991.848295
371.744244,2146.597232,-9770.718434,-2451.505594
371.744566,2368.659014,-6365.771101,-2757.943793
371.744889,2220.617826,-4737.318029,-2451.505594
371.745211,1924.535449,-4441.235652,-2221.676944
371.745534,2368.659014,-5847.626942,-1378.971896
371.745858,2664.741391,-8068.244768,0.000000
371.746181,2516.700203,-10436.903782,1302.362347
371.746503,1480.411884,-12139.377449,2145.067394
371.746826,740.205942,-11399.171507,1608.800546
371.747148,0.000000,-9474.636058,0.000000
371.747470,-2072.576638,-8290.306550,-1225.752797
371.747793,-4071.132681,-7402.059420,-1455.581446
371.748115,-5921.647536,-6809.894666,-2068.457845
371.748437,-5847.626942,-7550.100608,-4060.306139
371.748760,-4293.194464,-9474.636058,-5209.449386
371.749082,-2072.576638,-12953.603985,-4903.011187
371.749404,74.020594,-14582.057057,-3600.648841
371.749727,1258.350101,-13841.851115,-1991.848295
371.750049,2664.741391,-12805.562797,-1762.019645
371.750372,4441.235652,-10510.924376,-2451.505594
371.750694,4959.379811,-8142.265362,-3064.381992
371.751016,4145.153275,-6143.709319,-1991.848295
371.751339,2738.761985,-4811.338623,-536.266849
371.751661,2368.659014,-6217.729913,-229.828649
371.751983,2738.761985,-8512.368333,306.438199
371.752306,2664.741391,-10436.903782,1149.143247
371.752628,1628.453072,-10436.903782,1991.848295
371.752950,74.020594,-9252.574275,1685.410096
371.753273,-1554.432478,-8364.327145,766.095498
371.753595,-2960.823768,-7179.997637,153.219100
371.753918,-4737.318029,-5699.585753,-1455.581446
371.754240,-5847.626942,-5699.585753,-3140.991542
371.754562,-5847.626942,-7994.224174,-4213.525239
371.754885,-4811.338623,-10658.965565,-4136.915689
371.755207,-2886.803174,-13545.768739,-3370.820191
371.755529,-1628.453072,-14804.118840,-2604.724693
371.755852,-222.061783,-14582.057057,-1838.629195
371.756174,1184.329507,-12361.439231,-2374.896044
371.756496,2220.617826,-8956.491898,-2757.943793
371.756819,2886.803174,-6439.791695,-2451.505594
371.757141,2812.782580,-4737.318029,-2068.457845
371.757464,2886.803174,-4737.318029,-1915.238745
371.757786,2960.823768,-6957.935855,-689.485948
371.758108,2664.741391,-9178.553681,0.000000
371.758431,2072.576638,-11769.274478,919.314598
371.758753,148.041188,-11843.295072,1378.971896
371.759075,-740.205942,-10955.047942,1072.533697
371.759398,-2072.576638,-8956.491898,-766.095498
371.759720,-3330.926739,-7254.018232,-1532.190996
371.760042,-4737.318029,-6365.771101,-1838.629195
371.760365,-5329.482782,-6587.832884,-3294.210641
371.760687,-5329.482782,-8364.327145,-5056.230287
371.761010,-4219.173869,-11547.212695,-4826.401637
371.761332,-2664.741391,-14063.912898,-3907.087040
371.761654,-1184.329507,-14952.160028,-2757.943793
371.761977,888.247130,-14434.015869,-2604.724693
371.762299,2368.659014,-11991.336260,-2987.772442
371.762621,3775.050304,-9178.553681,-2834.553343
371.762944,4145.153275,-6883.915261,-2528.115143
371.763266,3478.967927,-4885.359217,-1225.752797
371.763588,2442.679609,-4515.256246,-1149.143247
371.763911,1628.453072,-7254.018232,-842.705048
371.764233,1776.494261,-10955.047942,0.000000
371.764555,962.267725,-11769.274478,1225.752797
371.764878,-518.144159,-10510.924376,1532.190996
371.765200,-1332.370696,-9178.553681,766.095498
371.765523,-1998.556043,-7550.100608,766.095498
371.765845,-3034.844362,-6069.688724,-536.266849
371.766167,-5255.462188,-5921.647536,-1915.238745
371.766490,-7031.956449,-7105.977043,-2451.505594
371.766812,-7105.977043,-9474.636058,-3370.820191
371.767134,-5847.626942,-11695.253884,-3524.039291
371.767457,-3923.091493,-13915.871710,-3983.696590
371.767779,-1850.514855,-14285.974681,-2911.162892
371.768101,518.144159,-13175.665768,-2221.676944
371.768424,2442.679609,-10214.842000,-2374.896044
371.768746,3849.070898,-7550.100608,-2221.676944
371.769069,4663.297435,-5995.668130,-1991.848295
371.769391,4515.256246,-4737.318029,-1991.848295
371.769713,4071.132681,-5477.523971,-2068.457845
371.770036,4071.132681,-8290.306550,-1685.410096
371.770358,3627.009116,-10658.965565,459.657299
371.770680,2294.638420,-11473.192101,2221.676944
371.771003,888.247130,-11399.171507,2145.067394
371.771325,0.000000,-10436.903782,919.314598
371.771647,-592.164754,-8660.409521,-919.314598
371.771970,-2442.679609,-7179.997637,-2604.724693
371.772292,-4515.256246,-6957.935855,-1762.019645
371.772615,-5847.626942,-7624.121203,-1915.238745
371.772937,-5181.441594,-7994.224174,-3447.429741
371.773259,-3182.885551,-10658.965565,-4519.963438
371.773582,-962.267725,-13693.809927,-4213.525239
371.773904,1184.329507,-14359.995275,-3447.429741
371.774226,2738.761985,-13249.686362,-2681.334243
371.774549,3404.947333,-11399.171507,-1762.019645
371.774871,3923.091493,-9844.739029,-1455.581446
371.775193,3330.926739,-7550.100608,-2757.943793
371.775516,1628.453072,-6143.709319,-2987.772442
371.775838,296.082377,-6217.729913,-2145.067394
371.776161,0.000000,-8438.347739,-995.924147
371.776483,0.000000,-10140.821405,0.000000
371.776805,-296.082377,-11029.068536,1685.410096
371.777128,-1110.308913,-9992.780217,1838.629195
371.777450,-888.247130,-8956.491898,1225.752797
371.777772,-2146.597232,-7772.162391,-153.219100
371.778095,-3849.070898,-6587.832884,0.000000
371.778417,-5625.565159,-5403.503377,-612.876398
371.778739,-6661.853478,-5921.647536,-2451.505594
371.779062,-5921.647536,-8734.430116,-3830.477490
371.779384,-4219.173869,-11769.274478,-3983.696590
371.779707,-2368.659014,-14063.912898,-3677.258390
371.780029,-962.267725,-14359.995275,-2298.286494
371.780351,814.226536,-13175.665768,-1685.410096
371.780674,2664.741391,-10955.047942,-2221.676944
371.780996,3627.009116,-8068.244768,-2987.772442
371.781318,3627.009116,-6513.812290,-2757.943793
371.781641,2664.741391,-5107.421000,-2834.553343
371.781963,2146.597232,-5329.482782,-1762.019645
371.782285,1924.535449,-7698.141797,0.000000
371.782608,1776.494261,-10510.924376,1378.971896
371.782930,518.144159,-11991.336260,1302.362347
371.783252,-148.041188,-11621.233289,1762.019645
371.783575,-740.205942,-10584.944971,459.657299
371.783897,-1480.411884,-9252.574275,-383.047749
371.784220,-3108.864956,-7254.018232,383.047749
371.784542,-4811.338623,-4885.359217,-1225.752797
371.784864,-4737.318029,-6365.771101,-3983.696590
371.785187,-3256.906145,-8956.491898,-4979.620737
371.785509,-1480.411884,-11917.315666,-5286.058936
371.785831,-296.082377,-14952.160028,-4826.401637
371.786154,1184.329507,-15026.180623,-2374.896044
371.786476,2664.741391,-13915.871710,-1915.238745
371.786798,3997.112087,-11399.171507,-2757.943793
371.787121,4071.132681,-9252.574275,-3677.258390
371.787443,2886.803174,-7179.997637,-3294.210641
371.787766,1332.370696,-5921.647536,-2145.067394
371.788088,1036.288319,-6661.853478,-1225.752797
371.788410,1258.350101,-8290.306550,-229.828649
371.788733,1480.411884,-10510.924376,459.657299
371.789055,814.226536,-11251.130318,1991.848295
371.789377,-1036.288319,-9696.697840,2451.505594
371.789700,-1628.453072,-8290.306550,1455.581446
371.790022,-2886.803174,-6883.915261,536.266849
371.790344,-4737.318029,-5329.482782,-536.266849
371.790667,-6217.729913,-4811.338623,-2298.286494
371.790989,-6143.709319,-7105.977043,-4060.306139
371.791312,-4737.318029,-10584.944971,-4290.134789
371.791634,-2442.679609,-13101.645173,-3600.648841
371.791956,-888.247130,-14730.098246,-2221.676944
371.792279,0.000000,-14508.036463,-842.705048
371.792601,1332.370696,-12139.377449,-1762.019645
371.792923,2072.576638,-9030.512492,-2911.162892
371.793246,2368.659014,-6439.791695,-3064.381992
371.793568,2146.597232,-3923.091493,-2604.724693
371.793890,1776.494261,-3775.050304,-2757.943793
371.794213,2368.659014,-6661.853478,-1149.143247
371.794535,2516.700203,-8808.450710,1455.581446
371.794858,1554.432478,-11103.089130,2221.676944
371.795180,296.082377,-12287.418637,1991.848295
371.795502,-740.205942,-11473.192101,1378.971896
371.795825,-1554.432478,-9400.615463,-459.657299
371.796147,-2886.803174,-7698.141797,-1762.019645
371.796469,-4293.194464,-6513.812290,-1378.971896
371.796792,-5921.647536,-6291.750507,-1838.629195
371.797114,-5255.462188,-7105.977043,-4060.306139
371.797436,-3108.864956,-10214.842000,-5286.058936
371.797759,-740.205942,-14211.954086,-5286.058936
371.798081,814.226536,-15470.304188,-4443.353888
371.798403,1628.453072,-14804.118840,-1838.629195
371.798726,2812.782580,-13323.706956,-1608.800546
371.799048,4219.173869,-10732.986159,-2451.505594
371.799371,4145.153275,-7402.059420,-3524.039291
371.799693,2812.782580,-5033.400406,-2757.943793
371.800015,1332.370696,-4737.318029,-1302.362347
371.800338,1036.288319,-7920.203579,-1149.143247
371.800660,888.247130,-11029.068536,689.485948
371.800982,148.041188,-11695.253884,1991.848295
371.801305,-1332.370696,-10436.903782,1608.800546
371.801627,-2220.617826,-9030.512492,1378.971896
371.801949,-2072.576638,-7105.977043,0.000000
371.802272,-3330.926739,-5255.462188,-689.485948
371.802594,-4737.318029,-4589.276840,-1608.800546
371.802917,-5847.626942,-5551.544565,-2298.286494
371.803239,-5403.503377,-8068.244768,-3370.820191
371.803561,-3701.029710,-11991.336260,-4290.134789
371.803884,-2442.679609,-14434.015869,-3447.429741
371.804206,-1110.308913,-15100.201217,-2681.334243
371.804528,518.144159,-13693.809927,-2221.676944
371.804851,2590.720797,-11251.130318,-2221.676944
371.805173,4071.132681,-8438.347739,-2834.553343
371.805495,4441.235652,-5995.668130,-2221.676944
371.805818,4367.215058,-3552.988522,-1608.800546
371.806140,3923.091493,-4293.194464,-1225.752797
371.806463,3256.906145,-7846.182985,-229.828649
371.806785,1998.556043,-11621.233289,1149.143247
371.807107,666.185348,-12435.459826,2451.505594
371.807430,-962.267725,-11325.150913,2221.676944
371.807752,-2146.597232,-9548.656652,229.828649
371.808074,-2368.659014,-8216.285956,-459.657299
371.808397,-3923.091493,-5995.668130,-919.314598
371.808719,-4145.153275,-6069.688724,-2221.676944
371.809041,-4959.379811,-7328.038826,-2681.334243
371.809364,-4293.194464,-9474.636058,-3447.429741
371.809686,-3478.967927,-11547.212695,-4749.792088
371.810009,-2516.700203,-14434.015869,-4213.525239
371.810331,-1332.370696,-15470.304188,-3064.381992
371.810653,222.061783,-13989.892304,-3447.429741
371.810976,1776.494261,-11547.212695,-3600.648841
371.811298,2368.659014,-9400.615463,-2911.162892
371.811620,2516.700203,-7031.956449,-2221.676944
371.811943,2220.617826,-5625.565159,-2374.896044
371.812265,2072.576638,-6439.791695,-1915.238745
371.812587,2072.576638,-9770.718434,-995.924147
371.812910,1258.350101,-11473.192101,766.095498
371.813232,-444.123565,-10955.047942,2604.724693
371.813555,-2072.576638,-9474.636058,2681.334243
371.813877,-1998.556043,-7920.203579,612.876398
371.814199,-2294.638420,-6957.935855,-1378.971896
371.814522,-3404.947333,-5921.647536,-1149.143247
371.814844,-4811.338623,-5551.544565,-919.314598
371.815166,-5181.441594,-7105.977043,-1762.019645
371.815489,-3775.050304,-9326.594869,-3294.210641
371.815811,-2146.597232,-12213.398043,-3677.258390
371.816133,-1554.432478,-14434.015869,-3370.820191
371.816456,-962.267725,-14211.954086,-2221.676944
371.816778,518.144159,-11695.253884,-1915.238745
371.817100,2442.679609,-8586.388927,-2911.162892
371.817423,3775.050304,-7031.956449,-2604.724693
371.817745,3775.050304,-5107.421000,-1762.019645
371.818068,3256.906145,-4071.132681,-1608.800546
371.818390,2516.700203,-5329.482782,-1455.581446
371.818712,2442.679609,-9178.553681,-995.924147
371.819035,1850.514855,-11769.274478,842.705048
371.819357,74.020594,-11991.336260,1991.848295
371.819679,-1554.432478,-10658.965565,1149.143247
371.820002,-1776.494261,-9622.677246,-689.485948
371.820324,-2368.659014,-7772.162391,-1532.190996
371.820646,-3701.029710,-5477.523971,-842.705048
371.820969,-4293.194464,-5477.523971,-2145.067394
371.821291,-3330.926739,-7772.162391,-3830.477490
371.821614,-1258.350101,-10436.903782,-4519.963438
371.821936,296.082377,-12879.583391,-4596.572988
371.822258,1554.432478,-15100.201217,-3753.867940
371.822581,2738.761985,-15248.242405,-2068.457845
371.822903,4293.194464,-13175.665768,-1915.238745
371.823225,4811.338623,-10436.903782,-3140.991542
371.823548,4293.194464,-8142.265362,-2757.943793
371.823870,3034.844362,-6217.729913,-1915.238745
371.824192,2072.576638,-5699.585753,-2757.943793
371.824515,1554.432478,-7772.162391,-1991.848295
371.824837,814.226536,-10362.883188,-153.219100
371.825160,-444.123565,-11029.068536,1072.533697
371.825482,-2442.679609,-10584.944971,1608.800546
371.825804,-4145.153275,-9770.718434,1072.533697
371.826127,-4219.173869,-8512.368333,-383.047749
371.826449,-4959.379811,-6217.729913,-1762.019645
371.826771,-6069.688724,-5329.482782,-2145.067394
371.827094,-6809.894666,-6661.853478,-2145.067394
371.827416,-6365.771101,-8956.491898,-2834.553343
371.827738,-5255.462188,-10807.006753,-3370.820191
371.828061,-3849.070898,-12657.521608,-3370.820191
371.828383,-2146.597232,-14137.933492,-3524.039291
371.828706,0.000000,-13619.789333,-2987.772442
371.829028,1258.350101,-11029.068536,-2834.553343
371.829350,2738.761985,-7846.182985,-1838.629195
371.829673,3775.050304,-6069.688724,-1608.800546
371.829995,4663.297435,-5033.400406,-2528.115143
371.830317,4589.276840,-5921.647536,-2374.896044
371.830640,3997.112087,-7994.224174,-766.095498
371.830962,2516.700203,-10584.944971,1072.533697
371.831284,1702.473667,-13027.624579,2221.676944
371.831607,74.020594,-11695.253884,2681.334243
371.831929,-1184.329507,-9104.533087,689.485948
371.832252,-2294.638420,-7105.977043,-1149.143247
371.832574,-2738.761985,-5921.647536,-1149.143247
371.832896,-3923.091493,-5329.482782,-1991.848295
371.833219,-4515.256246,-6735.874072,-2757.943793
371.833541,-3627.009116,-8290.306550,-2298.286494
371.833863,-2812.782580,-10510.924376,-3064.381992
371.834186,-2368.659014,-13101.645173,-3983.696590
371.834508,-1110.308913,-14508.036463,-3370.820191
371.834830,222.061783,-13323.706956,-3447.429741
371.835153,1776.494261,-11695.253884,-4443.353888
371.835475,3182.885551,-10436.903782,-3370.820191
371.835797,3404.947333,-9252.574275,-1685.410096
371.836120,2812.782580,-7105.977043,-1608.800546
371.836442,2294.638420,-6069.688724,-2298.286494
371.836765,1998.556043,-8808.450710,-1532.190996
371.837087,1924.535449,-11991.336260,-306.438199
371.837409,888.247130,-11917.315666,1685.410096
371.837732,-1332.370696,-9474.636058,2374.896044
371.838054,-1628.453072,-7994.224174,2068.457845
371.838376,-962.267725,-7105.977043,0.000000
371.838699,-1406.391290,-5403.503377,-1149.143247
371.839021,-3552.988522,-4959.379811,-1455.581446
371.839343,-3997.112087,-6809.894666,-1762.019645
371.839666,-3552.988522,-9104.533087,-2681.334243
371.839988,-2664.741391,-11843.295072,-2911.162892
371.840311,-2516.700203,-13619.789333,-3370.820191
371.840633,-2368.659014,-13767.830521,-3447.429741
371.840955,-1332.370696,-12583.501014,-3370.820191
371.841278,148.041188,-10288.862594,-3064.381992
371.841600,1332.370696,-7846.182985,-2757.943793
371.841922,2220.617826,-6439.791695,-3140.991542
371.842245,2738.761985,-5625.565159,-2757.943793
371.842567,2368.659014,-6365.771101,-2374.896044
371.842889,1776.494261,-8290.306550,-1302.362347
371.843212,592.164754,-10584.944971,76.609550
371.843534,-740.205942,-11991.336260,1072.533697
371.843857,-1850.514855,-11695.253884,1225.752797
371.844179,-1998.556043,-9844.739029,153.219100
371.844501,-1628.453072,-8364.327145,-1378.971896
371.844824,-1628.453072,-6883.915261,-1302.362347
371.845146,-1332.370696,-5625.565159,-306.438199
371.845468,-1184.329507,-5773.606348,-1225.752797
371.845791,-518.144159,-7994.224174,-2757.943793
371.846113,444.123565,-11399.171507,-3370.820191
371.846436,370.102971,-13545.768739,-3140.991542
371.846758,444.123565,-14359.995275,-2757.943793
371.847080,1998.556043,-13619.789333,-2374.896044
371.847403,2516.700203,-11621.233289,-2145.067394
371.847725,3182.885551,-8512.368333,-2068.457845
371.848047,2368.659014,-5847.626942,-2451.505594
371.848370,1332.370696,-5477.523971,-3140.991542
371.848692,814.226536,-7698.141797,-3600.648841
371.849015,222.061783,-10288.862594,-2221.676944
371.849337,-1110.308913,-11325.150913,-459.657299
371.849659,-2664.741391,-11917.315666,612.876398
371.849982,-3701.029710,-11029.068536,1302.362347
371.850304,-3923.091493,-8512.368333,306.438199
371.850627,-3775.050304,-6513.812290,-1915.238745
371.850949,-4071.132681,-6217.729913,-2757.943793
371.851271,-4811.338623,-6513.812290,-2145.067394
371.851594,-4737.318029,-7550.100608,-1225.752797
371.851916,-4367.215058,-8734.430116,-1378.971896
371.852238,-2738.761985,-11103.089130,-2911.162892
371.852561,-1258.350101,-13471.748144,-2911.162892
371.852883,296.082377,-13175.665768,-2374.896044
371.853206,1776.494261,-11621.233289,-1915.238745
371.853528,3701.029710,-9474.636058,-1455.581446
371.853850,5255.462188,-7179.997637,-1608.800546
371.854173,5477.523971,-5403.503377,-1608.800546
371.854495,4737.318029,-4737.318029,-2145.067394
371.854818,3108.864956,-7179.997637,-2068.457845
371.855140,1628.453072,-10881.027347,-842.705048
371.855462,222.061783,-12583.501014,1225.752797
371.855785,-1776.494261,-12583.501014,1072.533697
371.856107,-3034.844362,-11325.150913,383.047749
371.856430,-2516.700203,-9770.718434,-536.266849
371.856752,-2220.617826,-7624.121203,-1378.971896
371.857074,-3849.070898,-5255.462188,-1532.190996
371.857397,-4071.132681,-4663.297435,-995.924147
371.857719,-4293.194464,-5255.462188,-2528.115143
371.858041,-3256.906145,-8808.450710,-4290.134789
371.858364,-1924.535449,-12287.418637,-4290.134789
371.858686,-888.247130,-13471.748144,-4136.915689
371.859009,518.144159,-13545.768739,-3983.696590
371.859331,2886.803174,-13323.706956,-2451.505594
371.859653,5255.462188,-11917.315666,-1302.362347
371.859976,6291.750507,-9400.615463,-2451.505594
371.860298,5625.565159,-7031.956449,-2298.286494
371.860621,4441.235652,-6587.832884,-2374.896044
371.860943,3256.906145,-7772.162391,-1532.190996
371.861265,1480.411884,-9770.718434,0.000000
371.861588,-666.185348,-10584.944971,1532.190996
371.861910,-2072.576638,-10584.944971,1225.752797
371.862233,-2220.617826,-9770.718434,536.266849
371.862555,-2590.720797,-8290.306550,612.876398
371.862877,-3034.844362,-6883.915261,0.000000
371.863200,-3552.988522,-5107.421000,0.000000
371.863522,-3701.029710,-4737.318029,-1532.190996
371.863844,-3478.967927,-6957.935855,-2757.943793
371.864167,-3330.926739,-9474.636058,-3753.867940
371.864489,-2960.823768,-12879.583391,-4136.915689
371.864812,-2146.597232,-15100.201217,-3447.429741
371.865134,-888.247130,-14582.057057,-2451.505594
371.865456,592.164754,-12065.356855,-2451.505594
371.865779,2220.617826,-9474.636058,-3064.381992
371.866101,2886.803174,-6957.935855,-2528.115143
371.866424,2664.741391,-4959.379811,-2604.724693
371.866746,2368.659014,-5477.523971,-2374.896044
371.867068,1850.514855,-7105.977043,-1302.362347
371.867391,740.205942,-9622.677246,0.000000
371.867713,-518.144159,-11843.295072,2298.286494
371.868035,-1998.556043,-12065.356855,2757.943793
371.868358,-2664.741391,-10066.800811,1455.581446
371.868680,-2442.679609,-8216.285956,-689.485948
371.869003,-2294.638420,-6883.915261,-1072.533697
371.869325,-3256.906145,-5699.585753,-1378.971896
371.869647,-3182.885551,-6291.750507,-1225.752797
371.869970,-2516.700203,-7179.997637,-2681.334243
371.870292,-1628.453072,-9844.739029,-3830.477490
371.870615,-888.247130,-13619.789333,-4060.306139
371.870937,-370.102971,-14952.160028,-2911.162892
371.871259,222.061783,-14063.912898,-3064.381992
371.871582,1554.432478,-12731.542202,-2757.943793
371.871904,2960.823768,-11177.109724,-2604.724693
371.872227,2812.782580,-8586.388927,-2451.505594
371.872549,1702.473667,-5699.585753,-2145.067394
371.872871,1110.308913,-5403.503377,-2145.067394
371.873194,444.123565,-8512.368333,-1915.238745
371.873516,0.000000,-11399.171507,-995.924147
371.873838,-1628.453072,-11769.274478,1302.362347
371.874161,-3627.009116,-9992.780217,1685.410096
371.874483,-3701.029710,-8882.471304,689.485948
371.874806,-3034.844362,-7328.038826,-153.219100
371.875128,-2738.761985,-5625.565159,-1915.238745
371.875450,-3256.906145,-5181.441594,-2221.676944
371.875773,-3478.967927,-6883.915261,-1685.410096
371.876095,-2664.741391,-9104.533087,-1685.410096
371.876418,-1998.556043,-11399.171507,-2068.457845
371.876740,-1036.288319,-13915.871710,-2911.162892
371.877062,-740.205942,-14285.974681,-2911.162892
371.877385,814.226536,-12435.459826,-2451.505594
371.877707,2664.741391,-9992.780217,-2374.896044
371.878029,3997.112087,-7624.121203,-2221.676944
371.878352,4959.379811,-5551.544565,-2068.457845
371.878674,4811.338623,-4589.276840,-2604.724693
371.878997,3552.988522,-5181.441594,-1455.581446
371.879319,1998.556043,-8660.409521,-1072.533697
371.879641,740.205942,-11843.295072,-153.219100
371.879964,-1776.494261,-12213.398043,1225.752797
371.880286,-2886.803174,-11843.295072,612.876398
371.880609,-2886.803174,-10658.965565,-536.266849
371.880931,-2442.679609,-8586.388927,-919.314598
371.881253,-2590.720797,-5625.565159,-1455.581446
371.881576,-2146.597232,-4885.359217,-2451.505594
371.881898,-1554.432478,-6735.874072,-2987.772442
371.882221,-666.185348,-9400.615463,-3294.210641
371.882543,-296.082377,-12583.501014,-3600.648841
371.882865,-296.082377,-14730.098246,-2834.553343
371.883188,222.061783,-14878.139434,-1455.581446
371.883510,2146.597232,-12361.439231,-2221.676944
371.883832,3627.009116,-9622.677246,-2604.724693
371.884155,4071.132681,-7550.100608,-1838.629195
371.884477,3701.029710,-6069.688724,-1225.752797
371.884800,2368.659014,-5033.400406,-1455.581446
371.885122,1554.432478,-6439.791695,-1915.238745
371.885444,814.226536,-9992.780217,-1455.581446
371.885767,-814.226536,-11843.295072,-229.828649
371.886089,-2960.823768,-11695.253884,919.314598
371.886412,-4145.153275,-11177.109724,1225.752797
371.886734,-4071.132681,-9548.656652,0.000000
371.887056,-3627.009116,-7402.059420,-1762.019645
371.887379,-4737.318029,-5699.585753,-1762.019645
371.887701,-4885.359217,-5551.544565,-2604.724693
371.888024,-4293.194464,-7698.141797,-3524.039291
371.888346,-3627.009116,-10807.006753,-3447.429741
371.888668,-2220.617826,-13397.727550,-2681.334243
371.888991,-1924.535449,-14137.933492,-2374.896044
371.889313,-1036.288319,-13915.871710,-1991.848295
371.889635,814.226536,-11843.295072,-1991.848295
371.889958,2738.761985,-8660.409521,-2451.505594
371.890280,4071.132681,-5329.482782,-2451.505594
371.890603,4441.235652,-3182.885551,-1378.971896
371.890925,3775.050304,-4515.256246,-1455.581446
371.891247,3330.926739,-7698.141797,-1072.533697
371.891570,1998.556043,-10955.047942,0.000000
371.891892,0.000000,-12731.542202,612.876398
371.892215,-2442.679609,-12213.398043,1302.362347
371.892537,-3330.926739,-11547.212695,383.047749
371.892859,-2960.823768,-9474.636058,-1302.362347
371.893182,-2886.803174,-7476.080014,-2298.286494
371.893504,-3627.009116,-6069.688724,-1915.238745
371.893826,-3330.926739,-5921.647536,-2221.676944
371.894149,-2812.782580,-6735.874072,-3294.210641
371.894471,-1332.370696,-10436.903782,-3983.696590
371.894794,-370.102971,-13471.748144,-3983.696590
371.895116,740.205942,-15026.180623,-3217.601092
371.895438,1776.494261,-14063.912898,-1838.629195
371.895761,4071.132681,-11991.336260,-1378.971896
371.896083,5107.421000,-9844.739029,-1915.238745
371.896406,5329.482782,-7031.956449,-1608.800546
371.896728,4589.276840,-4737.318029,0.000000
371.897050,3034.844362,-5181.441594,-306.438199
371.897373,2146.597232,-7846.182985,-1302.362347
371.897695,666.185348,-10732.986159,76.609550
371.898018,-1110.308913,-11103.089130,1378.971896
371.898340,-3256.906145,-10658.965565,1225.752797
371.898662,-4145.153275,-9770.718434,306.438199
371.898985,-4663.297435,-7846.182985,-153.219100
371.899307,-4737.318029,-6291.750507,-1991.848295
371.899629,-5181.441594,-6069.688724,-3524.039291
371.899952,-5329.482782,-7254.018232,-2604.724693
371.900274,-4737.318029,-9252.574275,-3064.381992
371.900597,-3849.070898,-11621.233289,-3524.039291
371.900919,-2368.659014,-13323.706956,-3064.381992
371.901241,-740.205942,-13397.727550,-3140.991542
371.901564,592.164754,-11991.336260,-3140.991542
371.901886,2590.720797,-10510.924376,-2221.676944
371.902209,4145.153275,-8808.450710,-1225.752797
371.902531,4737.318029,-5403.503377,-919.314598
371.902853,4737.318029,-3923.091493,-842.705048
371.903176,3849.070898,-4663.297435,-1072.533697
371.903498,3034.844362,-8364.327145,-1149.143247
371.903821,1776.494261,-11473.192101,0.000000
371.904143,-592.164754,-11843.295072,2221.676944
371.904465,-2294.638420,-11621.233289,1685.410096
371.904788,-2886.803174,-10288.862594,76.609550
371.905110,-3256.906145,-8882.471304,-1378.971896
371.905432,-4737.318029,-7031.956449,-2528.115143
371.905755,-4367.215058,-7179.997637,-2681.334243
371.906077,-4145.153275,-7476.080014,-2451.505594
371.906400,-3330.926739,-9104.533087,-3983.696590
371.906722,-2442.679609,-11325.150913,-3983.696590
371.907044,-1258.350101,-13767.830521,-3677.258390
371.907367,-444.123565,-14508.036463,-3524.039291
371.907689,1110.308913,-12805.562797,-3524.039291
371.908012,2442.679609,-11029.068536,-3064.381992
371.908334,3330.926739,-9104.533087,-2374.896044
371.908656,3775.050304,-6513.812290,-1225.752797
371.908979,3330.926739,-4959.379811,-766.095498
371.909301,2812.782580,-5625.565159,-1608.800546
371.909623,2220.617826,-8956.491898,-1072.533697
371.909946,1406.391290,-11695.253884,842.705048
371.910268,-962.267725,-10732.986159,2298.286494
371.910591,-2960.823768,-9548.656652,1532.190996
371.910913,-3404.947333,-8882.471304,229.828649
371.911235,-2960.823768,-7698.141797,-1455.581446
371.911558,-4219.173869,-5255.462188,-2374.896044
371.911880,-4959.379811,-6217.729913,-3217.601092
371.912203,-4811.338623,-8734.430116,-2451.505594
371.912525,-4145.153275,-10955.047942,-1991.848295
371.912847,-3034.844362,-12287.418637,-2834.553343
371.913170,-2516.700203,-14211.954086,-3217.601092
371.913492,-1110.308913,-14359.995275,-3140.991542
371.913815,666.185348,-11769.274478,-3294.210641
371.914137,2072.576638,-9030.512492,-3064.381992
371.914459,3478.967927,-7254.018232,-1608.800546
371.914782,4367.215058,-5847.626942,-919.314598
371.915104,4441.235652,-4959.379811,-1915.238745
371.915426,3849.070898,-6513.812290,-1762.019645
371.915749,2960.823768,-9992.780217,-612.876398
371.916071,1110.308913,-12361.439231,1149.143247
371.916394,-814.226536,-11843.295072,2451.505594
371.916716,-2146.597232,-10214.842000,1225.752797
371.917038,-2516.700203,-9030.512492,-842.705048
371.917361,-2590.720797,-7698.141797,-2528.115143
371.917683,-2960.823768,-6735.874072,-2451.505594
371.918006,-3330.926739,-6439.791695,-2374.896044
371.918328,-2220.617826,-7328.038826,-2451.505594
371.918650,-888.247130,-10066.800811,-3064.381992
371.918973,0.000000,-12361.439231,-3217.601092
371.919295,296.082377,-13397.727550,-3447.429741
371.919617,1184.329507,-13471.748144,-3064.381992
371.919940,2664.741391,-12065.356855,-2757.943793
371.920262,4441.235652,-10140.821405,-2451.505594
371.920585,4737.318029,-7994.224174,-1991.848295
371.920907,3775.050304,-6217.729913,0.000000
371.921229,3108.864956,-5403.503377,0.000000
371.921552,2368.659014,-7402.059420,-1915.238745
371.921874,1184.329507,-10881.027347,-919.314598
371.922197,-740.205942,-11251.130318,1608.800546
371.922519,-3404.947333,-9548.656652,1915.238745
371.922841,-4885.359217,-8882.471304,1149.143247
371.923164,-5625.565159,-8216.285956,383.047749
371.923486,-4959.379811,-6883.915261,-2221.676944
371.923809,-5329.482782,-6513.812290,-3753.867940
371.924131,-5477.523971,-7476.080014,-2681.334243
371.924453,-4737.318029,-9474.636058,-1685.410096
371.924776,-3849.070898,-10510.924376,-2221.676944
371.925098,-2886.803174,-12509.480420,-2987.772442
371.925420,-1924.535449,-13545.768739,-3064.381992
371.925743,-666.185348,-12435.459826,-3600.648841
371.926065,666.185348,-10732.986159,-3217.601092
371.926388,2220.617826,-8438.347739,-1378.971896
371.926710,4441.235652,-6291.750507,-1532.190996
371.927032,5329.482782,-5625.565159,-2451.505594
371.927355,5403.503377,-6661.853478,-1378.971896
371.927677,4071.132681,-8660.409521,612.876398
371.928000,1258.350101,-10214.842000,919.314598
371.928322,-814.226536,-11473.192101,1225.752797
371.928644,-2442.679609,-11251.130318,842.705048
371.928967,-3478.967927,-9474.636058,-1225.752797
371.929289,-3997.112087,-7846.182985,-2374.896044
371.929612,-4071.132681,-7550.100608,-1762.019645
371.929934,-4071.132681,-7328.038826,-1378.971896
371.930256,-3627.009116,-6735.874072,-1685.410096
371.930579,-3182.885551,-8068.244768,-3830.477490
371.930901,-2516.700203,-11177.109724,-4826.401637
371.931223,-1406.391290,-13619.789333,-4519.963438
371.931546,-518.144159,-13989.892304,-4136.915689
371.931868,1406.391290,-12435.459826,-3600.648841
371.932191,3330.926739,-11251.130318,-2604.724693
371.932513,5107.421000,-10066.800811,-1762.019645
371.932835,5329.482782,-7698.141797,-766.095498
371.933158,4663.297435,-6587.832884,-459.657299
371.933480,3627.009116,-7031.956449,-1455.581446
371.933803,2664.741391,-8734.430116,-459.657299
371.934125,1184.329507,-9770.718434,842.705048
371.934447,-1110.308913,-9474.636058,1838.629195
371.934770,-2960.823768,-8586.388927,1455.581446
371.935092,-3627.009116,-7698.141797,536.266849
371.935414,-4071.132681,-7254.018232,0.000000
371.935737,-4441.235652,-6957.935855,-1378.971896
371.936059,-5033.400406,-6809.894666,-1838.629195
371.936382,-5255.462188,-7624.121203,-3064.381992
371.936704,-4589.276840,-10362.883188,-3370.820191
371.937026,-3182.885551,-12731.542202,-3753.867940
371.937349,-2738.761985,-13545.768739,-3830.477490
371.937671,-1406.391290,-13323.706956,-3600.648841
371.937994,222.061783,-11843.295072,-3140.991542
371.938316,2294.638420,-10510.924376,-2757.943793
371.938638,4145.153275,-8734.430116,-1838.629195
371.938961,5107.421000,-6661.853478,-1302.362347
371.939283,4515.256246,-5551.544565,-919.314598
371.939606,3627.009116,-6069.688724,-842.705048
371.939928,2368.659014,-7550.100608,0.000000
371.940250,1258.350101,-10436.903782,612.876398
371.940573,-370.102971,-11473.192101,1302.362347
371.940895,-1924.535449,-10881.027347,995.924147
371.941217,-2960.823768,-9622.677246,153.219100
371.941540,-2960.823768,-8438.347739,-919.314598
371.941862,-3330.926739,-7328.038826,-1685.410096
371.942185,-3182.885551,-6661.853478,-2451.505594
371.942507,-2738.761985,-7179.997637,-3677.258390
371.942829,-1998.556043,-9844.739029,-4366.744339
371.943152,-1110.308913,-12583.501014,-4136.915689
371.943474,-296.082377,-14211.954086,-3830.477490
371.943797,592.164754,-14434.015869,-3447.429741
371.944119,2368.659014,-13545.768739,-3140.991542
371.944441,4589.276840,-11399.171507,-2374.896044
371.944764,5551.544565,-8882.471304,-2145.067394
371.945086,5255.462188,-6439.791695,-1149.143247
371.945408,4367.215058,-5033.400406,-766.095498
371.945731,3330.926739,-6069.688724,-536.266849
371.946053,1998.556043,-7698.141797,229.828649
371.946376,-222.061783,-9770.718434,536.266849
371.946698,-2294.638420,-10214.842000,1072.533697
371.947021,-3849.070898,-9696.697840,995.924147
371.947343,-4219.173869,-8660.409521,229.828649
371.947665,-4663.297435,-7031.956449,0.000000
371.947988,-4811.338623,-5847.626942,-1838.629195
371.948310,-4663.297435,-6291.750507,-3370.820191
371.948633,-4219.173869,-8142.265362,-3830.477490
371.948955,-3330.926739,-11029.068536,-3753.867940
371.949277,-2294.638420,-13619.789333,-3447.429741
371.949600,-1258.350101,-15100.201217,-2681.334243
371.949922,296.082377,-14211.954086,-2374.896044
371.950245,1924.535449,-10881.027347,-2451.505594
371.950567,3849.070898,-8290.306550,-2604.724693
371.950889,4811.338623,-6143.709319,-1608.800546
371.951212,4811.338623,-4737.318029,-842.705048
371.951534,3775.050304,-4663.297435,-1149.143247
371.951857,2368.659014,-6883.915261,-459.657299
371.952179,1036.288319,-9918.759623,0.000000
371.952502,-888.247130,-11917.315666,689.485948
371.952824,-2590.720797,-12065.356855,383.047749
371.953146,-4515.256246,-11029.068536,153.219100
371.953469,-5699.585753,-9030.512492,-1072.533697
371.953791,-6291.750507,-6957.935855,-2374.896044
371.954114,-5477.523971,-6735.874072,-4136.915689
371.954436,-5403.503377,-7179.997637,-5362.668486
371.954758,-3478.967927,-9622.677246,-5132.839837
371.955081,-2294.638420,-11695.253884,-3983.696590
371.955403,-1110.308913,-14359.995275,-3447.429741
371.955726,-370.102971,-15396.283594,-2834.553343
371.956048,888.247130,-13397.727550,-2374.896044
371.956370,2886.803174,-11029.068536,-3064.381992
371.956693,4441.235652,-8068.244768,-2145.067394
371.957015,5033.400406,-6069.688724,-689.485948
371.957338,4737.318029,-4737.318029,0.000000
371.957660,3775.050304,-5181.441594,0.000000
371.957982,2516.700203,-7772.162391,383.047749
371.958305,740.205942,-10140.821405,1532.190996
371.958627,-1628.453072,-10955.047942,1685.410096
371.958950,-3627.009116,-10510.924376,919.314598
371.959272,-4811.338623,-9622.677246,76.609550
371.959595,-5107.421000,-7920.203579,-536.266849
371.959917,-5773.606348,-5773.606348,-1378.971896
371.960239,-5699.585753,-5551.544565,-3524.039291
371.960562,-5625.565159,-7179.997637,-4826.401637
371.960884,-4293.194464,-10658.965565,-4519.963438
371.961207,-2812.782580,-13027.624579,-3600.648841
371.961529,-1480.411884,-14804.118840,-3830.477490
371.961851,0.000000,-14582.057057,-3064.381992
371.962174,1850.514855,-12435.459826,-2221.676944
371.962496,4293.194464,-8808.450710,-2145.067394
371.962819,5921.647536,-6365.771101,-2221.676944
371.963141,6587.832884,-4515.256246,-995.924147
371.963463,6217.729913,-3701.029710,-383.047749
371.963786,5699.585753,-5255.462188,153.219100
371.964108,4589.276840,-8364.327145,1149.143247
371.964431,3256.906145,-11103.089130,1532.190996
371.964753,1110.308913,-11621.233289,1455.581446
371.965075,-1036.288319,-10658.965565,383.047749
371.965398,-3034.844362,-9992.780217,-306.438199
371.965720,-4145.153275,-8808.450710,-383.047749
371.966043,-5107.421000,-6883.915261,-2298.286494
371.966365,-5033.400406,-6735.874072,-4903.011187
371.966688,-4219.173869,-8512.368333,-5439.278036
371.967010,-1776.494261,-11843.295072,-5439.278036
371.967332,-814.226536,-13915.871710,-4136.915689
371.967655,296.082377,-15396.283594,-2757.943793
371.967977,1036.288319,-15026.180623,-2068.457845
371.968300,2664.741391,-12583.501014,-2834.553343
371.968622,4367.215058,-9548.656652,-3140.991542
371.968944,4367.215058,-7031.956449,-1838.629195
371.969267,4589.276840,-5551.544565,-766.095498
371.969589,3923.091493,-4737.318029,0.000000
371.969912,3256.906145,-5329.482782,919.314598
371.970234,2294.638420,-8142.265362,919.314598
371.970556,592.164754,-10214.842000,1685.410096
371.970879,-1776.494261,-10436.903782,1762.019645
371.971201,-3923.091493,-9252.574275,1072.533697
371.971524,-4811.338623,-8216.285956,-612.876398
371.971846,-5403.503377,-7254.018232,-842.705048
371.972169,-6661.853478,-6143.709319,-1762.019645
371.972491,-7772.162391,-6735.874072,-3370.820191
371.972813,-8290.306550,-8882.471304,-4596.572988
371.973136,-6957.935855,-11769.274478,-4903.011187
371.973458,-5255.462188,-14285.974681,-4290.134789
371.973781,-3849.070898,-14359.995275,-3140.991542
371.974103,-2368.659014,-13175.665768,-2451.505594
371.974425,296.082377,-10732.986159,-2451.505594
371.974748,2738.761985,-8438.347739,-3064.381992
371.975070,4441.235652,-6291.750507,-1685.410096
371.975393,4663.297435,-4441.235652,-459.657299
371.975715,4441.235652,-4737.318029,-689.485948
371.976037,3404.947333,-6365.771101,-536.266849
371.976360,2516.700203,-9622.677246,766.095498
371.976682,814.226536,-11325.150913,1608.800546
371.977005,-888.247130,-11399.171507,1225.752797
371.977327,-1258.350101,-11103.089130,0.000000
371.977649,-2368.659014,-9696.697840,-766.095498
371.977972,-2738.761985,-7994.224174,-842.705048
371.978294,-4293.194464,-5477.523971,-1915.238745
371.978617,-4589.276840,-6291.750507,-4136.915689
371.978939,-3552.988522,-7772.162391,-5515.887586
371.979262,-1998.556043,-11621.233289,-5592.497135
371.979584,-962.267725,-13841.851115,-4749.792088
371.979906,222.061783,-15248.242405,-3370.820191
371.980229,1998.556043,-15322.262999,-2145.067394
371.980551,4663.297435,-12213.398043,-2681.334243
371.980874,5773.606348,-8586.388927,-2604.724693
371.981196,7105.977043,-6439.791695,-2068.457845
371.981518,6587.832884,-5033.400406,-1149.143247
371.981841,5255.462188,-5107.421000,-229.828649
371.982163,3627.009116,-6883.915261,536.266849
371.982486,2442.679609,-9104.533087,995.924147
371.982808,592.164754,-11103.089130,919.314598
371.983130,-1628.453072,-10955.047942,1149.143247
371.983453,-3627.009116,-9474.636058,536.266849
371.983775,-4737.318029,-7994.224174,0.000000
371.984098,-4219.173869,-5921.647536,-229.828649
371.984420,-4737.318029,-5625.565159,-3370.820191
371.984742,-4219.173869,-7031.956449,-4366.744339
371.985065,-3923.091493,-9696.697840,-4826.401637
371.985387,-2516.700203,-13397.727550,-3600.648841
371.985710,-1332.370696,-15692.365970,-2757.943793
371.986032,-444.123565,-15544.324782,-1608.800546
371.986355,666.185348,-12657.521608,-2145.067394
371.986677,2146.597232,-9474.636058,-2987.772442
371.986999,3701.029710,-7328.038826,-2451.505594
371.987322,4145.153275,-5107.421000,-1072.533697
371.987644,3923.091493,-3701.029710,-229.828649
371.987967,2220.617826,-4145.153275,76.609550
371.988289,1480.411884,-7698.141797,536.266849
371.988611,-148.041188,-10881.027347,1072.533697
371.988934,-2146.597232,-11917.315666,995.924147
371.989256,-3330.926739,-11621.233289,689.485948
371.989579,-3627.009116,-10510.924376,76.609550
371.989901,-4219.173869,-8290.306550,-536.266849
371.990223,-5403.503377,-6809.894666,-1608.800546
371.990546,-6143.709319,-7105.977043,-2604.724693
371.990868,-6217.729913,-7772.162391,-3983.696590
371.991191,-4811.338623,-9770.718434,-4903.011187
371.991513,-3701.029710,-12287.418637,-4443.353888
371.991836,-2368.659014,-14063.912898,-3140.991542
371.992158,-592.164754,-14730.098246,-2145.067394
371.992480,1776.494261,-13397.727550,-1915.238745
371.992803,3552.988522,-11029.068536,-1762.019645
371.993125,4959.379811,-7994.224174,-1455.581446
371.993448,5477.523971,-6217.729913,-1072.533697
371.993770,4737.318029,-5551.544565,-306.438199
371.994092,3108.864956,-6439.791695,229.828649
371.994415,1702.473667,-8142.265362,536.266849
371.994737,-370.102971,-9844.739029,1149.143247
371.995060,-2146.597232,-10436.903782,306.438199
371.995382,-3404.947333,-10066.800811,-229.828649
371.995704,-3923.091493,-8734.430116,-612.876398
371.996027,-3627.009116,-7550.100608,-612.876398
371.996349,-3997.112087,-7105.977043,-2145.067394
371.996672,-3627.009116,-6735.874072,-3447.429741
371.996994,-4367.215058,-7920.203579,-4673.182538
371.997316,-3256.906145,-10955.047942,-4979.620737
371.997639,-2072.576638,-13841.851115,-4749.792088
371.997961,-1258.350101,-14878.139434,-2911.162892
371.998284,-222.061783,-13767.830521,-2298.286494
371.998606,1924.535449,-11177.109724,-2834.553343
371.998929,4589.276840,-9178.553681,-2834.553343
371.999251,5847.626942,-6957.935855,-2145.067394
371.999573,6143.709319,-5107.421000,-995.924147
371.999896,4885.359217,-4293.194464,-306.438199
372.000218,4219.173869,-5625.565159,229.828649
372.000541,3034.844362,-8290.306550,229.828649
372.000863,888.247130,-10732.986159,612.876398
372.001185,-1628.453072,-11473.192101,1149.143247
372.001508,-3182.885551,-10881.027347,459.657299
372.001830,-3330.926739,-10066.800811,-153.219100
372.002153,-2738.761985,-8808.450710,-1838.629195
372.002475,-2368.659014,-7772.162391,-2681.334243
372.002797,-2368.659014,-6957.935855,-3753.867940
372.003120,-1776.494261,-8734.430116,-3600.648841
372.003442,-518.144159,-11473.192101,-3983.696590
372.003765,-148.041188,-13619.789333,-3294.210641
372.004087,-222.061783,-14582.057057,-2604.724693
372.004409,148.041188,-13841.851115,-2374.896044
372.004732,2072.576638,-11991.336260,-2451.505594
372.005054,3775.050304,-9474.636058,-3064.381992
372.005377,5107.421000,-7105.977043,-1149.143247
372.005699,4737.318029,-4811.338623,0.000000
372.006022,3034.844362,-4293.194464,1149.143247
372.006344,814.226536,-5477.523971,919.314598
372.006666,-1184.329507,-8586.388927,153.219100
372.006989,-3034.844362,-10584.944971,0.000000
372.007311,-4737.318029,-11251.130318,0.000000
372.007634,-5625.565159,-10362.883188,-229.828649
372.007956,-5477.523971,-9178.553681,0.000000
372.008278,-5403.503377,-7476.080014,0.000000
372.008601,-4811.338623,-7328.038826,-1762.019645
372.008923,-5403.503377,-7476.080014,-3983.696590
372.009246,-5033.400406,-9696.697840,-4596.572988
372.009568,-4515.256246,-11769.274478,-4519.963438
372.009890,-3256.906145,-13693.809927,-3753.867940
372.010213,-2072.576638,-14211.954086,-2374.896044
372.010535,-296.082377,-12953.603985,-1302.362347
372.010858,2146.597232,-9992.780217,-2298.286494
372.011180,4367.215058,-7179.997637,-2068.457845
372.011503,5477.523971,-5477.523971,-1072.533697
372.011825,4811.338623,-4737.318029,0.000000
372.012147,3330.926739,-4293.194464,1149.143247
372.012470,2664.741391,-6513.812290,306.438199
372.012792,1998.556043,-9326.594869,0.000000
372.013115,222.061783,-11399.171507,76.609550
372.013437,-1776.494261,-11843.295072,919.314598
372.013759,-3034.844362,-10732.986159,1302.362347
372.014082,-3404.947333,-9548.656652,76.609550
372.014404,-2738.761985,-8364.327145,-1532.190996
372.014727,-3108.864956,-7031.956449,-3753.867940
372.015049,-2886.803174,-7328.038826,-4979.620737
372.015371,-2294.638420,-9252.574275,-4673.182538
372.015694,-666.185348,-12139.377449,-4290.134789
372.016016,-222.061783,-14285.974681,-3140.991542
372.016339,518.144159,-14211.954086,-3064.381992
372.016661,2072.576638,-13101.645173,-3217.601092
372.016983,4293.194464,-11399.171507,-3064.381992
372.017306,5995.668130,-9252.574275,-2298.286494
372.017628,5847.626942,-6217.729913,-1072.533697
372.017951,5033.400406,-4589.276840,0.000000
372.018273,3552.988522,-4885.359217,229.828649
372.018596,1850.514855,-6809.894666,0.000000
372.018918,-444.123565,-9474.636058,766.095498
372.019240,-2738.761985,-10362.883188,612.876398
372.019563,-4219.173869,-10436.903782,536.266849
372.019885,-4441.235652,-9918.759623,76.609550
372.020208,-3849.070898,-8734.430116,-536.266849
372.020530,-3849.070898,-7698.141797,-1378.971896
372.020852,-3701.029710,-7105.977043,-3140.991542
372.021175,-2960.823768,-8438.347739,-4290.134789
372.021497,-2590.720797,-10658.965565,-4596.572988
372.021820,-2368.659014,-13397.727550,-4060.306139
372.022142,-2442.679609,-15470.304188,-2757.943793
372.022464,-1628.453072,-14508.036463,-2068.457845
372.022787,0.000000,-11843.295072,-2451.505594
372.023109,2072.576638,-8956.491898,-2451.505594
372.023432,3849.070898,-6365.771101,-1915.238745
372.023754,3997.112087,-4367.215058,-689.485948
372.024076,2960.823768,-3182.885551,0.000000
372.024399,1998.556043,-4367.215058,995.924147
372.024721,518.144159,-7105.977043,383.047749
372.025044,-1036.288319,-10214.842000,-76.609550
372.025366,-2368.659014,-11769.274478,842.705048
372.025689,-3330.926739,-11843.295072,1072.533697
372.026011,-3256.906145,-10510.924376,0.000000
372.026333,-3478.967927,-8882.471304,-459.657299
372.026656,-3552.988522,-6809.894666,-1838.629195
372.026978,-4219.173869,-6143.709319,-4060.306139
372.027301,-3775.050304,-8660.409521,-4979.620737
372.027623,-2812.782580,-11399.171507,-5209.449386
372.027945,-1258.350101,-14063.912898,-4519.963438
372.028268,-518.144159,-15248.242405,-2757.943793
372.028590,1036.288319,-14582.057057,-1455.581446
372.028913,3034.844362,-12213.398043,-1762.019645
372.029235,4811.338623,-8808.450710,-2374.896044
372.029557,6143.709319,-6365.771101,-766.095498
372.029880,5551.544565,-4885.359217,-459.657299
372.030202,4589.276840,-4663.297435,0.000000
372.030525,3108.864956,-5847.626942,459.657299
372.030847,1406.391290,-8438.347739,995.924147
372.031170,-148.041188,-10140.821405,1149.143247
372.031492,-2516.700203,-10732.986159,459.657299
372.031814,-3701.029710,-10436.903782,-383.047749
372.032137,-4293.194464,-9252.574275,-536.266849
372.032459,-4145.153275,-7624.121203,-842.705048
372.032782,-4293.194464,-6735.874072,-2834.553343
372.033104,-4811.338623,-7402.059420,-4060.306139
372.033426,-4663.297435,-9474.636058,-5056.230287
372.033749,-4145.153275,-11843.295072,-4673.182538
372.034071,-3182.885551,-13989.892304,-3830.477490
372.034394,-1998.556043,-14434.015869,-3217.601092
372.034716,-962.267725,-13101.645173,-2374.896044
372.035038,962.267725,-10140.821405,-2451.505594
372.035361,2886.803174,-7328.038826,-2528.115143
372.035683,4367.215058,-5551.544565,-2298.286494
372.036006,4663.297435,-4737.318029,-1072.533697
372.036328,4367.215058,-4145.153275,76.609550
372.036650,3256.906145,-5995.668130,995.924147
372.036973,2368.659014,-9030.512492,536.266849
372.037295,1184.329507,-11473.192101,0.000000
372.037618,-444.123565,-11769.274478,536.266849
372.037940,-1924.535449,-11473.192101,0.000000
372.038263,-2664.741391,-10214.842000,76.609550
372.038585,-3108.864956,-8808.450710,-612.876398
372.038907,-3182.885551,-7179.997637,-2451.505594
372.039230,-3404.947333,-7254.018232,-4443.353888
372.039552,-2590.720797,-9474.636058,-4826.401637
372.039875,-1702.473667,-11399.171507,-4136.915689
372.040197,-888.247130,-13323.706956,-3524.039291
372.040519,-444.123565,-13989.892304,-2374.896044
372.040842,444.123565,-13175.665768,-2451.505594
372.041164,2146.597232,-11029.068536,-3447.429741
372.041487,3256.906145,-8586.388927,-3064.381992
372.041809,3923.091493,-6957.935855,-2145.067394
372.042131,3849.070898,-5625.565159,-1225.752797
372.042454,3182.885551,-5551.544565,-383.047749
372.042776,1850.514855,-6809.894666,76.609550
372.043099,888.247130,-9178.553681,0.000000
372.043421,-222.061783,-10436.903782,-153.219100
372.043743,-2072.576638,-10658.965565,-306.438199
372.044066,-3775.050304,-9844.739029,76.609550
372.044388,-4515.256246,-8956.491898,76.609550
372.044711,-4367.215058,-8068.244768,-459.657299
372.045033,-3997.112087,-7254.018232,-2068.457845
372.045356,-3701.029710,-7994.224174,-4136.915689
372.045678,-2590.720797,-9992.780217,-4060.306139
372.046000,-1702.473667,-11991.336260,-2451.505594
372.046323,-1110.308913,-13397.727550,-1532.190996
372.046645,-740.205942,-13175.665768,-1378.971896
372.046968,74.020594,-11103.089130,-2221.676944
372.047290,1406.391290,-9104.533087,-2911.162892
372.047612,2886.803174,-7698.141797,-2987.772442
372.047935,3182.885551,-6143.709319,-1302.362347
372.048257,2886.803174,-4959.379811,612.876398
372.048579,2294.638420,-5477.523971,766.095498
372.048902,1776.494261,-7846.182985,76.609550
372.049224,888.247130,-10584.944971,-383.047749
372.049547,-296.082377,-11695.253884,-306.438199
372.049869,-2072.576638,-11177.109724,0.000000
372.050191,-2886.803174,-10288.862594,0.000000
372.050514,-3701.029710,-9030.512492,0.000000
372.050836,-4293.194464,-7624.121203,-842.705048
372.051159,-4515.256246,-6883.915261,-3447.429741
372.051481,-4071.132681,-8290.306550,-4979.620737
372.051803,-2960.823768,-10214.842000,-4903.011187
372.052126,-1332.370696,-11843.295072,-3753.867940
372.052448,-518.144159,-13471.748144,-2374.896044
372.052771,666.185348,-13545.768739,-1608.800546
372.053093,2738.761985,-11991.336260,-2681.334243
372.053415,4589.276840,-9696.697840,-2681.334243
372.053738,4515.256246,-7846.182985,-1915.238745
372.054060,4663.297435,-6883.915261,-1302.362347
372.054383,3627.009116,-6291.750507,-383.047749
372.054705,2442.679609,-6809.894666,612.876398
372.055027,1554.432478,-8216.285956,383.047749
372.055350,296.082377,-8956.491898,0.000000
372.055672,-518.144159,-10066.800811,-689.485948
372.055995,-1998.556043,-10140.821405,0.000000
372.056317,-3256.906145,-9474.636058,766.095498
372.056639,-4367.215058,-8068.244768,306.438199
372.056962,-4885.359217,-7624.121203,-1762.019645
372.057284,-5033.400406,-8216.285956,-4366.744339
372.057607,-5181.441594,-9104.533087,-4979.620737
372.057929,-4367.215058,-10807.006753,-4826.401637
372.058251,-3108.864956,-12805.562797,-3447.429741
372.058574,-2220.617826,-13915.871710,-1915.238745
372.058896,-740.205942,-12953.603985,-1762.019645
372.059219,666.185348,-10510.924376,-2451.505594
372.059541,2738.761985,-8512.368333,-3217.601092
372.059863,4071.132681,-6735.874072,-3140.991542
372.060186,3775.050304,-5625.565159,-1532.190996
372.060508,2960.823768,-5329.482782,0.000000
372.060830,1850.514855,-5847.626942,1302.362347
372.061153,1850.514855,-8068.244768,0.000000
372.061475,1184.329507,-10807.006753,-1225.752797
372.061798,0.000000,-11621.233289,-383.047749
372.062120,-1036.288319,-10732.986159,1072.533697
372.062442,-1628.453072,-10362.883188,842.705048
372.062765,-2368.659014,-9770.718434,0.000000
372.063087,-3775.050304,-7624.121203,-1072.533697
