#time,accel_x,accel_y,accel_z
237.261132,-518.144159,-9474.636058,-1455.581446
237.261454,0.000000,-9474.636058,-1838.629195
237.261776,0.000000,-9252.574275,-1685.410096
237.262098,-296.082377,-9326.594869,-1608.800546
237.262420,-370.102971,-9474.636058,-1608.800546
237.262741,-370.102971,-9622.677246,-1762.019645
237.263063,-518.144159,-9696.697840,-1608.800546
237.263385,-444.123565,-9252.574275,-1455.581446
237.263707,-666.185348,-9474.636058,-1762.019645
237.264029,-666.185348,-9400.615463,-1608.800546
237.264350,-592.164754,-9400.615463,-1685.410096
237.264672,-370.102971,-9326.594869,-1225.752797
237.264994,-740.205942,-9252.574275,-1302.362347
237.265316,-814.226536,-9252.574275,-1378.971896
237.265638,-888.247130,-9548.656652,-1378.971896
237.265959,-888.247130,-9474.636058,-1532.190996
237.266281,-814.226536,-9326.594869,-1378.971896
237.266603,-740.205942,-9326.594869,-1072.533697
237.266925,-814.226536,-9104.533087,-1225.752797
237.267247,-444.123565,-9178.553681,-1532.190996
237.267568,-444.123565,-9252.574275,-1149.143247
237.267890,-444.123565,-9474.636058,-1225.752797
237.268212,-370.102971,-9252.574275,-766.095498
237.268534,-296.082377,-9474.636058,-1225.752797
237.268856,-518.144159,-9400.615463,-1302.362347
237.269177,-370.102971,-9326.594869,-1455.581446
237.269499,-222.061783,-9326.594869,-1302.362347
237.269821,-296.082377,-9252.574275,-1378.971896
237.270143,-740.205942,-9252.574275,-1149.143247
237.270465,-518.144159,-9030.512492,-1072.533697
237.270786,-444.123565,-9252.574275,-1532.190996
237.271108,-444.123565,-9326.594869,-1225.752797
237.271430,-148.041188,-9400.615463,-995.924147
237.271752,0.000000,-9252.574275,-689.485948
237.272074,-296.082377,-9104.533087,-1225.752797
237.272395,-222.061783,-9178.553681,-1378.971896
237.272717,0.000000,-9326.594869,-1378.971896
237.273039,0.000000,-9400.615463,-1225.752797
237.273361,0.000000,-9474.636058,-995.924147
237.273683,-148.041188,-9030.512492,-1149.143247
237.274004,0.000000,-9104.533087,-1225.752797
237.274326,-222.061783,-9326.594869,-1378.971896
237.274648,0.000000,-9474.636058,-1378.971896
237.274970,0.000000,-9400.615463,-1302.362347
237.275292,0.000000,-9474.636058,-1532.190996
237.275613,0.000000,-9548.656652,-1378.971896
237.275935,0.000000,-9400.615463,-1532.190996
237.276257,0.000000,-9474.636058,-1455.581446
237.276579,0.000000,-9326.594869,-1762.019645
237.276901,0.000000,-9326.594869,-1762.019645
237.277222,-592.164754,-9178.553681,-1608.800546
237.277544,-296.082377,-9474.636058,-1762.019645
237.277866,-518.144159,-9474.636058,-1455.581446
237.278188,-518.144159,-9474.636058,-1685.410096
237.278510,-518.144159,-9474.636058,-1685.410096
237.278831,0.000000,-9326.594869,-1685.410096
237.279153,592.164754,-9326.594869,-2068.457845
237.279475,1036.288319,-9770.718434,-1991.848295
237.279797,1110.308913,-9918.759623,-1225.752797
237.280119,370.102971,-9622.677246,-612.876398
237.280440,0.000000,-9252.574275,-536.266849
237.280762,-518.144159,-9326.594869,-1378.971896
237.281084,-1110.308913,-9474.636058,-1915.238745
237.281406,-1628.453072,-8882.471304,-1838.629195
237.281728,-1332.370696,-8660.409521,-1915.238745
237.282049,-296.082377,-9252.574275,-2221.676944
237.282371,148.041188,-9770.718434,-1685.410096
237.282693,0.000000,-10436.903782,-995.924147
237.283015,-222.061783,-9622.677246,-1149.143247
237.283337,814.226536,-9844.739029,-2068.457845
237.283658,1628.453072,-10658.965565,-2068.457845
237.283980,1258.350101,-10214.842000,-1149.143247
237.284302,1184.329507,-8882.471304,0.000000
237.284624,1924.535449,-8586.388927,-536.266849
237.284946,3256.906145,-9474.636058,-1149.143247
237.285267,3330.926739,-9030.512492,-612.876398
237.285589,2516.700203,-8216.285956,76.609550
237.285911,2442.679609,-7846.182985,0.000000
237.286233,3256.906145,-8512.368333,-689.485948
237.286555,2738.761985,-9326.594869,-1072.533697
237.286876,1998.556043,-8586.388927,-689.485948
237.287198,2294.638420,-8142.265362,-1378.971896
237.287520,3478.967927,-8364.327145,-2681.334243
237.287842,4737.318029,-10584.944971,-2068.457845
237.288164,4663.297435,-10732.986159,-1302.362347
237.288485,4515.256246,-9992.780217,-1225.752797
237.288807,4663.297435,-10066.800811,-1378.971896
237.289129,4959.379811,-11103.089130,-1225.752797
237.289451,4145.153275,-9548.656652,-2451.505594
237.289773,3182.885551,-9178.553681,-2298.286494
237.290095,3330.926739,-9252.574275,-1378.971896
237.290416,3478.967927,-8882.471304,-842.705048
237.290738,4219.173869,-8438.347739,-1225.752797
237.291060,5033.400406,-7920.203579,-536.266849
237.291382,5921.647536,-8438.347739,-842.705048
237.291704,6661.853478,-8438.347739,-919.314598
237.292025,6291.750507,-8438.347739,-1608.800546
237.292347,5921.647536,-9030.512492,-1532.190996
237.292669,4589.276840,-9844.739029,-1762.019645
237.292991,3256.906145,-10288.862594,-2451.505594
237.293313,2072.576638,-11547.212695,-2374.896044
237.293634,1184.329507,-12879.583391,-1762.019645
237.293956,518.144159,-13101.645173,-995.924147
237.294278,296.082377,-12879.583391,-306.438199
237.294600,592.164754,-12213.398043,766.095498
237.294922,1110.308913,-11547.212695,1302.362347
237.295243,962.267725,-9918.759623,1762.019645
237.295565,0.000000,-8364.327145,1991.848295
237.295887,-1554.432478,-6513.812290,1991.848295
237.296209,-2146.597232,-5033.400406,766.095498
237.296531,-1998.556043,-4071.132681,-1302.362347
237.296852,-888.247130,-4367.215058,-2757.943793
237.297174,666.185348,-4663.297435,-3600.648841
237.297496,2664.741391,-5255.462188,-4443.353888
237.297818,4737.318029,-7254.018232,-4596.572988
237.298140,5699.585753,-10436.903782,-5362.668486
237.298461,4663.297435,-13989.892304,-5286.058936
237.298783,3256.906145,-15692.365970,-4060.306139
237.299105,2442.679609,-15840.407159,-2681.334243
237.299427,1480.411884,-14582.057057,-2298.286494
237.299749,962.267725,-13471.748144,-1685.410096
237.300070,-666.185348,-11621.233289,1225.752797
237.300392,-1554.432478,-9400.615463,3677.258390
237.300714,-1332.370696,-7031.956449,3830.477490
237.301036,-962.267725,-5107.421000,3217.601092
237.301358,-296.082377,-3627.009116,1915.238745
237.301679,-1702.473667,-2886.803174,2987.772442
237.302001,-3552.988522,-2220.617826,3524.039291
237.302323,-4589.276840,-2590.720797,153.219100
237.302645,-3775.050304,-6291.750507,-5592.497135
237.302967,-2294.638420,-8882.471304,-9806.022374
237.303288,-1110.308913,-10732.986159,-9193.145976
237.303610,-370.102971,-15618.345376,-5975.544884
237.303932,444.123565,-21021.848753,-3677.258390
237.304254,1258.350101,-22650.301825,-3600.648841
237.304576,592.164754,-19615.457463,-4903.011187
237.304897,0.000000,-15322.262999,-4366.744339
237.305219,222.061783,-11177.109724,-2451.505594
237.305541,-592.164754,-5699.585753,-1072.533697
237.305863,-1110.308913,-1776.494261,1225.752797
237.306185,-518.144159,-1776.494261,3753.867940
237.306506,148.041188,-3478.967927,4596.572988
237.306828,592.164754,-5847.626942,3217.601092
237.307150,1036.288319,-5181.441594,3830.477490
237.307472,3478.967927,-4145.153275,2221.676944
237.307794,5773.606348,-5329.482782,-995.924147
237.308115,4811.338623,-7624.121203,-459.657299
237.308437,1110.308913,-7476.080014,459.657299
237.308759,-370.102971,-9918.759623,-3677.258390
237.309081,0.000000,-14656.077652,-8580.269578
237.309403,-296.082377,-15100.201217,-8886.707777
237.309724,-2442.679609,-12953.603985,-6281.983084
237.310046,-3330.926739,-14137.933492,-3753.867940
237.310368,-2146.597232,-15174.221811,-2145.067394
237.310690,-814.226536,-12435.459826,-3217.601092
237.311012,-888.247130,-9992.780217,-3983.696590
237.311333,-1332.370696,-9474.636058,-842.705048
237.311655,-2442.679609,-8142.265362,2068.457845
237.311977,-3182.885551,-5699.585753,1685.410096
237.312299,-1036.288319,-4441.235652,2145.067394
237.312621,1924.535449,-4663.297435,1685.410096
237.312942,1924.535449,-5477.523971,1685.410096
237.313264,888.247130,-5477.523971,2911.162892
237.313586,2368.659014,-5403.503377,1072.533697
237.313908,5847.626942,-8216.285956,-4213.525239
237.314230,7994.224174,-11029.068536,-5592.497135
237.314551,6809.894666,-12509.480420,-2911.162892
237.314873,3627.009116,-13989.892304,0.000000
237.315195,1184.329507,-15618.345376,-306.438199
237.315517,-1036.288319,-15396.283594,-2298.286494
237.315839,-3478.967927,-13249.686362,-4826.401637
237.316160,-5477.523971,-9252.574275,-5515.887586
237.316482,-6069.688724,-6957.935855,-3677.258390
237.316804,-6143.709319,-5403.503377,-612.876398
237.317126,-6217.729913,-4293.194464,0.000000
237.317448,-7105.977043,-5403.503377,-153.219100
237.317770,-7698.141797,-8364.327145,-1915.238745
237.318091,-6883.915261,-11695.253884,-2451.505594
237.318413,-5625.565159,-13027.624579,-2451.505594
237.318735,-3849.070898,-11769.274478,-1302.362347
237.319057,-2220.617826,-11029.068536,1302.362347
237.319379,-1258.350101,-10807.006753,1991.848295
237.319700,0.000000,-9252.574275,0.000000
237.320022,740.205942,-7179.997637,-3140.991542
237.320344,2886.803174,-8364.327145,-4596.572988
237.320666,6439.791695,-11177.109724,-4060.306139
237.320988,7179.997637,-10510.924376,-1608.800546
237.321309,7402.059420,-8586.388927,1149.143247
237.321631,7772.162391,-7624.121203,1991.848295
237.321953,6587.832884,-9252.574275,1072.533697
237.322275,3404.947333,-8512.368333,-1378.971896
237.322597,-592.164754,-6735.874072,-2834.553343
237.322918,-3034.844362,-7254.018232,-1608.800546
237.323240,-3627.009116,-8882.471304,1302.362347
237.323562,-3997.112087,-7772.162391,1149.143247
237.323884,-3997.112087,-6439.791695,-383.047749
237.324206,-4145.153275,-7402.059420,-689.485948
237.324527,-4515.256246,-8290.306550,-1225.752797
237.324849,-4811.338623,-9178.553681,-4673.182538
237.325171,-4515.256246,-11917.315666,-5669.106685
237.325493,-2664.741391,-13249.686362,-2834.553343
237.325815,-1776.494261,-11029.068536,-1532.190996
237.326136,-1332.370696,-12065.356855,-1838.629195
237.326458,1036.288319,-12805.562797,-2374.896044
237.326780,3330.926739,-12509.480420,-3447.429741
237.327102,4367.215058,-10881.027347,-3753.867940
237.327424,5625.565159,-10436.903782,-612.876398
237.327746,7105.977043,-10214.842000,2374.896044
237.328068,7105.977043,-6217.729913,1991.848295
237.328390,7105.977043,-3849.070898,-536.266849
237.328711,7550.100608,-7031.956449,-2604.724693
237.329033,7698.141797,-10362.883188,-2604.724693
237.329355,5921.647536,-10288.862594,-383.047749
237.329677,2886.803174,-9178.553681,1378.971896
237.329999,1702.473667,-11029.068536,2757.943793
237.330321,74.020594,-11473.192101,2221.676944
237.330643,-3478.967927,-8438.347739,-1532.190996
237.330965,-6069.688724,-7105.977043,-3753.867940
237.331287,-6587.832884,-8142.265362,-3064.381992
237.331609,-7402.059420,-7846.182985,-1532.190996
237.331931,-8290.306550,-6513.812290,-995.924147
237.332253,-7994.224174,-7105.977043,-1378.971896
237.332575,-8142.265362,-9770.718434,-3294.210641
237.332897,-8290.306550,-11769.274478,-5669.106685
237.333219,-8364.327145,-12361.439231,-6128.763984
237.333541,-6735.874072,-12953.603985,-4366.744339
237.333863,-4589.276840,-12583.501014,-2068.457845
237.334185,-3034.844362,-11843.295072,-766.095498
237.334507,-592.164754,-9178.553681,-766.095498
237.334829,1776.494261,-5699.585753,-2374.896044
237.335151,4589.276840,-5699.585753,-3983.696590
237.335473,6661.853478,-9252.574275,-2834.553343
237.335795,6735.874072,-10214.842000,459.657299
237.336117,6957.935855,-7920.203579,2834.553343
237.336439,7772.162391,-7624.121203,2604.724693
237.336761,8142.265362,-9844.739029,1455.581446
237.337083,5995.668130,-8438.347739,0.000000
237.337405,1554.432478,-5699.585753,-1455.581446
237.337727,-2146.597232,-7105.977043,-766.095498
237.338049,-3923.091493,-8734.430116,612.876398
237.338371,-5699.585753,-8660.409521,-536.266849
237.338693,-7031.956449,-8216.285956,-3983.696590
237.339015,-7402.059420,-9400.615463,-3370.820191
237.339337,-7920.203579,-9474.636058,-2298.286494
237.339659,-8142.265362,-8290.306550,-2834.553343
237.339981,-6587.832884,-8734.430116,-6435.202183
237.340303,-3775.050304,-13175.665768,-6741.640382
237.340625,-2294.638420,-14804.118840,-4290.134789
237.340946,-2812.782580,-12583.501014,-919.314598
237.341268,-2960.823768,-10140.821405,-153.219100
237.341590,-592.164754,-10584.944971,-842.705048
237.341912,1924.535449,-10510.924376,-2681.334243
237.342234,3627.009116,-8586.388927,-3907.087040
237.342556,5255.462188,-8290.306550,-1991.848295
237.342878,8068.244768,-9992.780217,2681.334243
237.343200,8882.471304,-7772.162391,5362.668486
237.343522,9104.533087,-5551.544565,3140.991542
237.343844,10214.842000,-6365.771101,-766.095498
237.344166,11177.109724,-10510.924376,-2757.943793
237.344488,9252.574275,-11473.192101,-1608.800546
237.344810,5773.606348,-9844.739029,1225.752797
237.345132,3108.864956,-9770.718434,4366.744339
237.345454,1258.350101,-11251.130318,2451.505594
237.345776,-1628.453072,-9548.656652,-1608.800546
237.346098,-5181.441594,-7698.141797,-4596.572988
237.346420,-7328.038826,-9030.512492,-3600.648841
237.346742,-8290.306550,-8364.327145,-2221.676944
237.347064,-8956.491898,-7550.100608,-2451.505594
237.347386,-8956.491898,-7920.203579,-2757.943793
237.347708,-7846.182985,-10214.842000,-2757.943793
237.348030,-7476.080014,-11769.274478,-3983.696590
237.348352,-7105.977043,-11991.336260,-4596.572988
237.348674,-7328.038826,-11029.068536,-2451.505594
237.348996,-6217.729913,-11177.109724,-536.266849
237.349318,-3923.091493,-10732.986159,76.609550
237.349640,-1110.308913,-8512.368333,-1149.143247
237.349962,1628.453072,-5403.503377,-2681.334243
237.350284,4663.297435,-5477.523971,-2374.896044
237.350606,6957.935855,-9252.574275,-1149.143247
237.350928,7920.203579,-11177.109724,0.000000
237.351250,9326.594869,-10362.883188,1991.848295
237.351572,10436.903782,-8660.409521,2681.334243
237.351894,9696.697840,-9622.677246,995.924147
237.352216,6217.729913,-9474.636058,0.000000
237.352538,1036.288319,-6957.935855,-306.438199
237.352860,-2738.761985,-6661.853478,-842.705048
237.353182,-4219.173869,-8660.409521,-1225.752797
237.353503,-6365.771101,-8438.347739,-1838.629195
237.353825,-8290.306550,-8290.306550,-3370.820191
237.354147,-8734.430116,-9696.697840,-2221.676944
237.354469,-8216.285956,-10288.862594,-1225.752797
237.354791,-7846.182985,-8882.471304,-3524.039291
237.355113,-7105.977043,-8882.471304,-5975.544884
237.355435,-5477.523971,-11399.171507,-4290.134789
237.355757,-5033.400406,-13027.624579,-3907.087040
237.356079,-5403.503377,-12953.603985,-2451.505594
237.356401,-4811.338623,-11547.212695,-842.705048
237.356723,-2146.597232,-10214.842000,-1608.800546
237.357045,592.164754,-9178.553681,-2834.553343
237.357367,1776.494261,-7328.038826,-2834.553343
237.357689,3849.070898,-6809.894666,-689.485948
237.358011,7994.224174,-7476.080014,76.609550
237.358333,10362.883188,-8512.368333,0.000000
237.358655,10510.924376,-8660.409521,2145.067394
237.358977,9104.533087,-7476.080014,3140.991542
237.359299,8068.244768,-8660.409521,1532.190996
237.359621,6513.812290,-10658.965565,-229.828649
237.359943,3256.906145,-11103.089130,-459.657299
237.360265,-666.185348,-9696.697840,919.314598
237.360587,-2368.659014,-9622.677246,689.485948
237.360909,-4071.132681,-9030.512492,-612.876398
237.361231,-4811.338623,-7550.100608,-2528.115143
237.361553,-5995.668130,-7476.080014,-3524.039291
237.361875,-6809.894666,-9770.718434,-3524.039291
237.362197,-7031.956449,-10288.862594,-3370.820191
237.362519,-7105.977043,-9844.739029,-4366.744339
237.362841,-5921.647536,-12509.480420,-4060.306139
237.363163,-4959.379811,-13915.871710,-2528.115143
237.363485,-6513.812290,-12435.459826,-2221.676944
237.363807,-6735.874072,-10584.944971,-1225.752797
237.364129,-3478.967927,-9252.574275,-1225.752797
237.364451,-518.144159,-7254.018232,-2681.334243
237.364773,1332.370696,-5329.482782,-2834.553343
237.365095,3775.050304,-6735.874072,0.000000
237.365417,6809.894666,-8956.491898,842.705048
237.365739,8660.409521,-9992.780217,-995.924147
237.366060,9548.656652,-9696.697840,919.314598
237.366382,9326.594869,-7624.121203,2221.676944
237.366704,8512.368333,-8956.491898,1072.533697
237.367026,6661.853478,-9918.759623,766.095498
237.367348,3849.070898,-8142.265362,689.485948
237.367670,0.000000,-7772.162391,0.000000
237.367992,-2368.659014,-9696.697840,-612.876398
237.368314,-4367.215058,-8808.450710,-1302.362347
237.368636,-5625.565159,-8216.285956,-3370.820191
237.368958,-6069.688724,-9474.636058,-3217.601092
237.369280,-5477.523971,-12361.439231,-1608.800546
237.369602,-6143.709319,-9474.636058,-2298.286494
237.369924,-5477.523971,-7476.080014,-5056.230287
237.370246,-2886.803174,-11843.295072,-5975.544884
237.370568,-1850.514855,-14285.974681,-4443.353888
237.370890,-4071.132681,-11843.295072,-2145.067394
237.371212,-4441.235652,-10807.006753,0.000000
237.371534,-1998.556043,-10362.883188,153.219100
237.371856,1110.308913,-9696.697840,-3370.820191
237.372178,1924.535449,-7772.162391,-4443.353888
237.372500,2442.679609,-7402.059420,0.000000
237.372822,5181.441594,-7031.956449,2451.505594
237.373144,7179.997637,-7550.100608,153.219100
237.373466,9252.574275,-9178.553681,-842.705048
237.373788,9474.636058,-8586.388927,612.876398
237.374110,7772.162391,-8512.368333,689.485948
237.374432,4811.338623,-11103.089130,995.924147
237.374754,1406.391290,-11251.130318,1991.848295
237.375076,-1554.432478,-8512.368333,459.657299
237.375398,-3478.967927,-7624.121203,-2221.676944
237.375720,-5181.441594,-10288.862594,-3447.429741
237.376042,-7105.977043,-9030.512492,-1915.238745
237.376364,-8660.409521,-5699.585753,-2145.067394
237.376686,-8660.409521,-7402.059420,-2221.676944
237.377008,-8142.265362,-11177.109724,-2374.896044
237.377330,-8438.347739,-9474.636058,-3753.867940
237.377652,-8512.368333,-8142.265362,-6358.592633
237.377974,-5477.523971,-11177.109724,-4903.011187
237.378296,-3552.988522,-13767.830521,-2145.067394
237.378617,-4367.215058,-12657.521608,-536.266849
237.378939,-3849.070898,-9918.759623,76.609550
237.379261,-740.205942,-8364.327145,-612.876398
237.379583,2886.803174,-7846.182985,-3140.991542
237.379905,4589.276840,-7328.038826,-4136.915689
237.380227,6069.688724,-7476.080014,-2374.896044
237.380549,8142.265362,-9252.574275,995.924147
237.380871,9770.718434,-9622.677246,3370.820191
237.381193,9548.656652,-8512.368333,2757.943793
237.381515,8364.327145,-7550.100608,995.924147
237.381837,6365.771101,-8808.450710,-1072.533697
237.382159,2072.576638,-9400.615463,-1302.362347
237.382481,-2368.659014,-9548.656652,-459.657299
237.382803,-4071.132681,-8364.327145,689.485948
237.383125,-4589.276840,-7772.162391,-1225.752797
237.383447,-5033.400406,-9252.574275,-4213.525239
237.383769,-6587.832884,-10436.903782,-3524.039291
237.384091,-7624.121203,-9622.677246,-2374.896044
237.384413,-6587.832884,-9178.553681,-4749.792088
237.384735,-3701.029710,-11695.253884,-6971.469032
237.385057,-2368.659014,-13989.892304,-5286.058936
237.385379,-2590.720797,-12509.480420,-2604.724693
237.385701,-3701.029710,-11251.130318,-1072.533697
237.386023,-2368.659014,-10584.944971,-842.705048
237.386345,-148.041188,-9844.739029,-2374.896044
237.386667,1776.494261,-7550.100608,-3830.477490
237.386989,2294.638420,-7772.162391,-2374.896044
237.387311,4515.256246,-8808.450710,2145.067394
237.387633,6735.874072,-8142.265362,3370.820191
237.387955,8586.388927,-7031.956449,1149.143247
237.388277,10584.944971,-7476.080014,-459.657299
237.388599,10584.944971,-8438.347739,153.219100
237.388921,8216.285956,-8808.450710,1302.362347
237.389243,4811.338623,-9326.594869,1378.971896
237.389565,2590.720797,-9770.718434,1455.581446
237.389887,518.144159,-9326.594869,1149.143247
237.390209,-3552.988522,-9178.553681,-1532.190996
237.390531,-6291.750507,-10436.903782,-3064.381992
237.390852,-7550.100608,-9178.553681,-2451.505594
237.391174,-8512.368333,-7328.038826,-2298.286494
237.391496,-9104.533087,-8512.368333,-3217.601092
237.391818,-9178.553681,-10362.883188,-2451.505594
237.392140,-8882.471304,-8956.491898,-3217.601092
237.392462,-8290.306550,-9178.553681,-4979.620737
237.392784,-5921.647536,-12139.377449,-4519.963438
237.393106,-4885.359217,-12583.501014,-2528.115143
237.393428,-5847.626942,-11621.233289,-919.314598
237.393750,-3997.112087,-10066.800811,919.314598
237.394072,-814.226536,-8364.327145,0.000000
237.394394,3182.885551,-5995.668130,-3294.210641
237.394716,5181.441594,-6735.874072,-5286.058936
237.395038,6365.771101,-9844.739029,-1762.019645
237.395360,7105.977043,-10362.883188,2911.162892
237.395682,7698.141797,-8290.306550,3370.820191
237.396004,8882.471304,-8512.368333,1532.190996
237.396326,8660.409521,-8808.450710,-612.876398
237.396648,5329.482782,-8438.347739,-1378.971896
237.396970,0.000000,-8882.471304,-919.314598
237.397292,-3256.906145,-8956.491898,536.266849
237.397614,-3923.091493,-7328.038826,306.438199
237.397936,-4145.153275,-7402.059420,-3983.696590
237.398258,-5921.647536,-9918.759623,-4903.011187
237.398580,-7550.100608,-10732.986159,-2757.943793
237.398902,-7772.162391,-9400.615463,-1915.238745
237.399224,-6661.853478,-8586.388927,-4673.182538
237.399546,-4145.153275,-10584.944971,-6281.983084
237.399868,-3627.009116,-13027.624579,-5975.544884
237.400190,-3330.926739,-13989.892304,-3140.991542
237.400512,-3552.988522,-12805.562797,-995.924147
237.400834,-1554.432478,-11251.130318,-689.485948
237.401156,740.205942,-9992.780217,-1838.629195
237.401478,2072.576638,-8438.347739,-1762.019645
237.401800,2516.700203,-5255.462188,-1149.143247
237.402122,5773.606348,-6143.709319,0.000000
237.402444,8956.491898,-7772.162391,766.095498
237.402766,9844.739029,-9178.553681,766.095498
237.403088,9474.636058,-8438.347739,1762.019645
237.403409,8734.430116,-7624.121203,2528.115143
237.403731,7920.203579,-9474.636058,1225.752797
237.404053,5921.647536,-11399.171507,-612.876398
237.404375,2294.638420,-10214.842000,-689.485948
237.404697,-1110.308913,-9252.574275,689.485948
237.405019,-3404.947333,-10807.006753,-153.219100
237.405341,-4589.276840,-10288.862594,-2145.067394
237.405663,-4959.379811,-7476.080014,-2757.943793
237.405985,-5625.565159,-7105.977043,-3677.258390
237.406307,-6735.874072,-10214.842000,-3447.429741
237.406629,-8068.244768,-9696.697840,-2528.115143
237.406951,-8882.471304,-7698.141797,-4136.915689
237.407273,-7254.018232,-9992.780217,-4903.011187
237.407595,-5477.523971,-12731.542202,-4366.744339
237.407917,-5477.523971,-12435.459826,-3064.381992
237.408239,-5773.606348,-10955.047942,-842.705048
237.408561,-3256.906145,-9474.636058,1072.533697
237.408883,740.205942,-7476.080014,-766.095498
237.409205,3552.988522,-5403.503377,-3370.820191
237.409527,4589.276840,-7105.977043,-4213.525239
237.409849,6217.729913,-9548.656652,-612.876398
237.410171,7105.977043,-9474.636058,1685.410096
237.410493,8216.285956,-8290.306550,2068.457845
237.410815,9104.533087,-9252.574275,1225.752797
237.411137,8290.306550,-9178.553681,459.657299
237.411459,4663.297435,-8956.491898,-842.705048
237.411781,0.000000,-9030.512492,-612.876398
237.412103,-2960.823768,-9104.533087,383.047749
237.412425,-4293.194464,-7105.977043,-153.219100
237.412747,-5329.482782,-7994.224174,-3907.087040
237.413069,-6661.853478,-10436.903782,-4443.353888
237.413391,-7994.224174,-11251.130318,-2145.067394
237.413713,-8142.265362,-9178.553681,-2374.896044
237.414035,-6661.853478,-7698.141797,-5286.058936
237.414357,-3627.009116,-11029.068536,-7048.078582
237.414679,-2738.761985,-14211.954086,-5439.278036
237.415001,-2590.720797,-13249.686362,-2451.505594
237.415323,-3108.864956,-11177.109724,-459.657299
237.415645,-1110.308913,-10881.027347,-766.095498
237.415966,592.164754,-10362.883188,-1685.410096
237.416288,1406.391290,-7550.100608,-2221.676944
237.416610,1406.391290,-5255.462188,-1838.629195
237.416932,4811.338623,-7476.080014,0.000000
237.417254,7846.182985,-9696.697840,459.657299
237.417576,8512.368333,-8956.491898,1072.533697
237.417898,9104.533087,-7105.977043,2604.724693
237.418220,8734.430116,-7402.059420,2528.115143
237.418542,7846.182985,-9992.780217,153.219100
237.418864,4589.276840,-9400.615463,-229.828649
237.419186,296.082377,-7550.100608,306.438199
237.419508,-2368.659014,-8290.306550,-306.438199
237.419830,-3256.906145,-10955.047942,-1838.629195
237.420152,-4885.359217,-9770.718434,-2451.505594
237.420474,-6143.709319,-8142.265362,-3064.381992
237.420796,-7031.956449,-9696.697840,-2757.943793
237.421118,-7550.100608,-11473.192101,-2221.676944
237.421440,-8734.430116,-8142.265362,-2911.162892
237.421762,-8734.430116,-7402.059420,-6052.154434
237.422084,-6365.771101,-11251.130318,-5975.544884
237.422406,-3923.091493,-13397.727550,-3830.477490
237.422728,-4441.235652,-11991.336260,-2451.505594
237.423050,-3923.091493,-10658.965565,1072.533697
237.423372,-666.185348,-9770.718434,2221.676944
237.423694,1998.556043,-8438.347739,-919.314598
237.424016,3478.967927,-5773.606348,-3140.991542
237.424338,5329.482782,-6587.832884,-2681.334243
237.424660,7402.059420,-9030.512492,-689.485948
237.424982,8216.285956,-9548.656652,1915.238745
237.425304,8364.327145,-7846.182985,3370.820191
237.425626,8512.368333,-9178.553681,1915.238745
237.425948,7550.100608,-11177.109724,-229.828649
237.426270,3849.070898,-10214.842000,-919.314598
237.426592,-888.247130,-8512.368333,-1685.410096
237.426914,-3627.009116,-9474.636058,-536.266849
237.427236,-4515.256246,-9252.574275,-612.876398
237.427558,-6217.729913,-7476.080014,-3447.429741
237.427880,-7179.997637,-9400.615463,-4749.792088
237.428201,-7698.141797,-11843.295072,-2757.943793
237.428523,-7624.121203,-10510.924376,-2068.457845
237.428845,-7179.997637,-7105.977043,-4060.306139
237.429167,-5403.503377,-8364.327145,-5592.497135
237.429489,-3478.967927,-12953.603985,-5132.839837
237.429811,-2664.741391,-13619.789333,-3294.210641
237.430133,-2738.761985,-11547.212695,-1149.143247
237.430455,-1628.453072,-10584.944971,459.657299
237.430777,740.205942,-10658.965565,-153.219100
237.431099,2220.617826,-9474.636058,-1991.848295
237.431421,2368.659014,-5699.585753,-1072.533697
237.431743,5329.482782,-5847.626942,0.000000
237.432065,8734.430116,-8438.347739,0.000000
237.432387,8586.388927,-9178.553681,842.705048
237.432709,8068.244768,-6661.853478,3524.039291
237.433031,7624.121203,-6513.812290,2451.505594
237.433353,7920.203579,-10214.842000,459.657299
237.433675,4811.338623,-11547.212695,-306.438199
237.433997,-222.061783,-9104.533087,306.438199
237.434319,-3404.947333,-8956.491898,689.485948
237.434641,-4293.194464,-10658.965565,0.000000
237.434963,-5255.462188,-8660.409521,-2604.724693
237.435285,-7105.977043,-6809.894666,-4443.353888
237.435607,-7846.182985,-7846.182985,-3064.381992
237.435929,-7920.203579,-9770.718434,-1685.410096
237.436251,-8142.265362,-8660.409521,-3140.991542
237.436573,-7550.100608,-8586.388927,-5592.497135
237.436895,-5921.647536,-11473.192101,-5132.839837
237.437217,-4219.173869,-13323.706956,-3830.477490
237.437539,-5107.421000,-12139.377449,-2374.896044
237.437861,-4737.318029,-10510.924376,-383.047749
237.438183,-2146.597232,-9400.615463,-306.438199
237.438505,814.226536,-8364.327145,-1838.629195
237.438826,2220.617826,-6069.688724,-2681.334243
237.439148,3997.112087,-6809.894666,-1762.019645
237.439470,6661.853478,-8660.409521,-383.047749
237.439792,7624.121203,-9400.615463,306.438199
237.440114,8512.368333,-8956.491898,1838.629195
237.440436,9178.553681,-8142.265362,1685.410096
237.440758,9474.636058,-10732.986159,459.657299
237.441080,6661.853478,-10732.986159,0.000000
237.441402,2072.576638,-8290.306550,0.000000
237.441724,-1406.391290,-8364.327145,-383.047749
237.442046,-2812.782580,-9548.656652,-1608.800546
237.442368,-4663.297435,-8142.265362,-3370.820191
237.442690,-7031.956449,-7920.203579,-4060.306139
237.443012,-7476.080014,-10214.842000,-3447.429741
237.443334,-7105.977043,-11991.336260,-2451.505594
237.443656,-6735.874072,-9770.718434,-2987.772442
237.443978,-5477.523971,-8216.285956,-4979.620737
237.444300,-3997.112087,-10807.006753,-5362.668486
237.444622,-2812.782580,-13397.727550,-4903.011187
237.444944,-3182.885551,-12879.583391,-3753.867940
237.445266,-3552.988522,-11251.130318,-766.095498
237.445588,-740.205942,-10658.965565,842.705048
237.445910,1628.453072,-10066.800811,-1762.019645
237.446232,3552.988522,-8586.388927,-3370.820191
237.446554,4441.235652,-6513.812290,-383.047749
237.446876,6735.874072,-6069.688724,2145.067394
237.447198,9104.533087,-7179.997637,1302.362347
237.447520,10288.862594,-8808.450710,383.047749
237.447842,10732.986159,-9326.594869,766.095498
237.448164,9622.677246,-8882.471304,1149.143247
237.448486,7179.997637,-10362.883188,1455.581446
237.448808,3404.947333,-11991.336260,2145.067394
237.449129,518.144159,-9326.594869,1532.190996
237.449451,-2220.617826,-6587.832884,-842.705048
237.449773,-3849.070898,-8882.471304,-3294.210641
237.450095,-5773.606348,-9844.739029,-2528.115143
237.450417,-7994.224174,-6661.853478,-1685.410096
237.450739,-9104.533087,-5625.565159,-2681.334243
237.451061,-7254.018232,-11029.068536,-2987.772442
237.451383,-7920.203579,-11695.253884,-2145.067394
237.451705,-9844.739029,-8068.244768,-4060.306139
237.452027,-9178.553681,-9178.553681,-4903.011187
237.452349,-5773.606348,-12435.459826,-3677.258390
237.452671,-5329.482782,-12509.480420,-2911.162892
237.452993,-5403.503377,-10288.862594,-1838.629195
237.453315,-3182.885551,-8512.368333,689.485948
237.453637,1702.473667,-7994.224174,-842.705048
237.453959,4589.276840,-7328.038826,-4213.525239
237.454281,6513.812290,-8364.327145,-3140.991542
237.454603,6957.935855,-8882.471304,153.219100
237.454925,7624.121203,-9030.512492,2681.334243
237.455247,7994.224174,-7994.224174,2757.943793
237.455569,8438.347739,-8956.491898,842.705048
237.455891,7550.100608,-9696.697840,-1915.238745
237.456213,3256.906145,-10288.862594,-995.924147
237.456535,-1110.308913,-10881.027347,766.095498
237.456857,-2516.700203,-9400.615463,1762.019645
237.457179,-2664.741391,-6735.874072,-1225.752797
237.457501,-3627.009116,-7624.121203,-4903.011187
237.457823,-5995.668130,-9696.697840,-4060.306139
237.458145,-7994.224174,-10955.047942,-3140.991542
237.458467,-9474.636058,-9474.636058,-3217.601092
237.458789,-7476.080014,-8586.388927,-4826.401637
237.459111,-4515.256246,-11325.150913,-6128.763984
237.459433,-2960.823768,-13915.871710,-6205.373534
237.459754,-3997.112087,-13545.768739,-3370.820191
237.460076,-3923.091493,-12139.377449,-383.047749
237.460398,-1554.432478,-10066.800811,536.266849
237.460720,444.123565,-8290.306550,-1225.752797
237.461042,740.205942,-5255.462188,-2834.553343
237.461364,2516.700203,-4515.256246,-1762.019645
237.461686,6291.750507,-8216.285956,-383.047749
237.462008,8290.306550,-10732.986159,229.828649
237.462330,8586.388927,-9622.677246,2068.457845
237.462652,8216.285956,-7105.977043,4443.353888
237.462974,7846.182985,-7105.977043,3140.991542
237.463296,7031.956449,-10510.924376,-383.047749
237.463618,3923.091493,-10436.903782,-1532.190996
237.463940,444.123565,-7994.224174,0.000000
237.464262,-1924.535449,-8364.327145,689.485948
237.464584,-2368.659014,-10436.903782,0.000000
237.464906,-3849.070898,-8364.327145,-766.095498
237.465228,-4885.359217,-7254.018232,-3447.429741
237.465550,-6069.688724,-10955.047942,-3983.696590
237.465872,-7402.059420,-12731.542202,-1685.410096
237.466194,-9696.697840,-7624.121203,-2911.162892
237.466516,-9474.636058,-7179.997637,-4903.011187
237.466838,-5699.585753,-12213.398043,-6052.154434
237.467160,-4367.215058,-13545.768739,-4903.011187
237.467482,-6291.750507,-12213.398043,-2145.067394
237.467804,-5403.503377,-10362.883188,2221.676944
237.468126,-1406.391290,-8808.450710,2221.676944
237.468448,2072.576638,-5921.647536,-2681.334243
237.468770,3552.988522,-5551.544565,-5132.839837
237.469092,5033.400406,-8290.306550,-2374.896044
237.469414,6217.729913,-9474.636058,76.609550
237.469736,6143.709319,-9104.533087,2374.896044
237.470057,6439.791695,-7772.162391,3524.039291
237.470379,7254.018232,-9770.718434,1225.752797
237.470701,7105.977043,-11991.336260,-1838.629195
237.471023,3627.009116,-10955.047942,-1685.410096
237.471345,-1332.370696,-8364.327145,612.876398
237.471667,-2368.659014,-7550.100608,1762.019645
237.471989,-2516.700203,-6365.771101,0.000000
237.472311,-4589.276840,-7179.997637,-4443.353888
237.472633,-6661.853478,-9844.739029,-5209.449386
237.472955,-7698.141797,-13545.768739,-3217.601092
237.473277,-8068.244768,-10732.986159,-2068.457845
237.473599,-6513.812290,-7550.100608,-3447.429741
237.473921,-2812.782580,-11399.171507,-5975.544884
237.474243,-370.102971,-15322.262999,-5975.544884
237.474565,-1998.556043,-13397.727550,-3064.381992
237.474887,-3330.926739,-11843.295072,459.657299
237.475209,-1480.411884,-10140.821405,1225.752797
237.475531,1628.453072,-8364.327145,-1532.190996
237.475853,1628.453072,-4959.379811,-3447.429741
237.476175,2368.659014,-4959.379811,-1072.533697
237.476497,5699.585753,-7179.997637,1302.362347
237.476819,7476.080014,-8956.491898,459.657299
237.477141,9326.594869,-9622.677246,1532.190996
237.477463,9252.574275,-7624.121203,2987.772442
237.477785,7550.100608,-7550.100608,1762.019645
237.478107,5181.441594,-9400.615463,842.705048
237.478429,2072.576638,-10288.862594,153.219100
237.478751,-296.082377,-8512.368333,-1149.143247
237.479073,-2442.679609,-8290.306550,-1378.971896
237.479395,-4367.215058,-11177.109724,-1532.190996
237.479717,-4737.318029,-9844.739029,-842.705048
237.480039,-4885.359217,-6957.935855,-2681.334243
237.480361,-4737.318029,-9252.574275,-3983.696590
237.480682,-5995.668130,-9770.718434,-2757.943793
237.481004,-8216.285956,-8142.265362,-3064.381992
237.481326,-8882.471304,-9104.533087,-6281.983084
237.481648,-5551.544565,-13101.645173,-6205.373534
237.481970,-3404.947333,-14063.912898,-3907.087040
237.482292,-4737.318029,-12879.583391,-919.314598
237.482614,-3849.070898,-10732.986159,2145.067394
237.482936,-666.185348,-7254.018232,1302.362347
237.483258,2664.741391,-5033.400406,-3600.648841
237.483580,4589.276840,-6439.791695,-5362.668486
237.483902,5995.668130,-9474.636058,-2834.553343
237.484224,6143.709319,-9178.553681,-766.095498
237.484546,6365.771101,-9252.574275,2834.553343
237.484868,6217.729913,-8290.306550,3677.258390
237.485190,6365.771101,-9770.718434,229.828649
237.485512,5255.462188,-11177.109724,-2374.896044
237.485834,2072.576638,-9474.636058,-2834.553343
237.486156,-1924.535449,-8438.347739,-919.314598
237.486478,-2812.782580,-8956.491898,919.314598
237.486800,-2960.823768,-7105.977043,-229.828649
237.487122,-3849.070898,-7550.100608,-4213.525239
237.487444,-5181.441594,-10881.027347,-5286.058936
237.487766,-6957.935855,-12953.603985,-2604.724693
237.488088,-8142.265362,-9104.533087,-2757.943793
237.488410,-6883.915261,-7846.182985,-5132.839837
237.488732,-2072.576638,-12805.562797,-6205.373534
237.489054,0.000000,-13471.748144,-4826.401637
237.489376,-1850.514855,-12287.418637,-2221.676944
237.489698,-1850.514855,-11843.295072,1455.581446
237.490020,0.000000,-10658.965565,2068.457845
237.490342,1924.535449,-8068.244768,-1838.629195
237.490664,1628.453072,-6069.688724,-2757.943793
237.490985,2738.761985,-6587.832884,612.876398
237.491307,5921.647536,-7254.018232,1225.752797
237.491629,7846.182985,-8438.347739,-383.047749
237.491951,9918.759623,-9104.533087,1455.581446
237.492273,9474.636058,-8068.244768,2681.334243
237.492595,7328.038826,-8068.244768,2757.943793
237.492917,4441.235652,-8956.491898,919.314598
237.493239,2220.617826,-9400.615463,-153.219100
237.493561,-222.061783,-7994.224174,-1685.410096
237.493883,-3034.844362,-8808.450710,-1838.629195
237.494205,-5329.482782,-10732.986159,-919.314598
237.494527,-5329.482782,-9030.512492,76.609550
237.494849,-5699.585753,-7846.182985,-2298.286494
237.495171,-6143.709319,-10510.924376,-3524.039291
237.495493,-7920.203579,-10732.986159,-2451.505594
237.495815,-10066.800811,-7624.121203,-3140.991542
237.496137,-10214.842000,-7698.141797,-4903.011187
237.496459,-6291.750507,-11917.315666,-5209.449386
237.496781,-3627.009116,-12065.356855,-3907.087040
237.497103,-3849.070898,-11843.295072,-2068.457845
237.497425,-2886.803174,-11547.212695,2145.067394
237.497747,518.144159,-9178.553681,2451.505594
237.498069,3627.009116,-5921.647536,-2681.334243
237.498391,5181.441594,-6439.791695,-4826.401637
237.498713,6587.832884,-9474.636058,-2681.334243
237.499035,6513.812290,-9326.594869,-536.266849
237.499357,5921.647536,-8290.306550,2451.505594
237.499679,6365.771101,-7254.018232,3524.039291
237.500001,6661.853478,-9400.615463,459.657299
237.500323,5329.482782,-11177.109724,-2604.724693
237.500645,1258.350101,-10140.821405,-2068.457845
237.500967,-2886.803174,-8660.409521,76.609550
237.501289,-2960.823768,-8290.306550,536.266849
237.501610,-3404.947333,-7031.956449,-1149.143247
237.501932,-4737.318029,-8142.265362,-4826.401637
237.502254,-7105.977043,-10214.842000,-4903.011187
237.502576,-8734.430116,-11769.274478,-2374.896044
237.502898,-8882.471304,-8882.471304,-3524.039291
237.503220,-6809.894666,-9326.594869,-5898.935335
237.503542,-2590.720797,-13323.706956,-5975.544884
237.503864,-740.205942,-13841.851115,-3983.696590
237.504186,-1924.535449,-12879.583391,-1302.362347
237.504508,-1406.391290,-11621.233289,1608.800546
237.504830,740.205942,-9696.697840,306.438199
237.505152,2590.720797,-7254.018232,-3064.381992
237.505474,2368.659014,-5921.647536,-3294.210641
237.505796,3627.009116,-6735.874072,995.924147
237.506118,6365.771101,-7846.182985,1915.238745
237.506440,8364.327145,-8956.491898,76.609550
237.506762,10881.027347,-8956.491898,1455.581446
237.507084,10584.944971,-8438.347739,1915.238745
237.507406,7476.080014,-8290.306550,1455.581446
237.507728,3923.091493,-9474.636058,1149.143247
237.508050,1480.411884,-10140.821405,153.219100
237.508372,-518.144159,-9030.512492,-1608.800546
237.508694,-3256.906145,-9844.739029,-2145.067394
237.509016,-5403.503377,-11251.130318,-1455.581446
237.509338,-5255.462188,-8808.450710,-842.705048
237.509660,-4737.318029,-7772.162391,-2757.943793
237.509982,-5107.421000,-9030.512492,-3370.820191
237.510304,-7328.038826,-7846.182985,-1532.190996
237.510626,-9252.574275,-7254.018232,-3907.087040
237.510948,-8734.430116,-10881.027347,-6205.373534
237.511270,-5995.668130,-13471.748144,-4596.572988
237.511592,-5107.421000,-12805.562797,-2987.772442
237.511913,-5477.523971,-12287.418637,-459.657299
237.512235,-3404.947333,-10807.006753,2834.553343
237.512557,0.000000,-6587.832884,612.876398
237.512879,2664.741391,-4145.153275,-3600.648841
237.513201,4885.359217,-7031.956449,-3830.477490
237.513523,5699.585753,-9770.718434,-2068.457845
237.513845,5329.482782,-9178.553681,306.438199
237.514167,6143.709319,-7772.162391,3447.429741
237.514489,6735.874072,-7772.162391,2757.943793
237.514811,6957.935855,-10066.800811,-383.047749
237.515133,4811.338623,-10214.842000,-2221.676944
237.515455,962.267725,-8586.388927,-1608.800546
237.515777,-2664.741391,-8586.388927,76.609550
237.516099,-2886.803174,-9326.594869,612.876398
237.516421,-3701.029710,-7328.038826,-1915.238745
237.516743,-4515.256246,-7402.059420,-5132.839837
237.517065,-5625.565159,-10881.027347,-4136.915689
237.517387,-7179.997637,-12509.480420,-1378.971896
237.517709,-8512.368333,-8364.327145,-2834.553343
237.518031,-6809.894666,-7994.224174,-5745.716235
237.518353,-2368.659014,-13915.871710,-6894.859482
237.518675,-1036.288319,-14952.160028,-4596.572988
237.518997,-2664.741391,-12583.501014,-919.314598
237.519319,-2516.700203,-11177.109724,2298.286494
237.519641,888.247130,-10436.903782,1149.143247
237.519963,3404.947333,-8068.244768,-2911.162892
237.520285,2886.803174,-6217.729913,-3907.087040
237.520607,4293.194464,-5921.647536,1149.143247
237.520929,6735.874072,-7105.977043,1838.629195
237.521251,8512.368333,-8882.471304,-153.219100
237.521573,9992.780217,-8882.471304,1378.971896
237.521895,9474.636058,-7772.162391,1762.019645
237.522217,6587.832884,-8734.430116,76.609550
237.522538,3849.070898,-10955.047942,76.609550
237.522860,518.144159,-10288.862594,229.828649
237.523182,-1406.391290,-7624.121203,-766.095498
237.523504,-3330.926739,-9030.512492,-2221.676944
237.523826,-4663.297435,-11251.130318,-1608.800546
237.524148,-5551.544565,-8882.471304,-2221.676944
237.524470,-6069.688724,-7846.182985,-3294.210641
237.524792,-6291.750507,-8586.388927,-2987.772442
237.525114,-6883.915261,-8660.409521,-2911.162892
237.525436,-7550.100608,-9622.677246,-6205.373534
237.525758,-6735.874072,-12139.377449,-6052.154434
237.526080,-4589.276840,-12509.480420,-2298.286494
237.526402,-3627.009116,-11843.295072,-1762.019645
237.526724,-2812.782580,-11399.171507,-459.657299
237.527046,-592.164754,-10140.821405,689.485948
237.527368,1184.329507,-7846.182985,-1455.581446
237.527690,2294.638420,-7031.956449,-2528.115143
237.528012,3256.906145,-7254.018232,76.609550
237.528334,4589.276840,-6883.915261,0.000000
237.528656,6957.935855,-7476.080014,-2451.505594
237.528978,8734.430116,-9770.718434,-536.266849
237.529300,9104.533087,-10066.800811,1072.533697
237.529622,7179.997637,-10066.800811,1915.238745
237.529944,5255.462188,-10658.965565,1302.362347
237.530266,2664.741391,-9030.512492,76.609550
237.530588,-962.267725,-7772.162391,-2068.457845
237.530910,-3552.988522,-9474.636058,-2987.772442
237.531232,-5699.585753,-9474.636058,-2298.286494
237.531554,-7698.141797,-7550.100608,-2221.676944
237.531876,-8142.265362,-8438.347739,-2987.772442
237.532198,-7698.141797,-12065.356855,-2757.943793
237.532520,-7846.182985,-10436.903782,-2528.115143
237.532841,-8586.388927,-6735.874072,-4826.401637
237.533163,-7031.956449,-9252.574275,-5592.497135
237.533485,-4441.235652,-12731.542202,-4213.525239
237.533786,-4737.318029,-11621.233289,-3370.820191
237.534108,-5625.565159,-11251.130318,-1149.143247
237.534429,-3404.947333,-11621.233289,1149.143247
237.534751,666.185348,-10658.965565,-1762.019645
237.535073,3923.091493,-9030.512492,-4673.182538
237.535395,5033.400406,-7476.080014,-1762.019645
237.535717,7105.977043,-6957.935855,2451.505594
237.536039,8364.327145,-6365.771101,1915.238745
237.536360,9474.636058,-7476.080014,1302.362347
237.536682,10362.883188,-7994.224174,536.266849
237.537004,9030.512492,-8216.285956,-689.485948
237.537326,6439.791695,-9918.759623,153.219100
237.537648,3775.050304,-11843.295072,2451.505594
237.537970,1702.473667,-10658.965565,2681.334243
237.538291,74.020594,-8068.244768,536.266849
237.538613,-1184.329507,-8068.244768,-1378.971896
237.538935,-3775.050304,-8586.388927,-1915.238745
237.539257,-6439.791695,-7476.080014,-1762.019645
237.539579,-7698.141797,-7105.977043,-2221.676944
237.539901,-7994.224174,-9622.677246,-2987.772442
237.540222,-8586.388927,-9992.780217,-3217.601092
237.540544,-9326.594869,-9326.594869,-4366.744339
237.540866,-8660.409521,-11103.089130,-4903.011187
237.541188,-6069.688724,-13101.645173,-3600.648841
237.541510,-4885.359217,-12287.418637,-2221.676944
237.541832,-4589.276840,-10732.986159,-1225.752797
237.542153,-2368.659014,-9178.553681,0.000000
237.542475,814.226536,-7402.059420,-1608.800546
237.542797,2664.741391,-5329.482782,-4136.915689
237.543119,5107.421000,-6069.688724,-2528.115143
237.543441,7105.977043,-8956.491898,-229.828649
237.543762,8512.368333,-10658.965565,153.219100
237.544084,9622.677246,-10955.047942,1532.190996
237.544406,9622.677246,-9400.615463,2451.505594
237.544728,8512.368333,-7698.141797,1608.800546
237.545050,6587.832884,-9400.615463,-842.705048
237.545372,3182.885551,-10066.800811,-459.657299
237.545693,-296.082377,-8734.430116,-383.047749
237.546015,-2664.741391,-8734.430116,-766.095498
237.546337,-4293.194464,-9844.739029,-995.924147
237.546659,-5033.400406,-8808.450710,-1149.143247
237.546981,-5921.647536,-8734.430116,-4519.963438
237.547303,-6513.812290,-11325.150913,-4673.182538
237.547624,-7550.100608,-11103.089130,-2451.505594
237.547946,-8512.368333,-9326.594869,-2834.553343
237.548268,-7476.080014,-10732.986159,-5056.230287
237.548590,-4737.318029,-13323.706956,-5592.497135
237.548912,-4441.235652,-13101.645173,-4213.525239
237.549234,-4589.276840,-11917.315666,-1838.629195
237.549555,-2442.679609,-9622.677246,306.438199
237.549877,592.164754,-7031.956449,-919.314598
237.550199,2960.823768,-5773.606348,-2834.553343
237.550521,3997.112087,-6143.709319,-2145.067394
237.550843,5107.421000,-7624.121203,-1072.533697
237.551165,7105.977043,-8808.450710,-919.314598
237.551486,8734.430116,-10066.800811,766.095498
237.551808,8586.388927,-9400.615463,2374.896044
237.552130,7105.977043,-8734.430116,1991.848295
237.552452,4737.318029,-9770.718434,1762.019645
237.552774,2886.803174,-11399.171507,689.485948
237.553096,1036.288319,-9696.697840,-153.219100
237.553417,-1036.288319,-7402.059420,-229.828649
237.553739,-3034.844362,-7328.038826,383.047749
237.554061,-3923.091493,-7402.059420,459.657299
237.554383,-4885.359217,-6735.874072,-2145.067394
237.554705,-5551.544565,-9474.636058,-4366.744339
237.555027,-7031.956449,-10955.047942,-2834.553343
237.555348,-8956.491898,-9548.656652,-2757.943793
237.555670,-8660.409521,-10658.965565,-4060.306139
237.555992,-6661.853478,-13027.624579,-4213.525239
237.556314,-5625.565159,-12583.501014,-3447.429741
237.556636,-5329.482782,-11103.089130,-3064.381992
237.556957,-3330.926739,-9178.553681,-766.095498
237.557279,-148.041188,-7179.997637,-919.314598
237.557601,1480.411884,-5699.585753,-3064.381992
237.557923,3256.906145,-6513.812290,-2757.943793
237.558245,5551.544565,-8586.388927,-1685.410096
237.558567,7105.977043,-9474.636058,-1225.752797
237.558888,8216.285956,-9474.636058,536.266849
237.559210,7328.038826,-8882.471304,2451.505594
237.559532,5921.647536,-8364.327145,1685.410096
237.559854,4737.318029,-10140.821405,0.000000
237.560176,3256.906145,-10881.027347,-1149.143247
237.560498,1406.391290,-8956.491898,-612.876398
237.560819,-814.226536,-8586.388927,-459.657299
237.561141,-2220.617826,-8586.388927,383.047749
237.561463,-2812.782580,-7846.182985,-766.095498
237.561785,-3775.050304,-8956.491898,-4213.525239
237.562107,-5033.400406,-11177.109724,-4979.620737
237.562429,-6957.935855,-11029.068536,-3140.991542
237.562750,-7846.182985,-10140.821405,-3370.820191
237.563072,-5773.606348,-11843.295072,-5209.449386
237.563394,-3034.844362,-13545.768739,-4826.401637
237.563716,-2960.823768,-13175.665768,-3370.820191
237.564038,-2738.761985,-11917.315666,-1225.752797
237.564360,-962.267725,-9178.553681,612.876398
237.564681,1184.329507,-6513.812290,-1762.019645
237.565003,2368.659014,-5551.544565,-3140.991542
237.565325,3108.864956,-6661.853478,-1302.362347
237.565647,4219.173869,-7179.997637,-536.266849
237.565969,5329.482782,-7920.203579,-383.047749
237.566291,7550.100608,-10140.821405,689.485948
237.566612,7994.224174,-10436.903782,1608.800546
237.566934,6143.709319,-9622.677246,1838.629195
237.567256,3034.844362,-8808.450710,1991.848295
237.567578,814.226536,-8586.388927,1762.019645
237.567900,-592.164754,-7624.121203,-766.095498
237.568222,-1924.535449,-7920.203579,-2221.676944
237.568543,-3552.988522,-9400.615463,-1608.800546
237.568865,-4367.215058,-9548.656652,0.000000
237.569187,-4737.318029,-9474.636058,-919.314598
237.569509,-5403.503377,-9030.512492,-2298.286494
237.569831,-6069.688724,-9844.739029,-3830.477490
237.570152,-7179.997637,-11029.068536,-4443.353888
237.570474,-7254.018232,-11695.253884,-3907.087040
237.570796,-6809.894666,-11177.109724,-2911.162892
237.571118,-5551.544565,-11029.068536,-1225.752797
237.571440,-3330.926739,-10140.821405,-766.095498
237.571762,-1184.329507,-7772.162391,-766.095498
237.572083,518.144159,-6587.832884,-1991.848295
237.572405,2220.617826,-7105.977043,-1915.238745
237.572727,3701.029710,-7920.203579,-1378.971896
237.573049,3849.070898,-8364.327145,-1915.238745
237.573371,4293.194464,-9104.533087,-1532.190996
237.573693,4441.235652,-9030.512492,153.219100
237.574014,3849.070898,-8512.368333,842.705048
237.574336,3330.926739,-9252.574275,229.828649
237.574658,2886.803174,-9992.780217,-306.438199
237.574980,1332.370696,-9992.780217,-766.095498
237.575302,-888.247130,-9770.718434,306.438199
237.575624,-2294.638420,-8882.471304,919.314598
237.575945,-2146.597232,-7402.059420,-919.314598
237.576267,-1998.556043,-8512.368333,-3447.429741
237.576589,-4367.215058,-10362.883188,-3907.087040
237.576911,-6587.832884,-9992.780217,-2681.334243
237.577233,-6587.832884,-9548.656652,-3677.258390
237.577555,-4071.132681,-11917.315666,-5209.449386
237.577876,-962.267725,-13545.768739,-4903.011187
237.578198,-1110.308913,-12805.562797,-3064.381992
237.578520,-1776.494261,-11843.295072,0.000000
237.578842,-814.226536,-10362.883188,1455.581446
237.579164,1036.288319,-7402.059420,-1762.019645
237.579486,2664.741391,-6439.791695,-4749.792088
237.579807,2664.741391,-7476.080014,-2451.505594
237.580129,2812.782580,-7624.121203,919.314598
237.580451,4293.194464,-6883.915261,842.705048
237.580773,7179.997637,-8512.368333,-306.438199
237.581095,9030.512492,-9622.677246,0.000000
237.581417,7994.224174,-9326.594869,-229.828649
237.581738,4145.153275,-8512.368333,689.485948
237.582060,1406.391290,-9178.553681,1838.629195
237.582382,-370.102971,-9400.615463,1302.362347
237.582704,-1998.556043,-8660.409521,-1608.800546
237.583026,-3775.050304,-9474.636058,-2221.676944
237.583347,-4811.338623,-9844.739029,-1378.971896
237.583669,-4737.318029,-8512.368333,-842.705048
237.583991,-4145.153275,-7402.059420,-2451.505594
237.584313,-3997.112087,-8438.347739,-3064.381992
237.584635,-5403.503377,-9178.553681,-2528.115143
237.584957,-6957.935855,-10510.924376,-3600.648841
237.585278,-7031.956449,-11325.150913,-4060.306139
237.585600,-5033.400406,-12953.603985,-3753.867940
237.585922,-3478.967927,-13323.706956,-2451.505594
237.586244,-2442.679609,-11991.336260,-766.095498
237.586566,-740.205942,-9326.594869,153.219100
237.586888,1776.494261,-7254.018232,-612.876398
237.587209,3775.050304,-6587.832884,-2374.896044
237.587531,4367.215058,-7328.038826,-2451.505594
237.587853,4367.215058,-8512.368333,-1991.848295
237.588175,4959.379811,-9104.533087,-1072.533697
237.588497,4811.338623,-10288.862594,229.828649
237.588819,4367.215058,-9178.553681,1072.533697
237.589140,3478.967927,-8882.471304,153.219100
237.589462,2442.679609,-9474.636058,-995.924147
237.589784,740.205942,-9992.780217,-1378.971896
237.590106,-1850.514855,-9400.615463,-229.828649
237.590428,-3108.864956,-9326.594869,229.828649
237.590750,-3849.070898,-7994.224174,-766.095498
237.591071,-4515.256246,-7698.141797,-2604.724693
237.591393,-4885.359217,-8808.450710,-3753.867940
237.591715,-6069.688724,-10955.047942,-3447.429741
237.592037,-6809.894666,-10436.903782,-2911.162892
237.592359,-6735.874072,-9844.739029,-2911.162892
237.592681,-4663.297435,-11251.130318,-3140.991542
237.593002,-2220.617826,-12139.377449,-4290.134789
237.593324,-1332.370696,-12509.480420,-3370.820191
237.593646,-1036.288319,-11843.295072,-1149.143247
237.593968,666.185348,-9474.636058,612.876398
237.594290,2664.741391,-7105.977043,-689.485948
237.594612,3923.091493,-5847.626942,-1608.800546
237.594933,4959.379811,-6291.750507,-1302.362347
237.595255,6143.709319,-7476.080014,-1532.190996
237.595577,7105.977043,-8734.430116,-689.485948
237.595899,7772.162391,-9770.718434,1225.752797
237.596221,7105.977043,-9622.677246,1991.848295
237.596542,5033.400406,-8734.430116,1302.362347
237.596864,3182.885551,-8882.471304,1378.971896
237.597186,296.082377,-8660.409521,153.219100
237.597508,-1480.411884,-8290.306550,-919.314598
237.597830,-2812.782580,-7994.224174,-1915.238745
237.598152,-3701.029710,-9104.533087,-1378.971896
237.598473,-4515.256246,-9104.533087,-1225.752797
237.598795,-5255.462188,-8512.368333,-2298.286494
237.599117,-5625.565159,-8438.347739,-3753.867940
237.599439,-6143.709319,-10066.800811,-4519.963438
237.599761,-6439.791695,-11621.233289,-4366.744339
237.600083,-6217.729913,-12287.418637,-4213.525239
237.600404,-4737.318029,-12731.542202,-3600.648841
237.600726,-3108.864956,-12361.439231,-1915.238745
237.601048,-1480.411884,-10955.047942,-1225.752797
237.601370,0.000000,-8068.244768,-1532.190996
237.601692,1628.453072,-6661.853478,-1762.019645
237.602014,2738.761985,-6809.894666,-1378.971896
237.602335,4293.194464,-7476.080014,-2374.896044
237.602657,5033.400406,-8512.368333,-2145.067394
237.602979,6217.729913,-8734.430116,-1455.581446
237.603301,6291.750507,-9548.656652,0.000000
237.603623,5477.523971,-9474.636058,842.705048
237.603945,3404.947333,-9326.594869,459.657299
237.604266,1850.514855,-9400.615463,-1149.143247
237.604588,222.061783,-10362.883188,-1838.629195
237.604910,-1850.514855,-10732.986159,-1072.533697
237.605232,-2738.761985,-9770.718434,-612.876398
237.605554,-2072.576638,-7994.224174,-1762.019645
237.605876,-2516.700203,-8216.285956,-2834.553343
237.606197,-4293.194464,-9474.636058,-2757.943793
237.606519,-6883.915261,-9474.636058,-2757.943793
237.606841,-7994.224174,-9474.636058,-4519.963438
237.607163,-6809.894666,-10881.027347,-5362.668486
237.607485,-4589.276840,-12657.521608,-4136.915689
237.607807,-2516.700203,-12361.439231,-3140.991542
237.608128,-1924.535449,-11547.212695,-1072.533697
237.608450,-296.082377,-10288.862594,1072.533697
237.608772,1184.329507,-8438.347739,0.000000
237.609094,2368.659014,-6439.791695,-2451.505594
237.609416,2516.700203,-5995.668130,-2145.067394
237.609737,2960.823768,-7328.038826,-153.219100
237.610059,4441.235652,-8068.244768,-383.047749
237.610381,5995.668130,-9400.615463,-612.876398
237.610703,6735.874072,-9918.759623,1149.143247
237.611025,5403.503377,-9622.677246,1685.410096
237.611347,3330.926739,-8808.450710,1762.019645
237.611668,1110.308913,-8956.491898,919.314598
237.611990,-370.102971,-8586.388927,-153.219100
237.612312,-1628.453072,-8438.347739,-1532.190996
237.612634,-3182.885551,-8882.471304,-1072.533697
237.612956,-3997.112087,-8438.347739,0.000000
237.613278,-4663.297435,-7920.203579,-306.438199
237.613599,-4737.318029,-8512.368333,-1915.238745
237.613921,-5773.606348,-9548.656652,-2834.553343
237.614243,-7105.977043,-10436.903782,-3600.648841
237.614565,-8290.306550,-9918.759623,-3907.087040
237.614887,-7254.018232,-11103.089130,-3600.648841
237.615209,-4367.215058,-11843.295072,-3830.477490
237.615530,-2368.659014,-11991.336260,-3370.820191
237.615852,-1628.453072,-11843.295072,-229.828649
237.616174,-148.041188,-9844.739029,1072.533697
237.616496,1776.494261,-7179.997637,-612.876398
237.616818,3627.009116,-6883.915261,-2221.676944
237.617140,4589.276840,-7698.141797,-2757.943793
237.617461,4737.318029,-8512.368333,-2374.896044
237.617783,5477.523971,-8586.388927,-536.266849
237.618105,5625.565159,-9326.594869,1072.533697
237.618427,5551.544565,-8438.347739,1762.019645
237.618749,5107.421000,-8438.347739,0.000000
237.619071,3849.070898,-9622.677246,-1532.190996
237.619392,1998.556043,-10288.862594,-842.705048
237.619714,-1036.288319,-9474.636058,-459.657299
237.620036,-1924.535449,-8734.430116,0.000000
237.620358,-2590.720797,-7772.162391,-1532.190996
237.620680,-3108.864956,-8216.285956,-3447.429741
237.621002,-4737.318029,-8808.450710,-4749.792088
237.621323,-6143.709319,-10362.883188,-4826.401637
237.621645,-7105.977043,-11029.068536,-3753.867940
237.621967,-6513.812290,-11695.253884,-4060.306139
237.622289,-4811.338623,-12879.583391,-4443.353888
237.622611,-3775.050304,-13249.686362,-3983.696590
237.622932,-3108.864956,-11917.315666,-1991.848295
237.623254,-1998.556043,-9696.697840,-919.314598
237.623576,148.041188,-7698.141797,-1915.238745
237.623898,3182.885551,-7031.956449,-2681.334243
237.624220,4737.318029,-7328.038826,-2911.162892
237.624542,4515.256246,-8068.244768,-919.314598
237.624863,4663.297435,-7698.141797,2298.286494
237.625185,5847.626942,-7846.182985,1762.019645
237.625507,6735.874072,-8438.347739,-842.705048
237.625829,6661.853478,-9770.718434,-1225.752797
237.626151,5403.503377,-10214.842000,459.657299
237.626473,3182.885551,-9844.739029,842.705048
237.626794,1998.556043,-10436.903782,1838.629195
237.627116,666.185348,-9474.636058,1608.800546
237.627438,-518.144159,-8290.306550,-383.047749
237.627760,-2368.659014,-7846.182985,-1915.238745
237.628082,-4071.132681,-8438.347739,-1302.362347
237.628404,-5033.400406,-7402.059420,-1378.971896
237.628725,-5477.523971,-7105.977043,-2298.286494
237.629047,-5255.462188,-8734.430116,-3217.601092
237.629369,-5477.523971,-9844.739029,-3524.039291
237.629691,-6217.729913,-11251.130318,-3524.039291
237.630013,-7031.956449,-12805.562797,-3064.381992
237.630335,-7105.977043,-12805.562797,-1762.019645
237.630656,-5699.585753,-11547.212695,-1762.019645
237.630978,-3182.885551,-9474.636058,-2834.553343
237.631300,-370.102971,-8142.265362,-3217.601092
237.631622,2072.576638,-7624.121203,-2451.505594
237.631944,3330.926739,-7328.038826,-1149.143247
237.632266,4441.235652,-7846.182985,0.000000
237.632588,5181.441594,-8142.265362,76.609550
237.632910,5995.668130,-9548.656652,-306.438199
237.633231,6735.874072,-10658.965565,-1149.143247
237.633553,6587.832884,-9844.739029,-1072.533697
237.633875,5551.544565,-10066.800811,0.000000
237.634197,3775.050304,-9474.636058,1532.190996
237.634519,1702.473667,-9178.553681,2451.505594
237.634841,74.020594,-8660.409521,-229.828649
237.635163,-1406.391290,-8808.450710,-2604.724693
237.635485,-2664.741391,-9252.574275,-2374.896044
237.635806,-4589.276840,-8438.347739,-1532.190996
237.636128,-5329.482782,-8142.265362,-1991.848295
237.636450,-5551.544565,-9474.636058,-2987.772442
237.636772,-5699.585753,-10658.965565,-2834.553343
237.637094,-5921.647536,-10658.965565,-3447.429741
237.637416,-6069.688724,-11399.171507,-3830.477490
237.637738,-5551.544565,-12509.480420,-3370.820191
237.638059,-4145.153275,-11769.274478,-1608.800546
237.638381,-2442.679609,-9178.553681,-1302.362347
237.638703,74.020594,-7550.100608,-2451.505594
237.639025,2220.617826,-7105.977043,-2911.162892
237.639347,3701.029710,-7328.038826,-2681.334243
237.639669,3627.009116,-7031.956449,-1149.143247
237.639991,4589.276840,-7994.224174,383.047749
237.640313,5403.503377,-9178.553681,536.266849
237.640634,6439.791695,-9992.780217,-612.876398
237.640956,6069.688724,-9252.574275,0.000000
237.641278,4885.359217,-9030.512492,0.000000
237.641600,3330.926739,-9326.594869,1378.971896
237.641922,1480.411884,-9030.512492,2145.067394
237.642244,148.041188,-8142.265362,153.219100
237.642566,-1184.329507,-8512.368333,-919.314598
237.642888,-2886.803174,-8956.491898,-995.924147
237.643209,-4589.276840,-8734.430116,-1915.238745
237.643531,-5033.400406,-8364.327145,-3140.991542
237.643853,-5033.400406,-9844.739029,-3524.039291
237.644175,-5699.585753,-10732.986159,-3217.601092
237.644497,-6069.688724,-11325.150913,-3370.820191
237.644819,-6291.750507,-11843.295072,-3753.867940
237.645141,-5699.585753,-12287.418637,-3524.039291
237.645462,-4589.276840,-11399.171507,-2145.067394
237.645784,-3552.988522,-9252.574275,-2528.115143
237.646106,-1036.288319,-7920.203579,-2757.943793
237.646428,1036.288319,-7550.100608,-2221.676944
237.646750,2368.659014,-7772.162391,-1378.971896
237.647072,3034.844362,-7698.141797,-1455.581446
237.647394,4367.215058,-8586.388927,-1149.143247
237.647716,5551.544565,-9918.759623,-1072.533697
237.648037,5551.544565,-9992.780217,-459.657299
237.648359,4885.359217,-9252.574275,-306.438199
237.648681,4071.132681,-9548.656652,0.000000
237.649003,3182.885551,-10362.883188,766.095498
237.649325,1480.411884,-9992.780217,689.485948
237.649647,-148.041188,-9696.697840,-306.438199
237.649969,-1258.350101,-8660.409521,-995.924147
237.650291,-1850.514855,-8512.368333,-1532.190996
237.650612,-2590.720797,-8438.347739,-2451.505594
237.650934,-3701.029710,-9104.533087,-3677.258390
237.651256,-4811.338623,-10362.883188,-3217.601092
237.651578,-5033.400406,-11769.274478,-2987.772442
237.651900,-5033.400406,-12731.542202,-2987.772442
237.652222,-4737.318029,-12139.377449,-2451.505594
237.652544,-4145.153275,-11177.109724,-2451.505594
237.652865,-3256.906145,-9696.697840,-1608.800546
237.653187,-888.247130,-7994.224174,-1685.410096
237.653509,1110.308913,-6883.915261,-2221.676944
237.653831,2220.617826,-7254.018232,-1915.238745
237.654153,2590.720797,-7698.141797,0.000000
237.654475,2664.741391,-7105.977043,1149.143247
237.654797,3627.009116,-7550.100608,-229.828649
237.655119,4737.318029,-9104.533087,-919.314598
237.655440,4959.379811,-10140.821405,-459.657299
237.655762,3997.112087,-9252.574275,0.000000
237.656084,2886.803174,-9030.512492,1225.752797
237.656406,1702.473667,-9770.718434,2911.162892
237.656728,888.247130,-9178.553681,1532.190996
237.657050,-296.082377,-7698.141797,-536.266849
237.657372,-1924.535449,-7105.977043,-1072.533697
237.657694,-3182.885551,-7328.038826,-229.828649
237.658015,-4589.276840,-6809.894666,-995.924147
237.658337,-4663.297435,-7772.162391,-2451.505594
237.658659,-4811.338623,-9770.718434,-3830.477490
237.658981,-5181.441594,-11769.274478,-3677.258390
237.659303,-6069.688724,-12139.377449,-3294.210641
237.659625,-6439.791695,-12657.521608,-2757.943793
237.659947,-5181.441594,-13101.645173,-2221.676944
237.660268,-3552.988522,-11547.212695,-2374.896044
237.660590,-1702.473667,-9252.574275,-2451.505594
237.660912,0.000000,-7698.141797,-2451.505594
237.661234,1924.535449,-7254.018232,-1762.019645
237.661556,2738.761985,-6957.935855,-1762.019645
237.661878,3108.864956,-7254.018232,-1302.362347
237.662200,3775.050304,-9400.615463,-919.314598
237.662522,4589.276840,-10436.903782,-459.657299
237.662843,4737.318029,-9252.574275,-689.485948
237.663165,4959.379811,-8660.409521,-919.314598
237.663487,4737.318029,-9252.574275,0.000000
237.663809,2960.823768,-9622.677246,842.705048
237.664131,740.205942,-9474.636058,0.000000
237.664453,-888.247130,-9400.615463,-1302.362347
237.664775,-2072.576638,-8290.306550,-2298.286494
237.665097,-2294.638420,-8734.430116,-3217.601092
237.665418,-3923.091493,-9474.636058,-3600.648841
237.665740,-4515.256246,-10066.800811,-3370.820191
237.666062,-4811.338623,-10807.006753,-3447.429741
237.666384,-4441.235652,-12657.521608,-3983.696590
237.666706,-3923.091493,-13175.665768,-3753.867940
237.667028,-2960.823768,-11991.336260,-3064.381992
237.667350,-2368.659014,-11029.068536,-2221.676944
237.667672,-1184.329507,-10436.903782,-842.705048
237.667993,1258.350101,-8586.388927,-766.095498
237.668315,3108.864956,-7031.956449,-1991.848295
237.668637,4071.132681,-7179.997637,-2374.896044
237.668959,4145.153275,-8512.368333,76.609550
237.669281,4145.153275,-7550.100608,1149.143247
237.669603,4737.318029,-7402.059420,-383.047749
237.669925,4959.379811,-8956.491898,-689.485948
237.670246,4737.318029,-9474.636058,-919.314598
237.670568,2738.761985,-9104.533087,-383.047749
237.670890,888.247130,-9474.636058,306.438199
237.671212,0.000000,-10066.800811,1685.410096
237.671534,-962.267725,-9104.533087,1149.143247
237.671856,-2146.597232,-7550.100608,-536.266849
237.672178,-3701.029710,-8142.265362,-766.095498
237.672500,-4737.318029,-7846.182985,-689.485948
237.672821,-5699.585753,-6957.935855,-1838.629195
237.673143,-5625.565159,-7920.203579,-3447.429741
237.673465,-5255.462188,-9770.718434,-3830.477490
237.673787,-5477.523971,-10881.027347,-3370.820191
237.674109,-6217.729913,-11547.212695,-2374.896044
237.674431,-5403.503377,-12435.459826,-1991.848295
237.674753,-3775.050304,-12657.521608,-2145.067394
237.675075,-2442.679609,-11695.253884,-1991.848295
237.675396,-1628.453072,-9474.636058,-1225.752797
237.675718,0.000000,-7402.059420,-459.657299
237.676040,2146.597232,-6291.750507,-842.705048
237.676362,3478.967927,-5995.668130,-2145.067394
237.676684,4071.132681,-7179.997637,-1455.581446
237.677006,4515.256246,-9326.594869,-612.876398
237.677328,4737.318029,-10214.842000,-536.266849
237.677649,4737.318029,-10510.924376,0.000000
237.677971,4885.359217,-9844.739029,-153.219100
237.678293,4441.235652,-10140.821405,-536.266849
237.678615,2886.803174,-10807.006753,-229.828649
237.678937,-148.041188,-10584.944971,153.219100
237.679259,-1924.535449,-8586.388927,-306.438199
237.679581,-2368.659014,-7402.059420,-1915.238745
237.679903,-3034.844362,-8068.244768,-2834.553343
237.680224,-3775.050304,-9252.574275,-3217.601092
237.680546,-4441.235652,-10436.903782,-3447.429741
237.680868,-5181.441594,-10881.027347,-2604.724693
237.681190,-5107.421000,-10436.903782,-2145.067394
237.681512,-4663.297435,-11103.089130,-3447.429741
237.681834,-3552.988522,-11473.192101,-4290.134789
237.682156,-2738.761985,-11103.089130,-2911.162892
237.682478,-1702.473667,-11029.068536,-1838.629195
237.682799,888.247130,-10140.821405,-766.095498
237.683121,3997.112087,-9252.574275,-1378.971896
237.683443,4959.379811,-8660.409521,-1685.410096
237.683765,4885.359217,-8586.388927,-383.047749
237.684087,5181.441594,-7402.059420,1302.362347
237.684409,5773.606348,-6513.812290,-995.924147
237.684731,5995.668130,-7772.162391,-1991.848295
237.685052,5699.585753,-9178.553681,76.609550
237.685374,3627.009116,-8882.471304,919.314598
237.685696,1702.473667,-9104.533087,1072.533697
237.686018,962.267725,-10288.862594,1455.581446
237.686340,0.000000,-9474.636058,536.266849
237.686662,-1406.391290,-7772.162391,-1072.533697
237.686984,-3478.967927,-8290.306550,-1532.190996
237.687306,-4737.318029,-8290.306550,-383.047749
237.687627,-5033.400406,-7624.121203,-1608.800546
237.687949,-5847.626942,-7846.182985,-3524.039291
237.688271,-6069.688724,-10362.883188,-4213.525239
237.688593,-6735.874072,-11399.171507,-3217.601092
237.688915,-7105.977043,-11843.295072,-3370.820191
237.689237,-6513.812290,-12509.480420,-2374.896044
237.689559,-4367.215058,-12731.542202,-1915.238745
237.689881,-3108.864956,-11325.150913,-2145.067394
237.690202,-2072.576638,-9030.512492,-1762.019645
237.690524,-296.082377,-7105.977043,-612.876398
237.690846,1850.514855,-5773.606348,-689.485948
237.691168,3404.947333,-6291.750507,-2145.067394
237.691490,4071.132681,-7846.182985,-1915.238745
237.691812,4589.276840,-9326.594869,-1072.533697
237.692134,4959.379811,-10584.944971,-536.266849
237.692455,4885.359217,-10732.986159,0.000000
237.692777,4737.318029,-9770.718434,-459.657299
237.693099,4293.194464,-9696.697840,-536.266849
237.693421,2590.720797,-9992.780217,-306.438199
237.693743,-222.061783,-9548.656652,-229.828649
237.694065,-1998.556043,-8660.409521,-536.266849
237.694387,-2516.700203,-7476.080014,-1685.410096
237.694709,-3627.009116,-7846.182985,-2374.896044
237.695030,-4663.297435,-8956.491898,-2681.334243
237.695352,-5699.585753,-9770.718434,-3217.601092
237.695674,-6069.688724,-10436.903782,-3294.210641
237.695996,-5403.503377,-11029.068536,-3294.210641
237.696318,-4737.318029,-11621.233289,-3524.039291
237.696640,-4367.215058,-12657.521608,-3830.477490
237.696962,-3552.988522,-12657.521608,-2911.162892
237.697284,-2294.638420,-11473.192101,-1302.362347
237.697605,518.144159,-9548.656652,-995.924147
237.697927,3552.988522,-7846.182985,-1838.629195
237.698249,4959.379811,-7402.059420,-1915.238745
237.698571,5403.503377,-7402.059420,-383.047749
237.698893,5773.606348,-7105.977043,1225.752797
237.699215,6069.688724,-7105.977043,76.609550
237.699537,6513.812290,-7994.224174,-766.095498
237.699858,5773.606348,-8956.491898,-612.876398
237.700180,4145.153275,-9400.615463,0.000000
237.700502,1850.514855,-9548.656652,919.314598
237.700824,962.267725,-10066.800811,1455.581446
237.701146,0.000000,-8882.471304,1378.971896
237.701468,-888.247130,-7920.203579,-689.485948
237.701790,-2516.700203,-7476.080014,-1455.581446
237.702112,-3775.050304,-7550.100608,-1149.143247
237.702433,-4589.276840,-7550.100608,-1991.848295
237.702755,-5107.421000,-8438.347739,-3677.258390
237.703077,-5773.606348,-10066.800811,-4443.353888
237.703399,-6513.812290,-11843.295072,-3447.429741
237.703721,-6883.915261,-12657.521608,-3370.820191
237.704043,-6365.771101,-13323.706956,-3447.429741
237.704365,-5033.400406,-13027.624579,-2451.505594
237.704687,-3404.947333,-11251.130318,-1991.848295
237.705008,-962.267725,-8808.450710,-1608.800546
237.705330,1110.308913,-6957.935855,-1915.238745
237.705652,3108.864956,-6513.812290,-2068.457845
237.705974,4145.153275,-7105.977043,-1072.533697
237.706296,4367.215058,-7846.182985,-306.438199
237.706618,4811.338623,-9104.533087,-1302.362347
237.706940,5403.503377,-10362.883188,-995.924147
237.707261,5403.503377,-10658.965565,-306.438199
237.707583,4737.318029,-9696.697840,-153.219100
237.707905,3923.091493,-9400.615463,229.828649
237.708227,2368.659014,-9104.533087,383.047749
237.708549,592.164754,-9474.636058,-689.485948
237.708871,-1406.391290,-9178.553681,-1149.143247
237.709193,-2812.782580,-8290.306550,-1302.362347
237.709515,-3627.009116,-7846.182985,-2068.457845
237.709836,-3849.070898,-8660.409521,-2987.772442
237.710158,-4663.297435,-9548.656652,-3983.696590
237.710480,-5551.544565,-10510.924376,-2987.772442
237.710802,-6217.729913,-11177.109724,-2681.334243
237.711124,-5699.585753,-11695.253884,-3447.429741
237.711446,-4663.297435,-12213.398043,-3753.867940
237.711768,-3330.926739,-12435.459826,-3064.381992
237.712090,-2664.741391,-11177.109724,-995.924147
237.712411,-814.226536,-8956.491898,-229.828649
237.712733,2368.659014,-7476.080014,-1378.971896
237.713055,4737.318029,-7402.059420,-2374.896044
237.713377,5033.400406,-7994.224174,-1455.581446
237.713699,4145.153275,-7476.080014,919.314598
237.714021,4663.297435,-7328.038826,1378.971896
237.714343,6143.709319,-8068.244768,-153.219100
237.714665,6883.915261,-9696.697840,-1149.143247
237.714986,6365.771101,-10140.821405,76.609550
237.715308,4293.194464,-9548.656652,689.485948
237.715630,2590.720797,-9622.677246,1838.629195
237.715952,1184.329507,-8808.450710,1532.190996
237.716274,-370.102971,-7994.224174,-153.219100
237.716596,-3108.864956,-7624.121203,-2221.676944
237.716918,-4885.359217,-8290.306550,-2604.724693
237.717239,-7254.018232,-8956.491898,-1762.019645
237.717561,-7846.182985,-8956.491898,-2298.286494
237.717883,-7624.121203,-8956.491898,-3217.601092
237.718205,-6809.894666,-10214.842000,-3983.696590
237.718527,-6809.894666,-11843.295072,-4213.525239
237.718849,-7328.038826,-12361.439231,-2834.553343
237.719171,-7624.121203,-11695.253884,-1378.971896
237.719493,-6587.832884,-9918.759623,-1225.752797
237.719814,-3775.050304,-8956.491898,-2911.162892
237.720136,-666.185348,-7920.203579,-4213.525239
237.720458,1998.556043,-7550.100608,-3524.039291
237.720780,3256.906145,-7920.203579,-1302.362347
237.721102,4219.173869,-7920.203579,536.266849
237.721424,5551.544565,-8068.244768,612.876398
237.721746,6513.812290,-8734.430116,-536.266849
237.722068,6883.915261,-9548.656652,-1378.971896
237.722389,6587.832884,-9548.656652,-1762.019645
237.722711,6365.771101,-9770.718434,-1225.752797
237.723033,5033.400406,-9770.718434,1378.971896
237.723355,3182.885551,-9770.718434,2451.505594
237.723677,1184.329507,-9178.553681,383.047749
237.723999,0.000000,-9326.594869,-2145.067394
237.724321,-1924.535449,-9326.594869,-2911.162892
237.724642,-3627.009116,-8586.388927,-2451.505594
237.724964,-4367.215058,-8364.327145,-2604.724693
237.725286,-4293.194464,-9326.594869,-3217.601092
237.725608,-4441.235652,-10732.986159,-3600.648841
237.725930,-4885.359217,-11843.295072,-3064.381992
237.726252,-6069.688724,-12287.418637,-2757.943793
237.726574,-6883.915261,-12139.377449,-2451.505594
237.726896,-5625.565159,-11621.233289,-2604.724693
237.727217,-3108.864956,-9178.553681,-2757.943793
237.727539,740.205942,-8438.347739,-3217.601092
237.727861,3034.844362,-8290.306550,-2528.115143
237.728183,4293.194464,-8068.244768,-766.095498
237.728505,4811.338623,-7624.121203,306.438199
237.728827,5329.482782,-7624.121203,612.876398
237.729149,5699.585753,-8808.450710,536.266849
237.729471,5773.606348,-10140.821405,-1149.143247
237.729792,5403.503377,-10288.862594,-1455.581446
237.730114,5107.421000,-10066.800811,306.438199
237.730436,3775.050304,-9696.697840,2374.896044
237.730758,1776.494261,-9400.615463,3524.039291
237.731080,0.000000,-8290.306550,2451.505594
237.731401,-1850.514855,-7105.977043,-766.095498
237.731723,-3256.906145,-7105.977043,-1915.238745
237.732045,-5181.441594,-7105.977043,-1302.362347
237.732367,-6957.935855,-7179.997637,-1762.019645
237.732689,-7254.018232,-8068.244768,-2604.724693
237.733011,-6661.853478,-10066.800811,-2604.724693
237.733332,-6439.791695,-11991.336260,-3524.039291
237.733654,-7476.080014,-13101.645173,-3140.991542
237.733976,-8364.327145,-13027.624579,-2298.286494
237.734298,-7402.059420,-11991.336260,-2068.457845
237.734620,-4959.379811,-9770.718434,-2298.286494
237.734941,-2442.679609,-7772.162391,-3370.820191
237.735263,-518.144159,-6217.729913,-3370.820191
237.735585,962.267725,-5847.626942,-2068.457845
237.735907,2738.761985,-6513.812290,-1378.971896
237.736229,4441.235652,-8734.430116,-1302.362347
237.736550,5255.462188,-10510.924376,-536.266849
237.736872,5921.647536,-11029.068536,-306.438199
237.737194,5847.626942,-10140.821405,-383.047749
237.737516,6143.709319,-9252.574275,76.609550
237.737838,5847.626942,-8882.471304,306.438199
237.738160,3552.988522,-8142.265362,306.438199
237.738481,1406.391290,-8808.450710,0.000000
237.738803,0.000000,-9030.512492,-1225.752797
237.739125,-1184.329507,-8956.491898,-2221.676944
237.739447,-2146.597232,-9104.533087,-2987.772442
237.739769,-2812.782580,-10066.800811,-3753.867940
237.740090,-3923.091493,-11325.150913,-3907.087040
237.740412,-4885.359217,-11473.192101,-3447.429741
237.740734,-5107.421000,-11399.171507,-2757.943793
237.741056,-4959.379811,-11473.192101,-3370.820191
237.741378,-4441.235652,-11843.295072,-4213.525239
237.741699,-2738.761985,-11621.233289,-3600.648841
237.742021,-518.144159,-10214.842000,-2374.896044
237.742343,2146.597232,-8882.471304,-2221.676944
237.742665,4589.276840,-8586.388927,-1378.971896
237.742987,4885.359217,-7402.059420,-689.485948
237.743309,5181.441594,-6439.791695,-153.219100
237.743630,5033.400406,-6883.915261,-689.485948
237.743952,5329.482782,-8068.244768,-536.266849
237.744274,4737.318029,-8808.450710,-536.266849
237.744596,3849.070898,-8364.327145,153.219100
237.744918,3627.009116,-9770.718434,1149.143247
237.745239,2516.700203,-10881.027347,1838.629195
237.745561,888.247130,-9844.739029,1991.848295
237.745883,-740.205942,-7772.162391,919.314598
237.746205,-1850.514855,-7105.977043,-306.438199
237.746527,-3108.864956,-7328.038826,-1455.581446
237.746848,-5403.503377,-8438.347739,-2681.334243
237.747170,-6883.915261,-8512.368333,-2987.772442
237.747492,-6587.832884,-10362.883188,-3370.820191
237.747814,-6217.729913,-12139.377449,-3370.820191
237.748136,-6069.688724,-13027.624579,-2834.553343
237.748458,-6365.771101,-13101.645173,-2374.896044
237.748779,-6069.688724,-12435.459826,-1685.410096
237.749101,-5107.421000,-10362.883188,-1608.800546
237.749423,-3478.967927,-8438.347739,-2451.505594
237.749745,-1036.288319,-7105.977043,-3447.429741
237.750067,814.226536,-6587.832884,-2451.505594
237.750388,1924.535449,-6661.853478,-459.657299
237.750710,2738.761985,-7179.997637,0.000000
237.751032,3775.050304,-9104.533087,-459.657299
237.751354,4515.256246,-9770.718434,-919.314598
237.751676,4737.318029,-10140.821405,-1149.143247
237.751997,4145.153275,-9844.739029,-612.876398
237.752319,3775.050304,-9844.739029,919.314598
237.752641,2516.700203,-9622.677246,1455.581446
237.752963,666.185348,-9696.697840,459.657299
237.753285,-1258.350101,-8660.409521,-153.219100
237.753607,-2738.761985,-7772.162391,-1762.019645
237.753928,-3552.988522,-7772.162391,-2757.943793
237.754250,-3627.009116,-8882.471304,-2834.553343
237.754572,-4293.194464,-9622.677246,-3370.820191
237.754894,-4515.256246,-10881.027347,-3447.429741
237.755216,-5033.400406,-11695.253884,-2145.067394
237.755537,-4515.256246,-11103.089130,-1915.238745
237.755859,-4663.297435,-10732.986159,-3524.039291
237.756181,-3478.967927,-11621.233289,-3753.867940
237.756503,-2072.576638,-11325.150913,-2221.676944
237.756825,370.102971,-9844.739029,-1685.410096
237.757146,2886.803174,-9252.574275,-1915.238745
237.757468,5107.421000,-8586.388927,0.000000
237.757790,6143.709319,-7698.141797,536.266849
237.758112,6069.688724,-6291.750507,0.000000
237.758434,5921.647536,-6069.688724,-1149.143247
237.758756,5995.668130,-8438.347739,-612.876398
237.759077,4811.338623,-9178.553681,-459.657299
237.759399,3478.967927,-8882.471304,229.828649
237.759721,2442.679609,-9548.656652,459.657299
237.760043,1554.432478,-11103.089130,919.314598
237.760365,0.000000,-10214.842000,1225.752797
237.760686,-2368.659014,-7179.997637,-383.047749
237.761008,-3701.029710,-6661.853478,-1915.238745
237.761330,-4589.276840,-7476.080014,-2757.943793
237.761652,-5921.647536,-8438.347739,-3830.477490
237.761974,-6957.935855,-9474.636058,-4596.572988
237.762295,-6809.894666,-10732.986159,-3677.258390
237.762617,-6587.832884,-12435.459826,-3447.429741
237.762939,-5921.647536,-13175.665768,-3294.210641
237.763261,-5329.482782,-12805.562797,-3140.991542
237.763583,-4293.194464,-12065.356855,-2911.162892
237.763905,-2294.638420,-10584.944971,-3370.820191
237.764226,-296.082377,-9474.636058,-2604.724693
237.764548,1850.514855,-7550.100608,-1991.848295
237.764870,3182.885551,-6661.853478,-1532.190996
237.765192,4293.194464,-7254.018232,-153.219100
237.765514,4515.256246,-7624.121203,0.000000
237.765835,4959.379811,-7920.203579,-306.438199
237.766157,5995.668130,-9104.533087,-919.314598
237.766479,6513.812290,-9400.615463,-383.047749
237.766801,5995.668130,-9918.759623,0.000000
237.767123,4737.318029,-9918.759623,383.047749
237.767444,2072.576638,-8882.471304,2374.896044
237.767766,-962.267725,-8660.409521,1302.362347
237.768088,-3627.009116,-7402.059420,-1225.752797
237.768410,-5329.482782,-7624.121203,-3447.429741
237.768732,-6809.894666,-8290.306550,-3983.696590
237.769054,-7105.977043,-9474.636058,-3524.039291
237.769375,-7031.956449,-10955.047942,-3447.429741
237.769697,-5921.647536,-11917.315666,-3294.210641
237.770019,-5551.544565,-11917.315666,-2604.724693
237.770341,-5107.421000,-11621.233289,-2451.505594
237.770663,-4737.318029,-10955.047942,-3447.429741
237.770984,-3478.967927,-11473.192101,-3370.820191
237.771306,-1184.329507,-11251.130318,-2221.676944
237.771628,1110.308913,-9992.780217,-1378.971896
237.771950,3701.029710,-8808.450710,-689.485948
237.772272,6143.709319,-8068.244768,995.924147
237.772593,7772.162391,-6809.894666,1915.238745
237.772915,7994.224174,-5773.606348,1302.362347
237.773237,7179.997637,-6439.791695,536.266849
237.773559,5921.647536,-7698.141797,383.047749
237.773881,4515.256246,-7920.203579,0.000000
237.774203,3627.009116,-9326.594869,-536.266849
237.774524,3108.864956,-11695.253884,0.000000
237.774846,2220.617826,-12953.603985,2068.457845
237.775168,-370.102971,-10732.986159,2911.162892
237.775490,-2294.638420,-8068.244768,1149.143247
237.775812,-3404.947333,-6883.915261,-1455.581446
237.776133,-4515.256246,-6069.688724,-2987.772442
237.776455,-7031.956449,-6217.729913,-4443.353888
237.776777,-8216.285956,-8142.265362,-4443.353888
237.777099,-7772.162391,-10584.944971,-3370.820191
237.777421,-7550.100608,-11991.336260,-2451.505594
237.777742,-7624.121203,-12435.459826,-2374.896044
237.778064,-7328.038826,-12953.603985,-2834.553343
237.778386,-6439.791695,-12361.439231,-3140.991542
237.778708,-3997.112087,-10658.965565,-3294.210641
237.779030,-1110.308913,-8290.306550,-3294.210641
237.779352,1998.556043,-7254.018232,-1838.629195
237.779673,3849.070898,-7254.018232,-1072.533697
237.779995,4959.379811,-8216.285956,0.000000
237.780317,5995.668130,-8068.244768,612.876398
237.780639,6735.874072,-8364.327145,-689.485948
237.780961,7254.018232,-9400.615463,-1378.971896
237.781282,7328.038826,-9622.677246,-229.828649
237.781604,7105.977043,-9178.553681,229.828649
237.781926,7105.977043,-9548.656652,-612.876398
237.782248,5847.626942,-9918.759623,536.266849
237.782570,2368.659014,-9104.533087,995.924147
237.782891,-1036.288319,-7402.059420,76.609550
237.783213,-3330.926739,-7105.977043,-2451.505594
237.783535,-4811.338623,-8364.327145,-3907.087040
237.783857,-6069.688724,-9252.574275,-4596.572988
237.784179,-7105.977043,-9918.759623,-4749.792088
237.784501,-7031.956449,-10881.027347,-4136.915689
237.784822,-5995.668130,-11769.274478,-3294.210641
237.785144,-6587.832884,-11695.253884,-3370.820191
237.785466,-6809.894666,-12065.356855,-3600.648841
237.785788,-6217.729913,-11917.315666,-3753.867940
237.786110,-4515.256246,-11399.171507,-3447.429741
237.786431,-1628.453072,-9548.656652,-2911.162892
237.786753,2368.659014,-8586.388927,-2451.505594
237.787075,4811.338623,-7920.203579,-1608.800546
237.787397,6513.812290,-7402.059420,-229.828649
237.787719,6809.894666,-6735.874072,1455.581446
237.788040,7254.018232,-7031.956449,1149.143247
237.788362,7476.080014,-8882.471304,-1378.971896
237.788684,6883.915261,-10214.842000,-919.314598
237.789006,5773.606348,-9770.718434,0.000000
237.789328,4737.318029,-10658.965565,306.438199
237.789650,3923.091493,-11547.212695,1762.019645
237.789971,1924.535449,-9992.780217,2987.772442
237.790293,-888.247130,-7550.100608,995.924147
237.790615,-2442.679609,-7031.956449,-1149.143247
237.790937,-4293.194464,-7698.141797,-2068.457845
237.791259,-6365.771101,-7698.141797,-2451.505594
237.791580,-8438.347739,-7772.162391,-3064.381992
237.791902,-8290.306550,-9474.636058,-2911.162892
237.792224,-8216.285956,-10955.047942,-2604.724693
237.792546,-8142.265362,-11399.171507,-2987.772442
237.792868,-8364.327145,-11029.068536,-3064.381992
237.793189,-7994.224174,-12361.439231,-2528.115143
237.793511,-7105.977043,-11917.315666,-1838.629195
237.793833,-4737.318029,-9844.739029,-1762.019645
237.794155,-2368.659014,-7105.977043,-2374.896044
237.794477,740.205942,-6439.791695,-2298.286494
237.794799,2664.741391,-6587.832884,-1149.143247
237.795120,4367.215058,-6809.894666,-766.095498
237.795442,5329.482782,-7698.141797,-383.047749
237.795764,7105.977043,-9696.697840,459.657299
237.796086,7846.182985,-10288.862594,153.219100
237.796408,7179.997637,-11029.068536,-153.219100
237.796729,6365.771101,-10510.924376,612.876398
237.797051,5625.565159,-9770.718434,612.876398
237.797373,2664.741391,-9474.636058,1378.971896
237.797695,222.061783,-9104.533087,995.924147
237.798017,-1554.432478,-7550.100608,-612.876398
237.798338,-2738.761985,-7254.018232,-2528.115143
237.798660,-3849.070898,-8068.244768,-2681.334243
237.798982,-5033.400406,-9104.533087,-3217.601092
237.799304,-5921.647536,-9770.718434,-3600.648841
237.799626,-6069.688724,-10955.047942,-3217.601092
237.799948,-5995.668130,-12435.459826,-3140.991542
237.800269,-6439.791695,-12657.521608,-2834.553343
237.800591,-6143.709319,-12361.439231,-2911.162892
237.800913,-5107.421000,-11251.130318,-2374.896044
237.801235,-2220.617826,-9252.574275,-2528.115143
237.801557,1850.514855,-8364.327145,-3140.991542
237.801878,3775.050304,-7846.182985,-2681.334243
237.802200,4663.297435,-7698.141797,-766.095498
237.802522,5107.421000,-6661.853478,1302.362347
237.802844,6513.812290,-6513.812290,0.000000
237.803166,7179.997637,-8364.327145,-1762.019645
237.803487,7550.100608,-9918.759623,-1762.019645
237.803809,6735.874072,-10288.862594,229.828649
237.804131,5033.400406,-9992.780217,919.314598
237.804453,3552.988522,-10510.924376,2604.724693
237.804775,2294.638420,-9622.677246,2298.286494
237.805097,814.226536,-8142.265362,-153.219100
237.805418,-1258.350101,-7846.182985,-2068.457845
237.805740,-3182.885551,-7476.080014,-1915.238745
237.806062,-4293.194464,-7772.162391,-2221.676944
237.806384,-5551.544565,-8068.244768,-3217.601092
237.806706,-5995.668130,-9992.780217,-3907.087040
237.807027,-6587.832884,-11843.295072,-3600.648841
237.807349,-7698.141797,-12213.398043,-3140.991542
237.807671,-8068.244768,-12287.418637,-2987.772442
237.807993,-7624.121203,-11991.336260,-3447.429741
237.808315,-5551.544565,-10881.027347,-3217.601092
237.808636,-3404.947333,-9474.636058,-3447.429741
237.808958,-740.205942,-8438.347739,-3447.429741
237.809280,1332.370696,-8290.306550,-2451.505594
237.809602,2516.700203,-8660.409521,-612.876398
237.809924,2886.803174,-8290.306550,229.828649
237.810246,3330.926739,-7550.100608,-459.657299
237.810567,4441.235652,-8290.306550,-1378.971896
237.810889,5477.523971,-9770.718434,-1838.629195
237.811211,5847.626942,-9918.759623,-612.876398
237.811533,5181.441594,-8882.471304,919.314598
237.811855,3849.070898,-9104.533087,2451.505594
237.812176,2368.659014,-9770.718434,2374.896044
237.812498,666.185348,-8734.430116,306.438199
237.812820,-1480.411884,-7476.080014,-2221.676944
237.813142,-3256.906145,-8586.388927,-2145.067394
237.813464,-4293.194464,-9104.533087,-1532.190996
237.813785,-5255.462188,-8660.409521,-2451.505594
237.814107,-4737.318029,-9622.677246,-3294.210641
237.814429,-3923.091493,-11547.212695,-3140.991542
237.814751,-3923.091493,-13027.624579,-3753.867940
237.815073,-4811.338623,-11473.192101,-2757.943793
237.815395,-5403.503377,-10214.842000,-2221.676944
237.815716,-4589.276840,-10732.986159,-2298.286494
237.816038,-2072.576638,-9992.780217,-2681.334243
237.816360,518.144159,-8734.430116,-3983.696590
237.816682,2738.761985,-8068.244768,-3524.039291
237.817004,5329.482782,-8660.409521,-306.438199
237.817325,6883.915261,-8438.347739,1225.752797
237.817647,7254.018232,-7772.162391,842.705048
237.817969,7105.977043,-7402.059420,1149.143247
237.818291,6809.894666,-8142.265362,919.314598
237.818613,4811.338623,-8734.430116,-306.438199
237.818934,3552.988522,-9326.594869,-229.828649
237.819256,3478.967927,-10066.800811,842.705048
237.819578,3182.885551,-10807.006753,1225.752797
237.819900,1850.514855,-10362.883188,1455.581446
237.820222,0.000000,-8586.388927,1302.362347
237.820544,-1480.411884,-7105.977043,-306.438199
237.820865,-3034.844362,-6439.791695,-2834.553343
237.821187,-5033.400406,-7994.224174,-4903.011187
237.821509,-6513.812290,-9770.718434,-4673.182538
237.821831,-7402.059420,-11325.150913,-3524.039291
237.822153,-7031.956449,-12435.459826,-2374.896044
237.822474,-5995.668130,-13249.686362,-2834.553343
237.822796,-5329.482782,-13767.830521,-3524.039291
237.823118,-5329.482782,-12361.439231,-1915.238745
237.823440,-4441.235652,-8956.491898,-2068.457845
237.823762,-1924.535449,-7031.956449,-3294.210641
237.824083,296.082377,-6957.935855,-3753.867940
237.824405,1332.370696,-7105.977043,-2834.553343
237.824727,1258.350101,-6735.874072,-1455.581446
237.825049,2072.576638,-7031.956449,0.000000
237.825371,3552.988522,-9548.656652,-383.047749
237.825693,4737.318029,-11177.109724,-995.924147
237.826014,5255.462188,-10510.924376,-1608.800546
237.826336,5551.544565,-10510.924376,-1149.143247
237.826658,5181.441594,-10658.965565,1225.752797
237.826980,3108.864956,-9770.718434,2145.067394
237.827302,814.226536,-7846.182985,766.095498
237.827623,-1554.432478,-7476.080014,-1685.410096
237.827945,-3627.009116,-8216.285956,-2604.724693
237.828267,-5107.421000,-8364.327145,-3140.991542
237.828589,-5921.647536,-8142.265362,-2834.553343
237.828911,-5107.421000,-9252.574275,-2221.676944
237.829232,-4515.256246,-10288.862594,-2221.676944
237.829554,-3923.091493,-11621.233289,-2987.772442
237.829876,-4663.297435,-11769.274478,-2987.772442
237.830198,-5847.626942,-11325.150913,-2068.457845
237.830520,-5995.668130,-11325.150913,-1532.190996
237.830842,-4515.256246,-9474.636058,-1838.629195
237.831163,-962.267725,-7624.121203,-3064.381992
237.831485,1998.556043,-6957.935855,-3600.648841
237.831807,3775.050304,-8068.244768,-2068.457845
237.832129,4219.173869,-8142.265362,153.219100
237.832451,4367.215058,-7550.100608,842.705048
237.832772,4959.379811,-8512.368333,76.609550
237.833094,5181.441594,-9696.697840,-1378.971896
237.833416,4663.297435,-10436.903782,-1608.800546
237.833738,3478.967927,-10436.903782,-229.828649
237.834060,2516.700203,-10807.006753,1225.752797
237.834382,2072.576638,-10362.883188,2451.505594
237.834703,1258.350101,-8660.409521,1991.848295
237.835025,74.020594,-7624.121203,-153.219100
237.835347,-1110.308913,-7328.038826,-1762.019645
237.835669,-3034.844362,-7105.977043,-1838.629195
237.835991,-4663.297435,-7179.997637,-2374.896044
237.836313,-5033.400406,-8956.491898,-3064.381992
237.836634,-4885.359217,-11399.171507,-2604.724693
237.836956,-5255.462188,-12139.377449,-1685.410096
237.837278,-5921.647536,-11991.336260,-2298.286494
237.837600,-5995.668130,-12509.480420,-2451.505594
237.837922,-4885.359217,-11695.253884,-1991.848295
237.838243,-3849.070898,-8734.430116,-1762.019645
237.838565,-2146.597232,-6661.853478,-2604.724693
237.838887,148.041188,-7402.059420,-2374.896044
237.839209,1998.556043,-7772.162391,-1915.238745
237.839531,2146.597232,-7402.059420,-842.705048
237.839853,2590.720797,-7550.100608,-383.047749
237.840174,3701.029710,-9770.718434,-612.876398
237.840496,5551.544565,-11029.068536,-1072.533697
237.840818,5773.606348,-9844.739029,-1302.362347
237.841140,5699.585753,-9326.594869,-842.705048
237.841462,5181.441594,-10066.800811,1378.971896
237.841784,3034.844362,-9992.780217,2451.505594
237.842105,592.164754,-8734.430116,1072.533697
237.842427,-666.185348,-8364.327145,-1532.190996
237.842749,-1998.556043,-8364.327145,-2528.115143
237.843071,-3108.864956,-8216.285956,-3140.991542
237.843393,-4367.215058,-7920.203579,-2834.553343
237.843715,-3849.070898,-9326.594869,-2451.505594
237.844036,-3627.009116,-11399.171507,-3064.381992
237.844358,-3849.070898,-12583.501014,-2757.943793
237.844680,-4811.338623,-12287.418637,-2451.505594
237.845002,-5403.503377,-11917.315666,-2757.943793
237.845324,-4145.153275,-11473.192101,-2834.553343
237.845646,-1776.494261,-9474.636058,-2604.724693
237.845967,1332.370696,-8068.244768,-3447.429741
237.846289,3404.947333,-8142.265362,-2528.115143
237.846611,4663.297435,-8734.430116,-919.314598
237.846933,4737.318029,-7920.203579,153.219100
237.847255,4589.276840,-6957.935855,612.876398
237.847577,4885.359217,-7550.100608,-995.924147
237.847898,4885.359217,-9474.636058,-1455.581446
237.848220,4367.215058,-9844.739029,-1225.752797
237.848542,3256.906145,-9622.677246,76.609550
237.848864,2220.617826,-9918.759623,1915.238745
237.849186,888.247130,-9918.759623,3217.601092
237.849507,-962.267725,-8438.347739,1072.533697
237.849829,-2442.679609,-6809.894666,-1838.629195
237.850151,-3923.091493,-7328.038826,-2681.334243
237.850473,-5255.462188,-7846.182985,-2681.334243
237.850795,-6365.771101,-8364.327145,-3294.210641
237.851117,-5847.626942,-10510.924376,-4136.915689
237.851438,-5403.503377,-12435.459826,-3217.601092
237.851760,-5255.462188,-13619.789333,-2834.553343
237.852082,-5921.647536,-13397.727550,-2374.896044
237.852404,-5477.523971,-11843.295072,-2451.505594
237.852726,-3923.091493,-10510.924376,-1608.800546
237.853048,-1702.473667,-8364.327145,-2757.943793
237.853369,74.020594,-7772.162391,-2681.334243
237.853691,1554.432478,-7328.038826,-1762.019645
237.854013,2146.597232,-6883.915261,0.000000
237.854335,2590.720797,-7031.956449,919.314598
237.854657,3182.885551,-7402.059420,0.000000
237.854979,4219.173869,-8808.450710,-2068.457845
237.855300,5033.400406,-10658.965565,-2298.286494
237.855622,4737.318029,-9548.656652,-229.828649
237.855944,3701.029710,-7994.224174,2145.067394
237.856266,1850.514855,-7772.162391,2145.067394
237.856588,444.123565,-9400.615463,995.924147
237.856910,-1776.494261,-9178.553681,-1149.143247
237.857231,-3330.926739,-8734.430116,-3217.601092
237.857553,-4145.153275,-9104.533087,-2681.334243
237.857875,-4441.235652,-7772.162391,-1225.752797
237.858197,-3552.988522,-8290.306550,-3217.601092
237.858519,-3256.906145,-11251.130318,-4290.134789
237.858840,-3034.844362,-12435.459826,-2604.724693
237.859162,-4367.215058,-11399.171507,-1762.019645
237.859484,-4737.318029,-11177.109724,-2451.505594
237.859806,-2664.741391,-11177.109724,-2145.067394
237.860128,0.000000,-10362.883188,-2604.724693
237.860450,1702.473667,-10214.842000,-3064.381992
237.860771,3478.967927,-9548.656652,-766.095498
237.861093,5551.544565,-8364.327145,1532.190996
237.861415,6513.812290,-7179.997637,153.219100
237.861737,6143.709319,-6735.874072,-229.828649
237.862059,5181.441594,-6735.874072,0.000000
237.862381,4589.276840,-7031.956449,-1072.533697
237.862702,4145.153275,-8882.471304,-1685.410096
237.863024,4441.235652,-10362.883188,-612.876398
237.863346,3997.112087,-11103.089130,0.000000
237.863668,1850.514855,-11621.233289,1762.019645
237.863990,-1184.329507,-11473.192101,2604.724693
237.864312,-2738.761985,-8808.450710,1072.533697
237.864633,-3330.926739,-6143.709319,-2911.162892
237.864955,-4959.379811,-6513.812290,-4903.011187
237.865277,-6809.894666,-8142.265362,-3830.477490
237.865599,-7476.080014,-8956.491898,-3064.381992
237.865921,-6661.853478,-10510.924376,-3447.429741
237.866243,-5477.523971,-12213.398043,-2528.115143
237.866564,-5255.462188,-12435.459826,-2374.896044
237.866886,-6365.771101,-11769.274478,-2987.772442
237.867208,-5403.503377,-11325.150913,-2834.553343
237.867530,-3404.947333,-10214.842000,-3140.991542
237.867852,-1036.288319,-9474.636058,-3140.991542
237.868173,1258.350101,-9030.512492,-2221.676944
237.868495,2368.659014,-8364.327145,0.000000
237.868817,3182.885551,-7476.080014,1225.752797
237.869139,3775.050304,-6513.812290,919.314598
237.869461,4589.276840,-7031.956449,-1225.752797
237.869783,5181.441594,-8660.409521,-3524.039291
237.870104,5033.400406,-10214.842000,-1532.190996
237.870426,3849.070898,-9622.677246,612.876398
237.870748,2590.720797,-9030.512492,1991.848295
237.871070,1036.288319,-9622.677246,1685.410096
237.871392,-1184.329507,-9400.615463,229.828649
237.871714,-3404.947333,-7994.224174,-2604.724693
237.872035,-5255.462188,-7402.059420,-3217.601092
237.872357,-5847.626942,-8438.347739,-2757.943793
237.872679,-6365.771101,-8216.285956,-2068.457845
237.873001,-6365.771101,-7402.059420,-3217.601092
237.873323,-5107.421000,-10362.883188,-5286.058936
237.873645,-4293.194464,-14211.954086,-4749.792088
237.873966,-4589.276840,-13693.809927,-2451.505594
237.874288,-5329.482782,-11547.212695,-1302.362347
237.874610,-3701.029710,-11399.171507,-1762.019645
237.874932,0.000000,-11103.089130,-2298.286494
237.875254,3182.885551,-9918.759623,-3753.867940
237.875576,4293.194464,-8512.368333,-3370.820191
237.875897,6365.771101,-8660.409521,612.876398
237.876219,7624.121203,-8290.306550,2911.162892
237.876541,7179.997637,-6883.915261,1685.410096
237.876863,6735.874072,-5329.482782,1532.190996
237.877185,7179.997637,-6439.791695,-689.485948
237.877506,6439.791695,-8290.306550,-2528.115143
237.877828,5329.482782,-9770.718434,-1915.238745
237.878150,3552.988522,-10436.903782,689.485948
237.878472,1776.494261,-11473.192101,3447.429741
237.878794,-814.226536,-12213.398043,3983.696590
237.879116,-3256.906145,-9252.574275,995.924147
237.879437,-4071.132681,-5699.585753,-3140.991542
237.879759,-4663.297435,-6143.709319,-5439.278036
237.880081,-5995.668130,-7328.038826,-4290.134789
237.880403,-7476.080014,-8364.327145,-3217.601092
237.880725,-6957.935855,-9400.615463,-2221.676944
237.881047,-5329.482782,-12065.356855,-2528.115143
237.881368,-4737.318029,-13989.892304,-3217.601092
237.881690,-5921.647536,-13471.748144,-2834.553343
237.882012,-5477.523971,-11473.192101,-1762.019645
237.882334,-3034.844362,-10214.842000,-1455.581446
237.882656,444.123565,-9326.594869,-2451.505594
237.882978,3182.885551,-8512.368333,-1991.848295
237.883299,3849.070898,-7846.182985,-919.314598
237.883621,3701.029710,-7772.162391,1991.848295
237.883943,5033.400406,-7624.121203,3064.381992
237.884265,5181.441594,-7031.956449,-536.266849
237.884587,5773.606348,-8512.368333,-3983.696590
237.884909,6365.771101,-10140.821405,-2451.505594
237.885230,4959.379811,-9770.718434,-383.047749
237.885552,3256.906145,-9030.512492,1149.143247
237.885874,962.267725,-8956.491898,2145.067394
237.886196,-1406.391290,-9178.553681,995.924147
237.886518,-3701.029710,-8586.388927,-2528.115143
237.886840,-5107.421000,-9400.615463,-4443.353888
237.887161,-5477.523971,-9252.574275,-3447.429741
237.887483,-6217.729913,-8512.368333,-2374.896044
237.887805,-6439.791695,-7994.224174,-2221.676944
237.888127,-6291.750507,-9622.677246,-2911.162892
237.888449,-5329.482782,-11769.274478,-4596.572988
237.888770,-5625.565159,-13027.624579,-5439.278036
237.889092,-5773.606348,-12509.480420,-3447.429741
237.889414,-4737.318029,-11917.315666,-766.095498
237.889736,-2442.679609,-10732.986159,-383.047749
237.890058,888.247130,-9474.636058,-1838.629195
237.890380,4367.215058,-8290.306550,-3064.381992
237.890701,5847.626942,-7254.018232,-2374.896044
237.891023,5995.668130,-7624.121203,306.438199
237.891345,5921.647536,-7105.977043,2681.334243
237.891667,6883.915261,-6513.812290,1532.190996
237.891989,7698.141797,-7846.182985,-2298.286494
237.892311,7698.141797,-10288.862594,-2757.943793
237.892632,5773.606348,-10436.903782,-689.485948
237.892954,2146.597232,-9992.780217,1378.971896
237.893276,-592.164754,-10436.903782,2681.334243
237.893598,-2294.638420,-10436.903782,2451.505594
237.893920,-3701.029710,-8142.265362,-1378.971896
237.894242,-4737.318029,-6735.874072,-4366.744339
237.894563,-5255.462188,-8364.327145,-4060.306139
237.894885,-6291.750507,-8216.285956,-1455.581446
237.895207,-7105.977043,-7179.997637,-1762.019645
237.895529,-5847.626942,-8438.347739,-3524.039291
237.895851,-4441.235652,-11325.150913,-4903.011187
237.896173,-4589.276840,-13323.706956,-4749.792088
237.896494,-5625.565159,-12213.398043,-2681.334243
237.896816,-4515.256246,-10658.965565,-689.485948
237.897138,-1850.514855,-10288.862594,-919.314598
237.897460,1184.329507,-10066.800811,-2528.115143
237.897782,3182.885551,-9400.615463,-2757.943793
237.898103,4145.153275,-7994.224174,-1608.800546
237.898425,5403.503377,-8290.306550,1532.190996
237.898747,5847.626942,-6809.894666,2757.943793
237.899069,5773.606348,-5107.421000,842.705048
237.899391,6439.791695,-5995.668130,-1455.581446
237.899713,7254.018232,-9030.512492,-1608.800546
237.900034,6513.812290,-10362.883188,-1149.143247
237.900356,4367.215058,-9252.574275,0.000000
237.900678,1628.453072,-9326.594869,2528.115143
237.901000,-296.082377,-10584.944971,2451.505594
237.901322,-2368.659014,-9696.697840,-1302.362347
237.901644,-4811.338623,-8734.430116,-4826.401637
237.901965,-5921.647536,-9030.512492,-4903.011187
237.902287,-7179.997637,-9104.533087,-3677.258390
237.902609,-8142.265362,-7920.203579,-2911.162892
237.902931,-7179.997637,-9400.615463,-3447.429741
237.903253,-5773.606348,-12139.377449,-4443.353888
237.903575,-5625.565159,-13915.871710,-4673.182538
237.903896,-5995.668130,-12361.439231,-2757.943793
237.904218,-6069.688724,-10807.006753,-1532.190996
237.904540,-3923.091493,-10066.800811,-689.485948
237.904862,74.020594,-9400.615463,-2528.115143
237.905184,2960.823768,-8734.430116,-3983.696590
237.905506,4885.359217,-8956.491898,-2604.724693
237.905827,6217.729913,-9400.615463,612.876398
237.906149,6513.812290,-8956.491898,2834.553343
237.906471,6661.853478,-6883.915261,1838.629195
237.906793,7031.956449,-6587.832884,-842.705048
237.907115,6735.874072,-8586.388927,-2298.286494
237.907436,6217.729913,-10214.842000,-2681.334243
237.907758,4367.215058,-10881.027347,-1072.533697
237.908080,1776.494261,-11029.068536,2068.457845
237.908402,-370.102971,-11547.212695,4060.306139
237.908724,-2442.679609,-9622.677246,1915.238745
237.909046,-3923.091493,-6809.894666,-2528.115143
237.909367,-5033.400406,-6661.853478,-4673.182538
237.909689,-6587.832884,-7550.100608,-3217.601092
237.910011,-8290.306550,-7105.977043,-2221.676944
237.910333,-7920.203579,-7550.100608,-1838.629195
237.910655,-5921.647536,-9474.636058,-2987.772442
237.910977,-4811.338623,-11843.295072,-3907.087040
237.911298,-5699.585753,-12287.418637,-3600.648841
237.911620,-7105.977043,-12583.501014,-2374.896044
237.911942,-6217.729913,-11473.192101,-229.828649
237.912264,-3701.029710,-8808.450710,-1685.410096
237.912586,-518.144159,-7846.182985,-3830.477490
237.912908,2072.576638,-7846.182985,-3677.258390
237.913229,4145.153275,-8512.368333,-919.314598
237.913551,4663.297435,-7994.224174,1072.533697
237.913873,5551.544565,-7031.956449,2298.286494
237.914195,7105.977043,-7698.141797,1302.362347
237.914517,7846.182985,-8956.491898,-1225.752797
237.914839,7772.162391,-9918.759623,-2298.286494
237.915160,6809.894666,-10510.924376,-1302.362347
237.915482,4959.379811,-9918.759623,536.266849
237.915804,2664.741391,-10510.924376,2681.334243
237.916126,-518.144159,-9548.656652,2374.896044
237.916448,-2294.638420,-8956.491898,-1455.581446
237.916770,-3330.926739,-8586.388927,-3524.039291
237.917091,-4811.338623,-8956.491898,-4903.011187
237.917413,-6809.894666,-8290.306550,-3677.258390
237.917735,-7105.977043,-8438.347739,-3524.039291
237.918057,-5921.647536,-10436.903782,-3370.820191
237.918379,-4293.194464,-12213.398043,-3753.867940
237.918700,-3849.070898,-13175.665768,-4060.306139
237.919022,-5403.503377,-12953.603985,-2987.772442
237.919344,-5107.421000,-11695.253884,-612.876398
237.919666,-2960.823768,-9252.574275,-1378.971896
237.919988,74.020594,-7920.203579,-3677.258390
237.920310,3627.009116,-7846.182985,-3447.429741
237.920631,5329.482782,-7920.203579,-2528.115143
237.920953,5551.544565,-7550.100608,-383.047749
237.921275,6069.688724,-8068.244768,2451.505594
237.921597,6587.832884,-8364.327145,2451.505594
237.921919,6439.791695,-8882.471304,-1072.533697
237.922241,6513.812290,-10066.800811,-2221.676944
237.922562,5699.585753,-10584.944971,-1455.581446
237.922884,3552.988522,-10732.986159,306.438199
237.923206,1406.391290,-10066.800811,3294.210641
237.923528,-814.226536,-8660.409521,3753.867940
237.923850,-1924.535449,-7550.100608,919.314598
237.924172,-3404.947333,-7846.182985,-2911.162892
237.924493,-5033.400406,-8290.306550,-3447.429741
237.924815,-6439.791695,-7476.080014,-2528.115143
237.925137,-6587.832884,-7105.977043,-2834.553343
237.925459,-5255.462188,-9104.533087,-2834.553343
237.925781,-4663.297435,-10807.006753,-2221.676944
237.926103,-5033.400406,-11991.336260,-2757.943793
237.926424,-6217.729913,-12361.439231,-2604.724693
237.926746,-6217.729913,-12583.501014,-1685.410096
237.927068,-4811.338623,-10732.986159,-1225.752797
237.927390,-2738.761985,-7476.080014,-2374.896044
237.927712,-148.041188,-7328.038826,-3140.991542
237.928033,1702.473667,-7624.121203,-1762.019645
237.928355,2960.823768,-6587.832884,0.000000
237.928677,3256.906145,-6143.709319,-459.657299
237.928999,4737.318029,-8734.430116,-766.095498
237.929321,7105.977043,-11399.171507,-1455.581446
237.929643,6809.894666,-11769.274478,-1685.410096
237.929964,5625.565159,-10214.842000,-766.095498
237.930286,4515.256246,-9844.739029,1532.190996
237.930608,2146.597232,-9770.718434,1838.629195
237.930930,0.000000,-9104.533087,-766.095498
237.931252,-2442.679609,-8956.491898,-2604.724693
237.931574,-3552.988522,-9252.574275,-3370.820191
237.931895,-4219.173869,-9178.553681,-2757.943793
237.932217,-4589.276840,-8290.306550,-2528.115143
237.932539,-4145.153275,-8734.430116,-3830.477490
237.932861,-3034.844362,-11769.274478,-4443.353888
237.933183,-2960.823768,-13027.624579,-3370.820191
237.933504,-4515.256246,-12065.356855,-1608.800546
237.933826,-5033.400406,-10658.965565,-1378.971896
237.934148,-3478.967927,-10066.800811,-1991.848295
237.934470,-1110.308913,-9770.718434,-3447.429741
237.934792,1406.391290,-9030.512492,-2987.772442
237.935113,3256.906145,-8586.388927,-1915.238745
237.935435,4959.379811,-8956.491898,76.609550
237.935757,5107.421000,-7846.182985,1838.629195
237.936079,4737.318029,-5847.626942,1225.752797
237.936401,4663.297435,-5921.647536,-1149.143247
237.936722,4959.379811,-9178.553681,-2681.334243
237.937044,4811.338623,-10732.986159,-2145.067394
237.937366,3256.906145,-9992.780217,0.000000
237.937688,1110.308913,-9918.759623,2604.724693
237.938010,-370.102971,-10362.883188,3983.696590
237.938331,-1480.411884,-9474.636058,1225.752797
237.938653,-2664.741391,-7698.141797,-2604.724693
237.938975,-4219.173869,-7698.141797,-3677.258390
237.939297,-5255.462188,-7920.203579,-2145.067394
237.939618,-5921.647536,-7772.162391,-842.705048
237.939940,-5033.400406,-8142.265362,-2757.943793
237.940262,-2886.803174,-10510.924376,-3830.477490
237.940584,-2590.720797,-12879.583391,-3600.648841
237.940906,-4367.215058,-12953.603985,-1685.410096
237.941227,-5995.668130,-10881.027347,842.705048
237.941549,-4737.318029,-9104.533087,0.000000
237.941871,-2368.659014,-8882.471304,-2528.115143
237.942193,74.020594,-8512.368333,-3983.696590
237.942515,814.226536,-7698.141797,-2604.724693
237.942836,1110.308913,-6291.750507,536.266849
237.943158,2368.659014,-5921.647536,2298.286494
237.943480,3775.050304,-7254.018232,-306.438199
237.943802,4885.359217,-9326.594869,-4136.915689
237.944124,4959.379811,-11399.171507,-3294.210641
237.944445,3478.967927,-10362.883188,-689.485948
237.944767,1628.453072,-9030.512492,995.924147
237.945089,74.020594,-9104.533087,1838.629195
237.945411,-1332.370696,-9548.656652,766.095498
237.945732,-3182.885551,-9474.636058,-2221.676944
237.946054,-4145.153275,-9474.636058,-3677.258390
237.946376,-3923.091493,-8882.471304,-2834.553343
237.946698,-3627.009116,-8438.347739,-1991.848295
237.947020,-3627.009116,-7105.977043,-2374.896044
237.947341,-2664.741391,-9474.636058,-4519.963438
237.947663,-2368.659014,-13249.686362,-5515.887586
237.947985,-2812.782580,-13767.830521,-3370.820191
237.948307,-3849.070898,-12287.418637,-1762.019645
237.948629,-3108.864956,-11843.295072,-1608.800546
237.948950,0.000000,-11769.274478,-1455.581446
237.949272,2146.597232,-10436.903782,-2681.334243
237.949594,3330.926739,-8956.491898,-3524.039291
237.949916,4515.256246,-8290.306550,-995.924147
237.950238,4737.318029,-8512.368333,1685.410096
237.950559,4071.132681,-7031.956449,1532.190996
237.950881,3552.988522,-4367.215058,229.828649
237.951203,4367.215058,-6217.729913,-2298.286494
237.951525,4811.338623,-9696.697840,-3753.867940
237.951846,3997.112087,-10584.944971,-2298.286494
237.952168,592.164754,-9548.656652,1149.143247
237.952490,-1258.350101,-11621.233289,3907.087040
237.952812,-2812.782580,-12657.521608,3753.867940
237.953134,-4293.194464,-9030.512492,-306.438199
237.953455,-4811.338623,-5699.585753,-4213.525239
237.953777,-3923.091493,-6513.812290,-4443.353888
237.954099,-4219.173869,-7179.997637,-2451.505594
237.954421,-4737.318029,-6365.771101,-1455.581446
237.954743,-3552.988522,-8068.244768,-2374.896044
237.955064,-1258.350101,-12065.356855,-2911.162892
237.955386,-1110.308913,-14359.995275,-3217.601092
237.955708,-3478.967927,-13693.809927,-1838.629195
237.956030,-4737.318029,-11177.109724,536.266849
237.956352,-2886.803174,-9770.718434,919.314598
237.956673,-592.164754,-8512.368333,-1915.238745
237.956995,1406.391290,-7624.121203,-3217.601092
237.957317,2738.761985,-7179.997637,-2451.505594
237.957639,3182.885551,-8364.327145,536.266849
237.957961,3256.906145,-8438.347739,3524.039291
237.958282,2738.761985,-6809.894666,2374.896044
237.958604,3923.091493,-6217.729913,-1608.800546
237.958926,4959.379811,-8956.491898,-4213.525239
237.959248,4589.276840,-10140.821405,-3217.601092
237.959569,1924.535449,-8956.491898,-1302.362347
237.959891,0.000000,-9770.718434,2068.457845
237.960213,-2220.617826,-11103.089130,3140.991542
237.960535,-2812.782580,-10955.047942,-995.924147
237.960857,-3923.091493,-9474.636058,-4673.182538
237.961178,-4293.194464,-8956.491898,-5286.058936
237.961500,-4663.297435,-8660.409521,-3447.429741
237.961822,-4737.318029,-7105.977043,-1991.848295
237.962144,-3923.091493,-7179.997637,-2604.724693
237.962466,-2516.700203,-10436.903782,-3983.696590
237.962787,-1776.494261,-12435.459826,-5286.058936
237.963109,-2516.700203,-13767.830521,-4749.792088
237.963431,-2812.782580,-13767.830521,-1072.533697
237.963753,-2072.576638,-11695.253884,1762.019645
237.964075,518.144159,-9030.512492,-153.219100
237.964396,3256.906145,-7402.059420,-2834.553343
237.964718,6069.688724,-7179.997637,-3907.087040
237.965040,6217.729913,-7994.224174,-2757.943793
237.965362,5403.503377,-8586.388927,842.705048
237.965683,5033.400406,-7920.203579,3677.258390
237.966005,5107.421000,-7698.141797,153.219100
237.966327,5625.565159,-9770.718434,-3217.601092
237.966649,4885.359217,-11029.068536,-2681.334243
237.966971,1850.514855,-10362.883188,-1378.971896
237.967292,-962.267725,-9992.780217,612.876398
237.967614,-3404.947333,-10362.883188,3677.258390
237.967936,-4219.173869,-9104.533087,1762.019645
237.968258,-4811.338623,-7254.018232,-3140.991542
237.968580,-5847.626942,-7772.162391,-5132.839837
237.968901,-6291.750507,-8142.265362,-3140.991542
237.969223,-6217.729913,-7179.997637,-2145.067394
237.969545,-5403.503377,-7328.038826,-2757.943793
237.969867,-3849.070898,-9844.739029,-2604.724693
237.970189,-3775.050304,-11843.295072,-2834.553343
237.970510,-4515.256246,-12657.521608,-3524.039291
237.970832,-3923.091493,-12065.356855,-3064.381992
237.971154,-2220.617826,-11843.295072,-766.095498
237.971476,-1036.288319,-10288.862594,-383.047749
237.971798,148.041188,-8438.347739,-459.657299
237.972119,2072.576638,-7328.038826,-766.095498
237.972441,3997.112087,-6587.832884,-1608.800546
237.972763,4959.379811,-6291.750507,-1302.362347
237.973085,4959.379811,-6365.771101,0.000000
237.973406,5551.544565,-7994.224174,153.219100
237.973728,6365.771101,-9992.780217,-306.438199
237.974050,6143.709319,-10362.883188,-919.314598
237.974372,5033.400406,-9770.718434,0.000000
237.974694,2664.741391,-9622.677246,459.657299
237.975015,-370.102971,-10362.883188,689.485948
237.975337,-2664.741391,-9918.759623,0.000000
237.975659,-3997.112087,-9030.512492,-2528.115143
237.975981,-4145.153275,-7994.224174,-3830.477490
237.976303,-4293.194464,-8660.409521,-4290.134789
237.976624,-4737.318029,-8734.430116,-3524.039291
237.976946,-5255.462188,-8956.491898,-3217.601092
237.977268,-4811.338623,-10658.965565,-3294.210641
237.977590,-3849.070898,-12731.542202,-3600.648841
237.977912,-3997.112087,-12435.459826,-3140.991542
237.978233,-4293.194464,-11843.295072,-2221.676944
237.978555,-3404.947333,-10584.944971,-383.047749
237.978877,-888.247130,-9474.636058,-459.657299
237.979199,2072.576638,-8438.347739,-1991.848295
237.979520,5033.400406,-8364.327145,-2221.676944
237.979842,5995.668130,-8734.430116,-1378.971896
237.980164,5773.606348,-8660.409521,995.924147
237.980486,5551.544565,-7550.100608,2145.067394
237.980808,6217.729913,-7328.038826,-76.609550
237.981129,6735.874072,-9548.656652,-3370.820191
237.981451,5625.565159,-10436.903782,-2374.896044
237.981773,2960.823768,-10214.842000,-229.828649
237.982095,0.000000,-10436.903782,1532.190996
237.982417,-1850.514855,-10732.986159,2834.553343
237.982738,-2664.741391,-9474.636058,995.924147
237.983060,-4293.194464,-7698.141797,-2528.115143
237.983382,-5181.441594,-7550.100608,-3753.867940
237.983704,-6513.812290,-7254.018232,-2604.724693
237.984026,-7105.977043,-6587.832884,-2221.676944
237.984347,-6513.812290,-6513.812290,-2681.334243
237.984669,-5477.523971,-9104.533087,-3370.820191
237.984991,-5699.585753,-12139.377449,-3830.477490
237.985313,-5995.668130,-13693.809927,-2834.553343
237.985634,-5625.565159,-12805.562797,-1149.143247
237.985956,-4219.173869,-11547.212695,-766.095498
237.986278,-1850.514855,-9770.718434,-919.314598
237.986600,0.000000,-8142.265362,-1532.190996
237.986922,1480.411884,-6291.750507,-2068.457845
237.987243,2886.803174,-5921.647536,-842.705048
237.987565,4219.173869,-6809.894666,0.000000
237.987887,5033.400406,-7920.203579,-612.876398
237.988209,6365.771101,-9548.656652,-919.314598
237.988531,7105.977043,-10658.965565,-536.266849
237.988852,6809.894666,-9992.780217,-536.266849
237.989174,4811.338623,-9030.512492,229.828649
237.989496,1850.514855,-8512.368333,1149.143247
237.989818,-814.226536,-9326.594869,612.876398
237.990140,-2664.741391,-9474.636058,-1762.019645
237.990461,-3256.906145,-9918.759623,-3217.601092
237.990783,-3034.844362,-9326.594869,-3447.429741
237.991105,-3775.050304,-8956.491898,-3064.381992
237.991427,-4441.235652,-8290.306550,-2451.505594
237.991749,-4219.173869,-9622.677246,-3600.648841
237.992070,-3849.070898,-12213.398043,-5286.058936
237.992392,-4071.132681,-13471.748144,-4903.011187
237.992714,-4589.276840,-12657.521608,-2911.162892
237.993036,-4219.173869,-11325.150913,-995.924147
237.993357,-2072.576638,-9622.677246,-612.876398
237.993679,0.000000,-9178.553681,-1149.143247
237.994001,2442.679609,-8216.285956,-2221.676944
237.994323,3997.112087,-8586.388927,-2068.457845
237.994645,4589.276840,-9326.594869,-383.047749
237.994966,4441.235652,-9178.553681,1225.752797
237.995288,4589.276840,-7328.038826,2068.457845
237.995610,5921.647536,-5773.606348,-536.266849
237.995932,5921.647536,-7698.141797,-2757.943793
237.996254,5625.565159,-10658.965565,-2145.067394
237.996575,3552.988522,-10881.027347,306.438199
237.996897,592.164754,-10214.842000,1838.629195
237.997219,-1110.308913,-11917.315666,2987.772442
237.997541,-2072.576638,-11177.109724,1455.581446
237.997863,-2812.782580,-7476.080014,-2451.505594
237.998184,-3701.029710,-6291.750507,-4443.353888
237.998506,-3849.070898,-7031.956449,-3064.381992
237.998828,-5033.400406,-6439.791695,-1915.238745
237.999150,-5033.400406,-6587.832884,-2834.553343
237.999471,-4219.173869,-8808.450710,-3983.696590
237.999793,-3701.029710,-12731.542202,-4366.744339
238.000115,-5181.441594,-13841.851115,-2681.334243
238.000437,-6957.935855,-12287.418637,-919.314598
238.000759,-6957.935855,-10066.800811,536.266849
238.001080,-4515.256246,-8438.347739,-1072.533697
238.001402,-1628.453072,-7772.162391,-3677.258390
238.001724,1036.288319,-7328.038826,-4136.915689
238.002046,2960.823768,-7994.224174,-1915.238745
238.002368,4811.338623,-8734.430116,306.438199
238.002689,4811.338623,-9400.615463,1991.848295
238.003011,5329.482782,-8808.450710,2451.505594
238.003333,6069.688724,-7402.059420,-229.828649
238.003655,6587.832884,-8660.409521,-3140.991542
238.003977,6957.935855,-9104.533087,-2451.505594
238.004298,5995.668130,-9622.677246,0.000000
238.004620,3404.947333,-10140.821405,1608.800546
238.004942,1258.350101,-11325.150913,2757.943793
238.005264,-296.082377,-9992.780217,842.705048
238.005585,-1332.370696,-7772.162391,-3600.648841
238.005907,-3182.885551,-7920.203579,-6511.811733
238.006229,-5033.400406,-9030.512492,-4290.134789
238.006551,-6217.729913,-9030.512492,-2834.553343
238.006873,-6291.750507,-9252.574275,-3140.991542
238.007194,-4737.318029,-10881.027347,-3140.991542
238.007516,-3923.091493,-13471.748144,-4596.572988
238.007838,-5329.482782,-13545.768739,-3677.258390
238.008160,-6587.832884,-11917.315666,-919.314598
238.008482,-5181.441594,-9844.739029,76.609550
238.008803,-1332.370696,-8216.285956,-1915.238745
238.009125,2220.617826,-7476.080014,-4290.134789
238.009447,4219.173869,-7846.182985,-3830.477490
238.009769,5033.400406,-8364.327145,-919.314598
238.010091,5699.585753,-9178.553681,1608.800546
238.010412,6217.729913,-9104.533087,3140.991542
238.010734,6291.750507,-8438.347739,842.705048
238.011056,6439.791695,-9474.636058,-2221.676944
238.011378,5847.626942,-10584.944971,-2451.505594
238.011700,4663.297435,-10140.821405,0.000000
238.012021,1924.535449,-8956.491898,1991.848295
238.012343,-296.082377,-8586.388927,3447.429741
238.012665,-1998.556043,-8068.244768,1685.410096
238.012987,-3404.947333,-7994.224174,-2145.067394
238.013308,-4885.359217,-7994.224174,-5056.230287
238.013630,-5995.668130,-8956.491898,-3370.820191
238.013952,-7105.977043,-8512.368333,-1532.190996
238.014274,-7105.977043,-7476.080014,-1532.190996
238.014596,-6587.832884,-8512.368333,-2298.286494
238.014917,-6365.771101,-10807.006753,-3217.601092
238.015239,-7105.977043,-12287.418637,-3600.648841
238.015561,-7846.182985,-12213.398043,-2068.457845
238.015883,-6587.832884,-10881.027347,-536.266849
238.016205,-3627.009116,-8734.430116,-1225.752797
238.016526,-962.267725,-7550.100608,-2068.457845
238.016848,518.144159,-7031.956449,-2757.943793
238.017170,1702.473667,-5699.585753,-1378.971896
238.017492,3627.009116,-6587.832884,-995.924147
238.017814,4959.379811,-8290.306550,-1455.581446
238.018135,6069.688724,-10658.965565,-229.828649
238.018457,6587.832884,-10732.986159,229.828649
238.018779,6069.688724,-10288.862594,-229.828649
238.019101,4885.359217,-10214.842000,689.485948
238.019422,2812.782580,-8956.491898,1378.971896
238.019744,518.144159,-8660.409521,0.000000
238.020066,-1184.329507,-9400.615463,-1685.410096
238.020388,-1628.453072,-9696.697840,-1838.629195
238.020710,-2146.597232,-8956.491898,-2451.505594
238.021031,-2368.659014,-7920.203579,-2987.772442
238.021353,-2442.679609,-8216.285956,-3294.210641
238.021675,-3108.864956,-10214.842000,-3677.258390
238.021997,-4219.173869,-12583.501014,-4213.525239
238.022319,-5033.400406,-13989.892304,-3217.601092
238.022640,-5403.503377,-13175.665768,-1991.848295
238.022962,-4737.318029,-11695.253884,-1762.019645
238.023284,-2960.823768,-10362.883188,-2145.067394
238.023606,222.061783,-8660.409521,-1915.238745
238.023928,3034.844362,-7550.100608,-2528.115143
238.024249,4589.276840,-7920.203579,-1915.238745
238.024571,5403.503377,-8660.409521,153.219100
238.024893,5477.523971,-8216.285956,1455.581446
238.025215,5255.462188,-6587.832884,1225.752797
238.025537,5699.585753,-7105.977043,-689.485948
238.025858,5773.606348,-9474.636058,-2068.457845
238.026180,4811.338623,-10066.800811,-536.266849
238.026502,2812.782580,-9770.718434,1532.190996
238.026824,962.267725,-10658.965565,2451.505594
238.027145,0.000000,-10732.986159,2374.896044
238.027467,-814.226536,-8364.327145,-306.438199
238.027789,-1702.473667,-6365.771101,-4060.306139
238.028111,-2886.803174,-6735.874072,-3830.477490
238.028433,-4737.318029,-7846.182985,-2451.505594
238.028754,-6217.729913,-8364.327145,-2451.505594
238.029076,-6217.729913,-9326.594869,-3064.381992
238.029398,-5255.462188,-11991.336260,-3677.258390
238.029720,-5403.503377,-14359.995275,-2987.772442
238.030042,-6957.935855,-12805.562797,-1378.971896
238.030363,-7328.038826,-11029.068536,-383.047749
238.030685,-5107.421000,-9030.512492,-1225.752797
238.031007,-1554.432478,-8068.244768,-2451.505594
238.031329,592.164754,-7402.059420,-3907.087040
238.031651,888.247130,-6809.894666,-1991.848295
238.031972,2072.576638,-7105.977043,1302.362347
238.032294,3552.988522,-8142.265362,919.314598
238.032616,4737.318029,-9252.574275,-1608.800546
238.032938,5255.462188,-10288.862594,-2374.896044
238.033259,5329.482782,-10066.800811,-1378.971896
238.033581,3775.050304,-9178.553681,-383.047749
238.033903,3034.844362,-8882.471304,229.828649
238.034225,2072.576638,-9252.574275,612.876398
238.034547,222.061783,-9548.656652,-689.485948
238.034868,-1702.473667,-9622.677246,-1685.410096
238.035190,-2516.700203,-9622.677246,-1762.019645
238.035512,-2738.761985,-8438.347739,-2528.115143
238.035834,-3108.864956,-8364.327145,-4060.306139
238.036155,-3849.070898,-9104.533087,-3677.258390
238.036477,-4811.338623,-9474.636058,-2681.334243
238.036799,-5329.482782,-11177.109724,-3983.696590
238.037121,-5033.400406,-13101.645173,-4673.182538
238.037443,-4145.153275,-13323.706956,-2681.334243
238.037764,-4145.153275,-11917.315666,-995.924147
238.038086,-2960.823768,-10881.027347,-306.438199
238.038408,592.164754,-8216.285956,-766.095498
238.038730,4367.215058,-6883.915261,-2528.115143
238.039052,5255.462188,-6291.750507,-3677.258390
238.039373,4737.318029,-7920.203579,-153.219100
238.039695,4441.235652,-7105.977043,2834.553343
238.040017,5107.421000,-6217.729913,766.095498
238.040339,6439.791695,-9104.533087,-2068.457845
238.040660,5699.585753,-11177.109724,-1532.190996
238.040982,3997.112087,-10362.883188,76.609550
238.041304,666.185348,-9030.512492,919.314598
238.041626,-962.267725,-9844.739029,2451.505594
238.041948,-1702.473667,-9474.636058,1915.238745
238.042269,-1628.453072,-7624.121203,-2528.115143
238.042591,-2886.803174,-7772.162391,-4213.525239
238.042913,-3256.906145,-8956.491898,-2145.067394
238.043235,-4737.318029,-8586.388927,-1378.971896
238.043556,-5329.482782,-7550.100608,-2681.334243
238.043878,-4885.359217,-9622.677246,-3907.087040
238.044200,-4589.276840,-12509.480420,-4749.792088
238.044522,-5477.523971,-13693.809927,-3907.087040
238.044844,-6365.771101,-12657.521608,-1455.581446
238.045165,-4959.379811,-10881.027347,-612.876398
238.045487,-2220.617826,-9844.739029,-1455.581446
238.045809,666.185348,-8734.430116,-2068.457845
238.046131,1998.556043,-6957.935855,-2221.676944
238.046452,3108.864956,-6587.832884,-1915.238745
238.046774,3552.988522,-7772.162391,76.609550
238.047096,3997.112087,-7550.100608,1455.581446
