#time,accel_x,accel_y,accel_z
371.966960,74.020594,-9252.574275,-1685.410096
371.967281,0.000000,-9326.594869,-1378.971896
371.967603,-296.082377,-9474.636058,-1378.971896
371.967925,-370.102971,-9622.677246,-1302.362347
371.968247,-296.082377,-9696.697840,-1378.971896
371.968569,-444.123565,-9474.636058,-842.705048
371.968890,0.000000,-9400.615463,-1685.410096
371.969212,0.000000,-8956.491898,-1378.971896
371.969534,0.000000,-9326.594869,-1532.190996
371.969856,0.000000,-9326.594869,-1378.971896
371.970178,0.000000,-9252.574275,-995.924147
371.970499,0.000000,-9326.594869,-1762.019645
371.970821,-222.061783,-9474.636058,-1532.190996
371.971143,-666.185348,-9178.553681,-1378.971896
371.971465,-518.144159,-9326.594869,-1378.971896
371.971787,-740.205942,-9252.574275,-1302.362347
371.972108,-1184.329507,-8808.450710,-1149.143247
371.972430,-518.144159,-9474.636058,-1685.410096
371.972752,-666.185348,-9400.615463,-1532.190996
371.973074,-592.164754,-9326.594869,-1378.971896
371.973396,-666.185348,-9104.533087,-1302.362347
371.973717,-740.205942,-8882.471304,-1072.533697
371.974039,-296.082377,-9400.615463,-1762.019645
371.974361,-666.185348,-9400.615463,-1685.410096
371.974683,-592.164754,-9770.718434,-1455.581446
371.975005,-1036.288319,-9548.656652,-1302.362347
371.975326,-592.164754,-9474.636058,-1225.752797
371.975648,-666.185348,-9178.553681,-1072.533697
371.975970,-518.144159,-9104.533087,-1532.190996
371.976292,-222.061783,-9252.574275,-1378.971896
371.976614,-296.082377,-8956.491898,-1378.971896
371.976936,-370.102971,-9400.615463,-1378.971896
371.977257,-370.102971,-9474.636058,-1149.143247
371.977579,-370.102971,-9770.718434,-1302.362347
371.977901,-740.205942,-9548.656652,-1532.190996
371.978223,-592.164754,-9474.636058,-1455.581446
371.978545,-222.061783,-9104.533087,-1302.362347
371.978866,0.000000,-8956.491898,-1225.752797
371.979188,0.000000,-9104.533087,-2068.457845
371.979510,-222.061783,-9178.553681,-1532.190996
371.979832,-444.123565,-9400.615463,-1378.971896
371.980154,-444.123565,-9474.636058,-1532.190996
371.980475,-222.061783,-9622.677246,-1378.971896
371.980797,-592.164754,-8956.491898,-1838.629195
371.981119,-296.082377,-9252.574275,-1378.971896
371.981441,-148.041188,-9326.594869,-1532.190996
371.981763,0.000000,-9326.594869,-1608.800546
371.982084,0.000000,-9400.615463,-1532.190996
371.982406,0.000000,-9326.594869,-995.924147
371.982728,0.000000,-9474.636058,-1685.410096
371.983050,0.000000,-9474.636058,-1455.581446
371.983372,-222.061783,-9474.636058,-1378.971896
371.983693,-296.082377,-9400.615463,-1378.971896
371.984015,-222.061783,-9474.636058,-1762.019645
371.984337,74.020594,-9474.636058,-1608.800546
371.984659,0.000000,-9474.636058,-1685.410096
371.984981,0.000000,-9474.636058,-1762.019645
371.985302,0.000000,-9474.636058,-1532.190996
371.985624,0.000000,-9178.553681,-1532.190996
371.985946,0.000000,-9178.553681,-1378.971896
371.986268,-592.164754,-9252.574275,-1532.190996
371.986590,-592.164754,-9474.636058,-1532.190996
371.986911,-666.185348,-9474.636058,-1378.971896
371.987233,-592.164754,-9474.636058,-1378.971896
371.987555,-148.041188,-9474.636058,-1685.410096
371.987877,0.000000,-9104.533087,-1378.971896
371.988199,-148.041188,-9326.594869,-1685.410096
371.988520,-222.061783,-9326.594869,-1762.019645
371.988842,-518.144159,-9474.636058,-1455.581446
371.989164,-740.205942,-9474.636058,-1608.800546
371.989486,-296.082377,-9696.697840,-1302.362347
371.989808,-814.226536,-9474.636058,-1378.971896
371.990130,-888.247130,-9474.636058,-1455.581446
371.990451,-444.123565,-9326.594869,-1532.190996
371.990773,-666.185348,-9178.553681,-1532.190996
371.991095,0.000000,-8882.471304,-1378.971896
371.991417,-666.185348,-9030.512492,-1378.971896
371.991739,-666.185348,-9474.636058,-1302.362347
371.992060,-740.205942,-9696.697840,-1532.190996
371.992382,-666.185348,-9548.656652,-1149.143247
371.992704,-518.144159,-9400.615463,-995.924147
371.993026,-666.185348,-9474.636058,-1149.143247
371.993348,222.061783,-9474.636058,-1302.362347
371.993669,1110.308913,-9548.656652,-1838.629195
371.993991,1110.308913,-9770.718434,-995.924147
371.994313,888.247130,-9622.677246,-536.266849
371.994635,370.102971,-9178.553681,-766.095498
371.994957,74.020594,-8956.491898,-1455.581446
371.995278,-296.082377,-9030.512492,-1915.238745
371.995600,-1184.329507,-8882.471304,-1608.800546
371.995922,-1110.308913,-8586.388927,-1455.581446
371.996244,-296.082377,-9030.512492,-1762.019645
371.996566,518.144159,-9770.718434,-1149.143247
371.996887,0.000000,-10436.903782,-612.876398
371.997209,0.000000,-9548.656652,-689.485948
371.997531,592.164754,-9252.574275,-1608.800546
371.997853,1850.514855,-9770.718434,-2221.676944
371.998175,2072.576638,-9918.759623,-1455.581446
371.998496,1110.308913,-8808.450710,-229.828649
371.998818,1776.494261,-8438.347739,-612.876398
371.999140,3182.885551,-9474.636058,-1225.752797
371.999462,3627.009116,-9918.759623,-919.314598
371.999784,3034.844362,-8808.450710,0.000000
372.000105,2886.803174,-8068.244768,-229.828649
372.000427,3701.029710,-8216.285956,-995.924147
372.000749,4071.132681,-9178.553681,-1149.143247
372.001071,3404.947333,-8956.491898,-766.095498
372.001393,3256.906145,-8438.347739,-919.314598
372.001714,4441.235652,-8660.409521,-2451.505594
372.002036,4737.318029,-10584.944971,-2451.505594
372.002358,4441.235652,-10658.965565,-1378.971896
372.002680,3701.029710,-9548.656652,-1532.190996
372.003002,4145.153275,-10140.821405,-2221.676944
372.003323,4293.194464,-10658.965565,-1991.848295
372.003645,3701.029710,-9918.759623,-2221.676944
372.003967,3108.864956,-9474.636058,-2374.896044
372.004289,2812.782580,-9252.574275,-1225.752797
372.004611,3256.906145,-9030.512492,-1532.190996
372.004933,4071.132681,-8068.244768,-1608.800546
372.005254,5033.400406,-8734.430116,-2221.676944
372.005576,5403.503377,-9178.553681,-1685.410096
372.005898,5551.544565,-9548.656652,-919.314598
372.006220,5255.462188,-9104.533087,-919.314598
372.006542,5033.400406,-9030.512492,-1608.800546
372.006863,4219.173869,-8956.491898,-2451.505594
372.007185,2812.782580,-9844.739029,-2681.334243
372.007507,1554.432478,-11029.068536,-2757.943793
372.007829,518.144159,-12361.439231,-1685.410096
372.008151,370.102971,-12731.542202,-383.047749
372.008472,222.061783,-13027.624579,0.000000
372.008794,-222.061783,-12361.439231,383.047749
372.009116,74.020594,-11547.212695,995.924147
372.009438,296.082377,-9770.718434,1302.362347
372.009760,74.020594,-7920.203579,1532.190996
372.010081,-518.144159,-5995.668130,1685.410096
372.010403,-740.205942,-4885.359217,536.266849
372.010725,-444.123565,-4737.318029,-1685.410096
372.011047,592.164754,-5255.462188,-2528.115143
372.011369,1924.535449,-5699.585753,-2757.943793
372.011690,3478.967927,-5995.668130,-3370.820191
372.012012,5255.462188,-7550.100608,-3907.087040
372.012334,6661.853478,-10436.903782,-4749.792088
372.012656,5995.668130,-12657.521608,-4290.134789
372.012978,5033.400406,-13841.851115,-3524.039291
372.013299,4811.338623,-14730.098246,-2451.505594
372.013621,4515.256246,-14137.933492,-1532.190996
372.013943,2960.823768,-13619.789333,383.047749
372.014265,1184.329507,-11843.295072,2221.676944
372.014587,74.020594,-9474.636058,3140.991542
372.014908,740.205942,-6661.853478,2298.286494
372.015230,1258.350101,-4959.379811,2068.457845
372.015552,444.123565,-3478.967927,2681.334243
372.015874,222.061783,-3404.947333,2451.505594
372.016196,518.144159,-5181.441594,919.314598
372.016517,1628.453072,-7476.080014,-536.266849
372.016839,1776.494261,-8734.430116,-2068.457845
372.017161,1036.288319,-9474.636058,-4749.792088
372.017483,740.205942,-12213.398043,-4979.620737
372.017805,1480.411884,-14359.995275,-4826.401637
372.018127,2146.597232,-16284.530724,-5592.497135
372.018448,2072.576638,-16728.654289,-6052.154434
372.018770,1776.494261,-14952.160028,-3830.477490
372.019092,2220.617826,-11547.212695,-2374.896044
372.019414,3775.050304,-8438.347739,-3140.991542
372.019736,5329.482782,-8216.285956,-2451.505594
372.020057,5773.606348,-8216.285956,689.485948
372.020379,5699.585753,-7031.956449,2834.553343
372.020701,6513.812290,-5403.503377,3370.820191
372.021023,7994.224174,-5033.400406,2911.162892
372.021345,8734.430116,-5403.503377,1838.629195
372.021666,6735.874072,-5181.441594,1915.238745
372.021988,4589.276840,-4293.194464,2681.334243
372.022310,4367.215058,-6217.729913,-536.266849
372.022632,4367.215058,-9400.615463,-3907.087040
372.022954,1776.494261,-10881.027347,-3753.867940
372.023275,-1110.308913,-11399.171507,-2604.724693
372.023597,-2368.659014,-14730.098246,-3217.601092
372.023919,-2664.741391,-16950.716072,-4519.963438
372.024241,-3330.926739,-14063.912898,-5592.497135
372.024563,-3108.864956,-9918.759623,-5515.887586
372.024884,-814.226536,-9918.759623,-4826.401637
372.025206,1480.411884,-10436.903782,-3907.087040
372.025528,3330.926739,-9474.636058,-2911.162892
372.025850,5181.441594,-7994.224174,-1072.533697
372.026172,7624.121203,-9030.512492,306.438199
372.026493,7624.121203,-9622.677246,1072.533697
372.026815,6809.894666,-8734.430116,1378.971896
372.027137,5477.523971,-7254.018232,842.705048
372.027459,4811.338623,-8216.285956,0.000000
372.027781,3034.844362,-8734.430116,229.828649
372.028102,0.000000,-8956.491898,459.657299
372.028424,-2294.638420,-8438.347739,689.485948
372.028746,-2294.638420,-9326.594869,0.000000
372.029068,-962.267725,-10807.006753,-1608.800546
372.029390,-740.205942,-10510.924376,-2145.067394
372.029711,-1184.329507,-9918.759623,-1378.971896
372.030033,222.061783,-9178.553681,-459.657299
372.030355,2590.720797,-9030.512492,-2374.896044
372.030677,4589.276840,-9178.553681,-4290.134789
372.030999,5329.482782,-9252.574275,-3370.820191
372.031321,4959.379811,-8734.430116,-2068.457845
372.031642,5107.421000,-9178.553681,-1225.752797
372.031964,4441.235652,-9400.615463,-689.485948
372.032286,2886.803174,-8438.347739,-842.705048
372.032608,962.267725,-7328.038826,-1378.971896
372.032930,74.020594,-6957.935855,-2451.505594
372.033251,370.102971,-8956.491898,-2987.772442
372.033573,0.000000,-10066.800811,-1991.848295
372.033895,-1184.329507,-9770.718434,1149.143247
372.034217,-1776.494261,-8364.327145,2911.162892
372.034539,-370.102971,-8882.471304,0.000000
372.034860,814.226536,-11177.109724,-3294.210641
372.035182,1924.535449,-12509.480420,-3064.381992
372.035504,2072.576638,-13471.748144,-1532.190996
372.035826,2072.576638,-13471.748144,689.485948
372.036148,2590.720797,-12065.356855,2911.162892
372.036469,3997.112087,-8438.347739,1455.581446
372.036791,5625.565159,-6513.812290,-2757.943793
372.037113,7402.059420,-8734.430116,-5745.716235
372.037435,8438.347739,-11621.233289,-3370.820191
372.037757,7476.080014,-9548.656652,842.705048
372.038078,5995.668130,-7031.956449,3064.381992
372.038400,4663.297435,-5995.668130,2528.115143
372.038722,3627.009116,-5847.626942,0.000000
372.039044,0.000000,-4663.297435,-4060.306139
372.039366,-4293.194464,-5181.441594,-4903.011187
372.039687,-6735.874072,-7846.182985,-1915.238745
372.040009,-7254.018232,-8512.368333,-306.438199
372.040331,-7105.977043,-9030.512492,-2987.772442
372.040653,-4071.132681,-11473.192101,-5515.887586
372.040974,-2294.638420,-15100.201217,-5439.278036
372.041296,-2960.823768,-16284.530724,-3600.648841
372.041618,-4219.173869,-12657.521608,0.000000
372.041939,-2664.741391,-10362.883188,-689.485948
372.042261,0.000000,-11029.068536,-4136.915689
372.042583,888.247130,-11917.315666,-5056.230287
372.042905,0.000000,-10732.986159,-3064.381992
372.043226,-148.041188,-8290.306550,229.828649
372.043548,3404.947333,-8364.327145,1991.848295
372.043870,6661.853478,-10140.821405,459.657299
372.044191,8216.285956,-10584.944971,-689.485948
372.044513,8216.285956,-8586.388927,1225.752797
372.044835,7476.080014,-6439.791695,2068.457845
372.045157,6735.874072,-5699.585753,1378.971896
372.045478,2886.803174,-4441.235652,842.705048
372.045800,-2368.659014,-3478.967927,-689.485948
372.046122,-6957.935855,-6587.832884,-3370.820191
372.046443,-10214.842000,-10955.047942,-4136.915689
372.046765,-11695.253884,-12287.418637,-4443.353888
372.047087,-11029.068536,-11473.192101,-5515.887586
372.047409,-8660.409521,-11251.130318,-4136.915689
372.047730,-6217.729913,-12657.521608,-2757.943793
372.048052,-5551.544565,-12879.583391,-3370.820191
372.048374,-5625.565159,-9844.739029,-3064.381992
372.048695,-5329.482782,-7476.080014,-2757.943793
372.049017,-5107.421000,-8290.306550,-3370.820191
372.049339,-4737.318029,-10214.842000,-2528.115143
372.049661,-4293.194464,-9770.718434,-459.657299
372.049982,-888.247130,-9178.553681,1072.533697
372.050304,4515.256246,-8660.409521,2068.457845
372.050626,8216.285956,-7402.059420,1302.362347
372.050947,9992.780217,-5477.523971,2145.067394
372.051269,10362.883188,-4885.359217,2911.162892
372.051591,9474.636058,-5403.503377,2298.286494
372.051913,6365.771101,-6587.832884,153.219100
372.052234,3997.112087,-7772.162391,-1378.971896
372.052556,1480.411884,-9844.739029,-2068.457845
372.052878,-740.205942,-12509.480420,-1991.848295
372.053199,-1850.514855,-14063.912898,-1225.752797
372.053521,-1480.411884,-13471.748144,-919.314598
372.053843,-296.082377,-10140.821405,-2757.943793
372.054165,-740.205942,-9326.594869,-3294.210641
372.054486,-2664.741391,-10807.006753,-3294.210641
372.054808,-4515.256246,-10510.924376,-2911.162892
372.055130,-5699.585753,-10658.965565,-3140.991542
372.055451,-6069.688724,-11029.068536,-1991.848295
372.055773,-6217.729913,-12361.439231,-766.095498
372.056095,-5477.523971,-11029.068536,-536.266849
372.056417,-3182.885551,-9030.512492,-766.095498
372.056738,592.164754,-8364.327145,-689.485948
372.057060,4145.153275,-7254.018232,229.828649
372.057382,5699.585753,-5699.585753,0.000000
372.057703,6513.812290,-6439.791695,0.000000
372.058025,7254.018232,-7476.080014,0.000000
372.058347,7476.080014,-8660.409521,-536.266849
372.058669,5847.626942,-9252.574275,-1225.752797
372.058990,4219.173869,-9770.718434,-1608.800546
372.059312,3034.844362,-10584.944971,-2374.896044
372.059634,1998.556043,-10584.944971,-1991.848295
372.059955,1628.453072,-10658.965565,-1532.190996
372.060277,1184.329507,-9548.656652,-2145.067394
372.060599,296.082377,-8882.471304,-2451.505594
372.060921,-814.226536,-10436.903782,-2451.505594
372.061242,-3775.050304,-10955.047942,-1378.971896
372.061564,-5477.523971,-10436.903782,-1532.190996
372.061886,-6217.729913,-10436.903782,-2374.896044
372.062207,-6587.832884,-11029.068536,-1685.410096
372.062529,-6735.874072,-10362.883188,-766.095498
372.062851,-6143.709319,-9030.512492,-766.095498
372.063173,-3997.112087,-7698.141797,-689.485948
372.063494,-1258.350101,-7254.018232,-1302.362347
372.063816,74.020594,-6957.935855,-1762.019645
372.064138,1036.288319,-6069.688724,-1072.533697
372.064459,3256.906145,-6809.894666,-1378.971896
372.064781,3923.091493,-8438.347739,-1685.410096
372.065103,2664.741391,-9474.636058,-1225.752797
372.065425,-222.061783,-8808.450710,-1225.752797
372.065746,-2368.659014,-9474.636058,-2604.724693
372.066068,-3034.844362,-10658.965565,-4290.134789
372.066390,-3849.070898,-9918.759623,-3983.696590
372.066711,-3849.070898,-9474.636058,-3140.991542
372.067033,-3256.906145,-9992.780217,-3064.381992
372.067355,-2664.741391,-11769.274478,-1838.629195
372.067677,-3552.988522,-10955.047942,-995.924147
372.067998,-3775.050304,-9400.615463,-995.924147
372.068320,-3256.906145,-9770.718434,-2604.724693
372.068642,-2368.659014,-11547.212695,-2834.553343
372.068963,-3775.050304,-11103.089130,-612.876398
372.069285,-3627.009116,-9622.677246,536.266849
372.069607,74.020594,-8808.450710,383.047749
372.069928,4589.276840,-9252.574275,-995.924147
372.070250,6291.750507,-8216.285956,-1608.800546
372.070572,6143.709319,-6661.853478,-383.047749
372.070894,6291.750507,-6513.812290,459.657299
372.071215,6587.832884,-7179.997637,76.609550
372.071537,4589.276840,-8882.471304,-995.924147
372.071859,1480.411884,-9030.512492,-1915.238745
372.072180,-814.226536,-9030.512492,-2528.115143
372.072502,-1776.494261,-10510.924376,-3064.381992
372.072824,-1850.514855,-10584.944971,-2451.505594
372.073146,-2590.720797,-8438.347739,-1915.238745
372.073467,-2812.782580,-6809.894666,-1991.848295
372.073789,-2368.659014,-9474.636058,-2987.772442
372.074111,-1850.514855,-12731.542202,-4290.134789
372.074432,-2072.576638,-13175.665768,-3447.429741
372.074754,-1702.473667,-13175.665768,-1685.410096
372.075076,-962.267725,-13027.624579,0.000000
372.075398,-370.102971,-12287.418637,383.047749
372.075719,-1184.329507,-9918.759623,536.266849
372.076041,-814.226536,-7846.182985,536.266849
372.076363,2220.617826,-7179.997637,-229.828649
372.076684,4811.338623,-7994.224174,-1302.362347
372.077006,6587.832884,-9326.594869,919.314598
372.077328,7402.059420,-8364.327145,3753.867940
372.077650,7846.182985,-5773.606348,2987.772442
372.077971,7550.100608,-5921.647536,229.828649
372.078293,5255.462188,-7179.997637,-1149.143247
372.078615,222.061783,-7031.956449,-1685.410096
372.078936,-3478.967927,-7105.977043,-2451.505594
372.079258,-5255.462188,-9400.615463,-2987.772442
372.079580,-5551.544565,-11843.295072,-2145.067394
372.079902,-6291.750507,-11769.274478,-2757.943793
372.080223,-6365.771101,-10288.862594,-3217.601092
372.080545,-5625.565159,-10955.047942,-3294.210641
372.080867,-5699.585753,-11917.315666,-2604.724693
372.081188,-6735.874072,-10807.006753,-2221.676944
372.081510,-7179.997637,-8956.491898,-2221.676944
372.081832,-6217.729913,-9030.512492,-2298.286494
372.082154,-5403.503377,-9474.636058,-2298.286494
372.082475,-4293.194464,-8956.491898,-1378.971896
372.082797,-1554.432478,-7846.182985,-306.438199
372.083119,1850.514855,-7994.224174,153.219100
372.083440,4589.276840,-8586.388927,766.095498
372.083762,5329.482782,-7550.100608,689.485948
372.084084,5477.523971,-6957.935855,0.000000
372.084406,5625.565159,-7105.977043,-1225.752797
372.084727,5329.482782,-9400.615463,-1915.238745
372.085049,3552.988522,-10066.800811,-2221.676944
372.085371,666.185348,-9992.780217,-2221.676944
372.085692,-1184.329507,-11621.233289,-919.314598
372.086014,-1924.535449,-11843.295072,-1225.752797
372.086336,-2294.638420,-10140.821405,-3140.991542
372.086658,-2516.700203,-9992.780217,-4749.792088
372.086979,-2516.700203,-12361.439231,-3140.991542
372.087301,-4737.318029,-11547.212695,-612.876398
372.087623,-6439.791695,-8808.450710,-383.047749
372.087944,-6291.750507,-8512.368333,-2528.115143
372.088266,-5625.565159,-10066.800811,-3983.696590
372.088588,-6439.791695,-11325.150913,-4060.306139
372.088910,-6217.729913,-11325.150913,-919.314598
372.089231,-2960.823768,-9992.780217,689.485948
372.089553,2220.617826,-8734.430116,0.000000
372.089875,5847.626942,-7328.038826,-766.095498
372.090196,7402.059420,-6143.709319,-306.438199
372.090518,8142.265362,-6587.832884,-383.047749
372.090840,8956.491898,-7772.162391,-229.828649
372.091162,7846.182985,-9400.615463,229.828649
372.091483,4811.338623,-9178.553681,995.924147
372.091805,2590.720797,-8660.409521,306.438199
372.092127,1702.473667,-9474.636058,-1991.848295
372.092448,1184.329507,-10140.821405,-2528.115143
372.092770,74.020594,-8364.327145,-1149.143247
372.093092,-888.247130,-6513.812290,-536.266849
372.093414,-1036.288319,-7994.224174,-1225.752797
372.093735,-1036.288319,-10658.965565,-1455.581446
372.094057,-2664.741391,-11473.192101,-1991.848295
372.094379,-3775.050304,-12213.398043,-2298.286494
372.094700,-4737.318029,-13101.645173,-1838.629195
372.095022,-5255.462188,-12953.603985,-306.438199
372.095344,-5477.523971,-11029.068536,459.657299
372.095666,-3701.029710,-8586.388927,-229.828649
372.095987,296.082377,-8142.265362,-2681.334243
372.096309,3256.906145,-8216.285956,-3370.820191
372.096631,4293.194464,-8068.244768,-919.314598
372.096952,3701.029710,-7698.141797,1608.800546
372.097274,3775.050304,-6883.915261,1378.971896
372.097596,3701.029710,-7920.203579,-689.485948
372.097918,2368.659014,-8660.409521,-2374.896044
372.098239,-444.123565,-8438.347739,-2298.286494
372.098561,-2590.720797,-8068.244768,-1838.629195
372.098883,-3849.070898,-8290.306550,-1225.752797
372.099204,-2960.823768,-9474.636058,-1455.581446
372.099526,-2220.617826,-9474.636058,-2911.162892
372.099848,-2886.803174,-9844.739029,-3753.867940
372.100170,-4441.235652,-10510.924376,-1838.629195
372.100491,-5847.626942,-11177.109724,-1378.971896
372.100813,-6365.771101,-11621.233289,-2451.505594
372.101135,-5773.606348,-12139.377449,-3600.648841
372.101456,-5107.421000,-11917.315666,-2451.505594
372.101778,-4367.215058,-11251.130318,-1608.800546
372.102100,-2072.576638,-9474.636058,-612.876398
372.102422,1036.288319,-7550.100608,-919.314598
372.102743,4293.194464,-7328.038826,-1608.800546
372.103065,4737.318029,-7105.977043,-842.705048
372.103387,3923.091493,-7105.977043,76.609550
372.103708,2812.782580,-6883.915261,0.000000
372.104030,2886.803174,-6957.935855,-1608.800546
372.104352,2960.823768,-9474.636058,-2528.115143
372.104674,1554.432478,-10362.883188,-1302.362347
372.104995,-888.247130,-9030.512492,153.219100
372.105317,-2072.576638,-8586.388927,0.000000
372.105639,-1850.514855,-8438.347739,-2374.896044
372.105960,-1406.391290,-8660.409521,-4749.792088
372.106282,-3034.844362,-8808.450710,-4903.011187
372.106604,-4589.276840,-9474.636058,-3217.601092
372.106926,-5107.421000,-12287.418637,-1685.410096
372.107247,-3404.947333,-13693.809927,-2604.724693
372.107569,-962.267725,-13471.748144,-4136.915689
372.107891,-74.020594,-13545.768739,-3600.648841
372.108212,-740.205942,-13397.727550,-536.266849
372.108534,-1036.288319,-10436.903782,1455.581446
372.108856,0.000000,-6587.832884,306.438199
372.109178,2812.782580,-6365.771101,-1685.410096
372.109499,5477.523971,-7846.182985,-1072.533697
372.109821,5773.606348,-7772.162391,-229.828649
372.110143,6069.688724,-7476.080014,1762.019645
372.110464,7624.121203,-7476.080014,2911.162892
372.110786,7550.100608,-8216.285956,1762.019645
372.111108,4663.297435,-7550.100608,995.924147
372.111430,296.082377,-6809.894666,-306.438199
372.111751,-2368.659014,-7550.100608,-2451.505594
372.112073,-3256.906145,-9326.594869,-4366.744339
372.112395,-4145.153275,-10881.027347,-3983.696590
372.112716,-4885.359217,-10732.986159,-2298.286494
372.113038,-4811.338623,-10732.986159,-1838.629195
372.113360,-3923.091493,-12213.398043,-2451.505594
372.113682,-3330.926739,-13619.789333,-3064.381992
372.114003,-3552.988522,-12953.603985,-3294.210641
372.114325,-3627.009116,-10436.903782,-2451.505594
372.114647,-3256.906145,-9178.553681,-919.314598
372.114968,-2368.659014,-8364.327145,459.657299
372.115290,-1924.535449,-6735.874072,76.609550
372.115612,592.164754,-5921.647536,-766.095498
372.115934,3923.091493,-7254.018232,-842.705048
372.116255,6069.688724,-8142.265362,229.828649
372.116577,6809.894666,-8364.327145,1532.190996
372.116899,6217.729913,-7698.141797,2221.676944
372.117220,4885.359217,-7179.997637,1149.143247
372.117542,2664.741391,-7624.121203,-766.095498
372.117864,-518.144159,-7476.080014,-3294.210641
372.118186,-3478.967927,-8956.491898,-4673.182538
372.118507,-4515.256246,-11843.295072,-3370.820191
372.118829,-4885.359217,-12953.603985,-1302.362347
372.119151,-4737.318029,-11991.336260,-1685.410096
372.119472,-4071.132681,-10436.903782,-3064.381992
372.119794,-3923.091493,-10288.862594,-2834.553343
372.120116,-4737.318029,-11547.212695,-2911.162892
372.120438,-5551.544565,-10584.944971,-3140.991542
372.120759,-5329.482782,-10140.821405,-3217.601092
372.121081,-4071.132681,-11547.212695,-2451.505594
372.121403,-3256.906145,-11473.192101,-612.876398
372.121724,-1776.494261,-9030.512492,76.609550
372.122046,592.164754,-7105.977043,-1225.752797
372.122368,4293.194464,-7698.141797,-1762.019645
372.122690,5921.647536,-7624.121203,-766.095498
372.123011,4737.318029,-6587.832884,383.047749
372.123333,3775.050304,-5551.544565,1149.143247
372.123655,3627.009116,-6661.853478,-995.924147
372.123976,2886.803174,-8882.471304,-3217.601092
372.124298,592.164754,-9622.677246,-3217.601092
372.124620,-888.247130,-10288.862594,-1915.238745
372.124942,-1406.391290,-11177.109724,-842.705048
372.125263,-962.267725,-10510.924376,-842.705048
372.125585,-740.205942,-9474.636058,-1608.800546
372.125907,-814.226536,-8660.409521,-3753.867940
372.126228,-1554.432478,-9474.636058,-4136.915689
372.126550,-3330.926739,-10214.842000,-2604.724693
372.126872,-4145.153275,-10510.924376,-1378.971896
372.127193,-3701.029710,-10510.924376,-2068.457845
372.127515,-3182.885551,-11547.212695,-2911.162892
372.127837,-3627.009116,-11991.336260,-1838.629195
372.128159,-4071.132681,-10584.944971,76.609550
372.128480,-3256.906145,-7772.162391,76.609550
372.128802,0.000000,-7254.018232,-1302.362347
372.129124,1998.556043,-6661.853478,-1762.019645
372.129445,3034.844362,-5921.647536,-1149.143247
372.129767,4589.276840,-6587.832884,-306.438199
372.130089,6217.729913,-8290.306550,-689.485948
372.130411,7179.997637,-10658.965565,-1762.019645
372.130732,5773.606348,-11843.295072,-383.047749
372.131054,3108.864956,-11251.130318,0.000000
372.131376,1184.329507,-10584.944971,-536.266849
372.131697,148.041188,-9622.677246,-1991.848295
372.132019,-592.164754,-8512.368333,-3064.381992
372.132341,-1332.370696,-8512.368333,-3064.381992
372.132663,-2072.576638,-9178.553681,-2068.457845
372.132984,-2516.700203,-10066.800811,-766.095498
372.133306,-2738.761985,-10140.821405,-306.438199
372.133628,-2516.700203,-9030.512492,-1225.752797
372.133949,-2664.741391,-9474.636058,-2451.505594
372.134271,-4071.132681,-9696.697840,-2221.676944
372.134593,-5699.585753,-9770.718434,-459.657299
372.134915,-5477.523971,-9030.512492,-383.047749
372.135236,-2738.761985,-8216.285956,-2068.457845
372.135558,740.205942,-9104.533087,-3217.601092
372.135880,2812.782580,-8956.491898,-2221.676944
372.136201,4219.173869,-8438.347739,-766.095498
372.136523,5773.606348,-8882.471304,-766.095498
372.136845,6439.791695,-10436.903782,-1302.362347
372.137167,4663.297435,-10288.862594,-766.095498
372.137488,1258.350101,-9178.553681,-995.924147
372.137810,-1110.308913,-8364.327145,-1991.848295
372.138132,-2072.576638,-9474.636058,-2834.553343
372.138453,-2442.679609,-8586.388927,-2221.676944
372.138775,-1924.535449,-8364.327145,-1762.019645
372.139097,-962.267725,-8142.265362,-1302.362347
372.139419,-370.102971,-9696.697840,0.000000
372.139740,-740.205942,-10881.027347,612.876398
372.140062,-2146.597232,-9992.780217,-842.705048
372.140384,-2516.700203,-10288.862594,-2298.286494
372.140705,-3997.112087,-11251.130318,-1991.848295
372.141027,-5107.421000,-11473.192101,-1225.752797
372.141349,-5033.400406,-9548.656652,-1608.800546
372.141671,-1998.556043,-8142.265362,-3064.381992
372.141992,1850.514855,-9252.574275,-3140.991542
372.142314,3923.091493,-8364.327145,-1455.581446
372.142636,3775.050304,-7402.059420,-536.266849
372.142957,3997.112087,-7772.162391,0.000000
372.143279,3775.050304,-8956.491898,-1072.533697
372.143601,1850.514855,-9400.615463,-2681.334243
372.143922,-1332.370696,-7772.162391,-2604.724693
372.144244,-2812.782580,-7846.182985,-2374.896044
372.144566,-3478.967927,-8956.491898,-2681.334243
372.144887,-3775.050304,-9030.512492,-2604.724693
372.145209,-3330.926739,-9178.553681,-1915.238745
372.145531,-1850.514855,-9622.677246,-2451.505594
372.145852,-1184.329507,-10807.006753,-2221.676944
372.146174,-1776.494261,-11621.233289,-919.314598
372.146496,-2664.741391,-10881.027347,-842.705048
372.146817,-2368.659014,-10362.883188,-2298.286494
372.147139,-2146.597232,-11251.130318,-2604.724693
372.147460,-2368.659014,-10881.027347,-2068.457845
372.147782,-2072.576638,-8734.430116,-689.485948
372.148104,-148.041188,-7698.141797,-1225.752797
372.148425,2664.741391,-9030.512492,-1532.190996
372.148747,4071.132681,-9252.574275,-306.438199
372.149069,3552.988522,-7624.121203,0.000000
372.149390,3552.988522,-6291.750507,0.000000
372.149712,4367.215058,-7402.059420,-1915.238745
372.150034,3182.885551,-8216.285956,-2757.943793
372.150355,666.185348,-9030.512492,-2374.896044
372.150677,-1628.453072,-9622.677246,-1225.752797
372.150999,-2368.659014,-10658.965565,-1915.238745
372.151320,-2368.659014,-10807.006753,-2911.162892
372.151642,-2664.741391,-10436.903782,-2528.115143
372.151964,-2812.782580,-9696.697840,-2604.724693
372.152285,-2146.597232,-9252.574275,-2757.943793
372.152607,-1850.514855,-10288.862594,-1991.848295
372.152929,-1628.453072,-10510.924376,-1532.190996
372.153250,-1628.453072,-10362.883188,-1378.971896
372.153572,-1406.391290,-10955.047942,-1225.752797
372.153893,-1258.350101,-11621.233289,-153.219100
372.154215,-1332.370696,-11029.068536,1225.752797
372.154537,-518.144159,-8956.491898,689.485948
372.154858,1702.473667,-7476.080014,-766.095498
372.155180,4145.153275,-7402.059420,-1225.752797
372.155502,5255.462188,-7031.956449,-689.485948
372.155823,5329.482782,-6809.894666,-229.828649
372.156145,5255.462188,-7254.018232,-229.828649
372.156467,4515.256246,-8808.450710,-689.485948
372.156788,2664.741391,-10658.965565,-1302.362347
372.157110,0.000000,-10140.821405,-1608.800546
372.157432,-1628.453072,-9252.574275,-2528.115143
372.157753,-2664.741391,-9178.553681,-3217.601092
372.158075,-2886.803174,-8956.491898,-2681.334243
372.158397,-3849.070898,-8586.388927,-2451.505594
372.158718,-4515.256246,-8882.471304,-2757.943793
372.159040,-4441.235652,-10362.883188,-2068.457845
372.159362,-4663.297435,-11843.295072,-1532.190996
372.159683,-4663.297435,-11917.315666,-1302.362347
372.160005,-4589.276840,-12065.356855,-1608.800546
372.160326,-4219.173869,-11621.233289,-766.095498
372.160648,-4441.235652,-9844.739029,536.266849
372.160970,-3478.967927,-7254.018232,383.047749
372.161291,-814.226536,-6217.729913,-995.924147
372.161613,2886.803174,-7698.141797,-2298.286494
372.161935,4367.215058,-8438.347739,-1225.752797
372.162256,4811.338623,-8364.327145,536.266849
372.162578,5477.523971,-8290.306550,1149.143247
372.162900,5329.482782,-8882.471304,-612.876398
372.163221,3849.070898,-9844.739029,-1685.410096
372.163543,0.000000,-9030.512492,-2298.286494
372.163865,-2368.659014,-9030.512492,-2451.505594
372.164186,-2886.803174,-9770.718434,-3217.601092
372.164508,-2960.823768,-9992.780217,-3294.210641
372.164830,-3034.844362,-9474.636058,-2528.115143
372.165151,-2664.741391,-9104.533087,-2298.286494
372.165473,-3182.885551,-9474.636058,-1915.238745
372.165795,-3849.070898,-11177.109724,-2604.724693
372.166116,-4663.297435,-11695.253884,-2604.724693
372.166438,-4737.318029,-11029.068536,-1762.019645
372.166759,-4367.215058,-10584.944971,-1149.143247
372.167081,-3627.009116,-9622.677246,-612.876398
372.167403,-2516.700203,-8734.430116,-153.219100
372.167724,-666.185348,-7994.224174,-1608.800546
372.168046,2516.700203,-8512.368333,-2374.896044
372.168368,5181.441594,-8734.430116,-1838.629195
372.168689,5995.668130,-7994.224174,0.000000
372.169011,6957.935855,-8216.285956,383.047749
372.169333,7624.121203,-8068.244768,-612.876398
372.169654,7476.080014,-8364.327145,-2451.505594
372.169976,5181.441594,-9474.636058,-3140.991542
372.170298,2516.700203,-9918.759623,-1838.629195
372.170619,0.000000,-10214.842000,-1915.238745
372.170941,-1184.329507,-10955.047942,-1991.848295
372.171263,-1702.473667,-10955.047942,-1915.238745
372.171584,-1554.432478,-10140.821405,-1991.848295
372.171906,-1480.411884,-9104.533087,-2374.896044
372.172228,-2220.617826,-9770.718434,-1915.238745
372.172549,-3552.988522,-10288.862594,-766.095498
372.172871,-4293.194464,-10140.821405,-689.485948
372.173192,-3923.091493,-10955.047942,-1302.362347
372.173514,-3478.967927,-11251.130318,-995.924147
372.173836,-3775.050304,-9696.697840,-919.314598
372.174157,-3478.967927,-8660.409521,0.000000
372.174479,-1554.432478,-7846.182985,-306.438199
372.174801,1184.329507,-7624.121203,-995.924147
372.175122,3330.926739,-7328.038826,-995.924147
372.175444,4811.338623,-7328.038826,-995.924147
372.175766,5477.523971,-7624.121203,-536.266849
372.176087,5699.585753,-8734.430116,-1149.143247
372.176409,4367.215058,-10436.903782,-995.924147
372.176731,1554.432478,-10214.842000,-1225.752797
372.177052,-888.247130,-9770.718434,-2298.286494
372.177374,-2368.659014,-9548.656652,-2757.943793
372.177696,-3182.885551,-9474.636058,-2681.334243
372.178017,-3330.926739,-9474.636058,-1838.629195
372.178339,-3478.967927,-9400.615463,-1149.143247
372.178661,-3182.885551,-9104.533087,-612.876398
372.178982,-3182.885551,-9474.636058,536.266849
372.179304,-3627.009116,-9400.615463,-153.219100
372.179625,-3849.070898,-9622.677246,-766.095498
372.179947,-4145.153275,-9918.759623,-919.314598
372.180269,-4737.318029,-9252.574275,0.000000
372.180590,-4663.297435,-8438.347739,229.828649
372.180912,-2590.720797,-7476.080014,-1762.019645
372.181234,0.000000,-8142.265362,-2604.724693
372.181555,1184.329507,-8364.327145,-2068.457845
372.181877,1332.370696,-8068.244768,-612.876398
372.182199,2146.597232,-8364.327145,-612.876398
372.182520,3182.885551,-8512.368333,-2451.505594
372.182842,2442.679609,-9622.677246,-3294.210641
372.183164,0.000000,-9844.739029,-2987.772442
372.183485,-2220.617826,-10066.800811,-2604.724693
372.183807,-3034.844362,-10807.006753,-3064.381992
372.184129,-2516.700203,-11103.089130,-3600.648841
372.184450,-2368.659014,-10955.047942,-3064.381992
372.184772,-2072.576638,-10214.842000,-2834.553343
372.185094,-1258.350101,-10066.800811,-1838.629195
372.185415,-592.164754,-10436.903782,-1149.143247
372.185737,0.000000,-9918.759623,-383.047749
372.186058,592.164754,-9844.739029,-1225.752797
372.186380,0.000000,-10955.047942,-919.314598
372.186702,-1184.329507,-9992.780217,153.219100
372.187023,-1554.432478,-8808.450710,383.047749
372.187345,-74.020594,-8068.244768,-995.924147
372.187667,2220.617826,-7698.141797,-1685.410096
372.187988,3701.029710,-8512.368333,-1762.019645
372.188310,4219.173869,-7846.182985,-919.314598
372.188632,4959.379811,-7624.121203,-612.876398
372.188953,5403.503377,-8216.285956,-1302.362347
372.189275,4737.318029,-9400.615463,-2834.553343
372.189597,2146.597232,-9770.718434,-2911.162892
372.189918,-222.061783,-9474.636058,-2451.505594
372.190240,-1924.535449,-10288.862594,-2911.162892
372.190562,-2516.700203,-10732.986159,-2987.772442
372.190883,-2590.720797,-9844.739029,-2834.553343
372.191205,-2886.803174,-9030.512492,-1685.410096
372.191527,-2146.597232,-9474.636058,-995.924147
372.191848,-1554.432478,-9696.697840,-153.219100
372.192170,-1702.473667,-10140.821405,-229.828649
372.192491,-1998.556043,-10066.800811,-459.657299
372.192813,-1776.494261,-10066.800811,689.485948
372.193135,-2368.659014,-9918.759623,306.438199
372.193456,-2664.741391,-9252.574275,612.876398
372.193778,-2072.576638,-8734.430116,689.485948
372.194100,74.020594,-7920.203579,-383.047749
372.194421,2516.700203,-8586.388927,-842.705048
372.194743,3923.091493,-8290.306550,-689.485948
372.195065,4811.338623,-8438.347739,-306.438199
372.195386,5477.523971,-8882.471304,-1072.533697
372.195708,5033.400406,-9030.512492,-1915.238745
372.196030,3330.926739,-10066.800811,-1762.019645
372.196351,-518.144159,-9770.718434,-1455.581446
372.196673,-2442.679609,-10140.821405,-2068.457845
372.196995,-3849.070898,-9548.656652,-2757.943793
372.197316,-4737.318029,-8808.450710,-2911.162892
372.197638,-4737.318029,-9104.533087,-2451.505594
372.197960,-4441.235652,-8586.388927,-1838.629195
372.198281,-4515.256246,-8438.347739,-1225.752797
372.198603,-4811.338623,-8882.471304,-995.924147
372.198924,-5403.503377,-9474.636058,-995.924147
372.199246,-5995.668130,-10436.903782,-1455.581446
372.199568,-5921.647536,-10732.986159,-766.095498
372.199889,-5255.462188,-10140.821405,-612.876398
372.200211,-3552.988522,-9548.656652,-459.657299
372.200533,-1036.288319,-9104.533087,-1149.143247
372.200854,1554.432478,-9178.553681,-1378.971896
372.201176,3478.967927,-8956.491898,-995.924147
372.201498,4811.338623,-8660.409521,-612.876398
372.201819,5625.565159,-8364.327145,-766.095498
372.202141,6143.709319,-8660.409521,-1991.848295
372.202463,5773.606348,-9178.553681,-1915.238745
372.202784,3849.070898,-9548.656652,-1378.971896
372.203106,1184.329507,-9178.553681,-1225.752797
372.203428,-370.102971,-9252.574275,-1915.238745
372.203749,-1702.473667,-9474.636058,-2834.553343
372.204071,-2886.803174,-9326.594869,-3064.381992
372.204393,-3775.050304,-9252.574275,-2757.943793
372.204714,-4737.318029,-9178.553681,-2298.286494
372.205036,-4293.194464,-10362.883188,-2068.457845
372.205357,-4737.318029,-10807.006753,-2145.067394
372.205679,-4219.173869,-10658.965565,-2298.286494
372.206001,-3256.906145,-10807.006753,-2145.067394
372.206322,-2664.741391,-11029.068536,-1838.629195
372.206644,-1850.514855,-9992.780217,-1149.143247
372.206966,-518.144159,-8586.388927,-1378.971896
372.207287,1480.411884,-8512.368333,-2068.457845
372.207609,4145.153275,-9104.533087,-1991.848295
372.207931,5477.523971,-8142.265362,-689.485948
372.208252,6365.771101,-7476.080014,-153.219100
372.208574,7550.100608,-7624.121203,-1149.143247
372.208896,7328.038826,-8956.491898,-1532.190996
372.209217,5773.606348,-9474.636058,-1149.143247
372.209539,3034.844362,-9548.656652,-1608.800546
372.209861,962.267725,-9474.636058,-1915.238745
372.210182,-444.123565,-9474.636058,-2068.457845
372.210504,-2146.597232,-9326.594869,-2298.286494
372.210826,-3182.885551,-9844.739029,-2221.676944
372.211147,-3478.967927,-9770.718434,-2374.896044
372.211469,-3849.070898,-10436.903782,-1762.019645
372.211790,-4441.235652,-10807.006753,-612.876398
372.212112,-4885.359217,-9548.656652,-612.876398
372.212434,-4293.194464,-10584.944971,-2451.505594
372.212755,-3627.009116,-11547.212695,-1915.238745
372.213077,-3923.091493,-11029.068536,0.000000
372.213399,-3182.885551,-9548.656652,306.438199
372.213720,-592.164754,-8216.285956,0.000000
372.214042,2294.638420,-8290.306550,-612.876398
372.214364,3775.050304,-7550.100608,-612.876398
372.214685,3627.009116,-6809.894666,-306.438199
372.215007,4219.173869,-7254.018232,306.438199
372.215329,4885.359217,-8142.265362,-536.266849
372.215650,4145.153275,-8586.388927,-919.314598
372.215972,2294.638420,-9104.533087,-1149.143247
372.216294,518.144159,-9548.656652,-1302.362347
372.216615,-1184.329507,-9844.739029,-1762.019645
372.216937,-2516.700203,-9770.718434,-1455.581446
372.217259,-2960.823768,-9178.553681,-1455.581446
372.217580,-2812.782580,-9400.615463,-2451.505594
372.217902,-3182.885551,-10140.821405,-2221.676944
372.218223,-4219.173869,-10807.006753,-459.657299
372.218545,-4589.276840,-10066.800811,76.609550
372.218867,-4071.132681,-10066.800811,-1225.752797
372.219188,-3849.070898,-11177.109724,-1991.848295
372.219510,-4219.173869,-11103.089130,-766.095498
372.219832,-4293.194464,-9400.615463,76.609550
372.220153,-2516.700203,-8068.244768,-1072.533697
372.220475,666.185348,-7772.162391,-1608.800546
372.220797,3775.050304,-7846.182985,-1685.410096
372.221118,3997.112087,-6957.935855,-1149.143247
372.221440,4589.276840,-7772.162391,-459.657299
372.221762,5181.441594,-8438.347739,-919.314598
372.222083,5033.400406,-9400.615463,-2374.896044
372.222405,3182.885551,-9992.780217,-2757.943793
372.222727,148.041188,-9844.739029,-2374.896044
372.223048,-1776.494261,-10066.800811,-2298.286494
372.223370,-2146.597232,-10288.862594,-3217.601092
372.223692,-2146.597232,-9992.780217,-3830.477490
372.224013,-1924.535449,-9622.677246,-3217.601092
372.224335,-2072.576638,-9770.718434,-2604.724693
372.224656,-2516.700203,-9770.718434,-1378.971896
372.224978,-2368.659014,-10362.883188,-1149.143247
372.225300,-2146.597232,-10658.965565,-1608.800546
372.225621,-2368.659014,-10732.986159,-1302.362347
372.225943,-3108.864956,-9918.759623,-995.924147
372.226265,-3478.967927,-8956.491898,0.000000
372.226586,-2516.700203,-8142.265362,-766.095498
372.226908,-222.061783,-7698.141797,-1762.019645
372.227230,2368.659014,-8364.327145,-2145.067394
372.227551,3849.070898,-8438.347739,-919.314598
372.227873,4737.318029,-9030.512492,-536.266849
372.228195,5255.462188,-9178.553681,-1072.533697
372.228516,5255.462188,-8882.471304,-2221.676944
372.228838,4219.173869,-9992.780217,-3064.381992
372.229160,1406.391290,-9992.780217,-2911.162892
372.229481,-962.267725,-9400.615463,-1762.019645
372.229803,-1998.556043,-10066.800811,-2681.334243
372.230124,-2442.679609,-10288.862594,-2911.162892
372.230446,-2886.803174,-10288.862594,-2451.505594
372.230768,-3404.947333,-9622.677246,-1608.800546
372.231089,-2960.823768,-9326.594869,-689.485948
372.231411,-2072.576638,-9400.615463,-689.485948
372.231733,-2294.638420,-9178.553681,-612.876398
372.232054,-2812.782580,-9400.615463,-536.266849
372.232376,-3108.864956,-9770.718434,-612.876398
372.232698,-3330.926739,-9696.697840,-459.657299
372.233019,-2664.741391,-10066.800811,536.266849
372.233341,-1480.411884,-9400.615463,76.609550
372.233663,740.205942,-8660.409521,-919.314598
372.233984,2738.761985,-8512.368333,-612.876398
372.234306,3923.091493,-8290.306550,689.485948
372.234628,4515.256246,-7328.038826,229.828649
372.234949,5625.565159,-6957.935855,-1532.190996
372.235271,5699.585753,-8290.306550,-2451.505594
372.235593,4293.194464,-9918.759623,-2374.896044
372.235914,1480.411884,-10066.800811,-1532.190996
372.236236,-592.164754,-9622.677246,-1149.143247
372.236557,-1258.350101,-10288.862594,-1991.848295
372.236879,-1554.432478,-10807.006753,-2451.505594
372.237201,-2516.700203,-9474.636058,-2145.067394
372.237522,-3330.926739,-8438.347739,-1225.752797
372.237844,-3256.906145,-9030.512492,-383.047749
372.238166,-3182.885551,-9104.533087,-766.095498
372.238487,-2960.823768,-9474.636058,-1685.410096
372.238809,-3034.844362,-10214.842000,-1608.800546
372.239131,-3256.906145,-10807.006753,-612.876398
372.239452,-3330.926739,-10066.800811,459.657299
372.239774,-1998.556043,-9104.533087,0.000000
372.240096,518.144159,-8142.265362,-1455.581446
372.240417,2738.761985,-8290.306550,-2145.067394
372.240739,3775.050304,-8364.327145,-2068.457845
372.241061,4589.276840,-8808.450710,-842.705048
372.241382,5403.503377,-8734.430116,-1532.190996
372.241704,5625.565159,-9400.615463,-3064.381992
372.242026,3478.967927,-10658.965565,-2374.896044
372.242347,222.061783,-10955.047942,-1455.581446
372.242669,-2294.638420,-10066.800811,-2221.676944
372.242991,-3330.926739,-9326.594869,-3447.429741
372.243313,-3701.029710,-9104.533087,-3753.867940
372.243635,-3627.009116,-9326.594869,-3064.381992
372.243957,-3923.091493,-8364.327145,-2221.676944
372.244278,-3552.988522,-8438.347739,-689.485948
372.244600,-3034.844362,-9178.553681,-766.095498
372.244922,-2960.823768,-9844.739029,-1991.848295
372.245244,-3627.009116,-10807.006753,-2298.286494
372.245566,-4515.256246,-10955.047942,-689.485948
372.245888,-4737.318029,-10584.944971,153.219100
372.246210,-3404.947333,-9770.718434,-383.047749
372.246532,-814.226536,-8364.327145,-1915.238745
372.246853,1702.473667,-7994.224174,-2757.943793
372.247175,3997.112087,-8586.388927,-2298.286494
372.247497,5255.462188,-8808.450710,-612.876398
372.247819,5551.544565,-8068.244768,0.000000
372.248141,5551.544565,-7772.162391,-689.485948
372.248463,4515.256246,-8586.388927,-1838.629195
372.248785,2368.659014,-9696.697840,-2451.505594
372.249106,-740.205942,-8956.491898,-2145.067394
372.249428,-2664.741391,-8660.409521,-2068.457845
372.249750,-2516.700203,-8734.430116,-1991.848295
372.250072,-1332.370696,-9474.636058,-2298.286494
372.250394,-962.267725,-9400.615463,-2451.505594
372.250716,-592.164754,-10140.821405,-1072.533697
372.251038,-1110.308913,-10362.883188,-229.828649
372.251360,-2072.576638,-9992.780217,-536.266849
372.251681,-3108.864956,-9326.594869,-1608.800546
372.252003,-3627.009116,-9400.615463,-2451.505594
372.252325,-4441.235652,-10658.965565,-2221.676944
372.252647,-3330.926739,-10658.965565,-1378.971896
372.252969,-1554.432478,-9548.656652,-1455.581446
372.253291,962.267725,-9844.739029,-1685.410096
372.253613,3256.906145,-10436.903782,459.657299
372.253935,4515.256246,-9844.739029,995.924147
372.254256,4589.276840,-7920.203579,0.000000
372.254578,4737.318029,-7698.141797,-842.705048
372.254900,4441.235652,-7994.224174,-1225.752797
372.255222,2738.761985,-8364.327145,-1532.190996
372.255544,518.144159,-8512.368333,-1378.971896
372.255866,-296.082377,-9400.615463,-919.314598
372.256188,-370.102971,-10140.821405,-1455.581446
372.256510,-222.061783,-10362.883188,-1072.533697
372.256831,-740.205942,-9918.759623,-612.876398
372.257153,-740.205942,-9104.533087,-383.047749
372.257475,-1628.453072,-8438.347739,-842.705048
372.257797,-2960.823768,-8882.471304,-1455.581446
372.258119,-3775.050304,-9178.553681,-1762.019645
372.258441,-4589.276840,-9474.636058,-2145.067394
372.258763,-5181.441594,-10436.903782,-1225.752797
372.259085,-5255.462188,-11473.192101,153.219100
372.259406,-4737.318029,-10658.965565,-229.828649
372.259728,-3034.844362,-9474.636058,-1991.848295
372.260050,-962.267725,-9104.533087,-1991.848295
372.260372,962.267725,-8216.285956,-919.314598
372.260694,2146.597232,-6957.935855,-612.876398
372.261016,2886.803174,-6661.853478,-1225.752797
372.261338,3627.009116,-7179.997637,-1532.190996
372.261659,2812.782580,-8734.430116,-1685.410096
372.261981,1332.370696,-9474.636058,-1991.848295
372.262303,-592.164754,-9844.739029,-2528.115143
372.262625,-518.144159,-10807.006753,-2068.457845
372.262947,-962.267725,-10584.944971,-2068.457845
372.263269,-962.267725,-9400.615463,-1991.848295
372.263591,-1258.350101,-8438.347739,-1685.410096
372.263913,-1332.370696,-8660.409521,-1685.410096
372.264234,-1554.432478,-9178.553681,-2145.067394
372.264556,-2294.638420,-9622.677246,-1991.848295
372.264878,-2812.782580,-10658.965565,-1378.971896
372.265200,-4071.132681,-11325.150913,-766.095498
372.265522,-5033.400406,-10807.006753,76.609550
372.265844,-4737.318029,-9770.718434,-383.047749
372.266166,-3034.844362,-9030.512492,-2145.067394
372.266488,-444.123565,-8660.409521,-3217.601092
372.266809,1554.432478,-7772.162391,-2451.505594
372.267131,2960.823768,-7846.182985,-1149.143247
372.267453,4367.215058,-8438.347739,0.000000
372.267775,5181.441594,-8142.265362,-1378.971896
372.268097,5255.462188,-9178.553681,-2987.772442
372.268419,3775.050304,-10214.842000,-2604.724693
372.268741,1332.370696,-9992.780217,-2221.676944
372.269063,-518.144159,-9622.677246,-2451.505594
372.269384,-296.082377,-9622.677246,-2374.896044
372.269706,-444.123565,-9918.759623,-2451.505594
372.270028,-666.185348,-10140.821405,-2987.772442
372.270350,-740.205942,-9844.739029,-1762.019645
372.270672,-444.123565,-10140.821405,-842.705048
372.270994,0.000000,-10214.842000,-766.095498
372.271316,-888.247130,-9548.656652,-459.657299
372.271638,-2368.659014,-9992.780217,0.000000
372.271959,-3552.988522,-9918.759623,-306.438199
372.272281,-3997.112087,-8956.491898,-689.485948
372.272603,-2960.823768,-8808.450710,-2221.676944
372.272925,-592.164754,-9770.718434,-1302.362347
372.273247,1406.391290,-9474.636058,76.609550
372.273569,2368.659014,-7254.018232,689.485948
372.273891,3701.029710,-7624.121203,76.609550
372.274212,4515.256246,-8660.409521,-1302.362347
372.274534,3849.070898,-8438.347739,-3217.601092
372.274856,1110.308913,-9400.615463,-2451.505594
372.275178,-1406.391290,-9992.780217,-995.924147
372.275500,-2886.803174,-10362.883188,-1225.752797
372.275822,-3256.906145,-10214.842000,-2221.676944
372.276144,-2738.761985,-9622.677246,-1685.410096
372.276466,-2516.700203,-8660.409521,-689.485948
372.276787,-1850.514855,-7476.080014,-842.705048
372.277109,-1628.453072,-8142.265362,-612.876398
372.277431,-2072.576638,-9474.636058,-306.438199
372.277753,-2664.741391,-9252.574275,0.000000
372.278075,-3478.967927,-10288.862594,-536.266849
372.278397,-3552.988522,-11177.109724,-153.219100
372.278719,-3923.091493,-10584.944971,153.219100
372.279041,-3404.947333,-9474.636058,0.000000
372.279362,-1628.453072,-8660.409521,-459.657299
372.279684,1036.288319,-8586.388927,-612.876398
372.280006,2886.803174,-8438.347739,-1225.752797
372.280328,2812.782580,-7476.080014,-1072.533697
372.280650,2886.803174,-7624.121203,-919.314598
372.280972,3330.926739,-8290.306550,-2451.505594
372.281294,2368.659014,-9622.677246,-3217.601092
372.281616,-148.041188,-10066.800811,-2757.943793
372.281937,-2368.659014,-10066.800811,-2374.896044
372.282259,-3182.885551,-9844.739029,-2528.115143
372.282581,-2516.700203,-9622.677246,-3064.381992
372.282903,-1924.535449,-9622.677246,-2987.772442
372.283225,-1628.453072,-9030.512492,-2681.334243
372.283547,-1036.288319,-9326.594869,-1608.800546
372.283869,0.000000,-9622.677246,-919.314598
372.284191,0.000000,-9696.697840,-1608.800546
372.284512,-148.041188,-10214.842000,-1991.848295
372.284834,-1184.329507,-10807.006753,-306.438199
372.285156,-1776.494261,-11325.150913,-383.047749
372.285478,-1850.514855,-10510.924376,-459.657299
372.285800,74.020594,-9326.594869,-1762.019645
372.286122,2368.659014,-9178.553681,-1838.629195
372.286444,4145.153275,-8290.306550,-1072.533697
372.286765,5329.482782,-7624.121203,-383.047749
372.287087,5255.462188,-7105.977043,-766.095498
372.287409,4885.359217,-8142.265362,-1915.238745
372.287731,3627.009116,-9770.718434,-2528.115143
372.288053,740.205942,-10584.944971,-3370.820191
372.288375,-1480.411884,-10436.903782,-2757.943793
372.288697,-2368.659014,-10807.006753,-2221.676944
372.289019,-2590.720797,-10510.924376,-2528.115143
372.289340,-2294.638420,-9696.697840,-2987.772442
372.289662,-1924.535449,-9400.615463,-2528.115143
372.289984,-888.247130,-9104.533087,-1532.190996
372.290306,-518.144159,-9030.512492,-459.657299
372.290628,-814.226536,-9326.594869,-612.876398
372.290950,-1258.350101,-9104.533087,-612.876398
372.291272,-2146.597232,-10066.800811,-842.705048
372.291594,-2960.823768,-9918.759623,0.000000
372.291915,-3256.906145,-9178.553681,229.828649
372.292237,-2294.638420,-8438.347739,-689.485948
372.292559,-296.082377,-8808.450710,-1072.533697
372.292881,1184.329507,-8660.409521,-383.047749
372.293203,1406.391290,-8068.244768,0.000000
372.293525,1850.514855,-8438.347739,-306.438199
372.293847,2368.659014,-7476.080014,-2374.896044
372.294169,2146.597232,-8586.388927,-3447.429741
372.294490,1036.288319,-9918.759623,-3217.601092
372.294812,-962.267725,-10214.842000,-2681.334243
372.295134,-2442.679609,-10807.006753,-2145.067394
372.295456,-2368.659014,-11251.130318,-2451.505594
372.295778,-2442.679609,-11621.233289,-2374.896044
372.296100,-2442.679609,-10140.821405,-1838.629195
372.296422,-2516.700203,-8364.327145,-1378.971896
372.296744,-2516.700203,-8216.285956,-536.266849
372.297065,-2442.679609,-7994.224174,-383.047749
372.297387,-2960.823768,-8216.285956,-536.266849
372.297709,-3701.029710,-9400.615463,-536.266849
372.298031,-4145.153275,-10066.800811,153.219100
372.298353,-4663.297435,-10362.883188,306.438199
372.298675,-3923.091493,-9844.739029,229.828649
372.298997,-2072.576638,-9030.512492,-536.266849
372.299318,1036.288319,-8882.471304,-1608.800546
372.299640,2812.782580,-8290.306550,-1762.019645
372.299962,4071.132681,-7772.162391,-1378.971896
372.300284,5107.421000,-7772.162391,-1685.410096
372.300606,5107.421000,-8660.409521,-1838.629195
372.300928,4441.235652,-10362.883188,-2374.896044
372.301250,2294.638420,-10732.986159,-2298.286494
372.301572,0.000000,-10658.965565,-2221.676944
372.301893,-1332.370696,-10584.944971,-2068.457845
372.302215,-1628.453072,-9548.656652,-2221.676944
372.302537,-1110.308913,-8660.409521,-2528.115143
372.302859,-666.185348,-8438.347739,-2145.067394
372.303181,-444.123565,-9030.512492,-1072.533697
372.303503,-592.164754,-9030.512492,0.000000
372.303825,-1258.350101,-9104.533087,-306.438199
372.304147,-1998.556043,-8956.491898,-766.095498
372.304468,-2590.720797,-9474.636058,-1608.800546
372.304790,-3182.885551,-10362.883188,-1762.019645
372.305112,-2664.741391,-10584.944971,-1072.533697
372.305434,-444.123565,-10140.821405,-1762.019645
372.305756,1628.453072,-9844.739029,-1838.629195
372.306078,2960.823768,-9400.615463,536.266849
372.306400,3404.947333,-7920.203579,766.095498
372.306722,3701.029710,-6661.853478,-1762.019645
372.307043,4737.318029,-7402.059420,-3983.696590
372.307365,4959.379811,-9474.636058,-4290.134789
372.307687,2220.617826,-10584.944971,-2834.553343
372.308009,-666.185348,-10584.944971,-612.876398
372.308331,-1850.514855,-10140.821405,76.609550
372.308653,-2220.617826,-10288.862594,-1685.410096
372.308975,-3034.844362,-9400.615463,-3370.820191
372.309296,-3478.967927,-8068.244768,-3064.381992
372.309618,-3108.864956,-7624.121203,-2681.334243
372.309940,-2368.659014,-8660.409521,-2145.067394
372.310262,-1702.473667,-9918.759623,-919.314598
372.310584,-2072.576638,-10140.821405,-612.876398
372.310906,-2664.741391,-10807.006753,-1149.143247
372.311228,-3330.926739,-11843.295072,-1762.019645
372.311550,-4071.132681,-12139.377449,-919.314598
372.311871,-3627.009116,-10436.903782,-995.924147
372.312193,-1998.556043,-9104.533087,-1378.971896
372.312515,1110.308913,-8512.368333,-995.924147
372.312837,3404.947333,-7476.080014,-1072.533697
372.313159,4367.215058,-6883.915261,-1608.800546
372.313481,4737.318029,-6957.935855,-995.924147
372.313803,4441.235652,-7920.203579,-995.924147
372.314125,2812.782580,-9474.636058,-2298.286494
372.314446,148.041188,-9474.636058,-2757.943793
372.314768,-2516.700203,-9474.636058,-1608.800546
372.315090,-3849.070898,-9992.780217,-2221.676944
372.315412,-3552.988522,-9400.615463,-2451.505594
372.315734,-3552.988522,-8438.347739,-2451.505594
372.316056,-3404.947333,-8364.327145,-2374.896044
372.316378,-3108.864956,-9474.636058,-1991.848295
372.316700,-2738.761985,-10584.944971,-1608.800546
372.317021,-2146.597232,-10955.047942,-1225.752797
372.317343,-2294.638420,-10732.986159,-766.095498
372.317665,-2812.782580,-9770.718434,-689.485948
372.317987,-3330.926739,-9548.656652,-612.876398
372.318309,-2664.741391,-8882.471304,-689.485948
372.318631,-370.102971,-8364.327145,-1378.971896
372.318953,2220.617826,-7698.141797,-1685.410096
372.319275,3775.050304,-8142.265362,-306.438199
372.319596,4515.256246,-8364.327145,536.266849
372.319918,4959.379811,-8808.450710,0.000000
372.320240,5477.523971,-9400.615463,-1991.848295
372.320562,5551.544565,-9992.780217,-2374.896044
372.320884,3701.029710,-9844.739029,-1991.848295
372.321206,1332.370696,-8290.306550,-1685.410096
372.321528,0.000000,-9178.553681,-842.705048
372.321849,-814.226536,-10214.842000,-1608.800546
372.322171,-1702.473667,-10881.027347,-2451.505594
372.322493,-2590.720797,-10066.800811,-2451.505594
372.322815,-2738.761985,-9326.594869,-1532.190996
372.323137,-2294.638420,-9400.615463,-1072.533697
372.323459,-2516.700203,-9400.615463,-383.047749
372.323781,-2442.679609,-8956.491898,-306.438199
372.324103,-3182.885551,-9178.553681,-766.095498
372.324424,-3849.070898,-9326.594869,-383.047749
372.324746,-4293.194464,-9474.636058,-229.828649
372.325068,-3330.926739,-9326.594869,-1378.971896
372.325390,-962.267725,-8734.430116,-1762.019645
372.325712,1850.514855,-8956.491898,-1762.019645
372.326034,3849.070898,-8660.409521,-1225.752797
372.326356,4811.338623,-8216.285956,-1149.143247
372.326678,5329.482782,-8290.306550,-1762.019645
372.326999,4515.256246,-9030.512492,-2451.505594
372.327321,2442.679609,-9474.636058,-2604.724693
372.327643,444.123565,-10214.842000,-2757.943793
372.327965,-1480.411884,-10362.883188,-3447.429741
372.328287,-2960.823768,-10732.986159,-2528.115143
372.328609,-3627.009116,-9696.697840,-1991.848295
372.328931,-3997.112087,-9178.553681,-2681.334243
372.329253,-3404.947333,-8438.347739,-2451.505594
372.329574,-2960.823768,-9622.677246,-1532.190996
372.329896,-3404.947333,-10066.800811,-919.314598
372.330218,-3330.926739,-9696.697840,-459.657299
372.330540,-3478.967927,-10436.903782,-919.314598
372.330862,-4219.173869,-11029.068536,-689.485948
372.331184,-4737.318029,-9696.697840,306.438199
372.331506,-3478.967927,-7920.203579,-1302.362347
372.331828,222.061783,-8660.409521,-3447.429741
372.332149,3849.070898,-10510.924376,-2528.115143
372.332471,5033.400406,-10288.862594,153.219100
372.332793,5181.441594,-8364.327145,1915.238745
372.333115,6291.750507,-7254.018232,306.438199
372.333437,6735.874072,-7179.997637,-3140.991542
372.333759,5033.400406,-7698.141797,-4136.915689
372.334081,888.247130,-8290.306550,-2757.943793
372.334402,-2368.659014,-8586.388927,-1838.629195
372.334724,-3627.009116,-9474.636058,-2145.067394
372.335046,-3404.947333,-10807.006753,-2298.286494
372.335368,-3256.906145,-11251.130318,-1838.629195
372.335690,-3478.967927,-9992.780217,-2911.162892
372.336012,-3182.885551,-10066.800811,-2298.286494
372.336334,-3256.906145,-9548.656652,0.000000
372.336656,-3627.009116,-7994.224174,0.000000
372.336977,-3923.091493,-7772.162391,-2145.067394
372.337299,-3478.967927,-9400.615463,-3217.601092
372.337621,-3108.864956,-11177.109724,-1838.629195
372.337943,-2590.720797,-10881.027347,-766.095498
372.338265,-444.123565,-10658.965565,0.000000
372.338587,2368.659014,-10214.842000,995.924147
372.338909,4515.256246,-9178.553681,1378.971896
372.339231,5403.503377,-5921.647536,306.438199
372.339552,6143.709319,-4811.338623,-1608.800546
372.339874,6513.812290,-7105.977043,-3294.210641
372.340196,5477.523971,-9548.656652,-2757.943793
372.340518,2812.782580,-10066.800811,-1149.143247
372.340840,148.041188,-9844.739029,-153.219100
372.341162,-814.226536,-11029.068536,-1149.143247
372.341484,-1628.453072,-11843.295072,-3140.991542
372.341806,-3182.885551,-10066.800811,-4136.915689
372.342127,-4441.235652,-8660.409521,-2987.772442
372.342449,-4145.153275,-8882.471304,-1378.971896
372.342771,-3552.988522,-9770.718434,-1838.629195
372.343093,-2812.782580,-10066.800811,-2145.067394
372.343415,-2738.761985,-10066.800811,-1455.581446
372.343737,-2368.659014,-11399.171507,0.000000
372.344059,-2664.741391,-11325.150913,612.876398
372.344381,-2516.700203,-10140.821405,76.609550
372.344702,-1406.391290,-9030.512492,-766.095498
372.345024,1110.308913,-8364.327145,-1608.800546
372.345346,3108.864956,-8586.388927,-1532.190996
372.345668,4145.153275,-7402.059420,76.609550
372.345990,4811.338623,-6069.688724,1225.752797
372.346312,6291.750507,-7105.977043,-306.438199
372.346634,6883.915261,-8216.285956,-1455.581446
372.346955,5625.565159,-9474.636058,-1838.629195
372.347277,2368.659014,-9474.636058,-2374.896044
372.347599,-518.144159,-9474.636058,-1915.238745
372.347921,-2664.741391,-10214.842000,-2145.067394
372.348243,-3923.091493,-10066.800811,-2604.724693
372.348565,-4589.276840,-9622.677246,-3677.258390
372.348887,-4663.297435,-10066.800811,-3600.648841
372.349209,-3701.029710,-10288.862594,-1991.848295
372.349530,-3552.988522,-9844.739029,-766.095498
372.349852,-3330.926739,-8734.430116,-766.095498
372.350174,-2960.823768,-9178.553681,-1532.190996
372.350496,-3552.988522,-10436.903782,-1532.190996
372.350818,-5107.421000,-9622.677246,-1149.143247
372.351140,-5329.482782,-8956.491898,-842.705048
372.351462,-2516.700203,-8216.285956,-2451.505594
372.351784,962.267725,-9178.553681,-2757.943793
372.352105,3182.885551,-9770.718434,-1225.752797
372.352427,4441.235652,-8882.471304,76.609550
372.352749,5773.606348,-8438.347739,-919.314598
372.353071,6365.771101,-8956.491898,-1915.238745
372.353393,5329.482782,-10436.903782,-2757.943793
372.353715,2220.617826,-10510.924376,-2604.724693
372.354037,-518.144159,-9696.697840,-2757.943793
372.354358,-2146.597232,-9992.780217,-3140.991542
372.354680,-2960.823768,-10732.986159,-2834.553343
372.355002,-3256.906145,-11251.130318,-2987.772442
372.355324,-3330.926739,-10510.924376,-2681.334243
372.355646,-3108.864956,-10214.842000,-842.705048
372.355968,-2738.761985,-9696.697840,689.485948
372.356290,-3034.844362,-8512.368333,-383.047749
372.356612,-3627.009116,-7920.203579,-1302.362347
372.356933,-4663.297435,-8364.327145,-842.705048
372.357255,-5551.544565,-9104.533087,-383.047749
372.357577,-5329.482782,-8660.409521,-995.924147
372.357899,-3108.864956,-8364.327145,-1378.971896
372.358221,-518.144159,-9400.615463,-995.924147
372.358543,2368.659014,-9696.697840,0.000000
372.358865,3701.029710,-8882.471304,229.828649
372.359186,5181.441594,-7772.162391,0.000000
372.359508,6217.729913,-7254.018232,-1991.848295
372.359830,5551.544565,-7328.038826,-2298.286494
372.360152,3552.988522,-8586.388927,-2451.505594
372.360474,1036.288319,-9400.615463,-1302.362347
372.360796,-962.267725,-9622.677246,-1532.190996
372.361118,-1776.494261,-9992.780217,-1991.848295
372.361440,-1258.350101,-10732.986159,-2451.505594
372.361761,-1924.535449,-9178.553681,-1302.362347
372.362083,-1924.535449,-8364.327145,-1302.362347
372.362405,-1850.514855,-8438.347739,-766.095498
372.362727,-1850.514855,-9696.697840,-612.876398
372.363049,-2294.638420,-10066.800811,-1685.410096
372.363371,-2738.761985,-9696.697840,-536.266849
372.363693,-2664.741391,-9918.759623,0.000000
372.364014,-2516.700203,-9844.739029,-153.219100
372.364336,-1480.411884,-9844.739029,-766.095498
372.364658,444.123565,-10362.883188,-1532.190996
372.364980,1998.556043,-10066.800811,-1149.143247
372.365302,3330.926739,-9252.574275,383.047749
372.365624,5033.400406,-7698.141797,-612.876398
372.365946,6957.935855,-7920.203579,-2528.115143
372.366268,7031.956449,-8438.347739,-2757.943793
372.366589,4737.318029,-9474.636058,-1838.629195
372.366911,1036.288319,-9474.636058,-1915.238745
372.367233,-1480.411884,-9918.759623,-1532.190996
372.367555,-2664.741391,-9844.739029,-2604.724693
372.367877,-3404.947333,-10140.821405,-4443.353888
372.368199,-3552.988522,-10807.006753,-3294.210641
372.368521,-3034.844362,-10584.944971,-2145.067394
372.368842,-2368.659014,-9918.759623,-1378.971896
372.369164,-1628.453072,-10066.800811,-1302.362347
372.369486,-1480.411884,-9474.636058,-1225.752797
372.369808,-2294.638420,-9326.594869,-1608.800546
372.370130,-3478.967927,-10066.800811,-1455.581446
372.370452,-4219.173869,-10510.924376,-1225.752797
372.370774,-3256.906145,-10436.903782,-459.657299
372.371096,-1628.453072,-9696.697840,-766.095498
372.371417,814.226536,-8808.450710,0.000000
372.371739,3478.967927,-7846.182985,76.609550
372.372061,4737.318029,-7328.038826,-766.095498
372.372383,5181.441594,-7550.100608,-1838.629195
372.372705,5181.441594,-8068.244768,-1532.190996
372.373027,3034.844362,-8290.306550,-1532.190996
372.373349,148.041188,-9548.656652,-1149.143247
372.373670,-2368.659014,-9622.677246,-2221.676944
372.373992,-2886.803174,-9696.697840,-2757.943793
372.374314,-3627.009116,-9252.574275,-3677.258390
372.374636,-4293.194464,-9474.636058,-2911.162892
372.374958,-4515.256246,-9622.677246,-1991.848295
372.375280,-4737.318029,-8956.491898,-2145.067394
372.375602,-4293.194464,-9696.697840,-2068.457845
372.375924,-4737.318029,-10584.944971,-1838.629195
372.376245,-5477.523971,-11325.150913,-1455.581446
372.376567,-5921.647536,-10584.944971,-153.219100
372.376889,-5847.626942,-9104.533087,459.657299
372.377211,-3923.091493,-8586.388927,0.000000
372.377533,-592.164754,-9252.574275,-1302.362347
372.377855,2960.823768,-8808.450710,-1532.190996
372.378177,4737.318029,-8364.327145,-1072.533697
372.378498,5255.462188,-7846.182985,1149.143247
372.378820,5699.585753,-6957.935855,1991.848295
372.379142,6069.688724,-7476.080014,-1378.971896
372.379464,5107.421000,-7920.203579,-3294.210641
372.379786,3775.050304,-9622.677246,-2528.115143
372.380108,1110.308913,-10362.883188,-1762.019645
372.380430,-370.102971,-10658.965565,-1149.143247
372.380752,-1110.308913,-10288.862594,-1225.752797
372.381073,-1258.350101,-10362.883188,-2451.505594
372.381395,-1702.473667,-9992.780217,-3524.039291
372.381717,-2886.803174,-9622.677246,-3217.601092
372.382039,-3775.050304,-9696.697840,-1762.019645
372.382361,-3775.050304,-9844.739029,-842.705048
372.382683,-3552.988522,-9770.718434,-1378.971896
372.383005,-3182.885551,-10288.862594,-1149.143247
372.383326,-2220.617826,-10807.006753,-1608.800546
372.383648,-1036.288319,-10214.842000,-919.314598
372.383970,148.041188,-9548.656652,-306.438199
372.384292,2220.617826,-8586.388927,-689.485948
372.384614,4589.276840,-8734.430116,-153.219100
372.384936,5551.544565,-8142.265362,-153.219100
372.385258,5847.626942,-7031.956449,-383.047749
372.385580,6735.874072,-6809.894666,-1149.143247
372.385901,6587.832884,-8142.265362,-1838.629195
372.386223,5181.441594,-9918.759623,-1455.581446
372.386545,2442.679609,-10066.800811,-536.266849
372.386867,74.020594,-9548.656652,-1225.752797
372.387189,-1036.288319,-9770.718434,-2757.943793
372.387511,-1702.473667,-9918.759623,-3677.258390
372.387833,-2812.782580,-9548.656652,-3753.867940
372.388154,-3701.029710,-9178.553681,-2757.943793
372.388476,-3923.091493,-9770.718434,-1685.410096
372.388798,-3997.112087,-11325.150913,-1149.143247
372.389120,-4737.318029,-11547.212695,-1225.752797
372.389442,-5255.462188,-10658.965565,-1378.971896
372.389764,-5403.503377,-11103.089130,-1685.410096
372.390086,-5403.503377,-10732.986159,-612.876398
372.390408,-5255.462188,-9622.677246,-383.047749
372.390729,-3627.009116,-8660.409521,-689.485948
372.391051,-444.123565,-8142.265362,-383.047749
372.391373,2220.617826,-8364.327145,-995.924147
372.391695,3256.906145,-7476.080014,-919.314598
372.392017,3997.112087,-7550.100608,-229.828649
372.392339,3997.112087,-8142.265362,76.609550
372.392661,3552.988522,-9252.574275,-995.924147
372.392982,1702.473667,-10214.842000,-2528.115143
372.393304,-296.082377,-10510.924376,-2911.162892
372.393626,-1332.370696,-10066.800811,-2145.067394
372.393948,-2442.679609,-9104.533087,-2451.505594
372.394270,-2664.741391,-8586.388927,-1302.362347
372.394592,-2738.761985,-8512.368333,-1378.971896
372.394914,-2442.679609,-8512.368333,-2374.896044
372.395236,-3627.009116,-9252.574275,-2987.772442
372.395557,-4663.297435,-10066.800811,-1455.581446
372.395879,-5921.647536,-10140.821405,-842.705048
372.396201,-6587.832884,-10436.903782,-1762.019645
372.396523,-6513.812290,-11177.109724,-1378.971896
372.396845,-5477.523971,-10436.903782,-919.314598
372.397167,-3552.988522,-9030.512492,-1838.629195
372.397489,-222.061783,-7920.203579,-1378.971896
372.397810,3330.926739,-7846.182985,-459.657299
372.398132,5995.668130,-7402.059420,-536.266849
372.398454,7031.956449,-6809.894666,-229.828649
372.398776,7402.059420,-7698.141797,-306.438199
372.399098,7105.977043,-9030.512492,-1225.752797
372.399420,5625.565159,-9770.718434,-1915.238745
372.399742,3849.070898,-9770.718434,-1685.410096
372.400064,2368.659014,-10066.800811,-1991.848295
372.400385,1776.494261,-10436.903782,-2068.457845
372.400707,666.185348,-10066.800811,-2068.457845
372.401029,74.020594,-9622.677246,-1991.848295
372.401351,0.000000,-8364.327145,-1991.848295
372.401673,-1110.308913,-9326.594869,-2528.115143
372.401995,-2886.803174,-11029.068536,-1225.752797
372.402317,-4663.297435,-10807.006753,-459.657299
372.402638,-4737.318029,-9770.718434,-1608.800546
372.402960,-3256.906145,-10881.027347,-2451.505594
372.403282,-2368.659014,-11029.068536,-766.095498
372.403604,-1924.535449,-9918.759623,-229.828649
372.403926,-592.164754,-8734.430116,-229.828649
372.404248,2516.700203,-8956.491898,76.609550
372.404570,4885.359217,-8734.430116,0.000000
372.404892,4737.318029,-6291.750507,-536.266849
372.405213,4737.318029,-5921.647536,-1302.362347
372.405535,4737.318029,-8438.347739,-1685.410096
372.405857,3997.112087,-10584.944971,-1608.800546
372.406179,1850.514855,-10732.986159,-1225.752797
372.406501,-518.144159,-9326.594869,-1225.752797
372.406823,-1702.473667,-8882.471304,-2834.553343
372.407145,-2146.597232,-9548.656652,-2987.772442
372.407466,-3256.906145,-9770.718434,-2681.334243
372.407788,-4737.318029,-8660.409521,-2451.505594
372.408110,-4737.318029,-8956.491898,-1685.410096
372.408432,-4663.297435,-10584.944971,-1838.629195
372.408754,-5107.421000,-11177.109724,-995.924147
372.409076,-4885.359217,-10436.903782,-1072.533697
372.409398,-4293.194464,-10288.862594,-1455.581446
372.409720,-3478.967927,-10881.027347,-612.876398
372.410041,-3923.091493,-9622.677246,1149.143247
372.410363,-2886.803174,-7772.162391,229.828649
372.410685,-740.205942,-7105.977043,-995.924147
372.411007,1480.411884,-7846.182985,-1608.800546
372.411329,2590.720797,-7476.080014,-1072.533697
372.411651,3330.926739,-7402.059420,-842.705048
372.411973,4293.194464,-8882.471304,-919.314598
372.412294,3849.070898,-10436.903782,-1149.143247
372.412616,2368.659014,-11177.109724,-2068.457845
372.412938,518.144159,-10955.047942,-2451.505594
372.413260,-888.247130,-10436.903782,-2681.334243
372.413582,-1628.453072,-9696.697840,-2911.162892
372.413904,-1998.556043,-9252.574275,-3064.381992
372.414226,-2368.659014,-9474.636058,-2298.286494
372.414548,-2590.720797,-9178.553681,-1532.190996
372.414869,-3330.926739,-9178.553681,-1149.143247
372.415191,-3775.050304,-9918.759623,-1302.362347
372.415513,-3404.947333,-10362.883188,-1608.800546
372.415835,-2886.803174,-10510.924376,-1685.410096
372.416157,-2738.761985,-9696.697840,-766.095498
372.416479,-2590.720797,-8438.347739,229.828649
372.416801,-1406.391290,-7920.203579,-459.657299
372.417122,1036.288319,-7476.080014,-2221.676944
372.417444,3404.947333,-8142.265362,-2681.334243
372.417766,4737.318029,-9548.656652,-1608.800546
372.418088,5625.565159,-10362.883188,-459.657299
372.418410,6439.791695,-10066.800811,229.828649
372.418732,7105.977043,-9326.594869,-536.266849
372.419054,5625.565159,-8438.347739,-1762.019645
372.419376,3552.988522,-8586.388927,-2681.334243
372.419697,1480.411884,-8364.327145,-3064.381992
372.420019,0.000000,-8956.491898,-3064.381992
372.420341,-1480.411884,-9252.574275,-2987.772442
372.420663,-2146.597232,-10214.842000,-2451.505594
372.420985,-3182.885551,-9992.780217,-1455.581446
372.421307,-3997.112087,-9326.594869,-1685.410096
372.421629,-4663.297435,-9474.636058,-2374.896044
372.421950,-4885.359217,-9992.780217,-2528.115143
372.422272,-4885.359217,-10436.903782,-2757.943793
372.422594,-4737.318029,-10732.986159,-2451.505594
372.422916,-4293.194464,-11325.150913,-842.705048
372.423238,-3627.009116,-11251.130318,459.657299
372.423560,-1406.391290,-9770.718434,-842.705048
372.423882,1406.391290,-9104.533087,-2374.896044
372.424204,3330.926739,-9622.677246,-919.314598
372.424525,4145.153275,-8438.347739,689.485948
372.424847,4737.318029,-6365.771101,919.314598
372.425169,5921.647536,-5699.585753,-306.438199
372.425491,6513.812290,-7846.182985,-1608.800546
372.425813,4959.379811,-9918.759623,-1532.190996
372.426135,1332.370696,-9918.759623,-842.705048
372.426457,-814.226536,-10362.883188,0.000000
372.426778,-1406.391290,-10732.986159,-306.438199
372.427100,-1924.535449,-9400.615463,-1915.238745
372.427422,-3627.009116,-7550.100608,-2451.505594
372.427744,-3849.070898,-7772.162391,-2298.286494
372.428066,-4589.276840,-9252.574275,-1532.190996
372.428388,-5477.523971,-10066.800811,-1991.848295
372.428710,-6291.750507,-10214.842000,-1685.410096
372.429032,-6217.729913,-11029.068536,-1149.143247
372.429353,-6587.832884,-11547.212695,-1532.190996
372.429675,-6809.894666,-11029.068536,-1225.752797
372.429997,-5699.585753,-8364.327145,-919.314598
372.430319,-2516.700203,-7179.997637,-1532.190996
372.430641,1554.432478,-7920.203579,-2068.457845
372.430963,4367.215058,-7846.182985,-1378.971896
372.431285,5255.462188,-7698.141797,-229.828649
372.431606,6439.791695,-8734.430116,459.657299
372.431928,7105.977043,-9474.636058,842.705048
372.432250,6291.750507,-10066.800811,-1072.533697
372.432572,4367.215058,-9696.697840,-2757.943793
372.432894,2590.720797,-10436.903782,-2298.286494
372.433216,1406.391290,-10658.965565,-1991.848295
372.433538,962.267725,-9622.677246,-2757.943793
372.433860,1332.370696,-9696.697840,-2451.505594
372.434181,814.226536,-9622.677246,-1915.238745
372.434503,-148.041188,-9548.656652,-1455.581446
372.434825,-2886.803174,-10214.842000,-1378.971896
372.435147,-4219.173869,-10658.965565,-766.095498
372.435469,-5181.441594,-10436.903782,-1838.629195
372.435791,-5551.544565,-9696.697840,-2374.896044
372.436113,-5625.565159,-9326.594869,-1302.362347
372.436434,-4071.132681,-9548.656652,-1532.190996
372.436756,-1702.473667,-9474.636058,-2298.286494
372.437078,1554.432478,-9326.594869,-1838.629195
372.437400,3923.091493,-9252.574275,-383.047749
372.437722,4663.297435,-8216.285956,229.828649
372.438044,4367.215058,-7402.059420,153.219100
372.438366,3478.967927,-7254.018232,-1378.971896
372.438688,2590.720797,-8882.471304,-2987.772442
372.439009,1184.329507,-9696.697840,-3830.477490
372.439331,0.000000,-9104.533087,-2451.505594
372.439653,-814.226536,-8660.409521,-842.705048
372.439975,-888.247130,-9622.677246,-1532.190996
372.440297,-666.185348,-10362.883188,-2298.286494
372.440619,-1850.514855,-9696.697840,-2298.286494
372.440941,-2738.761985,-9252.574275,-1225.752797
372.441262,-3552.988522,-9178.553681,-612.876398
372.441584,-4737.318029,-8438.347739,-383.047749
372.441906,-4737.318029,-8438.347739,-1302.362347
372.442228,-3997.112087,-9400.615463,-1532.190996
372.442550,-3627.009116,-10362.883188,-1532.190996
372.442872,-2738.761985,-10584.944971,-229.828649
372.443194,-1036.288319,-9400.615463,-766.095498
372.443516,592.164754,-8438.347739,-1149.143247
372.443837,2368.659014,-8660.409521,-842.705048
372.444159,2516.700203,-8142.265362,-536.266849
372.444481,2442.679609,-7179.997637,-612.876398
372.444803,2886.803174,-6809.894666,-2221.676944
372.445125,2886.803174,-8142.265362,-2681.334243
372.445447,1850.514855,-11103.089130,-2757.943793
372.445769,0.000000,-11473.192101,-1991.848295
372.446091,-1258.350101,-11029.068536,-1685.410096
372.446413,-1110.308913,-10955.047942,-1685.410096
372.446734,-1110.308913,-10881.027347,-2604.724693
372.447056,-2368.659014,-9400.615463,-2604.724693
372.447378,-3330.926739,-8364.327145,-1608.800546
372.447700,-2960.823768,-8956.491898,-459.657299
372.448022,-2368.659014,-9918.759623,-1149.143247
372.448344,-1850.514855,-10140.821405,-1149.143247
372.448666,-2368.659014,-10214.842000,-306.438199
372.448988,-2590.720797,-9918.759623,1302.362347
372.449310,-2590.720797,-9104.533087,383.047749
372.449631,-1480.411884,-8364.327145,-1378.971896
372.449953,74.020594,-7994.224174,-1991.848295
372.450275,2368.659014,-8216.285956,-1762.019645
372.450597,3775.050304,-8586.388927,-1532.190996
372.450919,4663.297435,-8808.450710,-842.705048
372.451241,5403.503377,-9252.574275,-919.314598
372.451563,5403.503377,-10436.903782,-2068.457845
372.451885,4145.153275,-10658.965565,-1762.019645
372.452206,2146.597232,-10362.883188,-2757.943793
372.452528,296.082377,-9992.780217,-3140.991542
372.452850,-592.164754,-9400.615463,-3447.429741
372.453172,-814.226536,-9326.594869,-2911.162892
372.453494,-1332.370696,-9844.739029,-2451.505594
372.453816,-1702.473667,-9992.780217,-2068.457845
372.454138,-2442.679609,-9992.780217,-919.314598
372.454460,-3108.864956,-10436.903782,-229.828649
372.454782,-3404.947333,-9918.759623,-153.219100
372.455103,-3478.967927,-9474.636058,-919.314598
372.455425,-3775.050304,-9622.677246,-766.095498
372.455747,-3923.091493,-9030.512492,-383.047749
372.456069,-3849.070898,-8364.327145,-689.485948
372.456391,-1850.514855,-8956.491898,-1762.019645
372.456713,370.102971,-9622.677246,-1072.533697
372.457035,1850.514855,-8882.471304,-536.266849
372.457357,3256.906145,-7698.141797,-1455.581446
372.457679,4885.359217,-8142.265362,-2068.457845
372.458000,5403.503377,-9696.697840,-1991.848295
372.458322,4219.173869,-9844.739029,-1762.019645
372.458644,2146.597232,-9622.677246,-1072.533697
372.458966,-444.123565,-9474.636058,-1378.971896
372.459288,-1850.514855,-10510.924376,-1838.629195
372.459610,-3256.906145,-9992.780217,-2068.457845
372.459932,-4145.153275,-8512.368333,-2374.896044
372.460254,-3997.112087,-7698.141797,-1455.581446
372.460575,-3552.988522,-7994.224174,-689.485948
372.460897,-2664.741391,-9178.553681,-612.876398
372.461219,-3256.906145,-8586.388927,-153.219100
372.461541,-3404.947333,-8734.430116,-153.219100
372.461863,-3552.988522,-9696.697840,-689.485948
372.462185,-4293.194464,-9918.759623,-1378.971896
372.462507,-5329.482782,-9770.718434,-919.314598
372.462829,-4515.256246,-9474.636058,-1532.190996
372.463151,-1850.514855,-8882.471304,-2221.676944
372.463472,888.247130,-8660.409521,-2451.505594
372.463794,2738.761985,-7920.203579,-1532.190996
372.464116,3775.050304,-8068.244768,-1608.800546
372.464438,4663.297435,-9252.574275,-2068.457845
372.464760,4737.318029,-10658.965565,-2374.896044
372.465082,3256.906145,-11547.212695,-2068.457845
372.465404,1110.308913,-10732.986159,-2451.505594
372.465726,0.000000,-9992.780217,-2374.896044
372.466048,0.000000,-10362.883188,-1991.848295
372.466369,592.164754,-9844.739029,-1608.800546
372.466691,444.123565,-9178.553681,-1302.362347
372.467013,740.205942,-8734.430116,-766.095498
372.467335,518.144159,-9252.574275,459.657299
372.467657,-592.164754,-9548.656652,536.266849
372.467979,-2146.597232,-9252.574275,-1072.533697
372.468301,-2812.782580,-10362.883188,-1838.629195
372.468623,-2960.823768,-11177.109724,-1072.533697
372.468944,-3256.906145,-10140.821405,-536.266849
372.469266,-2664.741391,-9400.615463,-612.876398
372.469588,74.020594,-8956.491898,-1532.190996
372.469910,2664.741391,-9474.636058,-1225.752797
372.470232,4219.173869,-8660.409521,-1302.362347
372.470554,4663.297435,-7550.100608,-1149.143247
372.470876,5403.503377,-7402.059420,-1225.752797
372.471198,4959.379811,-8586.388927,-2068.457845
372.471520,2368.659014,-9844.739029,-1838.629195
372.471841,-518.144159,-9474.636058,-1608.800546
372.472163,-1850.514855,-9104.533087,-2145.067394
372.472485,-1850.514855,-10066.800811,-3217.601092
372.472807,-1480.411884,-10584.944971,-1762.019645
372.473129,-2368.659014,-8808.450710,-229.828649
372.473451,-2886.803174,-7994.224174,-689.485948
372.473773,-3330.926739,-8290.306550,-612.876398
372.474095,-3182.885551,-9622.677246,-919.314598
372.474417,-3627.009116,-9992.780217,-2528.115143
372.474738,-3775.050304,-9696.697840,-1455.581446
372.475060,-3627.009116,-10140.821405,0.000000
372.475382,-3478.967927,-11325.150913,306.438199
372.475704,-2590.720797,-11251.130318,-229.828649
372.476026,-888.247130,-9474.636058,-2068.457845
372.476348,888.247130,-8290.306550,-1455.581446
372.476670,2960.823768,-8068.244768,-766.095498
372.476992,3775.050304,-6809.894666,-995.924147
372.477313,4145.153275,-6883.915261,-2145.067394
372.477635,4663.297435,-9178.553681,-2221.676944
372.477957,4145.153275,-11029.068536,-2298.286494
372.478279,1998.556043,-11399.171507,-2528.115143
372.478601,-666.185348,-10436.903782,-2374.896044
372.478923,-2590.720797,-9918.759623,-2145.067394
372.479245,-3478.967927,-10362.883188,-2604.724693
372.479567,-3849.070898,-9252.574275,-3370.820191
372.479889,-3849.070898,-8216.285956,-3370.820191
372.480210,-3182.885551,-8068.244768,-2221.676944
372.480532,-3478.967927,-9252.574275,-995.924147
372.480854,-3404.947333,-10066.800811,-689.485948
372.481176,-3256.906145,-10362.883188,-842.705048
372.481498,-2960.823768,-11399.171507,-689.485948
372.481820,-3330.926739,-10584.944971,689.485948
372.482142,-3627.009116,-8216.285956,153.219100
372.482464,-2294.638420,-7031.956449,-1532.190996
372.482786,0.000000,-7698.141797,-2145.067394
372.483107,2294.638420,-8364.327145,-306.438199
372.483429,3034.844362,-7179.997637,0.000000
372.483751,3775.050304,-6883.915261,-612.876398
372.484073,5033.400406,-8216.285956,-1608.800546
372.484395,4885.359217,-9844.739029,-2757.943793
372.484717,2960.823768,-11029.068536,-2757.943793
372.485039,0.000000,-11029.068536,-2451.505594
372.485361,-2146.597232,-10362.883188,-2298.286494
372.485682,-2960.823768,-9696.697840,-3217.601092
372.486004,-3108.864956,-9696.697840,-3140.991542
372.486326,-2886.803174,-10140.821405,-3370.820191
372.486648,-2590.720797,-9918.759623,-2528.115143
372.486970,-3256.906145,-9474.636058,-229.828649
372.487292,-3627.009116,-9844.739029,842.705048
372.487614,-3849.070898,-9474.636058,0.000000
372.487936,-4589.276840,-9178.553681,-1685.410096
372.488258,-5477.523971,-10436.903782,-1149.143247
372.488579,-6661.853478,-9622.677246,306.438199
372.488901,-6587.832884,-7846.182985,306.438199
372.489223,-4441.235652,-7105.977043,-1915.238745
372.489545,-1184.329507,-8438.347739,-2221.676944
372.489867,814.226536,-9326.594869,-1991.848295
372.490189,1702.473667,-9474.636058,-1762.019645
372.490511,1924.535449,-9474.636058,-2068.457845
372.490833,2738.761985,-10807.006753,-2681.334243
372.491155,2146.597232,-11843.295072,-3370.820191
372.491476,-296.082377,-11621.233289,-2834.553343
372.491798,-3108.864956,-10510.924376,-2451.505594
372.492120,-4367.215058,-9326.594869,-2374.896044
372.492442,-5847.626942,-9030.512492,-2911.162892
372.492764,-7105.977043,-8142.265362,-2834.553343
372.493086,-7550.100608,-7624.121203,-2298.286494
372.493408,-7402.059420,-7772.162391,-2221.676944
372.493730,-6883.915261,-9104.533087,76.609550
372.494051,-6143.709319,-8808.450710,-229.828649
372.494373,-5403.503377,-8512.368333,-842.705048
372.494695,-4219.173869,-9178.553681,-1455.581446
372.495017,-2812.782580,-9844.739029,-1302.362347
372.495339,-1702.473667,-9992.780217,-766.095498
372.495661,-1924.535449,-10584.944971,-689.485948
372.495983,-1850.514855,-10436.903782,-383.047749
372.496305,-2072.576638,-9622.677246,-995.924147
372.496627,-2072.576638,-9400.615463,-2374.896044
372.496948,-1480.411884,-9548.656652,-2451.505594
372.497270,-2220.617826,-9178.553681,-2374.896044
372.497592,-2738.761985,-8734.430116,-1915.238745
372.497914,-2590.720797,-9030.512492,-1378.971896
372.498236,-2294.638420,-8586.388927,-1378.971896
372.498558,-1850.514855,-7920.203579,-1991.848295
372.498880,-2442.679609,-7550.100608,-2451.505594
372.499202,-2886.803174,-8142.265362,-2374.896044
372.499524,-3997.112087,-9252.574275,-2528.115143
372.499845,-4663.297435,-10881.027347,-1838.629195
372.500167,-5329.482782,-10658.965565,-1149.143247
372.500489,-6513.812290,-9326.594869,-1608.800546
372.500811,-6513.812290,-8808.450710,-2528.115143
372.501133,-6069.688724,-9030.512492,-2987.772442
372.501455,-4737.318029,-9030.512492,-2604.724693
372.501777,-3034.844362,-9474.636058,-1915.238745
372.502099,-962.267725,-9474.636058,-842.705048
372.502420,444.123565,-9474.636058,0.000000
372.502742,1702.473667,-9178.553681,-459.657299
372.503064,2368.659014,-8882.471304,-766.095498
372.503386,2294.638420,-8438.347739,-1378.971896
372.503708,888.247130,-8364.327145,-2298.286494
372.504030,-222.061783,-9252.574275,-1072.533697
372.504352,-2368.659014,-10066.800811,-995.924147
372.504674,-4663.297435,-11399.171507,-1225.752797
372.504996,-6587.832884,-11621.233289,-1532.190996
372.505317,-8290.306550,-11029.068536,-1532.190996
372.505639,-9400.615463,-9548.656652,-1685.410096
372.505961,-9918.759623,-7698.141797,-2298.286494
372.506283,-9400.615463,-6439.791695,-2757.943793
372.506605,-7994.224174,-6513.812290,-3753.867940
372.506927,-6439.791695,-7920.203579,-3907.087040
372.507249,-4885.359217,-10066.800811,-2604.724693
372.507571,-3923.091493,-11399.171507,-1455.581446
372.507893,-2294.638420,-12287.418637,-1149.143247
372.508214,0.000000,-11769.274478,-1225.752797
372.508536,1776.494261,-10066.800811,-2145.067394
372.508858,2516.700203,-8364.327145,-2374.896044
372.509180,1850.514855,-6217.729913,-1378.971896
372.509502,518.144159,-5329.482782,-1685.410096
372.509824,-1184.329507,-5921.647536,-2145.067394
372.510146,-3627.009116,-8364.327145,-2221.676944
372.510468,-6069.688724,-10658.965565,-1532.190996
372.510789,-7624.121203,-12361.439231,-1532.190996
372.511111,-7698.141797,-13175.665768,-612.876398
372.511433,-7254.018232,-12287.418637,-536.266849
372.511755,-6883.915261,-11029.068536,-612.876398
372.512077,-5773.606348,-8660.409521,-536.266849
372.512399,-4589.276840,-5773.606348,-919.314598
372.512721,-3034.844362,-3997.112087,-2528.115143
372.513043,-1406.391290,-4441.235652,-3064.381992
372.513365,-666.185348,-6291.750507,-2911.162892
372.513686,-222.061783,-8660.409521,-3140.991542
372.514008,222.061783,-12065.356855,-3294.210641
372.514330,888.247130,-15544.324782,-2221.676944
372.514652,370.102971,-15100.201217,-689.485948
372.514974,-444.123565,-11991.336260,-919.314598
372.515296,-1258.350101,-10288.862594,-1378.971896
372.515618,-2516.700203,-10584.944971,-1072.533697
372.515940,-5033.400406,-8956.491898,-306.438199
372.516262,-7254.018232,-6661.853478,-689.485948
372.516583,-8290.306550,-6661.853478,-1378.971896
372.516905,-7772.162391,-7624.121203,-1225.752797
372.517227,-6883.915261,-8216.285956,-1991.848295
372.517549,-5403.503377,-8290.306550,-2834.553343
372.517871,-3478.967927,-8882.471304,-1915.238745
372.518193,-1998.556043,-9178.553681,-1762.019645
372.518515,-1702.473667,-8808.450710,-2221.676944
372.518837,-2886.803174,-9178.553681,-2604.724693
372.519158,-3923.091493,-10732.986159,-3677.258390
372.519480,-3997.112087,-13175.665768,-3753.867940
372.519802,-3627.009116,-14878.139434,-2834.553343
372.520124,-3182.885551,-14656.077652,383.047749
372.520446,-1258.350101,-12657.521608,2757.943793
372.520768,1628.453072,-10732.986159,2604.724693
372.521090,3478.967927,-10214.842000,1838.629195
372.521412,3552.988522,-9400.615463,3217.601092
372.521734,962.267725,-6957.935855,4290.134789
372.522055,-2072.576638,-4737.318029,5286.058936
372.522377,-4811.338623,-3108.864956,4903.011187
372.522699,-7550.100608,-1554.432478,3064.381992
372.523021,-8364.327145,-1480.411884,-1302.362347
372.523343,-8956.491898,-3552.988522,-4290.134789
372.523665,-8364.327145,-5403.503377,-4136.915689
372.523987,-7624.121203,-7476.080014,-3447.429741
372.524309,-6439.791695,-11473.192101,-3677.258390
372.524630,-5551.544565,-14952.160028,-4443.353888
372.524952,-6069.688724,-15692.365970,-4903.011187
372.525274,-5773.606348,-16432.571912,-5209.449386
372.525596,-4145.153275,-15544.324782,-4060.306139
372.525918,-2368.659014,-12731.542202,-2068.457845
372.526240,-1998.556043,-9918.759623,842.705048
372.526562,-1998.556043,-7402.059420,3753.867940
372.526884,-1702.473667,-5699.585753,4443.353888
372.527206,-592.164754,-4071.132681,2374.896044
372.527527,0.000000,-4737.318029,1302.362347
372.527849,-888.247130,-6291.750507,3064.381992
372.528171,-1554.432478,-7476.080014,3830.477490
372.528493,-370.102971,-9252.574275,1915.238745
372.528815,2516.700203,-9622.677246,153.219100
372.529137,3552.988522,-8142.265362,-1762.019645
372.529459,3034.844362,-9474.636058,-2757.943793
372.529781,2146.597232,-14359.995275,-2374.896044
372.530103,1036.288319,-17320.819043,-2221.676944
372.530424,148.041188,-16950.716072,-3600.648841
372.530746,1406.391290,-16580.613101,-3064.381992
372.531068,2516.700203,-16062.468941,-1378.971896
372.531390,1924.535449,-12879.583391,-536.266849
372.531712,74.020594,-9030.512492,1915.238745
372.532034,-666.185348,-6587.832884,4443.353888
372.532356,-592.164754,-4737.318029,3830.477490
372.532678,-370.102971,-2738.761985,536.266849
372.532999,-222.061783,-1776.494261,612.876398
372.533321,814.226536,-1998.556043,1838.629195
372.533643,2368.659014,-4515.256246,1838.629195
372.533965,1554.432478,-7698.141797,2681.334243
372.534287,1110.308913,-9474.636058,1378.971896
372.534609,888.247130,-12509.480420,-2757.943793
372.534931,1184.329507,-13841.851115,-4749.792088
372.535253,0.000000,-13249.686362,-3370.820191
372.535575,-1924.535449,-13767.830521,-1991.848295
372.535896,-2516.700203,-15618.345376,153.219100
372.536218,-2812.782580,-15618.345376,1225.752797
372.536540,-3478.967927,-13693.809927,1149.143247
372.536862,-3404.947333,-12139.377449,2528.115143
372.537184,-3256.906145,-10807.006753,4903.011187
372.537506,-4219.173869,-8290.306550,6588.421283
372.537828,-4219.173869,-6069.688724,6741.640382
372.538150,-3552.988522,-5477.523971,6588.421283
372.538472,-3627.009116,-5921.647536,5822.325785
372.538793,-3478.967927,-6069.688724,5132.839837
372.539115,-740.205942,-6661.853478,3983.696590
372.539437,2146.597232,-5921.647536,2528.115143
372.539759,3775.050304,-3552.988522,2221.676944
372.540081,3997.112087,-2590.720797,1532.190996
372.540403,3997.112087,-6809.894666,-1991.848295
372.540725,2960.823768,-11325.150913,-4903.011187
372.541047,-888.247130,-15174.221811,-4366.744339
372.541368,-5995.668130,-17912.983796,-1072.533697
372.541690,-10140.821405,-19393.395680,1608.800546
372.542012,-11991.336260,-18061.024985,1532.190996
372.542334,-11325.150913,-13767.830521,1378.971896
372.542656,-9548.656652,-9844.739029,1838.629195
372.542978,-7105.977043,-9622.677246,4060.306139
372.543300,-5255.462188,-9326.594869,6741.640382
372.543622,-4219.173869,-7550.100608,9806.022374
372.543944,-1184.329507,-2960.823768,12410.747068
372.544265,1998.556043,0.000000,9959.241474
372.544587,6513.812290,-296.082377,4060.306139
372.544909,9474.636058,-1702.473667,229.828649
372.545231,9622.677246,-4145.153275,1455.581446
372.545553,7772.162391,-7846.182985,4290.134789
372.545875,5403.503377,-15470.304188,5975.544884
372.546196,2146.597232,-20133.601622,1991.848295
372.546518,-1406.391290,-19171.333898,-3447.429741
372.546840,-3923.091493,-17468.860231,-4443.353888
372.547162,-4219.173869,-16728.654289,-1838.629195
372.547483,-4367.215058,-11325.150913,76.609550
372.547805,-4811.338623,-4515.256246,153.219100
372.548127,-3849.070898,-4219.173869,1762.019645
372.548449,-2220.617826,-7254.018232,3600.648841
372.548770,-3404.947333,-6809.894666,2145.067394
372.549092,-4293.194464,-5477.523971,2451.505594
372.549414,-1110.308913,-7105.977043,4519.963438
372.549736,2960.823768,-9474.636058,6435.202183
372.550057,3330.926739,-8290.306550,7507.735880
372.550379,4737.318029,-3256.906145,5745.716235
372.550701,9548.656652,-3330.926739,-1225.752797
372.551023,12287.418637,-5773.606348,-6128.763984
372.551344,8512.368333,-7698.141797,-4290.134789
372.551666,2146.597232,-10288.862594,153.219100
372.551988,-2146.597232,-17320.819043,459.657299
372.552310,-4145.153275,-20947.828159,-2451.505594
372.552631,-6439.791695,-19097.313304,-6894.859482
372.552953,-5329.482782,-15988.448347,-7890.783629
372.553275,-3108.864956,-12879.583391,-4290.134789
372.553597,-2294.638420,-10584.944971,-995.924147
372.553919,-1998.556043,-9400.615463,2757.943793
372.554240,0.000000,-7179.997637,5132.839837
372.554562,888.247130,-6661.853478,919.314598
372.554884,888.247130,-8882.471304,-766.095498
372.555206,1184.329507,-7402.059420,3217.601092
372.555527,2664.741391,-4737.318029,2757.943793
372.555849,5033.400406,-6143.709319,-306.438199
372.556171,6587.832884,-9548.656652,1455.581446
372.556493,2664.741391,-10807.006753,2451.505594
372.556814,-5255.462188,-11103.089130,1455.581446
372.557136,-10584.944971,-11177.109724,1302.362347
372.557458,-11325.150913,-10362.883188,-3370.820191
372.557780,-10584.944971,-9252.574275,-10265.679673
372.558101,-10881.027347,-9622.677246,-9346.365076
372.558423,-9918.759623,-12509.480420,-2068.457845
372.558745,-7402.059420,-13471.748144,0.000000
372.559067,-3849.070898,-13767.830521,-306.438199
372.559388,-1850.514855,-14359.995275,1608.800546
372.559710,-888.247130,-11843.295072,2528.115143
372.560032,962.267725,-6439.791695,2834.553343
372.560354,5033.400406,-962.267725,1072.533697
372.560676,9622.677246,592.164754,1302.362347
372.560997,12287.418637,-370.102971,4979.620737
372.561319,9548.656652,-3552.988522,8273.831378
372.561641,5403.503377,-7254.018232,8656.879127
372.561963,1406.391290,-11177.109724,6894.859482
372.562284,-1480.411884,-13545.768739,2834.553343
372.562606,-3404.947333,-13693.809927,-153.219100
372.562928,-3701.029710,-11029.068536,-153.219100
372.563250,-2812.782580,-8808.450710,-306.438199
372.563571,-2294.638420,-8364.327145,1608.800546
372.563893,-2812.782580,-9030.512492,2451.505594
372.564215,-4441.235652,-9622.677246,306.438199
372.564537,-5847.626942,-11251.130318,-2451.505594
372.564858,-6365.771101,-13767.830521,-1838.629195
372.565180,-5033.400406,-12583.501014,0.000000
372.565502,-2812.782580,-9770.718434,1072.533697
372.565824,-962.267725,-8290.306550,1608.800546
372.566145,444.123565,-8660.409521,2221.676944
372.566467,888.247130,-9474.636058,2987.772442
372.566789,1850.514855,-8808.450710,2298.286494
372.567111,3849.070898,-8364.327145,1149.143247
372.567433,6069.688724,-7772.162391,306.438199
372.567754,7105.977043,-7920.203579,1302.362347
372.568076,5847.626942,-8734.430116,3140.991542
372.568398,3108.864956,-9548.656652,3064.381992
372.568720,296.082377,-10658.965565,-689.485948
372.569041,-1850.514855,-13101.645173,-2681.334243
372.569363,-3552.988522,-14211.954086,-2911.162892
372.569685,-4071.132681,-13619.789333,-2221.676944
372.570007,-1924.535449,-12065.356855,-919.314598
372.570328,1036.288319,-11399.171507,306.438199
372.570650,2442.679609,-10140.821405,536.266849
372.570972,1850.514855,-9252.574275,766.095498
372.571294,0.000000,-8956.491898,0.000000
372.571615,-1554.432478,-9030.512492,-459.657299
372.571937,-2146.597232,-8956.491898,0.000000
372.572259,-1628.453072,-8290.306550,76.609550
372.572581,-296.082377,-7105.977043,-766.095498
372.572902,814.226536,-7476.080014,-1455.581446
372.573224,1406.391290,-8364.327145,-153.219100
372.573546,666.185348,-8364.327145,1149.143247
372.573868,-666.185348,-8882.471304,-766.095498
372.574189,-2146.597232,-8808.450710,-2374.896044
372.574511,-2738.761985,-8512.368333,-3447.429741
372.574833,-3256.906145,-7920.203579,-4673.182538
372.575155,-3923.091493,-7476.080014,-4443.353888
372.575477,-3552.988522,-7994.224174,-4136.915689
372.575798,-3997.112087,-9104.533087,-4060.306139
372.576120,-3923.091493,-10955.047942,-3524.039291
372.576442,-3256.906145,-12509.480420,-2987.772442
372.576764,-2072.576638,-12213.398043,-2451.505594
372.577085,-740.205942,-10510.924376,-919.314598
372.577407,74.020594,-8956.491898,-383.047749
372.577729,814.226536,-7031.956449,0.000000
372.578051,1628.453072,-6069.688724,-842.705048
372.578372,2368.659014,-7031.956449,-1838.629195
372.578694,1924.535449,-8142.265362,-1915.238745
372.579016,1776.494261,-9030.512492,-689.485948
372.579338,1110.308913,-8364.327145,-306.438199
372.579659,1480.411884,-8290.306550,-1302.362347
372.579981,1924.535449,-9622.677246,-2604.724693
372.580303,888.247130,-10584.944971,-3217.601092
372.580625,-962.267725,-9844.739029,-3447.429741
372.580946,-1702.473667,-9770.718434,-3447.429741
372.581268,-1850.514855,-9252.574275,-3983.696590
372.581590,-1628.453072,-9030.512492,-5056.230287
372.581912,-2072.576638,-9252.574275,-5745.716235
372.582234,-2220.617826,-9770.718434,-5745.716235
372.582555,-2442.679609,-11769.274478,-5362.668486
372.582877,-3108.864956,-13767.830521,-3753.867940
372.583199,-3330.926739,-14582.057057,-2068.457845
372.583521,-3256.906145,-12879.583391,-306.438199
372.583842,-1776.494261,-10362.883188,306.438199
372.584164,148.041188,-8808.450710,-995.924147
372.584486,1332.370696,-7402.059420,-689.485948
372.584808,1406.391290,-6365.771101,76.609550
372.585129,1110.308913,-6735.874072,1685.410096
372.585451,1184.329507,-7550.100608,2221.676944
372.585773,2220.617826,-7698.141797,1072.533697
372.586095,2960.823768,-8586.388927,-1302.362347
372.586416,4071.132681,-10658.965565,-1991.848295
372.586738,4885.359217,-11325.150913,-689.485948
372.587060,4663.297435,-11251.130318,842.705048
372.587382,3701.029710,-10362.883188,1532.190996
372.587703,3182.885551,-8808.450710,76.609550
372.588025,1850.514855,-7254.018232,-2068.457845
372.588347,-296.082377,-6957.935855,-3753.867940
372.588669,-2294.638420,-7772.162391,-3217.601092
372.588990,-3478.967927,-8660.409521,-2068.457845
372.589312,-3849.070898,-10214.842000,-1762.019645
372.589634,-4663.297435,-12287.418637,0.000000
372.589956,-5477.523971,-13249.686362,2145.067394
372.590278,-5773.606348,-11399.171507,1991.848295
372.590599,-4663.297435,-9104.533087,842.705048
372.590921,-2368.659014,-7179.997637,612.876398
372.591243,-1332.370696,-6365.771101,229.828649
372.591565,-1036.288319,-5255.462188,919.314598
372.591886,-518.144159,-7031.956449,1838.629195
372.592208,296.082377,-8364.327145,1608.800546
372.592530,1850.514855,-9252.574275,-229.828649
372.592852,2812.782580,-9770.718434,-1762.019645
372.593173,4293.194464,-11177.109724,-1302.362347
372.593495,5403.503377,-12583.501014,-1762.019645
372.593817,5699.585753,-12805.562797,-1072.533697
372.594139,4737.318029,-10140.821405,383.047749
372.594460,2220.617826,-8068.244768,-306.438199
372.594782,-592.164754,-8068.244768,-2451.505594
372.595104,-3478.967927,-8290.306550,-3217.601092
372.595426,-6069.688724,-7920.203579,-4060.306139
372.595747,-6513.812290,-9104.533087,-3677.258390
372.596069,-5995.668130,-10658.965565,-1991.848295
372.596391,-5477.523971,-11843.295072,306.438199
372.596713,-4959.379811,-11843.295072,-153.219100
372.597035,-3182.885551,-11251.130318,76.609550
372.597356,-1332.370696,-9326.594869,-306.438199
372.597678,-222.061783,-7402.059420,-1915.238745
372.598000,370.102971,-6809.894666,-919.314598
372.598322,1036.288319,-7105.977043,-612.876398
372.598643,2442.679609,-7772.162391,-1378.971896
372.598965,4293.194464,-10214.842000,-2987.772442
372.599287,4737.318029,-12065.356855,-2604.724693
372.599609,4589.276840,-12065.356855,-1225.752797
372.599930,3775.050304,-11843.295072,0.000000
372.600252,3552.988522,-10955.047942,0.000000
372.600574,3108.864956,-8438.347739,-1378.971896
372.600896,1332.370696,-5403.503377,-4213.525239
372.601217,-1036.288319,-4589.276840,-4443.353888
372.601539,-3552.988522,-6217.729913,-3064.381992
372.601861,-4959.379811,-7994.224174,-2221.676944
372.602183,-5329.482782,-9474.636058,-2911.162892
372.602504,-5033.400406,-11843.295072,-2451.505594
372.602826,-4293.194464,-12953.603985,-1378.971896
372.603148,-3997.112087,-11399.171507,-536.266849
372.603470,-2664.741391,-9474.636058,-1072.533697
372.603792,-814.226536,-7624.121203,-1838.629195
372.604113,962.267725,-6587.832884,-2604.724693
372.604435,1554.432478,-5921.647536,-2604.724693
372.604757,1850.514855,-6513.812290,-995.924147
372.605079,2738.761985,-8808.450710,-1378.971896
372.605400,3256.906145,-10362.883188,-2221.676944
372.605722,3552.988522,-11917.315666,-2451.505594
372.606044,3330.926739,-12287.418637,-1378.971896
372.606366,3108.864956,-11843.295072,-919.314598
372.606687,2368.659014,-10955.047942,-1915.238745
372.607009,1924.535449,-8956.491898,-1455.581446
372.607331,1332.370696,-6439.791695,-2681.334243
372.607653,518.144159,-5773.606348,-4366.744339
372.607974,-1332.370696,-6957.935855,-4366.744339
372.608296,-3034.844362,-9104.533087,-3294.210641
372.608618,-4367.215058,-10436.903782,-3907.087040
372.608940,-4959.379811,-12731.542202,-3983.696590
372.609261,-4885.359217,-15248.242405,-3064.381992
372.609583,-5329.482782,-15100.201217,-1685.410096
372.609905,-4885.359217,-11917.315666,-766.095498
372.610227,-2812.782580,-9104.533087,-1072.533697
372.610548,-148.041188,-7698.141797,-2298.286494
372.610870,1258.350101,-6957.935855,-2757.943793
372.611192,962.267725,-6883.915261,-1225.752797
372.611514,518.144159,-8512.368333,842.705048
372.611836,666.185348,-9178.553681,1455.581446
372.612157,1998.556043,-9474.636058,0.000000
372.612479,3849.070898,-9992.780217,-1991.848295
372.612801,4959.379811,-10214.842000,-1915.238745
372.613123,5625.565159,-10658.965565,459.657299
372.613444,5403.503377,-9326.594869,1991.848295
372.613766,4885.359217,-7254.018232,2451.505594
372.614088,3923.091493,-6661.853478,229.828649
372.614410,2294.638420,-6809.894666,-1915.238745
372.614731,-1184.329507,-7550.100608,-2987.772442
372.615053,-4071.132681,-8956.491898,-2068.457845
372.615375,-4811.338623,-10214.842000,229.828649
372.615697,-4367.215058,-11917.315666,-536.266849
372.616018,-3997.112087,-12287.418637,-842.705048
372.616340,-4071.132681,-12139.377449,229.828649
372.616662,-3701.029710,-10140.821405,1225.752797
372.616984,-2960.823768,-7328.038826,612.876398
372.617305,-1554.432478,-6883.915261,0.000000
372.617627,-1554.432478,-6587.832884,0.000000
372.617949,-1998.556043,-7031.956449,0.000000
372.618271,-2368.659014,-8512.368333,229.828649
372.618593,-1480.411884,-10436.903782,612.876398
372.618914,814.226536,-10510.924376,-689.485948
372.619236,2664.741391,-10658.965565,-1225.752797
372.619558,5181.441594,-10214.842000,-383.047749
372.619880,6587.832884,-9918.759623,-306.438199
372.620201,6587.832884,-8660.409521,-766.095498
372.620523,5773.606348,-7624.121203,-1302.362347
372.620845,3552.988522,-7698.141797,-1838.629195
372.621167,-444.123565,-9474.636058,-1991.848295
372.621488,-4367.215058,-11103.089130,-1608.800546
372.621810,-6439.791695,-11177.109724,-1838.629195
372.622132,-6069.688724,-11473.192101,-2681.334243
372.622454,-5181.441594,-11769.274478,-2757.943793
372.622775,-3849.070898,-10955.047942,-1455.581446
372.623097,-2664.741391,-9844.739029,-459.657299
372.623419,-1406.391290,-9030.512492,612.876398
372.623741,0.000000,-7994.224174,842.705048
372.624062,-444.123565,-6661.853478,-306.438199
372.624384,-666.185348,-6587.832884,-1991.848295
372.624706,-592.164754,-7550.100608,-2221.676944
372.625028,814.226536,-9474.636058,-2681.334243
372.625350,2220.617826,-11325.150913,-2298.286494
372.625671,3478.967927,-12213.398043,-1378.971896
372.625993,3849.070898,-11547.212695,-842.705048
372.626315,3627.009116,-10436.903782,-1302.362347
372.626637,2664.741391,-9252.574275,-1991.848295
372.626958,1628.453072,-6439.791695,-3294.210641
372.627280,666.185348,-5255.462188,-5592.497135
372.627602,-1110.308913,-6291.750507,-4749.792088
372.627924,-3997.112087,-8734.430116,-2528.115143
372.628245,-5995.668130,-9622.677246,-1991.848295
372.628567,-5921.647536,-11325.150913,-2374.896044
372.628889,-4737.318029,-13175.665768,-3217.601092
372.629211,-3330.926739,-12657.521608,-3217.601092
372.629532,-2368.659014,-11029.068536,-1685.410096
372.629854,-1332.370696,-8660.409521,-383.047749
372.630176,592.164754,-7846.182985,-612.876398
372.630498,2072.576638,-7105.977043,-2298.286494
372.630819,1776.494261,-6587.832884,-3140.991542
372.631141,1776.494261,-7402.059420,-1608.800546
372.631463,2812.782580,-7624.121203,-1149.143247
372.631785,4515.256246,-9400.615463,-2757.943793
372.632106,5255.462188,-11769.274478,-2911.162892
372.632428,4811.338623,-11991.336260,-612.876398
372.632750,3775.050304,-11177.109724,0.000000
372.633072,2294.638420,-10066.800811,-1455.581446
372.633394,1332.370696,-8068.244768,-2987.772442
372.633715,0.000000,-6069.688724,-4826.401637
372.634037,-1998.556043,-6143.709319,-5439.278036
372.634359,-3627.009116,-8142.265362,-4136.915689
372.634681,-4663.297435,-9474.636058,-3064.381992
372.635002,-4959.379811,-10732.986159,-3140.991542
372.635324,-4515.256246,-13027.624579,-3064.381992
372.635646,-4367.215058,-14137.933492,-2145.067394
372.635968,-4515.256246,-13027.624579,-1532.190996
372.636289,-3701.029710,-11177.109724,-153.219100
372.636611,-1480.411884,-9400.615463,-536.266849
372.636933,888.247130,-8512.368333,-1302.362347
372.637255,1332.370696,-8068.244768,-1378.971896
372.637576,888.247130,-7846.182985,229.828649
372.637898,1406.391290,-8364.327145,1915.238745
372.638220,4515.256246,-8512.368333,0.000000
372.638542,5773.606348,-9474.636058,-2528.115143
372.638863,5625.565159,-10955.047942,-2221.676944
372.639185,4367.215058,-10584.944971,1149.143247
372.639507,2812.782580,-9918.759623,1838.629195
372.639829,1110.308913,-9696.697840,0.000000
372.640151,-370.102971,-8290.306550,-1762.019645
372.640472,-2738.761985,-6957.935855,-3140.991542
372.640794,-4885.359217,-7476.080014,-3370.820191
372.641116,-6069.688724,-9400.615463,-1915.238745
372.641438,-6143.709319,-9548.656652,-995.924147
372.641759,-5625.565159,-9696.697840,-1838.629195
372.642081,-4959.379811,-11399.171507,-2068.457845
372.642403,-4441.235652,-12139.377449,-229.828649
372.642725,-4071.132681,-10732.986159,459.657299
372.643046,-3256.906145,-8290.306550,612.876398
372.643368,-814.226536,-7920.203579,995.924147
372.643690,1332.370696,-7402.059420,766.095498
372.644012,1258.350101,-7031.956449,689.485948
372.644333,740.205942,-7994.224174,1455.581446
372.644655,2220.617826,-9104.533087,2298.286494
372.644979,4071.132681,-8438.347739,1762.019645
372.645301,5625.565159,-7846.182985,-229.828649
372.645623,6809.894666,-7994.224174,-383.047749
372.645945,7328.038826,-9252.574275,-459.657299
372.646266,6809.894666,-9770.718434,0.000000
372.646588,4663.297435,-8586.388927,76.609550
372.646910,1998.556043,-8808.450710,-766.095498
372.647232,-1184.329507,-9548.656652,-1915.238745
372.647553,-4219.173869,-9844.739029,-2221.676944
372.647875,-6957.935855,-9770.718434,-3064.381992
372.648197,-7328.038826,-9474.636058,-3370.820191
372.648519,-6513.812290,-10584.944971,-3907.087040
372.648840,-5477.523971,-11251.130318,-2681.334243
372.649162,-4885.359217,-11103.089130,-1302.362347
372.649484,-4219.173869,-10362.883188,0.000000
372.649806,-2960.823768,-9844.739029,0.000000
372.650127,-1554.432478,-9844.739029,-1302.362347
372.650449,-1554.432478,-8364.327145,-2145.067394
372.650771,-1480.411884,-7476.080014,-1915.238745
372.651093,444.123565,-7624.121203,-1532.190996
372.651414,3108.864956,-9178.553681,-2757.943793
372.651736,5403.503377,-10955.047942,-3064.381992
372.652058,5995.668130,-11843.295072,-1991.848295
372.652380,5773.606348,-12139.377449,0.000000
372.652701,4737.318029,-11473.192101,-536.266849
372.653023,4219.173869,-9844.739029,-1991.848295
372.653345,2516.700203,-7105.977043,-4749.792088
372.653667,0.000000,-6143.709319,-5745.716235
372.653988,-3627.009116,-7846.182985,-4290.134789
372.654310,-6291.750507,-9030.512492,-1991.848295
372.654632,-7328.038826,-9104.533087,-2451.505594
372.654954,-6365.771101,-9992.780217,-3600.648841
372.655275,-5255.462188,-11769.274478,-3983.696590
372.655597,-5107.421000,-12435.459826,-3447.429741
372.655919,-4811.338623,-11547.212695,-1532.190996
372.656241,-3404.947333,-9918.759623,-689.485948
372.656562,-1702.473667,-8808.450710,-919.314598
372.656884,-888.247130,-7772.162391,-1991.848295
372.657206,-222.061783,-6957.935855,-1915.238745
372.657528,1184.329507,-6957.935855,-2834.553343
372.657849,3701.029710,-8438.347739,-2987.772442
372.658171,5255.462188,-9474.636058,-1532.190996
372.658493,5033.400406,-9474.636058,536.266849
372.658815,3997.112087,-9474.636058,995.924147
372.659136,3256.906145,-10066.800811,153.219100
372.659458,2516.700203,-9030.512492,-1378.971896
372.659780,1554.432478,-7254.018232,-3294.210641
372.660102,296.082377,-6365.771101,-3830.477490
372.660423,-1480.411884,-6587.832884,-2068.457845
372.660745,-2516.700203,-7624.121203,-1608.800546
372.661067,-3182.885551,-8364.327145,-2681.334243
372.661389,-2812.782580,-10362.883188,-4596.572988
372.661710,-3108.864956,-13027.624579,-4596.572988
372.662032,-4441.235652,-14508.036463,-1378.971896
372.662354,-5477.523971,-13915.871710,766.095498
372.662676,-4737.318029,-11473.192101,306.438199
372.662998,-2146.597232,-10066.800811,-1378.971896
372.663319,-962.267725,-8586.388927,-2451.505594
372.663641,-1184.329507,-7031.956449,-2145.067394
372.663963,-666.185348,-6587.832884,0.000000
372.664285,444.123565,-7698.141797,919.314598
372.664606,2146.597232,-8216.285956,612.876398
372.664928,3256.906145,-8734.430116,-612.876398
372.665250,4219.173869,-9104.533087,-612.876398
372.665572,4811.338623,-9326.594869,-689.485948
372.665893,5773.606348,-10214.842000,-1302.362347
372.666215,5847.626942,-9844.739029,-689.485948
372.666537,5329.482782,-8216.285956,0.000000
372.666859,3034.844362,-8660.409521,-842.705048
372.667180,0.000000,-9474.636058,-1838.629195
372.667502,-3552.988522,-9400.615463,-2451.505594
372.667824,-5033.400406,-9548.656652,-3064.381992
372.668146,-5625.565159,-10584.944971,-2374.896044
372.668467,-5329.482782,-11325.150913,-689.485948
372.668789,-4885.359217,-10436.903782,0.000000
372.669111,-3701.029710,-10584.944971,-229.828649
372.669433,-2812.782580,-10362.883188,306.438199
372.669754,-2590.720797,-9474.636058,612.876398
372.670076,-3478.967927,-8216.285956,383.047749
372.670398,-3923.091493,-7624.121203,153.219100
372.670720,-3256.906145,-6809.894666,-612.876398
372.671041,-444.123565,-7179.997637,-2298.286494
372.671363,1480.411884,-8956.491898,-3677.258390
372.671685,2960.823768,-11843.295072,-2528.115143
372.672007,3775.050304,-12805.562797,153.219100
372.672328,3404.947333,-11917.315666,1225.752797
372.672650,2960.823768,-10584.944971,-383.047749
372.672972,3108.864956,-9030.512492,-2451.505594
372.673294,1036.288319,-6735.874072,-4136.915689
372.673615,-1110.308913,-5625.565159,-2911.162892
372.673937,-3404.947333,-6735.874072,-1608.800546
372.674259,-4293.194464,-7772.162391,-995.924147
372.674581,-4293.194464,-9030.512492,-1378.971896
372.674902,-3923.091493,-11325.150913,-1915.238745
372.675224,-2886.803174,-12879.583391,-1302.362347
372.675546,-2220.617826,-13027.624579,-306.438199
372.675868,-1702.473667,-11029.068536,153.219100
372.676189,-666.185348,-9030.512492,1455.581446
372.676511,-148.041188,-7328.038826,383.047749
372.676833,148.041188,-5847.626942,-1685.410096
372.677155,296.082377,-6439.791695,-2911.162892
372.677476,1184.329507,-7698.141797,-2451.505594
372.677798,2220.617826,-9548.656652,-1685.410096
372.678120,3182.885551,-11917.315666,-919.314598
372.678442,3627.009116,-12805.562797,-383.047749
372.678763,3256.906145,-12065.356855,-536.266849
372.679085,2146.597232,-9696.697840,-1838.629195
372.679407,1406.391290,-7105.977043,-3370.820191
372.679729,518.144159,-5329.482782,-4979.620737
372.680050,-1406.391290,-5329.482782,-5209.449386
372.680372,-3404.947333,-7179.997637,-3447.429741
372.680694,-4663.297435,-9326.594869,-2451.505594
372.681016,-4367.215058,-10881.027347,-3064.381992
372.681337,-3552.988522,-13175.665768,-3983.696590
372.681659,-3923.091493,-13989.892304,-2911.162892
372.681981,-3701.029710,-13767.830521,-689.485948
372.682303,-3182.885551,-11399.171507,229.828649
372.682624,-1406.391290,-9400.615463,-766.095498
372.682946,740.205942,-7846.182985,-1762.019645
372.683268,1850.514855,-7254.018232,-2374.896044
372.683590,1480.411884,-7402.059420,-919.314598
372.683911,1998.556043,-7994.224174,689.485948
372.684233,3330.926739,-8290.306550,766.095498
372.684555,4959.379811,-8734.430116,-306.438199
372.684877,6291.750507,-9400.615463,-1838.629195
372.685198,6439.791695,-10362.883188,-1532.190996
372.685520,5255.462188,-9622.677246,-1072.533697
372.685842,2294.638420,-8660.409521,-306.438199
372.686164,0.000000,-7698.141797,-766.095498
372.686485,-2146.597232,-6217.729913,-3217.601092
372.686807,-3923.091493,-6439.791695,-4903.011187
372.687129,-6661.853478,-7031.956449,-4749.792088
372.687451,-7920.203579,-8364.327145,-3064.381992
372.687772,-7550.100608,-10140.821405,-2374.896044
372.688094,-6957.935855,-12731.542202,-2298.286494
372.688416,-6661.853478,-14656.077652,-1302.362347
372.688738,-7031.956449,-13619.789333,0.000000
372.689059,-5625.565159,-11251.130318,153.219100
372.689381,-2960.823768,-9326.594869,-842.705048
372.689703,-814.226536,-7031.956449,-1532.190996
372.690025,518.144159,-5181.441594,-995.924147
372.690346,1850.514855,-5699.585753,-383.047749
372.690668,4515.256246,-8734.430116,0.000000
372.690990,6513.812290,-11621.233289,-1302.362347
372.691312,6587.832884,-12435.459826,-919.314598
372.691633,6661.853478,-11621.233289,1225.752797
372.691955,6439.791695,-9918.759623,1532.190996
372.692277,6365.771101,-9104.533087,-1072.533697
372.692599,4589.276840,-7402.059420,-2451.505594
372.692921,814.226536,-6809.894666,-3217.601092
372.693242,-2738.761985,-7402.059420,-2528.115143
372.693564,-4663.297435,-10140.821405,-1762.019645
372.693886,-5551.544565,-9844.739029,-2374.896044
372.694208,-5329.482782,-9992.780217,-4596.572988
372.694529,-4367.215058,-11917.315666,-4060.306139
372.694851,-4441.235652,-13693.809927,-919.314598
372.695173,-5551.544565,-13471.748144,1838.629195
372.695495,-6069.688724,-11547.212695,1532.190996
372.695816,-4071.132681,-10140.821405,306.438199
372.696138,-1628.453072,-8216.285956,-1838.629195
372.696460,-222.061783,-5995.668130,-2221.676944
372.696782,444.123565,-4293.194464,0.000000
372.697103,3330.926739,-3923.091493,1838.629195
372.697425,5625.565159,-6291.750507,766.095498
372.697747,5403.503377,-9622.677246,-842.705048
372.698069,4145.153275,-11769.274478,-536.266849
372.698390,3478.967927,-12657.521608,-766.095498
372.698712,4589.276840,-12435.459826,-1762.019645
372.699034,5033.400406,-9770.718434,-2298.286494
372.699356,4515.256246,-6365.771101,-1225.752797
372.699677,2368.659014,-5033.400406,-1532.190996
372.699999,-592.164754,-6735.874072,-1838.629195
372.700321,-3478.967927,-8216.285956,-2374.896044
372.700643,-5773.606348,-10140.821405,-3677.258390
372.700964,-6957.935855,-12213.398043,-2987.772442
372.701286,-6883.915261,-12361.439231,-766.095498
372.701608,-5181.441594,-10881.027347,153.219100
372.701930,-3034.844362,-8882.471304,0.000000
372.702251,-444.123565,-8142.265362,-383.047749
372.702573,-148.041188,-6957.935855,-1149.143247
372.702895,-1554.432478,-7105.977043,-766.095498
372.703217,-1850.514855,-7994.224174,-612.876398
372.703538,-814.226536,-8512.368333,-2374.896044
372.703860,1258.350101,-9474.636058,-4136.915689
372.704182,2072.576638,-10732.986159,-3064.381992
372.704504,1924.535449,-11325.150913,-1532.190996
372.704825,1258.350101,-11991.336260,-1225.752797
372.705147,888.247130,-12583.501014,-1302.362347
372.705469,740.205942,-11251.130318,-3140.991542
372.705791,148.041188,-8438.347739,-4903.011187
372.706112,-666.185348,-6513.812290,-5056.230287
372.706434,-1480.411884,-6661.853478,-3983.696590
372.706756,-2960.823768,-7254.018232,-2757.943793
372.707078,-4219.173869,-8734.430116,-3064.381992
372.707399,-4293.194464,-11325.150913,-2987.772442
372.707721,-4071.132681,-13841.851115,-2987.772442
372.708043,-3627.009116,-15248.242405,-2221.676944
372.708365,-2516.700203,-13471.748144,-536.266849
372.708686,0.000000,-10214.842000,76.609550
372.709008,2072.576638,-7846.182985,-229.828649
372.709330,3256.906145,-5847.626942,-1455.581446
372.709652,3404.947333,-5033.400406,-1685.410096
372.709973,2738.761985,-7476.080014,-1149.143247
372.710295,1998.556043,-9992.780217,-459.657299
372.710617,1480.411884,-11177.109724,766.095498
372.710939,2146.597232,-11621.233289,842.705048
372.711260,2664.741391,-10362.883188,995.924147
372.711582,3108.864956,-8660.409521,-153.219100
372.711904,2738.761985,-5921.647536,-1302.362347
372.712226,1998.556043,-4737.318029,-2068.457845
372.712547,1258.350101,-5625.565159,-2528.115143
372.712869,-1406.391290,-7254.018232,-2528.115143
372.713191,-3701.029710,-9178.553681,-2145.067394
372.713513,-4959.379811,-10140.821405,-1915.238745
372.713834,-4737.318029,-11251.130318,-3140.991542
372.714156,-4071.132681,-11251.130318,-2834.553343
372.714478,-3701.029710,-11251.130318,-1685.410096
372.714800,-3923.091493,-11325.150913,0.000000
372.715121,-3404.947333,-10066.800811,383.047749
372.715443,-1998.556043,-9104.533087,229.828649
372.715765,-592.164754,-7994.224174,-612.876398
372.716087,222.061783,-7031.956449,-919.314598
372.716408,222.061783,-6661.853478,0.000000
372.716730,1776.494261,-7328.038826,536.266849
372.717052,3108.864956,-8660.409521,459.657299
372.717374,3404.947333,-9844.739029,0.000000
372.717695,3701.029710,-10584.944971,0.000000
372.718017,5033.400406,-11547.212695,-1762.019645
372.718339,5699.585753,-11769.274478,-2145.067394
372.718661,5625.565159,-9992.780217,-1532.190996
372.718982,3997.112087,-8290.306550,-1378.971896
372.719304,1258.350101,-7994.224174,-2068.457845
372.719626,-1480.411884,-9252.574275,-2834.553343
372.719948,-5181.441594,-9030.512492,-4213.525239
372.720269,-7254.018232,-9844.739029,-4673.182538
372.720591,-7402.059420,-11843.295072,-3907.087040
372.720913,-7031.956449,-12435.459826,-2374.896044
372.721235,-5921.647536,-11917.315666,-1532.190996
372.721556,-4589.276840,-11399.171507,0.000000
372.721878,-3034.844362,-10732.986159,-229.828649
372.722200,-2220.617826,-8734.430116,-842.705048
372.722522,-2664.741391,-7328.038826,-1532.190996
372.722844,-2220.617826,-7328.038826,-919.314598
372.723165,-666.185348,-8290.306550,-1685.410096
372.723487,1110.308913,-9622.677246,-2528.115143
372.723809,2590.720797,-10658.965565,-1608.800546
372.724131,4145.153275,-10362.883188,0.000000
372.724452,4959.379811,-9844.739029,76.609550
372.724774,4737.318029,-10436.903782,-306.438199
372.725096,3701.029710,-9030.512492,-766.095498
372.725418,2220.617826,-7624.121203,-2451.505594
372.725739,296.082377,-7105.977043,-2911.162892
372.726061,-1554.432478,-7105.977043,-2221.676944
372.726383,-2960.823768,-7105.977043,-2145.067394
372.726705,-3552.988522,-7031.956449,-2068.457845
372.727026,-2886.803174,-8808.450710,-2987.772442
372.727348,-1850.514855,-11103.089130,-2757.943793
372.727670,-1924.535449,-12065.356855,-919.314598
372.727992,-2368.659014,-11325.150913,1455.581446
372.728313,-2368.659014,-9918.759623,1608.800546
372.728635,-962.267725,-8586.388927,383.047749
372.728957,0.000000,-7179.997637,-1455.581446
372.729279,74.020594,-6069.688724,-1762.019645
372.729600,222.061783,-6587.832884,-383.047749
372.729922,1702.473667,-7624.121203,766.095498
372.730244,2664.741391,-8364.327145,919.314598
372.730566,3775.050304,-9844.739029,-766.095498
372.730887,4737.318029,-10510.924376,-1532.190996
372.731209,5181.441594,-11473.192101,-2451.505594
372.731531,4663.297435,-11399.171507,-2528.115143
372.731853,3404.947333,-9622.677246,-1072.533697
372.732174,1110.308913,-7476.080014,-1991.848295
372.732496,-518.144159,-7476.080014,-2987.772442
372.732818,-2664.741391,-8586.388927,-4060.306139
372.733140,-5107.421000,-8216.285956,-4979.620737
372.733461,-5995.668130,-9178.553681,-5362.668486
372.733783,-5551.544565,-12435.459826,-3830.477490
372.734105,-5181.441594,-14359.995275,-1991.848295
372.734427,-5107.421000,-13619.789333,-995.924147
372.734748,-4367.215058,-11399.171507,-383.047749
372.735070,-2368.659014,-10066.800811,-1072.533697
372.735392,-666.185348,-8438.347739,-2528.115143
372.735714,148.041188,-7772.162391,-2681.334243
372.736035,592.164754,-7254.018232,-1302.362347
372.736357,2664.741391,-8364.327145,-383.047749
372.736679,4589.276840,-10362.883188,-1838.629195
372.737001,5181.441594,-12583.501014,-995.924147
372.737322,5033.400406,-12139.377449,76.609550
372.737644,4441.235652,-11399.171507,459.657299
372.737966,3849.070898,-10732.986159,76.609550
372.738288,2886.803174,-9030.512492,-459.657299
372.738609,518.144159,-6291.750507,-2221.676944
372.738931,-2294.638420,-5255.462188,-3064.381992
372.739253,-4219.173869,-6365.771101,-1838.629195
372.739575,-6291.750507,-6587.832884,-1685.410096
372.739896,-7105.977043,-6735.874072,-3064.381992
372.740218,-6735.874072,-8808.450710,-3294.210641
372.740540,-6143.709319,-12361.439231,-2451.505594
372.740862,-6735.874072,-13989.892304,-1225.752797
372.741183,-7031.956449,-13027.624579,459.657299
372.741505,-5477.523971,-10955.047942,153.219100
372.741827,-2960.823768,-8586.388927,-1149.143247
372.742149,-740.205942,-6439.791695,-2528.115143
372.742470,74.020594,-4663.297435,-2068.457845
372.742792,1554.432478,-4737.318029,-612.876398
372.743114,3404.947333,-6513.812290,229.828649
372.743436,4515.256246,-9104.533087,153.219100
372.743757,5033.400406,-10955.047942,0.000000
372.744079,5403.503377,-12139.377449,-919.314598
372.744401,6291.750507,-12583.501014,-306.438199
372.744723,6883.915261,-10362.883188,459.657299
372.745044,6217.729913,-7402.059420,689.485948
372.745366,4737.318029,-5699.585753,-306.438199
372.745688,3108.864956,-5329.482782,-1838.629195
372.746010,444.123565,-6513.812290,-2757.943793
372.746332,-1776.494261,-8068.244768,-3677.258390
372.746653,-2516.700203,-10436.903782,-3294.210641
372.746975,-2590.720797,-13249.686362,-2145.067394
372.747297,-3256.906145,-14508.036463,-766.095498
372.747619,-3849.070898,-14434.015869,766.095498
372.747940,-3552.988522,-11843.295072,383.047749
372.748262,-2368.659014,-9474.636058,-1915.238745
372.748584,-1924.535449,-7402.059420,-3217.601092
372.748906,-2294.638420,-5995.668130,-2298.286494
372.749227,-2812.782580,-6439.791695,-919.314598
372.749549,-2368.659014,-8882.471304,-1378.971896
372.749871,-1702.473667,-11251.130318,-2068.457845
372.750193,-814.226536,-12583.501014,-2374.896044
372.750515,-370.102971,-12953.603985,-2068.457845
372.750836,740.205942,-12583.501014,-995.924147
372.751158,2960.823768,-9918.759623,-995.924147
372.751480,4959.379811,-8882.471304,-2681.334243
372.751802,5625.565159,-8068.244768,-3217.601092
372.752123,3627.009116,-6735.874072,-1608.800546
372.752445,370.102971,-7105.977043,0.000000
372.752767,-2368.659014,-8142.265362,383.047749
372.753089,-3478.967927,-9326.594869,-1608.800546
372.753410,-3701.029710,-9992.780217,-3217.601092
