#time,accel_x,accel_y,accel_z
543.450642,-814.226536,-9252.574275,-1455.581446
543.450964,-592.164754,-9326.594869,-1378.971896
543.451287,-296.082377,-9252.574275,-1378.971896
543.451609,-296.082377,-9104.533087,-1532.190996
543.451931,-222.061783,-9030.512492,-1838.629195
543.452254,-296.082377,-9030.512492,-2145.067394
543.452576,-444.123565,-9326.594869,-1532.190996
543.452898,-444.123565,-9326.594869,-1838.629195
543.453220,-296.082377,-9400.615463,-2068.457845
543.453543,-370.102971,-9400.615463,-1762.019645
543.453865,-296.082377,-9104.533087,-1915.238745
543.454187,-222.061783,-9400.615463,-1762.019645
543.454509,-222.061783,-9474.636058,-1762.019645
543.454832,-222.061783,-9474.636058,-1608.800546
543.455154,-444.123565,-9474.636058,-1838.629195
543.455476,-518.144159,-9252.574275,-1838.629195
543.455799,-592.164754,-9252.574275,-1915.238745
543.456121,-370.102971,-9474.636058,-1915.238745
543.456443,-148.041188,-9474.636058,-1915.238745
543.456765,-370.102971,-9474.636058,-1991.848295
543.457088,-222.061783,-9400.615463,-1685.410096
543.457410,-592.164754,-9400.615463,-1378.971896
543.457732,-518.144159,-9474.636058,-2068.457845
543.458054,-518.144159,-9400.615463,-1915.238745
543.458377,-444.123565,-9400.615463,-1838.629195
543.458699,-370.102971,-9474.636058,-1915.238745
543.459021,-444.123565,-9548.656652,-1915.238745
543.459343,-222.061783,-9178.553681,-1762.019645
543.459666,-296.082377,-9474.636058,-1532.190996
543.459988,-222.061783,-9474.636058,-1838.629195
543.460310,-444.123565,-9474.636058,-1685.410096
543.460633,0.000000,-9548.656652,-2145.067394
543.460955,-592.164754,-9030.512492,-1608.800546
543.461277,-296.082377,-9326.594869,-1455.581446
543.461599,-222.061783,-9326.594869,-1455.581446
543.461922,-222.061783,-9252.574275,-1302.362347
543.462244,-370.102971,-9326.594869,-1149.143247
543.462566,-222.061783,-8956.491898,-1532.190996
543.462888,-370.102971,-9326.594869,-1302.362347
543.463211,-222.061783,-9400.615463,-1225.752797
543.463533,0.000000,-9326.594869,-1378.971896
543.463855,-148.041188,-9400.615463,-1302.362347
543.464178,148.041188,-9030.512492,-1225.752797
543.464500,-592.164754,-8808.450710,-1302.362347
543.464822,-370.102971,-9474.636058,-1455.581446
543.465144,-296.082377,-9474.636058,-1455.581446
543.465467,-518.144159,-9326.594869,-1455.581446
543.465789,-592.164754,-9252.574275,-995.924147
543.466111,-518.144159,-9474.636058,-1149.143247
543.466433,-222.061783,-9548.656652,-1532.190996
543.466756,-444.123565,-9474.636058,-1455.581446
543.467078,-518.144159,-9326.594869,-1455.581446
543.467400,-666.185348,-9252.574275,-1378.971896
543.467723,-222.061783,-9844.739029,-1302.362347
543.468045,-296.082377,-9474.636058,-1302.362347
543.468367,-296.082377,-9400.615463,-1608.800546
543.468689,-296.082377,-9474.636058,-1455.581446
543.469012,-518.144159,-9474.636058,-1302.362347
543.469334,-148.041188,-9696.697840,-1762.019645
543.469656,-444.123565,-9548.656652,-1225.752797
543.469978,-444.123565,-9474.636058,-1532.190996
543.470301,-370.102971,-9548.656652,-1532.190996
543.470623,-222.061783,-9400.615463,-1532.190996
543.470945,-444.123565,-8956.491898,-1378.971896
543.471268,-296.082377,-9178.553681,-1685.410096
543.471590,296.082377,-9252.574275,-1608.800546
543.471912,1258.350101,-9622.677246,-2221.676944
543.472234,2146.597232,-9844.739029,-1991.848295
543.472557,2146.597232,-9474.636058,-919.314598
543.472879,1850.514855,-8660.409521,229.828649
543.473201,740.205942,-8364.327145,-919.314598
543.473523,0.000000,-8734.430116,-2451.505594
543.473846,-1406.391290,-9104.533087,-2528.115143
543.474168,-2886.803174,-9474.636058,-1991.848295
543.474490,-3923.091493,-9622.677246,-2451.505594
543.474813,-3108.864956,-8956.491898,-2681.334243
543.475135,-666.185348,-10066.800811,-2911.162892
543.475457,1776.494261,-10807.006753,-2221.676944
543.475779,2812.782580,-10362.883188,-766.095498
543.476102,2146.597232,-8808.450710,0.000000
543.476424,1554.432478,-8364.327145,-689.485948
543.476746,2368.659014,-9474.636058,-2298.286494
543.477068,2516.700203,-9844.739029,-2528.115143
543.477391,1332.370696,-9030.512492,-1225.752797
543.477713,-148.041188,-7624.121203,0.000000
543.478035,444.123565,-7624.121203,-1072.533697
543.478357,2442.679609,-9474.636058,-2374.896044
543.478680,1702.473667,-10214.842000,-1991.848295
543.479002,-296.082377,-9326.594869,0.000000
543.479324,-1332.370696,-8808.450710,-995.924147
543.479647,-370.102971,-8956.491898,-3677.258390
543.479969,962.267725,-9844.739029,-4290.134789
543.480291,1036.288319,-10732.986159,-1915.238745
543.480613,1184.329507,-11251.130318,-995.924147
543.480936,2294.638420,-10066.800811,-2068.457845
543.481258,3775.050304,-9918.759623,-1838.629195
543.481580,4885.359217,-10732.986159,-766.095498
543.481902,4367.215058,-11029.068536,-459.657299
543.482225,2664.741391,-9474.636058,-1302.362347
543.482547,1998.556043,-8142.265362,-995.924147
543.482869,2072.576638,-8364.327145,-689.485948
543.483192,2072.576638,-8438.347739,-1072.533697
543.483514,1480.411884,-7624.121203,-1302.362347
543.483836,1036.288319,-8068.244768,-1455.581446
543.484158,1702.473667,-9770.718434,-383.047749
543.484481,2368.659014,-10510.924376,-306.438199
543.484803,2812.782580,-9696.697840,-1455.581446
543.485125,2442.679609,-9474.636058,-2068.457845
543.485447,2738.761985,-10140.821405,-1149.143247
543.485770,3182.885551,-9844.739029,-1225.752797
543.486092,3034.844362,-9474.636058,-2451.505594
543.486414,2812.782580,-9770.718434,-2068.457845
543.486737,3627.009116,-10066.800811,-995.924147
543.487059,3478.967927,-9548.656652,-153.219100
543.487381,3182.885551,-9474.636058,-1378.971896
543.487703,2368.659014,-9104.533087,-1072.533697
543.488026,1998.556043,-8808.450710,-459.657299
543.488348,1776.494261,-7994.224174,-689.485948
543.488670,740.205942,-7698.141797,-995.924147
543.488992,-296.082377,-8364.327145,-1378.971896
543.489315,-296.082377,-9474.636058,-995.924147
543.489637,-444.123565,-10288.862594,-689.485948
543.489959,0.000000,-11177.109724,-1072.533697
543.490282,444.123565,-11547.212695,-1072.533697
543.490604,1036.288319,-11399.171507,-459.657299
543.490926,1406.391290,-10584.944971,-229.828649
543.491248,1406.391290,-9622.677246,-919.314598
543.491571,1554.432478,-8808.450710,-1608.800546
543.491893,1332.370696,-7920.203579,-1225.752797
543.492215,1480.411884,-8142.265362,-1225.752797
543.492537,1258.350101,-8068.244768,-1915.238745
543.492860,1036.288319,-8290.306550,-1915.238745
543.493182,1184.329507,-8808.450710,-1532.190996
543.493504,1332.370696,-8216.285956,-1838.629195
543.493826,1332.370696,-8142.265362,-2681.334243
543.494149,1702.473667,-8068.244768,-3064.381992
543.494471,1628.453072,-8586.388927,-1991.848295
543.494793,1258.350101,-9326.594869,-1991.848295
543.495116,1110.308913,-9918.759623,-2451.505594
543.495438,1110.308913,-10807.006753,-2451.505594
543.495760,518.144159,-11695.253884,-1915.238745
543.496082,296.082377,-11843.295072,-1302.362347
543.496405,222.061783,-11029.068536,-919.314598
543.496727,592.164754,-10362.883188,-1532.190996
543.497049,1998.556043,-9992.780217,-1685.410096
543.497371,2590.720797,-9252.574275,-612.876398
543.497694,2886.803174,-8364.327145,-766.095498
543.498016,3034.844362,-8216.285956,-995.924147
543.498338,4367.215058,-8216.285956,-1532.190996
543.498661,5403.503377,-8290.306550,-2221.676944
543.498983,5551.544565,-7920.203579,-1608.800546
543.499305,5255.462188,-8956.491898,-1838.629195
543.499627,4515.256246,-9696.697840,-2298.286494
543.499950,3701.029710,-10510.924376,-2911.162892
543.500272,2220.617826,-11769.274478,-2911.162892
543.500594,888.247130,-12435.459826,-2374.896044
543.500916,-296.082377,-11769.274478,-1149.143247
543.501239,-592.164754,-10732.986159,-1608.800546
543.501561,-592.164754,-9548.656652,-995.924147
543.501883,-592.164754,-8216.285956,0.000000
543.502206,-592.164754,-6661.853478,0.000000
543.502528,74.020594,-5995.668130,-76.609550
543.502850,666.185348,-5181.441594,-1072.533697
543.503172,1554.432478,-5847.626942,-1072.533697
543.503495,1924.535449,-7105.977043,-766.095498
543.503817,1628.453072,-8364.327145,-919.314598
543.504139,1258.350101,-9548.656652,-1532.190996
543.504461,1184.329507,-10807.006753,-2451.505594
543.504784,1554.432478,-11695.253884,-2987.772442
543.505106,1110.308913,-11473.192101,-2987.772442
543.505428,370.102971,-11399.171507,-2911.162892
543.505751,-222.061783,-11325.150913,-2145.067394
543.506073,-444.123565,-11843.295072,-1838.629195
543.506395,-1480.411884,-11843.295072,-1532.190996
543.506717,-2516.700203,-11843.295072,-1302.362347
543.507040,-2590.720797,-11473.192101,-995.924147
543.507362,-1554.432478,-10732.986159,-459.657299
543.507684,-444.123565,-9474.636058,153.219100
543.508006,592.164754,-8068.244768,766.095498
543.508329,2368.659014,-6291.750507,1072.533697
543.508651,4219.173869,-5255.462188,306.438199
543.508973,5847.626942,-4811.338623,-766.095498
543.509296,6069.688724,-5329.482782,-1532.190996
543.509618,5773.606348,-6069.688724,-842.705048
543.509940,5477.523971,-7624.121203,-2451.505594
543.510262,5181.441594,-10881.027347,-4290.134789
543.510585,4737.318029,-13619.789333,-3370.820191
543.510907,2960.823768,-13101.645173,-1608.800546
543.511229,-222.061783,-11843.295072,-995.924147
543.511551,-1776.494261,-11843.295072,-1455.581446
543.511874,-2664.741391,-11769.274478,-2987.772442
543.512196,-3849.070898,-10436.903782,-2911.162892
543.512518,-5403.503377,-8068.244768,-1072.533697
543.512840,-5181.441594,-6513.812290,-612.876398
543.513163,-3552.988522,-7105.977043,-1608.800546
543.513485,148.041188,-8068.244768,-1072.533697
543.513807,3404.947333,-7846.182985,-1455.581446
543.514130,6291.750507,-9400.615463,-2604.724693
543.514452,9696.697840,-10510.924376,-1149.143247
543.514774,12213.398043,-10732.986159,-229.828649
543.515096,13175.665768,-9252.574275,-842.705048
543.515419,13027.624579,-8364.327145,-919.314598
543.515741,11621.233289,-7994.224174,-1378.971896
543.516063,8290.306550,-9400.615463,-2068.457845
543.516385,4589.276840,-9548.656652,-1532.190996
543.516708,74.020594,-11621.233289,-2068.457845
543.517030,-3182.885551,-12435.459826,-1455.581446
543.517352,-5329.482782,-12361.439231,-306.438199
543.517675,-8660.409521,-12065.356855,0.000000
543.517997,-9252.574275,-9696.697840,995.924147
543.518320,-9326.594869,-4811.338623,1302.362347
543.518642,-7550.100608,-3330.926739,-1072.533697
543.518965,-4219.173869,-4441.235652,-2528.115143
543.519287,222.061783,-5773.606348,-3447.429741
543.519610,4441.235652,-6809.894666,-4060.306139
543.519933,8068.244768,-10066.800811,-3677.258390
543.520255,10658.965565,-12583.501014,-2451.505594
543.520578,11325.150913,-13027.624579,-2987.772442
543.520900,9844.739029,-11399.171507,-3447.429741
543.521223,6365.771101,-9918.759623,-3983.696590
543.521545,3404.947333,-9992.780217,-5515.887586
543.521868,888.247130,-10955.047942,-6052.154434
543.522190,-962.267725,-11769.274478,-3064.381992
543.522513,-3701.029710,-12509.480420,229.828649
543.522835,-6439.791695,-12361.439231,2604.724693
543.523158,-6439.791695,-10288.862594,3983.696590
543.523480,-5403.503377,-6735.874072,306.438199
543.523803,-3108.864956,-6661.853478,-1455.581446
543.524125,666.185348,-7920.203579,306.438199
543.524448,5107.421000,-5551.544565,306.438199
543.524770,9030.512492,-4515.256246,-1991.848295
543.525093,12287.418637,-7105.977043,-1608.800546
543.525416,12509.480420,-11473.192101,-459.657299
543.525738,9326.594869,-12731.542202,0.000000
543.526061,3701.029710,-11769.274478,-1225.752797
543.526383,-2220.617826,-12435.459826,-4903.011187
543.526706,-5773.606348,-14137.933492,-6281.983084
543.527028,-7105.977043,-13471.748144,-4060.306139
543.527351,-9474.636058,-7550.100608,-3064.381992
543.527673,-7698.141797,-7105.977043,-2834.553343
543.527996,-4441.235652,-6439.791695,-306.438199
543.528318,-518.144159,-8956.491898,766.095498
543.528641,222.061783,-8364.327145,1838.629195
543.528963,222.061783,-7550.100608,2834.553343
543.529286,1480.411884,-6809.894666,1455.581446
543.529608,3701.029710,-5033.400406,-612.876398
543.529931,4441.235652,-5995.668130,-1225.752797
543.530253,4441.235652,-7031.956449,-1378.971896
543.530576,4293.194464,-9992.780217,-2221.676944
543.530899,5329.482782,-11029.068536,-1838.629195
543.531221,6587.832884,-11769.274478,-3064.381992
543.531544,6661.853478,-12731.542202,-5056.230287
543.531866,5551.544565,-13841.851115,-3677.258390
543.532189,3182.885551,-12657.521608,-1378.971896
543.532511,592.164754,-10881.027347,-306.438199
543.532834,-962.267725,-10510.924376,-3140.991542
543.533156,-2146.597232,-11473.192101,-3907.087040
543.533479,-2886.803174,-11177.109724,-536.266849
543.533801,-1998.556043,-10066.800811,2528.115143
543.534124,1406.391290,-9474.636058,2145.067394
543.534446,5847.626942,-7624.121203,612.876398
543.534769,8808.450710,-5329.482782,1608.800546
543.535091,9548.656652,-3923.091493,3064.381992
543.535414,9030.512492,-3330.926739,1991.848295
543.535736,7624.121203,-3923.091493,-1149.143247
543.536059,5403.503377,-5033.400406,-3064.381992
543.536381,3034.844362,-7920.203579,-3983.696590
543.536704,296.082377,-10732.986159,-5439.278036
543.537027,-3478.967927,-13545.768739,-5975.544884
543.537349,-5551.544565,-14582.057057,-3447.429741
543.537672,-4737.318029,-14508.036463,-2145.067394
543.537994,-3923.091493,-12361.439231,-5592.497135
543.538317,-3108.864956,-12139.377449,-6665.030833
543.538639,-2664.741391,-11029.068536,-4136.915689
543.538962,444.123565,-11621.233289,-1225.752797
543.539284,3775.050304,-12361.439231,0.000000
543.539607,6217.729913,-11399.171507,306.438199
543.539929,6957.935855,-10510.924376,1532.190996
543.540252,7031.956449,-8586.388927,3677.258390
543.540574,7105.977043,-6143.709319,4519.963438
543.540897,7624.121203,-3775.050304,2987.772442
543.541219,9326.594869,-2886.803174,-842.705048
543.541542,10140.821405,-3627.009116,-2681.334243
543.541864,8512.368333,-5255.462188,-459.657299
543.542187,6291.750507,-6809.894666,2681.334243
543.542510,2368.659014,-10066.800811,153.219100
543.542832,-1702.473667,-13841.851115,-3140.991542
543.543155,-7179.997637,-12657.521608,-3983.696590
543.543477,-11695.253884,-10214.842000,-4979.620737
543.543800,-11843.295072,-10214.842000,-7737.564530
543.544122,-8882.471304,-12435.459826,-8503.660028
543.544445,-6587.832884,-12287.418637,-5362.668486
543.544767,-5033.400406,-10510.924376,-612.876398
543.545090,-3108.864956,-10140.821405,1455.581446
543.545412,-1406.391290,-11843.295072,-1685.410096
543.545735,-1036.288319,-12731.542202,-3140.991542
543.546057,-1998.556043,-9622.677246,-1149.143247
543.546380,-148.041188,-6513.812290,0.000000
543.546702,3923.091493,-5329.482782,-689.485948
543.547025,8216.285956,-5033.400406,-612.876398
543.547347,10288.862594,-4663.297435,1991.848295
543.547670,10807.006753,-4219.173869,3217.601092
543.547993,10807.006753,-8364.327145,1072.533697
543.548315,9696.697840,-12509.480420,-689.485948
543.548638,5625.565159,-13175.665768,-1991.848295
543.548960,222.061783,-11029.068536,-1302.362347
543.549283,-1776.494261,-10066.800811,-1302.362347
543.549605,-370.102971,-11177.109724,-4826.401637
543.549928,-222.061783,-11325.150913,-5592.497135
543.550250,-1332.370696,-10066.800811,-3064.381992
543.550573,-3478.967927,-11251.130318,-919.314598
543.550895,-3552.988522,-14285.974681,0.000000
543.551218,-3552.988522,-13989.892304,-383.047749
543.551540,-5329.482782,-9844.739029,-2451.505594
543.551863,-4589.276840,-7550.100608,-2528.115143
543.552185,222.061783,-6291.750507,-2221.676944
543.552508,4071.132681,-4293.194464,-2911.162892
543.552830,5181.441594,-3552.988522,-689.485948
543.553153,6809.894666,-5181.441594,2528.115143
543.553476,8586.388927,-7254.018232,766.095498
543.553798,7698.141797,-9178.553681,-2068.457845
543.554121,3923.091493,-9918.759623,-2221.676944
543.554443,1332.370696,-10510.924376,-1072.533697
543.554766,1702.473667,-10288.862594,-2221.676944
543.555088,1480.411884,-9918.759623,-2681.334243
543.555411,0.000000,-9548.656652,-2604.724693
543.555733,370.102971,-10658.965565,-1685.410096
543.556056,1332.370696,-12657.521608,229.828649
543.556378,1406.391290,-14211.954086,1149.143247
543.556701,222.061783,-13619.789333,1915.238745
543.557023,1554.432478,-12139.377449,1149.143247
543.557346,4737.318029,-8956.491898,0.000000
543.557668,6957.935855,-5847.626942,-1608.800546
543.557991,6809.894666,-2960.823768,-229.828649
543.558313,5921.647536,-1924.535449,1378.971896
543.558636,5181.441594,-3923.091493,76.609550
543.558959,2812.782580,-8290.306550,-2451.505594
543.559281,-1110.308913,-11399.171507,-2298.286494
543.559604,-4441.235652,-12213.398043,-3447.429741
543.559926,-6143.709319,-12805.562797,-5056.230287
543.560249,-5921.647536,-11547.212695,-5439.278036
543.560571,-7698.141797,-8586.388927,-4673.182538
543.560894,-8882.471304,-10140.821405,-3140.991542
543.561216,-9548.656652,-11843.295072,-1378.971896
543.561539,-8882.471304,-13027.624579,-1532.190996
543.561861,-5773.606348,-12509.480420,-2911.162892
543.562184,-888.247130,-11695.253884,-4213.525239
543.562506,3034.844362,-11769.274478,-1225.752797
543.562829,5033.400406,-8586.388927,4136.915689
543.563151,6439.791695,-3627.009116,5362.668486
543.563474,6587.832884,-666.185348,1378.971896
543.563796,5255.462188,-1924.535449,-2604.724693
543.564119,1554.432478,-4441.235652,-3983.696590
543.564441,-2664.741391,-7698.141797,-4290.134789
543.564764,-5329.482782,-11621.233289,-4290.134789
543.565087,-5699.585753,-12509.480420,-5056.230287
543.565409,-4071.132681,-13841.851115,-5439.278036
543.565732,-3182.885551,-16358.551318,-4979.620737
543.566054,-4441.235652,-15396.283594,-2451.505594
543.566377,-4959.379811,-14582.057057,-1302.362347
543.566699,-3923.091493,-13101.645173,-1378.971896
543.567022,-296.082377,-11917.315666,-2451.505594
543.567344,1702.473667,-10066.800811,-842.705048
543.567667,2812.782580,-6957.935855,2221.676944
543.567989,5033.400406,-5477.523971,2911.162892
543.568312,7846.182985,-5033.400406,2221.676944
543.568634,7994.224174,-3923.091493,1455.581446
543.568957,4737.318029,-2368.659014,1838.629195
543.569279,814.226536,-3627.009116,842.705048
543.569602,-2146.597232,-5699.585753,-2221.676944
543.569924,-4071.132681,-6735.874072,-5515.887586
543.570247,-6291.750507,-8660.409521,-6894.859482
543.570570,-7328.038826,-13175.665768,-6205.373534
543.570892,-7105.977043,-14878.139434,-4519.963438
543.571215,-5847.626942,-16432.571912,-3447.429741
543.571537,-3552.988522,-16358.551318,-3064.381992
543.571860,-444.123565,-16580.613101,-2221.676944
543.572182,2072.576638,-14804.118840,-1072.533697
543.572505,3404.947333,-9474.636058,1455.581446
543.572827,5181.441594,-5773.606348,2145.067394
543.573150,7179.997637,-4737.318029,689.485948
543.573472,9104.533087,-3478.967927,919.314598
543.573795,8364.327145,-2664.741391,2374.896044
543.574117,5255.462188,-2590.720797,2374.896044
543.574440,1850.514855,-4367.215058,1225.752797
543.574762,-1850.514855,-6513.812290,-612.876398
543.575085,-4663.297435,-8586.388927,-2834.553343
543.575407,-5995.668130,-10732.986159,-5056.230287
543.575730,-7402.059420,-12879.583391,-5669.106685
543.576053,-6587.832884,-14211.954086,-4366.744339
543.576375,-4441.235652,-13989.892304,-3677.258390
543.576698,-962.267725,-15248.242405,-2757.943793
543.577020,1850.514855,-14656.077652,76.609550
543.577343,3701.029710,-12435.459826,153.219100
543.577665,4367.215058,-11325.150913,-2145.067394
543.577988,4145.153275,-9474.636058,-1302.362347
543.578310,2738.761985,-6439.791695,1072.533697
543.578633,962.267725,-4515.256246,1302.362347
543.578955,-444.123565,-4071.132681,536.266849
543.579278,-2368.659014,-3330.926739,-766.095498
543.579600,-4811.338623,-2886.803174,-1302.362347
543.579923,-5847.626942,-5255.462188,-1225.752797
543.580245,-7254.018232,-8808.450710,-3064.381992
543.580568,-7105.977043,-12657.521608,-3907.087040
543.580890,-6291.750507,-13249.686362,-2834.553343
543.581213,-3701.029710,-14063.912898,-2681.334243
543.581536,-1184.329507,-13175.665768,-2757.943793
543.581858,1628.453072,-12213.398043,-2068.457845
543.582181,4885.359217,-12435.459826,-1302.362347
543.582503,7328.038826,-11991.336260,-2604.724693
543.582826,7031.956449,-12065.356855,-842.705048
543.583148,5551.544565,-9992.780217,1762.019645
543.583471,3627.009116,-7328.038826,1532.190996
543.583793,1332.370696,-6809.894666,0.000000
543.584116,-2220.617826,-4589.276840,-536.266849
543.584438,-6883.915261,-2812.782580,-1072.533697
543.584761,-9474.636058,-3923.091493,-2374.896044
543.585083,-9770.718434,-6587.832884,-2911.162892
543.585406,-8290.306550,-8808.450710,-3370.820191
543.585728,-5107.421000,-11473.192101,-3907.087040
543.586051,-1332.370696,-12879.583391,-2451.505594
543.586373,814.226536,-12805.562797,-1072.533697
543.586696,3108.864956,-11843.295072,-766.095498
543.587019,4737.318029,-11177.109724,-2221.676944
543.587341,5255.462188,-11103.089130,-3753.867940
543.587664,4219.173869,-10362.883188,-4136.915689
543.587986,3256.906145,-10658.965565,-2451.505594
543.588309,2368.659014,-10732.986159,0.000000
543.588631,814.226536,-9474.636058,306.438199
543.588954,-2146.597232,-6217.729913,0.000000
543.589276,-4515.256246,-4441.235652,0.000000
543.589599,-5551.544565,-4959.379811,-2221.676944
543.589921,-6365.771101,-7402.059420,-3370.820191
543.590244,-6069.688724,-7402.059420,-2757.943793
543.590566,-2664.741391,-8512.368333,-2681.334243
543.590889,1924.535449,-10288.862594,-2068.457845
543.591211,5033.400406,-12213.398043,-995.924147
543.591534,6365.771101,-12953.603985,536.266849
543.591856,7105.977043,-13249.686362,-153.219100
543.592179,7105.977043,-13545.768739,-2374.896044
543.592502,5255.462188,-12213.398043,-2451.505594
543.592824,2146.597232,-8290.306550,-2374.896044
543.593147,444.123565,-7846.182985,-2987.772442
543.593469,-222.061783,-8068.244768,-2757.943793
543.593792,-2220.617826,-6809.894666,-1838.629195
543.594114,-5033.400406,-6587.832884,-1149.143247
543.594437,-7550.100608,-7994.224174,-1302.362347
543.594759,-8586.388927,-8882.471304,-1455.581446
543.595082,-7476.080014,-9622.677246,-2681.334243
543.595404,-3701.029710,-10510.924376,-4749.792088
543.595727,518.144159,-10288.862594,-3140.991542
543.596049,3478.967927,-9104.533087,229.828649
543.596372,5625.565159,-8142.265362,2451.505594
543.596694,6291.750507,-9104.533087,1608.800546
543.597017,5551.544565,-9844.739029,-612.876398
543.597339,3256.906145,-10807.006753,-2221.676944
543.597662,1036.288319,-10214.842000,-1991.848295
543.597984,-592.164754,-8882.471304,-1455.581446
543.598307,-2368.659014,-7550.100608,-1072.533697
543.598630,-3923.091493,-6661.853478,612.876398
543.598952,-5847.626942,-6883.915261,-153.219100
543.599275,-7328.038826,-6661.853478,-2451.505594
543.599597,-8364.327145,-7920.203579,-2604.724693
543.599920,-8068.244768,-9770.718434,-2911.162892
543.600242,-5255.462188,-11547.212695,-2834.553343
543.600565,-740.205942,-12361.439231,-2068.457845
543.600887,3182.885551,-12213.398043,-229.828649
543.601210,5625.565159,-11325.150913,229.828649
543.601532,6661.853478,-10214.842000,-383.047749
543.601855,5329.482782,-8660.409521,-919.314598
543.602177,4293.194464,-8364.327145,-2451.505594
543.602500,3775.050304,-9474.636058,-3677.258390
543.602822,2368.659014,-9474.636058,-2298.286494
543.603145,-222.061783,-7624.121203,-536.266849
543.603467,-2960.823768,-6957.935855,-306.438199
543.603790,-5255.462188,-8290.306550,-612.876398
543.604113,-6365.771101,-10140.821405,-1915.238745
543.604435,-7772.162391,-9770.718434,-2681.334243
543.604758,-7476.080014,-9178.553681,-2681.334243
543.605080,-3849.070898,-9696.697840,-2681.334243
543.605403,1110.308913,-10288.862594,-1838.629195
543.605725,4145.153275,-10214.842000,0.000000
543.606048,5477.523971,-9770.718434,1072.533697
543.606370,5329.482782,-9622.677246,-689.485948
543.606693,4293.194464,-9178.553681,-2528.115143
543.607015,1628.453072,-9548.656652,-2911.162892
543.607338,-740.205942,-9992.780217,-2987.772442
543.607660,-2368.659014,-9326.594869,-3753.867940
543.607983,-3997.112087,-8216.285956,-3370.820191
543.608305,-5329.482782,-7179.997637,-2681.334243
543.608628,-5403.503377,-9326.594869,-2834.553343
543.608950,-6661.853478,-10881.027347,-1991.848295
543.609273,-7105.977043,-10510.924376,-1991.848295
543.609596,-5033.400406,-9622.677246,-3753.867940
543.609918,0.000000,-11177.109724,-3753.867940
543.610241,4811.338623,-10807.006753,-1072.533697
543.610563,7772.162391,-9844.739029,1302.362347
543.610886,8586.388927,-9252.574275,2451.505594
543.611208,8364.327145,-7920.203579,2068.457845
543.611531,6809.894666,-7994.224174,-229.828649
543.611853,4811.338623,-7920.203579,-1915.238745
543.612176,2886.803174,-8438.347739,-2298.286494
543.612498,-592.164754,-7920.203579,-1991.848295
543.612821,-4145.153275,-6957.935855,-536.266849
543.613143,-6661.853478,-6513.812290,-919.314598
543.613466,-7772.162391,-8586.388927,-3294.210641
543.613788,-8068.244768,-10288.862594,-5592.497135
543.614111,-8438.347739,-10288.862594,-4979.620737
543.614433,-6587.832884,-11177.109724,-3983.696590
543.614756,-2294.638420,-13619.789333,-2528.115143
543.615079,1776.494261,-13027.624579,-1378.971896
543.615401,4885.359217,-11843.295072,-306.438199
543.615724,6143.709319,-9770.718434,-689.485948
543.616046,6587.832884,-9030.512492,-1302.362347
543.616369,5181.441594,-7846.182985,-459.657299
543.616691,2886.803174,-6735.874072,306.438199
543.617014,1036.288319,-7698.141797,-306.438199
543.617336,-1406.391290,-7254.018232,-1225.752797
543.617659,-3849.070898,-6217.729913,-1149.143247
543.617981,-5181.441594,-7179.997637,-1072.533697
543.618303,-6661.853478,-9104.533087,-2451.505594
543.618626,-7105.977043,-10140.821405,-1072.533697
543.618948,-6439.791695,-9992.780217,-306.438199
543.619270,-3404.947333,-10066.800811,-2374.896044
543.619593,296.082377,-10584.944971,-3370.820191
543.619915,3627.009116,-11547.212695,-1915.238745
543.620238,5403.503377,-10955.047942,-536.266849
543.620560,7031.956449,-11473.192101,-766.095498
543.620882,6883.915261,-11251.130318,-1072.533697
543.621205,4589.276840,-9326.594869,-842.705048
543.621527,1850.514855,-8438.347739,-153.219100
543.621849,-1110.308913,-7920.203579,-2068.457845
543.622172,-3775.050304,-6217.729913,-2681.334243
543.622494,-6143.709319,-5995.668130,-2145.067394
543.622816,-7920.203579,-7698.141797,-536.266849
543.623139,-9622.677246,-7772.162391,-229.828649
543.623461,-10732.986159,-7476.080014,-1608.800546
543.623784,-8142.265362,-9252.574275,-4826.401637
543.624106,-1480.411884,-12139.377449,-5132.839837
543.624428,3997.112087,-12879.583391,-3830.477490
543.624751,7846.182985,-12139.377449,-459.657299
543.625073,10288.862594,-11621.233289,1991.848295
543.625395,11695.253884,-11399.171507,1762.019645
543.625718,10584.944971,-9770.718434,612.876398
543.626040,6513.812290,-8142.265362,-612.876398
543.626363,1776.494261,-7920.203579,-2374.896044
543.626685,-1332.370696,-7402.059420,-2757.943793
543.627007,-3775.050304,-7031.956449,-1838.629195
543.627330,-6513.812290,-6883.915261,-1455.581446
543.627652,-8586.388927,-9030.512492,-612.876398
543.627974,-10362.883188,-8882.471304,383.047749
543.628297,-10732.986159,-8808.450710,-1991.848295
543.628619,-8438.347739,-8808.450710,-5362.668486
543.628941,-3552.988522,-10288.862594,-5515.887586
543.629264,1554.432478,-11769.274478,-3677.258390
543.629586,6217.729913,-12213.398043,-995.924147
543.629909,8956.491898,-11621.233289,0.000000
543.630231,9400.615463,-11103.089130,-306.438199
543.630553,7920.203579,-10584.944971,-995.924147
543.630876,4589.276840,-10288.862594,-1455.581446
543.631198,1480.411884,-10066.800811,-2451.505594
543.631520,-814.226536,-8956.491898,-3370.820191
543.631843,-3552.988522,-6587.832884,-1378.971896
543.632165,-6217.729913,-5921.647536,383.047749
543.632488,-8438.347739,-6883.915261,229.828649
543.632810,-9696.697840,-6661.853478,459.657299
543.633132,-9178.553681,-7402.059420,-1608.800546
543.633455,-5551.544565,-8808.450710,-2681.334243
543.633777,0.000000,-10807.006753,-3524.039291
543.634099,5255.462188,-11991.336260,-2145.067394
543.634422,8882.471304,-11325.150913,842.705048
543.634744,10066.800811,-10881.027347,2221.676944
543.635066,9030.512492,-10436.903782,1762.019645
543.635389,5699.585753,-8808.450710,-1608.800546
543.635711,1776.494261,-8882.471304,-4290.134789
543.636034,-1628.453072,-9622.677246,-4749.792088
543.636356,-3478.967927,-9548.656652,-3064.381992
543.636678,-5107.421000,-8364.327145,-2451.505594
543.637001,-6809.894666,-7328.038826,-383.047749
543.637323,-7920.203579,-7624.121203,0.000000
543.637645,-9548.656652,-8882.471304,-766.095498
543.637968,-9548.656652,-8290.306550,-2757.943793
543.638290,-7105.977043,-9030.512492,-4519.963438
543.638613,-1998.556043,-10955.047942,-4749.792088
543.638935,3478.967927,-10955.047942,-2145.067394
543.639257,7105.977043,-10658.965565,1378.971896
543.639580,9030.512492,-10362.883188,2451.505594
543.639902,9844.739029,-10214.842000,459.657299
543.640224,7402.059420,-8734.430116,-1302.362347
543.640547,4737.318029,-8364.327145,-2681.334243
543.640869,1554.432478,-9326.594869,-3600.648841
543.641191,-1332.370696,-9474.636058,-3217.601092
543.641514,-5033.400406,-7698.141797,-842.705048
543.641836,-7846.182985,-7698.141797,-383.047749
543.642159,-9622.677246,-9622.677246,-1762.019645
543.642481,-10214.842000,-10140.821405,-1762.019645
543.642803,-8808.450710,-9252.574275,-3217.601092
543.643126,-5107.421000,-8586.388927,-4443.353888
543.643448,1702.473667,-9992.780217,-3600.648841
543.643770,6809.894666,-10658.965565,-459.657299
543.644093,10436.903782,-9992.780217,1608.800546
543.644415,11695.253884,-10436.903782,1072.533697
543.644737,9918.759623,-9844.739029,689.485948
543.645060,6883.915261,-7698.141797,-689.485948
543.645382,3552.988522,-8142.265362,-3064.381992
543.645705,666.185348,-8734.430116,-4826.401637
543.646027,-2886.803174,-8808.450710,-2911.162892
543.646349,-6439.791695,-7624.121203,-995.924147
543.646672,-8734.430116,-8956.491898,-612.876398
543.646994,-9622.677246,-10510.924376,-2221.676944
543.647316,-10881.027347,-10066.800811,-1608.800546
543.647639,-9474.636058,-9992.780217,-3294.210641
543.647961,-4959.379811,-9770.718434,-4519.963438
543.648284,370.102971,-10584.944971,-3524.039291
543.648606,4441.235652,-9326.594869,0.000000
543.648928,7550.100608,-8438.347739,995.924147
543.649251,8512.368333,-9770.718434,0.000000
543.649573,7179.997637,-9696.697840,0.000000
543.649895,4515.256246,-9548.656652,-1149.143247
543.650218,2368.659014,-9918.759623,-2987.772442
543.650540,666.185348,-9252.574275,-3217.601092
543.650862,-2072.576638,-7476.080014,-2221.676944
543.651185,-3923.091493,-7698.141797,-842.705048
543.651507,-6291.750507,-9474.636058,-1149.143247
543.651830,-9104.533087,-10066.800811,-689.485948
543.652152,-10436.903782,-9474.636058,-766.095498
543.652474,-7994.224174,-10658.965565,-3217.601092
543.652797,-3552.988522,-11103.089130,-4519.963438
543.653119,1258.350101,-11621.233289,-1838.629195
543.653441,5403.503377,-9918.759623,1762.019645
543.653764,9178.553681,-9178.553681,1532.190996
543.654086,11251.130318,-9178.553681,153.219100
543.654409,9622.677246,-9030.512492,-229.828649
543.654731,6439.791695,-7846.182985,-459.657299
543.655053,2368.659014,-8068.244768,-2298.286494
543.655376,-1258.350101,-8438.347739,-3753.867940
543.655698,-5255.462188,-8142.265362,-2987.772442
543.656020,-8586.388927,-8216.285956,-2374.896044
543.656343,-10436.903782,-9622.677246,-995.924147
543.656665,-11251.130318,-9400.615463,-1991.848295
543.656987,-10658.965565,-8438.347739,-2528.115143
543.657310,-7105.977043,-10955.047942,-4290.134789
543.657632,-1554.432478,-11325.150913,-3217.601092
543.657955,3182.885551,-10214.842000,-919.314598
543.658277,7179.997637,-9030.512492,1072.533697
543.658599,9918.759623,-8512.368333,1762.019645
543.658922,10436.903782,-8882.471304,1532.190996
543.659244,7402.059420,-7550.100608,919.314598
543.659566,4219.173869,-8290.306550,-919.314598
543.659889,2590.720797,-9474.636058,-3217.601092
543.660211,296.082377,-8586.388927,-3600.648841
543.660534,-3256.906145,-7105.977043,-1685.410096
543.660856,-6587.832884,-7994.224174,-842.705048
543.661178,-7772.162391,-11621.233289,-1225.752797
543.661501,-8290.306550,-10362.883188,-1991.848295
543.661823,-7179.997637,-9918.759623,-3753.867940
543.662145,-4811.338623,-10955.047942,-5362.668486
543.662468,0.000000,-11621.233289,-3447.429741
543.662790,4367.215058,-11547.212695,-229.828649
543.663112,8142.265362,-10436.903782,459.657299
543.663435,11177.109724,-10732.986159,-306.438199
543.663757,11473.192101,-10732.986159,1149.143247
543.664080,8142.265362,-7772.162391,1149.143247
543.664402,4293.194464,-7105.977043,0.000000
543.664724,1036.288319,-7846.182985,-1838.629195
543.665047,-2368.659014,-7550.100608,-2451.505594
543.665369,-6883.915261,-6957.935855,-2681.334243
543.665691,-11029.068536,-7105.977043,-1838.629195
543.666014,-12287.418637,-8216.285956,-1915.238745
543.666336,-12657.521608,-8438.347739,-2451.505594
543.666659,-10436.903782,-10510.924376,-4979.620737
543.666981,-5921.647536,-12805.562797,-5669.106685
543.667303,-1776.494261,-12731.542202,-2834.553343
543.667626,2516.700203,-10510.924376,-383.047749
543.667948,7254.018232,-10362.883188,-1149.143247
543.668270,10436.903782,-11547.212695,-1762.019645
543.668593,9548.656652,-10881.027347,612.876398
543.668915,5255.462188,-8438.347739,2145.067394
543.669237,2590.720797,-6069.688724,-153.219100
543.669560,888.247130,-6365.771101,-4060.306139
543.669882,-1184.329507,-7179.997637,-4903.011187
543.670205,-4885.359217,-7328.038826,-1685.410096
543.670527,-9104.533087,-7402.059420,766.095498
543.670849,-9992.780217,-8808.450710,229.828649
543.671172,-8290.306550,-9178.553681,-1991.848295
543.671494,-6439.791695,-9548.656652,-5056.230287
543.671816,-2960.823768,-10955.047942,-4366.744339
543.672139,814.226536,-11843.295072,-1149.143247
543.672461,4367.215058,-11029.068536,0.000000
543.672783,7846.182985,-10066.800811,-919.314598
543.673106,10214.842000,-11917.315666,-995.924147
543.673428,9474.636058,-11473.192101,-766.095498
543.673751,7031.956449,-9400.615463,-383.047749
543.674073,3552.988522,-8882.471304,-1838.629195
543.674395,814.226536,-8438.347739,-2681.334243
543.674718,-2368.659014,-7994.224174,-2528.115143
543.675040,-5921.647536,-7772.162391,-2451.505594
543.675362,-8956.491898,-9030.512492,-1072.533697
543.675685,-10214.842000,-8438.347739,-842.705048
543.676007,-10214.842000,-7254.018232,-2604.724693
543.676330,-7772.162391,-9030.512492,-5056.230287
543.676652,-2886.803174,-11769.274478,-3294.210641
543.676974,2072.576638,-11991.336260,-842.705048
543.677297,6661.853478,-11103.089130,0.000000
543.677619,9178.553681,-10510.924376,1072.533697
543.677941,8216.285956,-10066.800811,2528.115143
543.678264,4959.379811,-8734.430116,1991.848295
543.678586,3034.844362,-7772.162391,-919.314598
543.678908,2368.659014,-7402.059420,-4903.011187
543.679231,1110.308913,-7105.977043,-5362.668486
543.679553,-1406.391290,-6957.935855,-1302.362347
543.679876,-3330.926739,-7550.100608,1532.190996
543.680198,-6439.791695,-9844.739029,766.095498
543.680520,-8290.306550,-10732.986159,-229.828649
543.680843,-9326.594869,-9844.739029,-2911.162892
543.681165,-6735.874072,-9622.677246,-5975.544884
543.681487,-3108.864956,-9844.739029,-4060.306139
543.681810,1628.453072,-9844.739029,0.000000
543.682132,4885.359217,-8882.471304,2068.457845
543.682455,7550.100608,-9474.636058,842.705048
543.682777,8290.306550,-10658.965565,-153.219100
543.683099,6365.771101,-9252.574275,-306.438199
543.683422,4441.235652,-9030.512492,-919.314598
543.683744,1850.514855,-8734.430116,-3064.381992
543.684066,74.020594,-8142.265362,-3600.648841
543.684389,-2812.782580,-7402.059420,-1991.848295
543.684711,-4959.379811,-7920.203579,-766.095498
543.685033,-5921.647536,-9548.656652,-1838.629195
543.685356,-7328.038826,-10066.800811,-3753.867940
543.685678,-6365.771101,-10288.862594,-4519.963438
543.686001,-3923.091493,-12139.377449,-3677.258390
543.686323,-1184.329507,-13249.686362,-612.876398
543.686645,1258.350101,-10510.924376,76.609550
543.686968,4219.173869,-9104.533087,-1532.190996
543.687290,5033.400406,-8882.471304,-1149.143247
543.687612,3923.091493,-8956.491898,76.609550
543.687935,1554.432478,-7920.203579,0.000000
543.688257,518.144159,-7772.162391,-1302.362347
543.688580,888.247130,-8364.327145,-2451.505594
543.688902,-888.247130,-7328.038826,-1072.533697
543.689224,-2738.761985,-6957.935855,-612.876398
543.689547,-4811.338623,-9326.594869,-2374.896044
543.689869,-6069.688724,-11843.295072,-2068.457845
543.690191,-8290.306550,-10288.862594,-919.314598
543.690514,-7846.182985,-10066.800811,-3064.381992
543.690836,-4737.318029,-11029.068536,-4903.011187
543.691158,-518.144159,-11621.233289,-4519.963438
543.691481,2368.659014,-11325.150913,-1991.848295
543.691803,4737.318029,-11769.274478,536.266849
543.692126,5773.606348,-11843.295072,1762.019645
543.692448,4145.153275,-8956.491898,919.314598
543.692770,2812.782580,-6513.812290,-1302.362347
543.693093,2294.638420,-7402.059420,-2757.943793
543.693415,740.205942,-6883.915261,-2221.676944
543.693737,-666.185348,-6883.915261,-1455.581446
543.694060,-3478.967927,-6291.750507,0.000000
543.694382,-4219.173869,-8142.265362,-306.438199
543.694705,-4589.276840,-10436.903782,-1225.752797
543.695027,-5033.400406,-10510.924376,-2451.505594
543.695349,-4515.256246,-10510.924376,-3064.381992
543.695672,-1998.556043,-10807.006753,-2987.772442
543.695994,1110.308913,-9918.759623,-1991.848295
543.696316,3478.967927,-10140.821405,-536.266849
543.696639,5255.462188,-10807.006753,0.000000
543.696961,5403.503377,-10436.903782,-1302.362347
543.697283,4589.276840,-9474.636058,-995.924147
543.697606,2886.803174,-8808.450710,-766.095498
543.697928,1776.494261,-8068.244768,-1302.362347
543.698251,444.123565,-7179.997637,-2221.676944
543.698573,-1850.514855,-7105.977043,-1532.190996
543.698895,-4293.194464,-6957.935855,-306.438199
543.699218,-6439.791695,-6587.832884,-1762.019645
543.699540,-6809.894666,-8586.388927,-3447.429741
543.699862,-6513.812290,-10140.821405,-2987.772442
543.700185,-3627.009116,-12287.418637,-3447.429741
543.700507,-888.247130,-13175.665768,-2834.553343
543.700829,2368.659014,-12731.542202,-995.924147
543.701152,4441.235652,-11473.192101,842.705048
543.701474,6069.688724,-10214.842000,-153.219100
543.701797,5773.606348,-9622.677246,-1149.143247
543.702119,3701.029710,-7846.182985,0.000000
543.702441,1554.432478,-6365.771101,-1149.143247
543.702764,1554.432478,-7105.977043,-2911.162892
543.703086,666.185348,-7105.977043,-2451.505594
543.703408,-1702.473667,-6809.894666,-1225.752797
543.703731,-3997.112087,-8364.327145,-766.095498
543.704053,-5107.421000,-11103.089130,-1149.143247
543.704376,-6365.771101,-11177.109724,-1072.533697
543.704698,-6957.935855,-9696.697840,-2757.943793
543.705020,-5477.523971,-9252.574275,-4903.011187
543.705343,-2368.659014,-10362.883188,-4596.572988
543.705665,962.267725,-11103.089130,-2528.115143
543.705987,3034.844362,-10658.965565,-459.657299
543.706310,3923.091493,-10732.986159,-229.828649
543.706632,3997.112087,-10732.986159,-1149.143247
543.706954,3256.906145,-9030.512492,-1685.410096
543.707277,2664.741391,-8216.285956,-1838.629195
543.707599,1850.514855,-8142.265362,-2451.505594
543.707922,-296.082377,-7550.100608,-1991.848295
543.708244,-3182.885551,-6735.874072,-153.219100
543.708566,-5033.400406,-7698.141797,306.438199
543.708889,-5847.626942,-9178.553681,-1532.190996
543.709211,-5403.503377,-9992.780217,-2834.553343
543.709533,-3627.009116,-9696.697840,-2987.772442
543.709856,-814.226536,-10584.944971,-3677.258390
543.710178,1480.411884,-10436.903782,-2068.457845
543.710501,3552.988522,-10066.800811,536.266849
543.710823,3997.112087,-9844.739029,-229.828649
543.711145,3256.906145,-9400.615463,-1225.752797
543.711468,1406.391290,-9252.574275,-2757.943793
543.711790,0.000000,-9178.553681,-2911.162892
543.712112,370.102971,-11103.089130,-2987.772442
543.712435,296.082377,-10732.986159,-2145.067394
543.712757,-1998.556043,-7920.203579,-153.219100
543.713079,-4589.276840,-7105.977043,-766.095498
543.713402,-5329.482782,-9770.718434,-1991.848295
543.713724,-5625.565159,-10510.924376,-2604.724693
543.714047,-6069.688724,-8808.450710,-1991.848295
543.714369,-5699.585753,-6735.874072,-2757.943793
543.714691,-1998.556043,-9326.594869,-2757.943793
543.715014,2220.617826,-10955.047942,-1762.019645
543.715336,4367.215058,-9992.780217,-612.876398
543.715658,4367.215058,-10214.842000,-306.438199
543.715981,4219.173869,-10807.006753,306.438199
543.716303,4737.318029,-9474.636058,-229.828649
543.716626,3701.029710,-7254.018232,-1991.848295
543.716948,2812.782580,-7994.224174,-1608.800546
543.717270,1184.329507,-9474.636058,-536.266849
543.717593,-1480.411884,-8364.327145,-766.095498
543.717915,-4367.215058,-7254.018232,76.609550
543.718237,-5107.421000,-8586.388927,-995.924147
543.718560,-5773.606348,-10288.862594,-2681.334243
543.718882,-4811.338623,-11177.109724,-2834.553343
543.719204,-2516.700203,-10362.883188,-2451.505594
543.719527,888.247130,-9474.636058,-2374.896044
543.719849,3849.070898,-9400.615463,-612.876398
543.720172,5551.544565,-9622.677246,919.314598
543.720494,5403.503377,-9622.677246,153.219100
543.720816,4071.132681,-9474.636058,-612.876398
543.721139,2812.782580,-8364.327145,-689.485948
543.721461,1850.514855,-8882.471304,-1608.800546
543.721783,1332.370696,-9622.677246,-1991.848295
543.722106,-296.082377,-8660.409521,-1302.362347
543.722428,-2738.761985,-8290.306550,-1225.752797
543.722750,-4145.153275,-9770.718434,-459.657299
543.723073,-5995.668130,-9474.636058,0.000000
543.723395,-7254.018232,-8438.347739,-1608.800546
543.723717,-7031.956449,-8216.285956,-4213.525239
543.724040,-3478.967927,-9770.718434,-4826.401637
543.724362,814.226536,-11399.171507,-3064.381992
543.724684,3552.988522,-11325.150913,-536.266849
543.725007,5181.441594,-10658.965565,612.876398
543.725329,5847.626942,-10955.047942,842.705048
543.725652,5773.606348,-9770.718434,-766.095498
543.725974,3330.926739,-7402.059420,-1225.752797
543.726296,1258.350101,-7105.977043,-2451.505594
543.726619,-296.082377,-8364.327145,-3677.258390
543.726941,-2368.659014,-7550.100608,-2451.505594
543.727263,-4737.318029,-6365.771101,-766.095498
543.727586,-6883.915261,-8586.388927,-459.657299
543.727908,-8216.285956,-10955.047942,-1072.533697
543.728230,-8734.430116,-11177.109724,-1991.848295
543.728553,-7920.203579,-9918.759623,-2987.772442
543.728875,-4589.276840,-10955.047942,-3753.867940
543.729197,-592.164754,-10881.027347,-2604.724693
543.729520,2220.617826,-9992.780217,-306.438199
543.729842,3552.988522,-8364.327145,153.219100
543.730164,4441.235652,-8216.285956,-1532.190996
543.730487,4441.235652,-8068.244768,-2451.505594
543.730809,4071.132681,-8660.409521,-2757.943793
543.731131,2664.741391,-9844.739029,-3217.601092
543.731454,814.226536,-10140.821405,-2834.553343
543.731776,-814.226536,-9696.697840,-2604.724693
543.732099,-3923.091493,-9474.636058,-1991.848295
543.732421,-4959.379811,-11103.089130,-1685.410096
543.732743,-6291.750507,-9696.697840,-2221.676944
543.733066,-5995.668130,-8142.265362,-2757.943793
543.733388,-3923.091493,-7846.182985,-3447.429741
543.733710,-222.061783,-9696.697840,-2451.505594
543.734033,3701.029710,-11251.130318,-383.047749
543.734355,6365.771101,-10436.903782,842.705048
543.734677,7105.977043,-9252.574275,536.266849
543.735000,7105.977043,-8882.471304,536.266849
543.735322,5995.668130,-7179.997637,-383.047749
543.735644,3775.050304,-6809.894666,-2604.724693
543.735967,1776.494261,-8734.430116,-3447.429741
543.736289,-518.144159,-9252.574275,-3370.820191
543.736611,-3552.988522,-8512.368333,-3294.210641
543.736934,-5995.668130,-10584.944971,-3140.991542
543.737256,-6957.935855,-12583.501014,-2221.676944
543.737578,-7846.182985,-12509.480420,-1378.971896
543.737901,-7402.059420,-9622.677246,-2451.505594
543.738223,-4145.153275,-8364.327145,-3524.039291
543.738546,-148.041188,-8808.450710,-2834.553343
543.738868,2738.761985,-8734.430116,-2145.067394
543.739190,4737.318029,-8586.388927,383.047749
543.739513,5551.544565,-8438.347739,2068.457845
543.739835,6365.771101,-8512.368333,459.657299
543.740157,5995.668130,-8438.347739,-1838.629195
543.740480,4293.194464,-8660.409521,-1072.533697
543.740802,2220.617826,-9400.615463,0.000000
543.741124,0.000000,-7624.121203,0.000000
543.741447,-2442.679609,-6957.935855,-1915.238745
543.741769,-4737.318029,-7994.224174,-2221.676944
543.742091,-7550.100608,-10584.944971,-1915.238745
543.742414,-9770.718434,-10362.883188,-536.266849
543.742736,-9474.636058,-10658.965565,-1608.800546
543.743058,-4663.297435,-9918.759623,-4519.963438
543.743381,1110.308913,-10362.883188,-5132.839837
543.743703,5477.523971,-10732.986159,-153.219100
543.744025,6513.812290,-8956.491898,3447.429741
543.744348,6957.935855,-8734.430116,1455.581446
543.744670,6069.688724,-9992.780217,-383.047749
543.744993,4589.276840,-10436.903782,-383.047749
543.745315,2220.617826,-9178.553681,-2451.505594
543.745637,0.000000,-7550.100608,-3524.039291
543.745960,-1924.535449,-7105.977043,-1838.629195
543.746282,-3552.988522,-7920.203579,-1225.752797
543.746604,-6217.729913,-8660.409521,-1532.190996
543.746927,-7994.224174,-10881.027347,-1149.143247
543.747249,-9326.594869,-10214.842000,-2528.115143
543.747571,-7328.038826,-10955.047942,-5056.230287
543.747894,-4145.153275,-10955.047942,-6052.154434
543.748216,-296.082377,-11695.253884,-3370.820191
543.748538,3182.885551,-10955.047942,383.047749
543.748861,6439.791695,-9992.780217,1378.971896
543.749183,8512.368333,-8882.471304,766.095498
543.749505,7402.059420,-7254.018232,-1378.971896
543.749828,4737.318029,-6513.812290,-1455.581446
543.750150,2738.761985,-8438.347739,-1762.019645
543.750472,1110.308913,-9474.636058,-1532.190996
543.750795,-2368.659014,-7105.977043,-1608.800546
543.751117,-5403.503377,-6735.874072,-995.924147
543.751440,-7179.997637,-7994.224174,-1072.533697
543.751762,-7698.141797,-10510.924376,-1915.238745
543.752084,-8068.244768,-9178.553681,-2604.724693
543.752407,-6883.915261,-9770.718434,-4290.134789
543.752729,-3330.926739,-11177.109724,-3753.867940
543.753051,1776.494261,-12879.583391,-2451.505594
543.753374,5255.462188,-12139.377449,-1532.190996
543.753696,7105.977043,-9992.780217,-766.095498
543.754018,8216.285956,-10584.944971,-766.095498
543.754341,7179.997637,-10066.800811,229.828649
543.754663,4885.359217,-7772.162391,-842.705048
543.754985,2146.597232,-7550.100608,-689.485948
543.755308,666.185348,-7624.121203,-2298.286494
543.755630,-1258.350101,-7846.182985,-2374.896044
543.755952,-4145.153275,-8142.265362,-1608.800546
543.756275,-7105.977043,-9104.533087,536.266849
543.756597,-8068.244768,-9252.574275,459.657299
543.756919,-7402.059420,-8734.430116,-1225.752797
543.757242,-4959.379811,-8660.409521,-4903.011187
543.757564,-1406.391290,-9548.656652,-4903.011187
543.757886,1776.494261,-11177.109724,-2145.067394
543.758209,4367.215058,-11251.130318,842.705048
543.758531,5625.565159,-9844.739029,842.705048
543.758854,5329.482782,-10288.862594,-1455.581446
543.759176,4145.153275,-9178.553681,-2451.505594
543.759498,2664.741391,-8660.409521,-2528.115143
543.759821,1184.329507,-9474.636058,-3907.087040
543.760143,-370.102971,-9474.636058,-2757.943793
543.760465,-3478.967927,-7772.162391,-919.314598
543.760788,-5403.503377,-8882.471304,612.876398
543.761110,-7920.203579,-9622.677246,0.000000
543.761432,-8512.368333,-9326.594869,-1378.971896
543.761755,-7772.162391,-8734.430116,-3064.381992
543.762077,-4959.379811,-8512.368333,-3064.381992
543.762399,-1258.350101,-9326.594869,-1532.190996
543.762722,2368.659014,-9474.636058,0.000000
543.763044,4885.359217,-9252.574275,842.705048
543.763366,5921.647536,-9104.533087,-689.485948
543.763689,6069.688724,-9844.739029,-1225.752797
543.764011,4737.318029,-8438.347739,-1685.410096
543.764333,3404.947333,-8364.327145,-2604.724693
543.764656,3034.844362,-9918.759623,-2451.505594
543.764978,1480.411884,-9918.759623,-2068.457845
543.765301,-2146.597232,-9622.677246,-689.485948
543.765623,-5403.503377,-9548.656652,-689.485948
543.765945,-7402.059420,-10066.800811,-1378.971896
543.766268,-8586.388927,-9326.594869,-2221.676944
543.766590,-6957.935855,-9178.553681,-3983.696590
543.766912,-3552.988522,-9696.697840,-3524.039291
543.767235,666.185348,-10066.800811,-1915.238745
543.767557,4293.194464,-9030.512492,689.485948
543.767879,6439.791695,-8216.285956,1532.190996
543.768202,7328.038826,-8956.491898,383.047749
543.768524,6735.874072,-9178.553681,-919.314598
543.768846,4663.297435,-9474.636058,-919.314598
543.769169,2442.679609,-8956.491898,-919.314598
543.769491,1110.308913,-9030.512492,-2298.286494
543.769813,-1332.370696,-7624.121203,-3294.210641
543.770136,-3775.050304,-8882.471304,-2834.553343
543.770458,-6661.853478,-11029.068536,-1915.238745
543.770780,-7476.080014,-13027.624579,-1685.410096
543.771103,-8290.306550,-10658.965565,-2145.067394
543.771425,-6513.812290,-10066.800811,-4060.306139
543.771748,-2812.782580,-10066.800811,-2451.505594
543.772070,1036.288319,-9770.718434,-1685.410096
543.772392,3997.112087,-8734.430116,-612.876398
543.772715,6069.688724,-7624.121203,306.438199
543.773037,8068.244768,-8364.327145,995.924147
543.773359,8512.368333,-8586.388927,0.000000
543.773682,6735.874072,-7179.997637,-306.438199
543.774004,3478.967927,-8586.388927,76.609550
543.774326,740.205942,-8734.430116,-1149.143247
543.774649,-2220.617826,-7476.080014,-2911.162892
543.774971,-5477.523971,-8364.327145,-3140.991542
543.775293,-9104.533087,-10066.800811,-1838.629195
543.775616,-10140.821405,-11473.192101,-1915.238745
543.775938,-9622.677246,-9770.718434,-2451.505594
543.776260,-6365.771101,-9622.677246,-4903.011187
543.776583,-1628.453072,-11103.089130,-5362.668486
543.776905,2368.659014,-12139.377449,-2528.115143
543.777227,3627.009116,-9844.739029,842.705048
543.777550,5181.441594,-8808.450710,-689.485948
543.777872,6365.771101,-10510.924376,-1685.410096
543.778195,6143.709319,-10584.944971,-842.705048
543.778517,4071.132681,-8512.368333,-1149.143247
543.778839,2220.617826,-6143.709319,-1225.752797
543.779162,592.164754,-6291.750507,-842.705048
543.779484,-1184.329507,-7031.956449,-919.314598
543.779806,-3256.906145,-7328.038826,-1532.190996
543.780129,-5995.668130,-8882.471304,-1149.143247
543.780451,-8290.306550,-10214.842000,-383.047749
543.780773,-8068.244768,-10066.800811,-1149.143247
543.781096,-5477.523971,-10584.944971,-3753.867940
543.781418,-1998.556043,-11621.233289,-4519.963438
543.781740,1258.350101,-11177.109724,-2374.896044
543.782063,4663.297435,-10066.800811,383.047749
543.782385,7105.977043,-9400.615463,1072.533697
543.782707,7920.203579,-9770.718434,-612.876398
543.783030,5255.462188,-8734.430116,-229.828649
543.783352,2072.576638,-7846.182985,0.000000
543.783674,-222.061783,-8808.450710,-1915.238745
543.783997,-2368.659014,-8438.347739,-3677.258390
543.784319,-5255.462188,-7105.977043,-4060.306139
543.784642,-7402.059420,-7105.977043,-2298.286494
543.784964,-9030.512492,-8586.388927,-536.266849
543.785286,-9770.718434,-9844.739029,-766.095498
543.785609,-8142.265362,-10214.842000,-3294.210641
543.785931,-3108.864956,-11177.109724,-4903.011187
543.786253,444.123565,-11843.295072,-3524.039291
543.786576,3627.009116,-11029.068536,-383.047749
543.786898,6291.750507,-9844.739029,1225.752797
543.787220,7920.203579,-9474.636058,536.266849
543.787543,8734.430116,-9252.574275,0.000000
543.787865,6661.853478,-7920.203579,-383.047749
543.788187,4589.276840,-7105.977043,-995.924147
543.788510,2738.761985,-8808.450710,-1378.971896
543.788832,1110.308913,-8956.491898,-1608.800546
543.789154,-1184.329507,-7920.203579,-766.095498
543.789477,-3701.029710,-8956.491898,-766.095498
543.789799,-7031.956449,-9844.739029,-536.266849
543.790121,-9400.615463,-8660.409521,-1225.752797
543.790444,-8660.409521,-8882.471304,-4213.525239
543.790766,-5255.462188,-10362.883188,-5209.449386
543.791089,-1406.391290,-11695.253884,-3140.991542
543.791411,2072.576638,-11843.295072,-1532.190996
543.791733,4293.194464,-11251.130318,-153.219100
543.792056,5773.606348,-10214.842000,153.219100
543.792378,5921.647536,-10436.903782,-536.266849
543.792700,4737.318029,-8660.409521,-1149.143247
543.793023,3330.926739,-8586.388927,-2528.115143
543.793345,1036.288319,-7402.059420,-2681.334243
543.793667,-1110.308913,-6587.832884,-1532.190996
543.793990,-3701.029710,-6809.894666,-1149.143247
543.794312,-4737.318029,-8512.368333,-1762.019645
543.794634,-5625.565159,-10881.027347,-1915.238745
543.794957,-5921.647536,-11177.109724,-1378.971896
543.795279,-4441.235652,-11029.068536,-2221.676944
543.795601,-666.185348,-11399.171507,-2145.067394
543.795924,2294.638420,-11621.233289,-1378.971896
543.796246,3182.885551,-9474.636058,842.705048
543.796568,4441.235652,-7920.203579,995.924147
543.796891,5033.400406,-7920.203579,-1149.143247
543.797213,4145.153275,-8290.306550,-1915.238745
543.797536,2368.659014,-8142.265362,0.000000
543.797858,1036.288319,-8364.327145,-689.485948
543.798180,0.000000,-9252.574275,-2298.286494
543.798503,-1184.329507,-9622.677246,-1915.238745
543.798825,-3923.091493,-8586.388927,-842.705048
543.799147,-6809.894666,-8512.368333,-1302.362347
543.799470,-9030.512492,-7920.203579,-2145.067394
543.799792,-9400.615463,-8586.388927,-1608.800546
543.800114,-7254.018232,-9400.615463,-4366.744339
543.800437,-3256.906145,-10214.842000,-4749.792088
543.800759,-148.041188,-11621.233289,-2757.943793
543.801081,2886.803174,-11103.089130,153.219100
543.801404,5551.544565,-10510.924376,459.657299
543.801726,6513.812290,-10288.862594,306.438199
543.802048,4811.338623,-8956.491898,-766.095498
543.802371,3034.844362,-7698.141797,-1302.362347
543.802693,1406.391290,-6957.935855,-1762.019645
543.803015,-444.123565,-6735.874072,-1685.410096
543.803338,-2664.741391,-6217.729913,-1685.410096
543.803660,-4145.153275,-7846.182985,-1455.581446
543.803983,-4071.132681,-9696.697840,-1532.190996
543.804305,-3404.947333,-12287.418637,-1225.752797
543.804627,-3701.029710,-11843.295072,-536.266849
543.804950,-2960.823768,-11325.150913,-1685.410096
543.805272,-296.082377,-10955.047942,-2834.553343
543.805594,2072.576638,-10214.842000,-2451.505594
543.805917,4071.132681,-9474.636058,-1532.190996
543.806239,5255.462188,-8586.388927,-1532.190996
543.806561,5403.503377,-9474.636058,-2834.553343
543.806884,4959.379811,-10658.965565,-306.438199
543.807206,3108.864956,-10214.842000,459.657299
543.807528,888.247130,-9400.615463,-1838.629195
543.807851,-1332.370696,-9030.512492,-3677.258390
543.808173,-3627.009116,-7254.018232,-2451.505594
543.808495,-5847.626942,-5995.668130,-2528.115143
543.808818,-8660.409521,-6439.791695,-3064.381992
543.809140,-9252.574275,-8956.491898,-2451.505594
543.809462,-7254.018232,-11177.109724,-3600.648841
543.809785,-3404.947333,-12657.521608,-3677.258390
543.810107,0.000000,-13027.624579,-2451.505594
543.810430,2812.782580,-12213.398043,-459.657299
543.810752,5995.668130,-10732.986159,76.609550
543.811074,7994.224174,-8882.471304,-306.438199
543.811397,7550.100608,-7328.038826,0.000000
543.811719,4737.318029,-4589.276840,229.828649
543.812041,2368.659014,-4885.359217,-1302.362347
543.812364,74.020594,-7994.224174,-2374.896044
543.812686,-2664.741391,-8586.388927,-2374.896044
543.813008,-4885.359217,-8586.388927,-1991.848295
543.813331,-4589.276840,-10510.924376,-1225.752797
543.813653,-5107.421000,-11325.150913,-1149.143247
543.813975,-5995.668130,-9992.780217,0.000000
543.814298,-6217.729913,-8290.306550,-2068.457845
543.814620,-4219.173869,-9326.594869,-3600.648841
543.814942,-1184.329507,-10881.027347,-3447.429741
543.815265,1998.556043,-10658.965565,-3447.429741
543.815587,3627.009116,-10881.027347,-3140.991542
543.815909,5477.523971,-12139.377449,-1149.143247
543.816232,5847.626942,-11843.295072,1762.019645
543.816554,4367.215058,-9178.553681,1225.752797
543.816876,3404.947333,-7328.038826,-1378.971896
543.817199,1628.453072,-6883.915261,-2757.943793
543.817510,-1406.391290,-5995.668130,-2145.067394
543.817832,-4811.338623,-5625.565159,-1378.971896
543.818155,-6217.729913,-7402.059420,-919.314598
543.818477,-7105.977043,-9252.574275,-1225.752797
543.818799,-6217.729913,-11029.068536,-1532.190996
543.819122,-4441.235652,-12583.501014,-2604.724693
543.819444,-1110.308913,-13027.624579,-3677.258390
543.819767,1628.453072,-12287.418637,-2451.505594
543.820089,3701.029710,-10955.047942,0.000000
543.820412,5255.462188,-9030.512492,536.266849
543.820734,5181.441594,-8586.388927,-766.095498
543.821057,2812.782580,-7402.059420,-766.095498
543.821379,74.020594,-6587.832884,-306.438199
543.821701,-740.205942,-8068.244768,-1762.019645
543.822024,-1332.370696,-9252.574275,-2834.553343
543.822346,-1776.494261,-8956.491898,-2298.286494
543.822669,-3182.885551,-8734.430116,-1455.581446
543.822991,-3330.926739,-11325.150913,-766.095498
543.823314,-4737.318029,-9844.739029,766.095498
543.823636,-6069.688724,-7402.059420,153.219100
543.823958,-4811.338623,-7624.121203,-4290.134789
543.824281,-962.267725,-10881.027347,-4596.572988
543.824603,1776.494261,-11399.171507,-2911.162892
543.824926,3404.947333,-10732.986159,-1072.533697
543.825248,5033.400406,-10362.883188,1685.410096
543.825571,7031.956449,-10436.903782,2528.115143
543.825893,5995.668130,-8364.327145,-153.219100
543.826215,2886.803174,-6439.791695,-2068.457845
543.826538,-222.061783,-7550.100608,-1608.800546
543.826860,-3034.844362,-7105.977043,-1915.238745
543.827183,-4663.297435,-6883.915261,-2834.553343
543.827505,-4959.379811,-7254.018232,-3370.820191
543.827828,-5181.441594,-9400.615463,-2451.505594
543.828150,-5625.565159,-10732.986159,-1072.533697
543.828473,-5773.606348,-12065.356855,-612.876398
543.828795,-4071.132681,-11325.150913,-2528.115143
543.829117,-740.205942,-11695.253884,-4519.963438
543.829440,1258.350101,-11547.212695,-3830.477490
543.829762,2812.782580,-10510.924376,-842.705048
543.830085,3627.009116,-9474.636058,383.047749
543.830407,2812.782580,-7698.141797,-1225.752797
543.830730,1258.350101,-6291.750507,-689.485948
543.831052,0.000000,-8142.265362,-1302.362347
543.831374,-814.226536,-11621.233289,-2834.553343
543.831697,-3330.926739,-10362.883188,-2757.943793
543.832019,-5921.647536,-8068.244768,-1608.800546
543.832342,-7031.956449,-7994.224174,-1225.752797
543.832664,-6365.771101,-10066.800811,-1685.410096
543.832987,-6809.894666,-9252.574275,-2757.943793
543.833309,-7254.018232,-8734.430116,-2911.162892
543.833632,-5625.565159,-9622.677246,-2528.115143
543.833954,-2368.659014,-11621.233289,-2757.943793
543.834276,0.000000,-11621.233289,-2451.505594
543.834599,2220.617826,-9030.512492,-1225.752797
543.834921,4219.173869,-9400.615463,-2528.115143
543.835244,5477.523971,-11177.109724,-2374.896044
543.835566,2738.761985,-10510.924376,229.828649
543.835889,-1332.370696,-7846.182985,1225.752797
543.836211,-3108.864956,-7031.956449,-1225.752797
543.836533,-4071.132681,-7328.038826,-4213.525239
543.836856,-5773.606348,-7105.977043,-4136.915689
543.837178,-8216.285956,-6069.688724,-2374.896044
543.837501,-8734.430116,-8808.450710,-2528.115143
543.837823,-8438.347739,-11843.295072,-2451.505594
543.838146,-7846.182985,-12657.521608,0.000000
543.838468,-6587.832884,-9548.656652,-612.876398
543.838790,-3108.864956,-8956.491898,-3677.258390
543.839113,296.082377,-10362.883188,-4060.306139
543.839435,3182.885551,-9178.553681,-1149.143247
543.839758,3256.906145,-7105.977043,842.705048
543.840080,4663.297435,-7105.977043,536.266849
543.840403,4663.297435,-9992.780217,-1149.143247
543.840725,2886.803174,-10807.006753,-1302.362347
543.841048,0.000000,-8586.388927,-1378.971896
543.841370,-1998.556043,-7698.141797,-2604.724693
543.841692,-3108.864956,-8808.450710,-2604.724693
543.842015,-5329.482782,-8290.306550,-612.876398
543.842337,-8216.285956,-6735.874072,-1532.190996
543.842660,-9474.636058,-9474.636058,-4366.744339
543.842982,-10584.944971,-12731.542202,-2911.162892
543.843305,-10288.862594,-14359.995275,-1838.629195
543.843627,-7624.121203,-12287.418637,-1532.190996
543.843949,-2960.823768,-9474.636058,-2451.505594
543.844272,2146.597232,-8142.265362,-2757.943793
543.844594,5847.626942,-7772.162391,-766.095498
543.844917,6291.750507,-7105.977043,1991.848295
543.845239,6513.812290,-7031.956449,0.000000
543.845562,5773.606348,-8586.388927,-3217.601092
543.845884,2516.700203,-10140.821405,-2528.115143
543.846206,-3404.947333,-9400.615463,76.609550
543.846529,-7402.059420,-7994.224174,-459.657299
543.846851,-6735.874072,-8882.471304,-3753.867940
543.847174,-4737.318029,-10955.047942,-5745.716235
543.847496,-6883.915261,-11473.192101,-3370.820191
543.847819,-9844.739029,-9770.718434,689.485948
543.848141,-9178.553681,-10881.027347,229.828649
543.848464,-5625.565159,-12953.603985,-2528.115143
543.848786,-3478.967927,-11769.274478,-3753.867940
543.849108,-2960.823768,-10140.821405,-3064.381992
543.849431,-1628.453072,-7846.182985,-306.438199
543.849753,2294.638420,-7105.977043,2528.115143
543.850076,6143.709319,-6217.729913,1915.238745
543.850398,7624.121203,-5699.585753,-383.047749
543.850721,7772.162391,-6587.832884,0.000000
543.851043,6439.791695,-6957.935855,612.876398
543.851365,3849.070898,-7624.121203,-536.266849
543.851688,-1332.370696,-9622.677246,-1149.143247
543.852010,-6439.791695,-10658.965565,-459.657299
543.852333,-9992.780217,-8734.430116,-2757.943793
543.852655,-10510.924376,-9030.512492,-7431.126331
543.852978,-10658.965565,-12361.439231,-8273.831378
543.853300,-9548.656652,-14137.933492,-4060.306139
543.853622,-7994.224174,-11991.336260,-536.266849
543.853945,-5699.585753,-10510.924376,842.705048
543.854267,-2516.700203,-10362.883188,-766.095498
543.854590,-962.267725,-10140.821405,-3677.258390
543.854912,-2442.679609,-9030.512492,-3064.381992
543.855235,-3849.070898,-7402.059420,1302.362347
543.855557,-2590.720797,-5773.606348,2145.067394
543.855880,1036.288319,-5551.544565,-842.705048
543.856202,3627.009116,-6513.812290,-2221.676944
543.856524,3849.070898,-7920.203579,-536.266849
543.856847,3108.864956,-9400.615463,536.266849
543.857169,2368.659014,-9918.759623,229.828649
543.857492,1406.391290,-9770.718434,-1838.629195
543.857814,-222.061783,-9696.697840,-3983.696590
543.858137,-3552.988522,-10658.965565,-5515.887586
543.858459,-7105.977043,-11991.336260,-4673.182538
543.858781,-8808.450710,-13101.645173,-2987.772442
543.859104,-7550.100608,-13027.624579,-3447.429741
543.859426,-4145.153275,-11843.295072,-4136.915689
543.859749,-2368.659014,-10362.883188,-2298.286494
543.860071,-1702.473667,-9252.574275,229.828649
543.860394,-1258.350101,-8216.285956,995.924147
543.860716,-962.267725,-5921.647536,1149.143247
543.861039,-1332.370696,-4737.318029,-1608.800546
543.861361,-2960.823768,-4515.256246,-3064.381992
543.861683,-5921.647536,-6513.812290,-1838.629195
543.862006,-8142.265362,-9770.718434,-306.438199
543.862328,-8438.347739,-11399.171507,76.609550
543.862651,-5847.626942,-11547.212695,-2911.162892
543.862973,-2368.659014,-11473.192101,-4826.401637
543.863296,74.020594,-10955.047942,-3753.867940
543.863618,1110.308913,-9474.636058,-1072.533697
543.863940,2072.576638,-8216.285956,-536.266849
543.864263,3256.906145,-8882.471304,-2374.896044
543.864585,4145.153275,-10214.842000,-3217.601092
543.864908,2664.741391,-10436.903782,-2911.162892
543.865230,-444.123565,-9474.636058,-1685.410096
543.865553,-2664.741391,-10436.903782,0.000000
543.865875,-3404.947333,-10510.924376,689.485948
543.866197,-4441.235652,-8216.285956,-306.438199
543.866520,-5699.585753,-4515.256246,-1608.800546
543.866842,-6143.709319,-3627.009116,-3217.601092
543.867165,-5033.400406,-7105.977043,-4443.353888
543.867487,-4219.173869,-9178.553681,-1532.190996
543.867810,-3997.112087,-9400.615463,-306.438199
543.868132,-3552.988522,-9178.553681,-2221.676944
543.868455,-1850.514855,-11769.274478,-3600.648841
543.868777,0.000000,-13841.851115,-3677.258390
543.869099,-740.205942,-12435.459826,-4749.792088
543.869422,-2220.617826,-12361.439231,-3677.258390
543.869744,-1776.494261,-12657.521608,229.828649
543.870067,-814.226536,-11177.109724,1072.533697
543.870389,-518.144159,-8364.327145,-766.095498
543.870712,-888.247130,-7105.977043,-1608.800546
543.871034,-296.082377,-8364.327145,0.000000
543.871356,-296.082377,-8364.327145,306.438199
543.871679,-962.267725,-6587.832884,1608.800546
543.872001,-1554.432478,-5181.441594,842.705048
543.872324,-666.185348,-5107.421000,-2221.676944
543.872646,-370.102971,-6143.709319,-3447.429741
543.872969,-666.185348,-9252.574275,-3217.601092
543.873291,-2368.659014,-11473.192101,-2068.457845
543.873613,-3701.029710,-12509.480420,-2068.457845
543.873936,-3775.050304,-12435.459826,-3064.381992
543.874258,-3997.112087,-12065.356855,-5209.449386
543.874581,-4441.235652,-13249.686362,-5209.449386
543.874903,-6069.688724,-12805.562797,-3370.820191
543.875226,-7105.977043,-10955.047942,-1532.190996
543.875548,-7476.080014,-8068.244768,-1072.533697
543.875871,-6291.750507,-6957.935855,-1608.800546
543.876193,-4293.194464,-6365.771101,-1149.143247
543.876515,-2590.720797,-5995.668130,-766.095498
543.876838,-814.226536,-5995.668130,-229.828649
543.877160,666.185348,-6143.709319,919.314598
543.877483,2664.741391,-7328.038826,1838.629195
543.877805,4145.153275,-8660.409521,919.314598
543.878128,3997.112087,-10732.986159,-1685.410096
543.878450,2516.700203,-11917.315666,-2298.286494
543.878772,74.020594,-11325.150913,-1532.190996
543.879095,-2664.741391,-10658.965565,-2374.896044
543.879417,-5033.400406,-11621.233289,-2451.505594
543.879740,-7031.956449,-12065.356855,-1072.533697
543.880062,-9992.780217,-10436.903782,-1991.848295
543.880385,-11621.233289,-9178.553681,-3064.381992
543.880707,-11325.150913,-8660.409521,-2451.505594
543.881029,-8364.327145,-8216.285956,-2757.943793
543.881352,-4885.359217,-7402.059420,-2757.943793
543.881674,-2442.679609,-5699.585753,-1149.143247
543.881997,-148.041188,-5255.462188,-536.266849
543.882319,1776.494261,-6217.729913,-919.314598
543.882642,2738.761985,-8068.244768,-1915.238745
543.882964,2664.741391,-10066.800811,-3830.477490
543.883287,2072.576638,-12361.439231,-4519.963438
543.883609,1702.473667,-13915.871710,-2757.943793
543.883931,0.000000,-13027.624579,-766.095498
543.884254,-2072.576638,-11325.150913,-689.485948
543.884576,-3701.029710,-9992.780217,-1302.362347
543.884899,-5181.441594,-9252.574275,-1378.971896
543.885221,-6809.894666,-8438.347739,-2221.676944
543.885544,-7105.977043,-7772.162391,-2145.067394
543.885866,-5995.668130,-8216.285956,-1762.019645
543.886188,-3775.050304,-9474.636058,0.000000
543.886511,-1776.494261,-8808.450710,919.314598
543.886833,-444.123565,-7105.977043,1378.971896
543.887156,1110.308913,-6513.812290,153.219100
543.887478,2368.659014,-7105.977043,-1378.971896
543.887801,2960.823768,-7105.977043,-2451.505594
543.888123,2442.679609,-7105.977043,-3064.381992
543.888445,2220.617826,-8438.347739,-4136.915689
543.888768,2072.576638,-11029.068536,-5132.839837
543.889090,1332.370696,-13323.706956,-4290.134789
543.889413,-962.267725,-13915.871710,-2604.724693
543.889735,-3923.091493,-14211.954086,-2068.457845
543.890058,-7031.956449,-14359.995275,-1302.362347
543.890380,-8364.327145,-13249.686362,-1608.800546
543.890703,-9104.533087,-9400.615463,-2604.724693
543.891025,-8734.430116,-6069.688724,-2834.553343
543.891347,-6513.812290,-5329.482782,-1685.410096
543.891670,-4145.153275,-4515.256246,-383.047749
543.891992,-1776.494261,-4293.194464,842.705048
543.892315,-1110.308913,-4885.359217,1455.581446
543.892637,-962.267725,-7179.997637,0.000000
543.892960,-1628.453072,-10288.862594,-1991.848295
543.893282,-2590.720797,-11843.295072,-3064.381992
543.893604,-3256.906145,-11917.315666,-3140.991542
543.893927,-2886.803174,-12435.459826,-2911.162892
543.894249,-1480.411884,-12509.480420,-2374.896044
543.894572,-592.164754,-11325.150913,-1838.629195
543.894894,0.000000,-10288.862594,-1072.533697
543.895217,-962.267725,-9622.677246,-536.266849
543.895539,-2516.700203,-9326.594869,-612.876398
543.895862,-3923.091493,-8142.265362,-919.314598
543.896184,-4737.318029,-6587.832884,-1302.362347
543.896506,-4737.318029,-5625.565159,-1762.019645
543.896829,-4145.153275,-5329.482782,-1378.971896
543.897151,-4145.153275,-5773.606348,-1302.362347
543.897474,-4145.153275,-6735.874072,-1225.752797
543.897796,-3552.988522,-8438.347739,-2374.896044
543.898119,-2812.782580,-10732.986159,-3064.381992
543.898441,-3404.947333,-12213.398043,-3217.601092
543.898763,-3701.029710,-12953.603985,-3524.039291
543.899086,-4145.153275,-13323.706956,-3830.477490
543.899408,-3552.988522,-13175.665768,-3600.648841
543.899731,-2960.823768,-11917.315666,-3600.648841
543.900053,-2220.617826,-10807.006753,-3140.991542
543.900376,-1554.432478,-9696.697840,-2068.457845
543.900698,-370.102971,-9252.574275,-995.924147
543.901020,370.102971,-8882.471304,76.609550
543.901343,1036.288319,-8068.244768,766.095498
543.901665,1702.473667,-6513.812290,306.438199
543.901988,1924.535449,-5477.523971,-153.219100
543.902310,1998.556043,-5477.523971,76.609550
543.902633,1184.329507,-6291.750507,229.828649
543.902955,444.123565,-7994.224174,-766.095498
543.903278,148.041188,-9918.759623,-1455.581446
543.903600,-148.041188,-11621.233289,-1608.800546
543.903922,0.000000,-13249.686362,-1685.410096
543.904245,-1184.329507,-13175.665768,-1455.581446
543.904567,-2442.679609,-11843.295072,-1225.752797
543.904890,-3330.926739,-10732.986159,-1225.752797
543.905212,-3330.926739,-9622.677246,-1608.800546
543.905535,-3627.009116,-8290.306550,-2298.286494
543.905857,-4441.235652,-7994.224174,-1838.629195
543.906179,-4589.276840,-8068.244768,-919.314598
543.906502,-4145.153275,-8512.368333,-383.047749
543.906824,-4219.173869,-8808.450710,-612.876398
543.907147,-4293.194464,-7402.059420,-383.047749
543.907469,-4737.318029,-5847.626942,-1532.190996
543.907792,-4071.132681,-6587.832884,-3370.820191
543.908114,-3997.112087,-7254.018232,-2681.334243
543.908436,-4737.318029,-7698.141797,-1915.238745
543.908759,-4885.359217,-9178.553681,-2298.286494
543.909081,-3552.988522,-11769.274478,-3677.258390
543.909404,-2738.761985,-13915.871710,-3140.991542
543.909726,-2664.741391,-13619.789333,-1378.971896
543.910049,-2516.700203,-12139.377449,-383.047749
543.910371,-1702.473667,-10510.924376,-919.314598
543.910694,-1110.308913,-8734.430116,-1072.533697
543.911016,-1998.556043,-7402.059420,-612.876398
543.911338,-3108.864956,-7105.977043,-383.047749
543.911661,-4145.153275,-7328.038826,-229.828649
543.911983,-4441.235652,-7550.100608,-1072.533697
543.912306,-4145.153275,-7624.121203,-919.314598
543.912628,-3701.029710,-8808.450710,-383.047749
543.912951,-2886.803174,-9770.718434,-689.485948
543.913273,-2590.720797,-8956.491898,-1532.190996
543.913595,-1628.453072,-9104.533087,-2451.505594
543.913918,-888.247130,-10732.986159,-3447.429741
543.914240,-370.102971,-12139.377449,-2834.553343
543.914563,-1406.391290,-11917.315666,-2451.505594
543.914885,-1110.308913,-12139.377449,-2451.505594
543.915208,-370.102971,-13027.624579,-2604.724693
543.915530,296.082377,-13323.706956,-1762.019645
543.915852,0.000000,-11621.233289,306.438199
543.916175,-666.185348,-9474.636058,1608.800546
543.916497,74.020594,-8734.430116,1072.533697
543.916820,1184.329507,-7179.997637,766.095498
543.917142,1776.494261,-5773.606348,919.314598
543.917465,2294.638420,-6069.688724,919.314598
543.917787,2738.761985,-6883.915261,1608.800546
543.918110,3256.906145,-8068.244768,1685.410096
543.918432,3182.885551,-9548.656652,1072.533697
543.918754,3108.864956,-11325.150913,919.314598
543.919077,2738.761985,-12213.398043,689.485948
543.919399,2294.638420,-11547.212695,919.314598
543.919722,2146.597232,-11399.171507,995.924147
543.920044,1480.411884,-10955.047942,766.095498
543.920367,1036.288319,-10214.842000,1378.971896
543.920689,148.041188,-8734.430116,1991.848295
543.921011,-518.144159,-7920.203579,1455.581446
543.921334,-666.185348,-8290.306550,1225.752797
543.921656,-1480.411884,-8142.265362,1838.629195
543.921979,-2146.597232,-8216.285956,2757.943793
543.922301,-2442.679609,-8142.265362,3524.039291
543.922624,-2368.659014,-7698.141797,3447.429741
543.922946,-2442.679609,-7254.018232,2528.115143
543.923269,-2664.741391,-7846.182985,2528.115143
543.923591,-2812.782580,-8660.409521,2451.505594
543.923913,-2590.720797,-9252.574275,2221.676944
543.924236,-2516.700203,-10066.800811,2221.676944
543.924558,-2812.782580,-10955.047942,2911.162892
543.924881,-3182.885551,-11695.253884,2681.334243
543.925203,-3701.029710,-11917.315666,2221.676944
543.925526,-3701.029710,-11547.212695,1915.238745
543.925848,-3182.885551,-10732.986159,2374.896044
543.926170,-2146.597232,-9104.533087,2681.334243
543.926493,-1036.288319,-8808.450710,2604.724693
543.926815,-74.020594,-8660.409521,2911.162892
543.927138,222.061783,-8586.388927,2987.772442
543.927460,222.061783,-8512.368333,2451.505594
543.927783,-370.102971,-9178.553681,1915.238745
543.928105,-1036.288319,-9474.636058,1455.581446
543.928427,-1850.514855,-10362.883188,766.095498
543.928750,-2590.720797,-10807.006753,459.657299
543.929072,-3182.885551,-10807.006753,-459.657299
543.929395,-2960.823768,-10658.965565,-842.705048
543.929717,-2072.576638,-10955.047942,-383.047749
543.930040,-2368.659014,-9400.615463,-306.438199
543.930362,-2738.761985,-8586.388927,306.438199
543.930684,-2590.720797,-8808.450710,-919.314598
543.931007,-1554.432478,-9770.718434,-2145.067394
543.931329,-148.041188,-10066.800811,-1991.848295
543.931652,1332.370696,-10214.842000,-1149.143247
543.931974,3701.029710,-9474.636058,0.000000
543.932297,5699.585753,-8216.285956,229.828649
543.932619,6809.894666,-6957.935855,-383.047749
543.932941,6291.750507,-6735.874072,-1378.971896
543.933264,4959.379811,-7179.997637,-1915.238745
543.933586,2368.659014,-7402.059420,-2604.724693
543.933909,-666.185348,-8290.306550,-3140.991542
543.934231,-3108.864956,-10140.821405,-3753.867940
543.934554,-4663.297435,-12435.459826,-4060.306139
543.934876,-5255.462188,-12361.439231,-2987.772442
543.935199,-3627.009116,-12065.356855,-3447.429741
543.935521,-740.205942,-11991.336260,-3140.991542
543.935843,2220.617826,-13027.624579,-1991.848295
543.936166,3775.050304,-11843.295072,306.438199
543.936488,4293.194464,-9696.697840,1838.629195
543.936811,4959.379811,-8882.471304,1302.362347
543.937133,5773.606348,-7550.100608,1455.581446
543.937456,5773.606348,-6365.771101,766.095498
543.937778,4293.194464,-5181.441594,-383.047749
543.938100,2220.617826,-6217.729913,1149.143247
543.938423,-444.123565,-6291.750507,2298.286494
543.938745,-4071.132681,-6809.894666,-229.828649
543.939068,-7105.977043,-9474.636058,-2604.724693
543.939390,-7920.203579,-12065.356855,-3217.601092
543.939713,-9104.533087,-11991.336260,-5132.839837
543.940035,-8142.265362,-13619.789333,-5362.668486
543.940357,-6957.935855,-14804.118840,-2987.772442
543.940680,-4367.215058,-15100.201217,-306.438199
543.941002,-3034.844362,-13027.624579,-536.266849
543.941325,-1480.411884,-10584.944971,-2298.286494
543.941647,-296.082377,-9474.636058,-2604.724693
543.941970,-222.061783,-8068.244768,-1072.533697
543.942292,-1702.473667,-7402.059420,1302.362347
543.942614,-3108.864956,-7846.182985,2987.772442
543.942937,-2960.823768,-8882.471304,3140.991542
543.943259,-2664.741391,-8956.491898,3217.601092
543.943582,-1998.556043,-8956.491898,3447.429741
543.943904,-1628.453072,-9918.759623,4443.353888
543.944227,-1258.350101,-9326.594869,5362.668486
543.944549,-888.247130,-7920.203579,5362.668486
543.944872,-740.205942,-6143.709319,3447.429741
543.945194,666.185348,-5921.647536,1225.752797
543.945516,1924.535449,-6291.750507,0.000000
543.945839,2368.659014,-7846.182985,383.047749
543.946161,3034.844362,-9104.533087,2911.162892
543.946484,4441.235652,-10436.903782,4213.525239
543.946806,5403.503377,-11029.068536,3294.210641
543.947129,5033.400406,-11843.295072,2604.724693
543.947451,3627.009116,-10955.047942,2528.115143
543.947773,962.267725,-10658.965565,1302.362347
543.948096,-1998.556043,-9474.636058,2604.724693
543.948418,-4811.338623,-8364.327145,5592.497135
543.948741,-7105.977043,-5699.585753,4443.353888
543.949063,-7105.977043,-7105.977043,1072.533697
543.949386,-3923.091493,-10584.944971,459.657299
543.949708,-1332.370696,-11399.171507,919.314598
543.950030,888.247130,-11991.336260,2068.457845
543.950353,3627.009116,-11621.233289,4519.963438
543.950675,6661.853478,-11177.109724,4290.134789
543.950998,8512.368333,-9992.780217,459.657299
543.951320,6883.915261,-8808.450710,612.876398
543.951643,5995.668130,-7105.977043,3983.696590
543.951965,6291.750507,-5033.400406,306.438199
543.952287,6809.894666,-7698.141797,-5132.839837
543.952610,5625.565159,-14730.098246,-2834.553343
543.952932,1924.535449,-14434.015869,1838.629195
543.953255,-4885.359217,-11695.253884,2068.457845
543.953577,-9178.553681,-13767.830521,1149.143247
543.953900,-10436.903782,-15026.180623,-306.438199
543.954222,-13101.645173,-11473.192101,-6435.202183
543.954544,-16580.613101,-8882.471304,-5822.325785
543.954867,-16580.613101,-7772.162391,2451.505594
543.955189,-12361.439231,-4811.338623,1302.362347
543.955512,-4737.318029,-5107.421000,-4903.011187
543.955834,2294.638420,-7698.141797,-3140.991542
543.956157,6439.791695,-9696.697840,-1762.019645
543.956479,7772.162391,-10732.986159,-919.314598
543.956802,10214.842000,-10066.800811,4366.744339
543.957124,10807.006753,-6143.709319,2528.115143
543.957446,9992.780217,-4589.276840,-6358.592633
543.957769,8068.244768,-9178.553681,-6741.640382
543.958091,3256.906145,-11029.068536,383.047749
543.958414,-4145.153275,-11769.274478,2145.067394
543.958736,-10214.842000,-15544.324782,2145.067394
543.959059,-11621.233289,-15396.283594,4290.134789
543.959381,-11991.336260,-11103.089130,-2451.505594
543.959703,-9770.718434,-8808.450710,-7277.907231
543.960026,-5921.647536,-8808.450710,-1149.143247
543.960348,-1850.514855,-4737.318029,4290.134789
543.960671,814.226536,0.000000,2451.505594
543.960993,3701.029710,-2368.659014,842.705048
543.961316,5181.441594,-6365.771101,-459.657299
543.961638,4959.379811,-9178.553681,-3600.648841
543.961960,3404.947333,-11399.171507,-3370.820191
543.962283,1998.556043,-13249.686362,-153.219100
543.962605,2072.576638,-13989.892304,766.095498
543.962928,1776.494261,-13175.665768,-919.314598
543.963250,-444.123565,-13027.624579,-1302.362347
543.963573,-2442.679609,-15692.365970,-1762.019645
543.963895,-3849.070898,-13323.706956,-383.047749
543.964217,-2294.638420,-10510.924376,459.657299
543.964540,-888.247130,-5551.544565,766.095498
543.964862,1628.453072,-5847.626942,0.000000
543.965185,3330.926739,-7772.162391,1762.019645
543.965507,4515.256246,-7772.162391,3217.601092
543.965830,3552.988522,-7254.018232,2681.334243
543.966152,2368.659014,-8586.388927,1991.848295
543.966475,444.123565,-9474.636058,2298.286494
543.966797,-1480.411884,-9474.636058,1915.238745
543.967119,-2146.597232,-10436.903782,1072.533697
543.967442,0.000000,-11917.315666,0.000000
543.967764,1776.494261,-12065.356855,-612.876398
543.968087,1628.453072,-9252.574275,1455.581446
543.968409,-2442.679609,-9844.739029,3600.648841
543.968732,-4145.153275,-11843.295072,3294.210641
543.969054,-3108.864956,-12435.459826,76.609550
543.969376,-2368.659014,-11547.212695,-2451.505594
543.969699,-3256.906145,-10436.903782,0.000000
543.970021,-4737.318029,-9696.697840,4673.182538
543.970344,-4737.318029,-9770.718434,6665.030833
543.970666,-2886.803174,-9622.677246,5439.278036
543.970989,-148.041188,-8882.471304,2681.334243
543.971311,2368.659014,-4959.379811,689.485948
543.971633,3701.029710,-2590.720797,306.438199
543.971956,4663.297435,-2220.617826,1455.581446
543.972278,4367.215058,-5255.462188,2451.505594
543.972601,2960.823768,-9474.636058,2068.457845
543.972923,148.041188,-12065.356855,1072.533697
543.973246,-4515.256246,-11991.336260,0.000000
543.973568,-7994.224174,-13323.706956,-1225.752797
543.973890,-8438.347739,-14730.098246,-1072.533697
543.974213,-7624.121203,-13767.830521,0.000000
543.974535,-4737.318029,-11695.253884,1378.971896
543.974858,-3034.844362,-7476.080014,3217.601092
543.975180,-888.247130,-6143.709319,1991.848295
543.975503,-740.205942,-6143.709319,0.000000
543.975825,-740.205942,-8660.409521,0.000000
543.976147,-1406.391290,-9326.594869,1685.410096
543.976470,-1036.288319,-6957.935855,2374.896044
543.976792,1702.473667,-6809.894666,153.219100
543.977115,5181.441594,-7550.100608,-1149.143247
543.977437,6439.791695,-9548.656652,153.219100
543.977760,6069.688724,-10436.903782,2911.162892
543.978082,5181.441594,-10362.883188,1532.190996
543.978405,5403.503377,-12139.377449,-3370.820191
543.978727,3997.112087,-13397.727550,-4213.525239
543.979049,296.082377,-14285.974681,-1991.848295
543.979372,-3997.112087,-14063.912898,0.000000
543.979694,-5329.482782,-13101.645173,-689.485948
543.980017,-4515.256246,-11991.336260,-2451.505594
543.980339,-4441.235652,-11473.192101,-1762.019645
543.980662,-4737.318029,-9326.594869,1072.533697
543.980984,-3997.112087,-7550.100608,2834.553343
543.981306,-814.226536,-5847.626942,689.485948
543.981629,1406.391290,-5625.565159,-1838.629195
543.981951,222.061783,-6661.853478,1072.533697
543.982274,-1628.453072,-7328.038826,2911.162892
543.982596,-1924.535449,-8586.388927,306.438199
543.982919,0.000000,-10140.821405,-2145.067394
543.983241,2442.679609,-9918.759623,-1608.800546
543.983563,3775.050304,-7328.038826,-1378.971896
543.983886,4959.379811,-6217.729913,-1608.800546
543.984208,5847.626942,-8438.347739,-995.924147
543.984531,4219.173869,-11103.089130,306.438199
543.984853,-222.061783,-12657.521608,153.219100
543.985176,-4663.297435,-14656.077652,-306.438199
543.985498,-5995.668130,-15248.242405,-1455.581446
543.985820,-4515.256246,-12361.439231,-1149.143247
543.986143,-2368.659014,-7846.182985,689.485948
543.986465,222.061783,-5403.503377,2221.676944
543.986788,2294.638420,-5033.400406,2681.334243
543.987110,1850.514855,-5403.503377,3217.601092
543.987433,-962.267725,-7031.956449,4443.353888
543.987755,-4293.194464,-7254.018232,2987.772442
543.988078,-2960.823768,-6957.935855,-1225.752797
543.988400,0.000000,-6291.750507,-3830.477490
543.988722,1110.308913,-6365.771101,-2604.724693
543.989045,666.185348,-7772.162391,0.000000
543.989367,-592.164754,-10732.986159,0.000000
543.989690,-2294.638420,-14285.974681,-1838.629195
543.990012,-5699.585753,-17172.777854,-3524.039291
543.990335,-8660.409521,-17320.819043,-5592.497135
543.990657,-8216.285956,-15544.324782,-7048.078582
543.990979,-5551.544565,-12435.459826,-4903.011187
543.991302,-2516.700203,-9844.739029,-612.876398
543.991624,-962.267725,-8512.368333,2221.676944
543.991947,-370.102971,-9104.533087,1991.848295
543.992269,-1554.432478,-9326.594869,1302.362347
543.992592,-3034.844362,-9918.759623,2987.772442
543.992914,-1480.411884,-10658.965565,2221.676944
543.993236,3404.947333,-8660.409521,459.657299
543.993559,7772.162391,-4145.153275,1302.362347
543.993881,9992.780217,-222.061783,4979.620737
543.994204,10881.027347,-888.247130,5209.449386
543.994526,10362.883188,-6809.894666,1378.971896
543.994849,6365.771101,-11843.295072,229.828649
543.995171,0.000000,-13397.727550,0.000000
543.995493,-3775.050304,-14804.118840,-2221.676944
543.995816,-2590.720797,-15174.221811,-3294.210641
543.996138,0.000000,-11917.315666,-1915.238745
543.996461,-962.267725,-6143.709319,842.705048
543.996783,-2590.720797,-6365.771101,1302.362347
543.997106,-6291.750507,-9474.636058,2145.067394
543.997428,-9400.615463,-11769.274478,1915.238745
543.997750,-11325.150913,-10584.944971,-689.485948
543.998073,-9992.780217,-10362.883188,-2681.334243
543.998395,-5033.400406,-7476.080014,-1378.971896
543.998718,-370.102971,-740.205942,919.314598
543.999040,3330.926739,2146.597232,842.705048
543.999363,4071.132681,-2368.659014,153.219100
543.999685,1850.514855,-7846.182985,459.657299
544.000008,-1554.432478,-10881.027347,-306.438199
544.000330,-3182.885551,-14137.933492,-4979.620737
544.000652,-2368.659014,-17542.880825,-7660.954980
544.000975,74.020594,-16950.716072,-4366.744339
544.001297,2812.782580,-12065.356855,0.000000
544.001620,3775.050304,-9696.697840,-612.876398
544.001942,4071.132681,-10955.047942,-1072.533697
544.002265,1554.432478,-11325.150913,-229.828649
544.002587,-370.102971,-10362.883188,-1532.190996
544.002909,0.000000,-11399.171507,-2681.334243
544.003232,3108.864956,-10955.047942,-1762.019645
544.003554,7105.977043,-6069.688724,0.000000
544.003877,9696.697840,-3108.864956,-153.219100
544.004199,10066.800811,-5625.565159,153.219100
544.004522,6365.771101,-7550.100608,2145.067394
544.004844,518.144159,-8364.327145,-536.266849
544.005166,-4959.379811,-9252.574275,-5898.935335
544.005489,-6291.750507,-11769.274478,-9576.193725
544.005811,-6217.729913,-11769.274478,-9729.412825
544.006134,-6883.915261,-10881.027347,-6511.811733
544.006456,-8142.265362,-10807.006753,-2911.162892
544.006779,-10288.862594,-13101.645173,-1838.629195
544.007101,-11177.109724,-14878.139434,-3370.820191
544.007423,-10066.800811,-16432.571912,-4903.011187
544.007746,-8290.306550,-14952.160028,-5209.449386
544.008068,-4663.297435,-7698.141797,-2604.724693
544.008391,1110.308913,-1110.308913,-1225.752797
544.008713,7476.080014,1110.308913,-612.876398
544.009036,10955.047942,-1184.329507,383.047749
544.009358,9326.594869,-2960.823768,1302.362347
544.009681,4589.276840,-6735.874072,766.095498
544.010003,1702.473667,-11917.315666,-2451.505594
544.010325,518.144159,-15174.221811,-4366.744339
544.010648,0.000000,-14359.995275,-3677.258390
544.010970,-296.082377,-12213.398043,-1225.752797
544.011293,-962.267725,-10436.903782,0.000000
544.011615,-888.247130,-9696.697840,-383.047749
544.011938,-3478.967927,-8512.368333,-612.876398
544.012260,-4367.215058,-10658.965565,-2834.553343
544.012582,-2294.638420,-12731.542202,-4826.401637
544.012905,1184.329507,-11695.253884,-2528.115143
544.013227,3701.029710,-6661.853478,229.828649
544.013550,4885.359217,-4959.379811,995.924147
544.013872,5403.503377,-6587.832884,1991.848295
544.014195,2294.638420,-5773.606348,2374.896044
544.014517,-3330.926739,-6217.729913,-1685.410096
544.014839,-5847.626942,-9992.780217,-5515.887586
544.015162,-6217.729913,-12139.377449,-5132.839837
544.015484,-3923.091493,-11695.253884,-2987.772442
544.015807,-3330.926739,-10881.027347,-1838.629195
544.016129,-2146.597232,-12361.439231,-536.266849
544.016452,-2220.617826,-13175.665768,229.828649
544.016774,-4145.153275,-12879.583391,-612.876398
544.017096,-6143.709319,-13989.892304,-1915.238745
544.017419,-4737.318029,-13841.851115,-1455.581446
544.017741,-666.185348,-8586.388927,-536.266849
544.018064,4219.173869,-3182.885551,-689.485948
544.018386,8586.388927,-2812.782580,1072.533697
544.018709,9992.780217,-4367.215058,4596.572988
544.019031,8364.327145,-4737.318029,5439.278036
544.019354,4367.215058,-6587.832884,1149.143247
544.019676,814.226536,-10510.924376,-1762.019645
544.019998,-1406.391290,-11251.130318,-1149.143247
544.020321,-3108.864956,-8808.450710,-995.924147
544.020643,-3182.885551,-9844.739029,-1608.800546
544.020966,-2442.679609,-11547.212695,-383.047749
544.021288,-3404.947333,-9770.718434,842.705048
544.021611,-4811.338623,-7920.203579,919.314598
544.021933,-4663.297435,-12435.459826,-1149.143247
544.022256,-3627.009116,-12731.542202,-2145.067394
544.022578,-2294.638420,-6291.750507,-1915.238745
544.022901,-148.041188,-3034.844362,-2221.676944
544.023223,3404.947333,-5921.647536,-1225.752797
544.023545,5255.462188,-8142.265362,842.705048
544.023868,3997.112087,-8882.471304,1149.143247
544.024190,1332.370696,-11843.295072,-612.876398
544.024513,-370.102971,-13545.768739,-3217.601092
544.024835,-1036.288319,-11843.295072,-4443.353888
544.025158,-2072.576638,-9474.636058,-3447.429741
544.025480,-3034.844362,-6883.915261,-2911.162892
544.025803,-3108.864956,-6587.832884,-3294.210641
544.026125,-4293.194464,-6735.874072,-2757.943793
544.026448,-4441.235652,-10807.006753,-3677.258390
544.026770,-4515.256246,-15248.242405,-4903.011187
544.027093,-3997.112087,-15322.262999,-4213.525239
544.027415,-2738.761985,-11547.212695,-1915.238745
544.027738,1406.391290,-9178.553681,-3140.991542
544.028060,6143.709319,-9252.574275,-3830.477490
544.028383,7550.100608,-7105.977043,-2451.505594
544.028705,3701.029710,-4515.256246,-2145.067394
544.029027,222.061783,-7328.038826,-3370.820191
544.029350,-1036.288319,-11621.233289,-4519.963438
544.029672,-2368.659014,-11769.274478,-5822.325785
544.029995,-3997.112087,-10955.047942,-5975.544884
544.030317,-3552.988522,-11917.315666,-3907.087040
544.030640,-2664.741391,-11695.253884,-1838.629195
544.030962,-2590.720797,-9474.636058,-1915.238745
544.031285,-1924.535449,-10362.883188,-2451.505594
544.031607,-296.082377,-10658.965565,-2451.505594
544.031930,2368.659014,-6957.935855,-1915.238745
544.032252,4663.297435,-3849.070898,-3294.210641
544.032575,7624.121203,-6883.915261,-3447.429741
544.032897,8882.471304,-10807.006753,536.266849
544.033220,7105.977043,-9030.512492,3370.820191
544.033542,2590.720797,-7698.141797,1072.533697
544.033865,-1332.370696,-9474.636058,-2221.676944
544.034187,-3478.967927,-8808.450710,-3677.258390
544.034509,-5033.400406,-5847.626942,-4979.620737
544.034832,-5847.626942,-6143.709319,-5515.887586
544.035154,-5329.482782,-9992.780217,-5286.058936
544.035477,-5255.462188,-12805.562797,-2145.067394
544.035799,-7402.059420,-12805.562797,-919.314598
544.036122,-9770.718434,-14063.912898,-536.266849
544.036444,-8586.388927,-14211.954086,-2834.553343
544.036767,-4441.235652,-11103.089130,-4213.525239
544.037089,222.061783,-6957.935855,-4443.353888
544.037412,5033.400406,-5847.626942,-2604.724693
544.037734,7179.997637,-4145.153275,2451.505594
544.038057,7550.100608,-1776.494261,4903.011187
544.038379,6587.832884,-3849.070898,1608.800546
544.038702,5847.626942,-9770.718434,-2987.772442
544.039024,3552.988522,-13693.809927,-2911.162892
544.039346,-148.041188,-13027.624579,1532.190996
544.039669,-1480.411884,-13027.624579,3524.039291
544.039991,148.041188,-13249.686362,1532.190996
544.040314,1776.494261,-9844.739029,919.314598
544.040636,-666.185348,-6735.874072,76.609550
544.040959,-1332.370696,-8882.471304,842.705048
544.041281,-814.226536,-10362.883188,842.705048
544.041604,1480.411884,-8142.265362,995.924147
544.041926,2960.823768,-5255.462188,0.000000
544.042249,4219.173869,-7105.977043,-2221.676944
544.042571,4367.215058,-9770.718434,-383.047749
544.042894,888.247130,-8290.306550,766.095498
544.043216,-3701.029710,-8956.491898,-842.705048
544.043539,-7179.997637,-10955.047942,-2451.505594
544.043861,-8290.306550,-11843.295072,-2757.943793
544.044184,-8734.430116,-9548.656652,-3064.381992
544.044506,-7920.203579,-10436.903782,-4136.915689
544.044828,-6883.915261,-10288.862594,-3064.381992
544.045151,-6291.750507,-11029.068536,-1608.800546
544.045473,-5033.400406,-10955.047942,-766.095498
544.045796,-3034.844362,-12509.480420,-1378.971896
544.046118,-1702.473667,-11621.233289,-612.876398
544.046441,1110.308913,-7846.182985,0.000000
544.046763,5403.503377,-6291.750507,-1838.629195
544.047086,10436.903782,-7476.080014,-2834.553343
544.047408,11991.336260,-7846.182985,0.000000
544.047731,9696.697840,-6291.750507,2451.505594
544.048053,5255.462188,-6513.812290,1608.800546
544.048376,1850.514855,-10436.903782,-1455.581446
544.048698,-1554.432478,-11473.192101,-2757.943793
544.049021,-5477.523971,-10584.944971,-3983.696590
544.049343,-7179.997637,-9770.718434,-4903.011187
544.049665,-7179.997637,-9474.636058,-4366.744339
544.049988,-5403.503377,-9104.533087,-3677.258390
544.050310,-4219.173869,-11029.068536,-3140.991542
544.050633,-3404.947333,-12805.562797,-2451.505594
544.050955,-3034.844362,-11325.150913,-1532.190996
544.051278,-2072.576638,-8586.388927,-2604.724693
544.051600,518.144159,-8216.285956,-4366.744339
544.051923,2590.720797,-6809.894666,-4366.744339
544.052245,3775.050304,-2886.803174,-2604.724693
544.052568,3478.967927,-2368.659014,-3140.991542
544.052890,4145.153275,-7476.080014,-4443.353888
544.053213,3627.009116,-11917.315666,-3983.696590
544.053535,518.144159,-11103.089130,-2528.115143
544.053858,-2664.741391,-11843.295072,-2987.772442
544.054180,-2960.823768,-15322.262999,-3983.696590
544.054503,-2590.720797,-13545.768739,-4136.915689
544.054825,-2886.803174,-9918.759623,-4443.353888
544.055147,-3256.906145,-10955.047942,-2911.162892
544.055470,-1554.432478,-13249.686362,0.000000
544.055792,2294.638420,-9474.636058,1378.971896
544.056115,6069.688724,-4441.235652,-1225.752797
544.056437,10214.842000,-4293.194464,-4136.915689
544.056760,11991.336260,-6513.812290,-2451.505594
544.057082,9104.533087,-5329.482782,1762.019645
544.057405,3330.926739,-5921.647536,2451.505594
544.057727,-2220.617826,-9992.780217,-1149.143247
544.058050,-6661.853478,-12287.418637,-4060.306139
544.058372,-10510.924376,-11473.192101,-5286.058936
544.058695,-12287.418637,-11029.068536,-5362.668486
544.059017,-10288.862594,-13323.706956,-5056.230287
544.059340,-7105.977043,-12805.562797,-2834.553343
544.059662,-6069.688724,-11991.336260,-1225.752797
544.059985,-6069.688724,-11769.274478,766.095498
544.060307,-5329.482782,-11769.274478,1225.752797
544.060629,-3552.988522,-7698.141797,-1302.362347
544.060952,-1480.411884,-4367.215058,-4519.963438
544.061274,2442.679609,-4737.318029,-3907.087040
544.061597,6883.915261,-5995.668130,1149.143247
544.061919,9622.677246,-7328.038826,3830.477490
544.062242,10732.986159,-10955.047942,5132.839837
544.062564,9770.718434,-11917.315666,4290.134789
544.062887,5699.585753,-9548.656652,2528.115143
544.063209,518.144159,-7772.162391,1072.533697
544.063532,-2072.576638,-6957.935855,-919.314598
544.063854,-2886.803174,-6143.709319,-2987.772442
544.064177,-3552.988522,-5477.523971,-3217.601092
544.064499,-3849.070898,-8512.368333,-1302.362347
544.064822,-4145.153275,-14137.933492,-995.924147
544.065144,-4367.215058,-16728.654289,689.485948
544.065466,-4441.235652,-13619.789333,2604.724693
544.065789,-2368.659014,-10362.883188,-1685.410096
544.066111,222.061783,-8512.368333,-5286.058936
544.066434,2368.659014,-5033.400406,-2757.943793
544.066756,1480.411884,-1184.329507,-1455.581446
544.067079,518.144159,-4145.153275,-2911.162892
544.067401,1406.391290,-9844.739029,-4060.306139
544.067724,962.267725,-12139.377449,-3217.601092
544.068046,-1332.370696,-12583.501014,-2987.772442
544.068369,-2886.803174,-15988.448347,-2451.505594
544.068691,-2368.659014,-16876.695478,-995.924147
544.069014,-2516.700203,-11843.295072,0.000000
544.069336,-2960.823768,-8586.388927,-766.095498
544.069659,-2294.638420,-8512.368333,-1225.752797
544.069981,-296.082377,-7698.141797,-612.876398
544.070304,2294.638420,-5699.585753,459.657299
544.070626,5477.523971,-6217.729913,612.876398
544.070948,8734.430116,-9474.636058,-459.657299
544.071271,9474.636058,-8438.347739,459.657299
544.071593,7105.977043,-6143.709319,1455.581446
544.071916,4589.276840,-7624.121203,-459.657299
544.072238,888.247130,-8586.388927,-3370.820191
544.072561,-4589.276840,-7846.182985,-4903.011187
544.072883,-9770.718434,-8660.409521,-4290.134789
544.073206,-11029.068536,-10732.986159,-4903.011187
544.073528,-11029.068536,-12657.521608,-5975.544884
544.073851,-9844.739029,-13915.871710,-3600.648841
544.074173,-8290.306550,-15470.304188,-2451.505594
544.074496,-6809.894666,-15396.283594,-1838.629195
544.074818,-3849.070898,-10881.027347,-1072.533697
544.075141,-444.123565,-4367.215058,-1991.848295
544.075463,2368.659014,-1850.514855,-3600.648841
544.075786,5847.626942,-1258.350101,-2911.162892
544.076108,7994.224174,-2146.597232,-1608.800546
544.076430,7920.203579,-7105.977043,-1378.971896
544.076753,8142.265362,-13619.789333,766.095498
544.077075,5625.565159,-13767.830521,2374.896044
544.077398,1406.391290,-11325.150913,689.485948
544.077720,-1110.308913,-10510.924376,-1685.410096
544.078043,-2590.720797,-9770.718434,-4443.353888
544.078365,-3330.926739,-7846.182985,-5822.325785
544.078688,-4737.318029,-7772.162391,-4443.353888
544.079010,-4737.318029,-12435.459826,-3294.210641
544.079333,-2590.720797,-15174.221811,-1762.019645
544.079655,-296.082377,-13619.789333,0.000000
544.079978,444.123565,-10140.821405,0.000000
544.080300,1480.411884,-10066.800811,-2298.286494
544.080623,3034.844362,-8438.347739,-919.314598
544.080945,2886.803174,-2960.823768,-766.095498
544.081267,1184.329507,-3182.885551,-3907.087040
544.081590,0.000000,-8438.347739,-4136.915689
544.081912,-1406.391290,-9696.697840,-1302.362347
544.082235,-3849.070898,-8290.306550,-612.876398
544.082557,-4737.318029,-11621.233289,-1838.629195
544.082880,-5033.400406,-14434.015869,-2911.162892
544.083202,-5255.462188,-14137.933492,-1685.410096
544.083525,-6069.688724,-11029.068536,-1762.019645
544.083847,-4885.359217,-10658.965565,-1762.019645
544.084170,-2368.659014,-10140.821405,-612.876398
544.084492,814.226536,-6587.832884,612.876398
544.084815,3552.988522,-5033.400406,612.876398
544.085137,6439.791695,-7254.018232,0.000000
544.085460,8438.347739,-7550.100608,1378.971896
544.085782,7920.203579,-5625.565159,1838.629195
544.086105,7105.977043,-6735.874072,-612.876398
544.086427,6143.709319,-11399.171507,-1685.410096
544.086749,3330.926739,-11621.233289,-766.095498
544.087072,-1258.350101,-9178.553681,-229.828649
544.087394,-4145.153275,-9696.697840,-689.485948
544.087717,-3627.009116,-10955.047942,-1149.143247
544.088039,-4219.173869,-9548.656652,-2145.067394
544.088362,-5033.400406,-9770.718434,-2068.457845
544.088684,-6439.791695,-12287.418637,-1225.752797
544.089007,-4959.379811,-13619.789333,536.266849
544.089329,-3034.844362,-10436.903782,842.705048
544.089652,-1332.370696,-8290.306550,-229.828649
544.089974,0.000000,-6661.853478,-1608.800546
544.090297,1406.391290,-3552.988522,-153.219100
544.090619,2516.700203,-1924.535449,-383.047749
544.090942,3627.009116,-6809.894666,-2911.162892
544.091264,4071.132681,-12287.418637,-2145.067394
544.091586,1776.494261,-11695.253884,612.876398
544.091909,-2442.679609,-10658.965565,995.924147
544.092231,-4811.338623,-13619.789333,-306.438199
544.092554,-5995.668130,-13989.892304,-2374.896044
544.092876,-5699.585753,-10955.047942,-4136.915689
544.093199,-5033.400406,-8586.388927,-4060.306139
544.093521,-3034.844362,-10584.944971,-2757.943793
544.093844,-740.205942,-11547.212695,689.485948
544.094166,0.000000,-8660.409521,2374.896044
544.094489,1776.494261,-8438.347739,536.266849
544.094811,4885.359217,-9918.759623,-2068.457845
544.095134,6513.812290,-8660.409521,-3600.648841
544.095456,3627.009116,-5625.565159,-842.705048
544.095779,1110.308913,-5773.606348,842.705048
544.096101,222.061783,-7179.997637,-383.047749
544.096424,148.041188,-8438.347739,-2451.505594
544.096746,-2072.576638,-9474.636058,-4060.306139
544.097068,-4811.338623,-11843.295072,-4519.963438
544.097391,-5625.565159,-13249.686362,-4136.915689
544.097713,-4737.318029,-12657.521608,-3294.210641
544.098036,-2220.617826,-13249.686362,-4213.525239
544.098358,-222.061783,-12879.583391,-2834.553343
544.098681,0.000000,-9696.697840,306.438199
544.099003,-444.123565,-7105.977043,1838.629195
544.099326,1480.411884,-7846.182985,0.000000
544.099648,3701.029710,-5995.668130,-1685.410096
544.099971,3552.988522,-1998.556043,-2221.676944
544.100293,3775.050304,-2442.679609,-2681.334243
544.100616,4219.173869,-6069.688724,-2221.676944
544.100938,4441.235652,-7920.203579,-1532.190996
544.101261,1702.473667,-6661.853478,-1532.190996
544.101583,-3330.926739,-8068.244768,-2528.115143
544.101906,-8216.285956,-12731.542202,-3140.991542
544.102228,-9918.759623,-14804.118840,-3524.039291
544.102550,-10288.862594,-12657.521608,-5439.278036
544.102873,-8068.244768,-12435.459826,-7737.564530
544.103195,-3404.947333,-11917.315666,-5745.716235
544.103518,1554.432478,-9030.512492,-1915.238745
544.103840,2664.741391,-6587.832884,-1072.533697
544.104163,3627.009116,-9030.512492,-612.876398
544.104485,5181.441594,-11029.068536,-1302.362347
544.104808,5181.441594,-9178.553681,-3600.648841
544.105130,4441.235652,-8438.347739,-4213.525239
544.105453,3923.091493,-9104.533087,-995.924147
544.105775,3701.029710,-7550.100608,1455.581446
544.106098,3627.009116,-6661.853478,1762.019645
544.106420,2516.700203,-7846.182985,-383.047749
544.106743,0.000000,-10807.006753,-1838.629195
544.107065,-3034.844362,-11473.192101,-1532.190996
544.107387,-4811.338623,-12139.377449,-2604.724693
544.107710,-4515.256246,-15026.180623,-4443.353888
544.108032,-2368.659014,-14656.077652,-2221.676944
544.108355,-1702.473667,-9992.780217,689.485948
544.108677,-814.226536,-9104.533087,459.657299
544.109000,-962.267725,-10436.903782,0.000000
544.109322,-2072.576638,-8364.327145,0.000000
544.109645,-3923.091493,-4515.256246,-1915.238745
544.109967,-4441.235652,-6661.853478,-3600.648841
544.110290,-2960.823768,-9474.636058,-2834.553343
544.110612,-2442.679609,-7624.121203,-612.876398
544.110935,-3627.009116,-5847.626942,229.828649
544.111257,-3997.112087,-9474.636058,689.485948
544.111580,-3330.926739,-13693.809927,842.705048
544.111902,-3478.967927,-12879.583391,842.705048
544.112225,-2664.741391,-10955.047942,76.609550
544.112547,0.000000,-10881.027347,-919.314598
544.112869,5033.400406,-9770.718434,536.266849
544.113192,9030.512492,-6217.729913,2451.505594
544.113514,9696.697840,-5255.462188,3907.087040
544.113837,9252.574275,-8364.327145,4979.620737
544.114159,8660.409521,-8734.430116,4596.572988
544.114482,6661.853478,-6513.812290,1608.800546
544.114804,4959.379811,-6957.935855,-1378.971896
544.115127,4293.194464,-7105.977043,-1302.362347
544.115449,3552.988522,-5403.503377,-153.219100
544.115772,888.247130,-6513.812290,536.266849
544.116094,-3034.844362,-11695.253884,153.219100
544.116417,-7920.203579,-15174.221811,-536.266849
544.116739,-10955.047942,-14730.098246,-1838.629195
544.117062,-11325.150913,-13767.830521,-3753.867940
544.117384,-8734.430116,-12213.398043,-5209.449386
544.117707,-5107.421000,-8142.265362,-2911.162892
544.118029,-2146.597232,-3256.906145,0.000000
544.118351,-666.185348,-3923.091493,0.000000
544.118674,-592.164754,-8216.285956,-229.828649
544.118996,-3182.885551,-10140.821405,-919.314598
544.119319,-4737.318029,-10584.944971,-3064.381992
544.119641,-2812.782580,-11917.315666,-5515.887586
544.119964,1702.473667,-11843.295072,-4519.963438
544.120286,4293.194464,-8734.430116,-2374.896044
544.120609,3775.050304,-6439.791695,689.485948
544.120931,1036.288319,-7550.100608,1302.362347
544.121254,-888.247130,-10436.903782,-842.705048
544.121576,-2738.761985,-11991.336260,-4366.744339
544.121899,-3404.947333,-12879.583391,-6665.030833
544.122221,-1258.350101,-12509.480420,-6281.983084
544.122543,3182.885551,-10436.903782,-3064.381992
544.122866,7476.080014,-9178.553681,0.000000
544.123188,8882.471304,-8216.285956,1225.752797
544.123511,6661.853478,-6365.771101,536.266849
544.123833,1850.514855,-5107.421000,-1608.800546
544.124156,-1332.370696,-5995.668130,-5592.497135
544.124478,-2812.782580,-7920.203579,-8503.660028
544.124801,-3552.988522,-9252.574275,-7431.126331
544.125123,-3849.070898,-8808.450710,-2757.943793
544.125445,-4145.153275,-9696.697840,-1302.362347
544.125768,-4515.256246,-11473.192101,-2451.505594
544.126090,-6069.688724,-11843.295072,-4136.915689
544.126413,-7772.162391,-11695.253884,-6435.202183
544.126735,-6217.729913,-12213.398043,-8197.221829
544.127058,-3552.988522,-10584.944971,-5822.325785
544.127380,-962.267725,-6069.688724,-1762.019645
544.127703,1998.556043,-4367.215058,-306.438199
544.128025,4737.318029,-7254.018232,-536.266849
544.128347,5255.462188,-9770.718434,-612.876398
544.128670,2886.803174,-10510.924376,-1608.800546
544.128992,592.164754,-12583.501014,-2374.896044
544.129315,962.267725,-12435.459826,-1455.581446
544.129637,2368.659014,-8660.409521,-1685.410096
544.129960,2886.803174,-5033.400406,-1915.238745
544.130282,1850.514855,-5773.606348,-1378.971896
544.130605,-222.061783,-7476.080014,-1149.143247
544.130927,-2442.679609,-10214.842000,-1762.019645
544.131250,-4219.173869,-15766.386565,-2987.772442
544.131572,-3849.070898,-18949.272115,-2451.505594
544.131894,-814.226536,-15692.365970,-842.705048
544.132217,2146.597232,-8512.368333,536.266849
544.132539,5329.482782,-5255.462188,76.609550
544.132862,6587.832884,-5477.523971,-536.266849
544.133184,3404.947333,-3923.091493,1302.362347
544.133507,-740.205942,-4811.338623,229.828649
544.133829,-3330.926739,-10066.800811,-3140.991542
544.134152,-3923.091493,-14063.912898,-3983.696590
544.134474,-3923.091493,-12583.501014,0.000000
544.134796,-3330.926739,-9474.636058,2987.772442
544.135119,-1776.494261,-9770.718434,1762.019645
544.135441,-1110.308913,-10066.800811,1838.629195
544.135764,-2590.720797,-8512.368333,1608.800546
544.136086,-4663.297435,-7772.162391,-153.219100
544.136409,-4589.276840,-9918.759623,-1685.410096
544.136731,-2294.638420,-8808.450710,306.438199
544.137054,1554.432478,-5329.482782,1838.629195
544.137376,5625.565159,-5625.565159,1378.971896
544.137699,7550.100608,-9770.718434,1915.238745
544.138021,5847.626942,-11029.068536,4136.915689
544.138343,1110.308913,-9844.739029,3677.258390
544.138666,-1776.494261,-11251.130318,-229.828649
544.138988,-2442.679609,-9992.780217,-2681.334243
544.139311,-2220.617826,-6661.853478,-2604.724693
544.139633,-1332.370696,-5699.585753,-919.314598
544.139956,-1184.329507,-6217.729913,1149.143247
544.140278,-1406.391290,-8882.471304,842.705048
544.140601,-3256.906145,-10955.047942,229.828649
544.140923,-3997.112087,-13989.892304,-1072.533697
544.141245,-3849.070898,-14211.954086,-3294.210641
544.141568,-1776.494261,-9474.636058,-2911.162892
544.141890,1406.391290,-5847.626942,-2834.553343
544.142213,5255.462188,-7254.018232,-2987.772442
544.142535,7031.956449,-9326.594869,-306.438199
544.142858,4071.132681,-7772.162391,1378.971896
544.143180,-296.082377,-8068.244768,-1072.533697
544.143503,-1998.556043,-11547.212695,-4673.182538
544.143825,-2516.700203,-11991.336260,-5592.497135
544.144147,-3256.906145,-9548.656652,-5439.278036
544.144470,-3627.009116,-9178.553681,-4213.525239
544.144792,-3182.885551,-10732.986159,-2757.943793
544.145115,-3182.885551,-11325.150913,-1991.848295
544.145437,-3701.029710,-11917.315666,-2451.505594
544.145760,-3997.112087,-12361.439231,-4060.306139
544.146082,-1184.329507,-10955.047942,-4519.963438
544.146405,3034.844362,-7624.121203,-3753.867940
544.146727,6661.853478,-6439.791695,-4060.306139
544.147050,8734.430116,-8364.327145,-2604.724693
544.147372,6957.935855,-8068.244768,229.828649
544.147694,2590.720797,-6217.729913,766.095498
544.148017,-1258.350101,-7624.121203,-4136.915689
544.148339,-3627.009116,-10955.047942,-7967.393179
544.148662,-5329.482782,-11325.150913,-6128.763984
544.148984,-5921.647536,-9030.512492,-3600.648841
544.149307,-5699.585753,-8216.285956,-3753.867940
544.149629,-3627.009116,-9104.533087,-3907.087040
544.149952,-3108.864956,-9474.636058,-4443.353888
544.150274,-5033.400406,-9622.677246,-3294.210641
544.150596,-5847.626942,-11251.130318,-3294.210641
544.150919,-3404.947333,-11843.295072,-2834.553343
544.151241,370.102971,-7328.038826,-3983.696590
544.151564,4663.297435,-5033.400406,-4443.353888
544.151886,7772.162391,-7031.956449,-3294.210641
544.152209,8586.388927,-8660.409521,-306.438199
544.152531,6439.791695,-8734.430116,1532.190996
544.152854,2886.803174,-9252.574275,0.000000
544.153176,-370.102971,-10658.965565,-1838.629195
544.153499,-2368.659014,-11029.068536,-1532.190996
544.153821,-3108.864956,-9178.553681,-1915.238745
544.154143,-2960.823768,-8364.327145,-2987.772442
544.154466,-2812.782580,-9030.512492,-1915.238745
544.154788,-2368.659014,-10881.027347,0.000000
544.155111,-2220.617826,-13397.727550,0.000000
544.155433,-2368.659014,-14656.077652,536.266849
544.155756,-666.185348,-11473.192101,153.219100
544.156078,962.267725,-8142.265362,-1991.848295
544.156401,3923.091493,-7698.141797,-3217.601092
544.156723,5329.482782,-8068.244768,-1915.238745
544.157045,3478.967927,-6365.771101,383.047749
544.157368,592.164754,-7402.059420,1455.581446
544.157690,-2294.638420,-10584.944971,0.000000
544.158013,-4885.359217,-11991.336260,-1608.800546
544.158335,-6439.791695,-10807.006753,-1225.752797
544.158658,-5033.400406,-10214.842000,-1532.190996
544.158980,-3552.988522,-11177.109724,-2528.115143
544.159303,-3478.967927,-10140.821405,0.000000
544.159625,-4737.318029,-9030.512492,3370.820191
544.159948,-4589.276840,-8660.409521,2834.553343
544.160270,-1850.514855,-9622.677246,-459.657299
544.160592,2220.617826,-6809.894666,-1455.581446
544.160915,4959.379811,-2664.741391,-1225.752797
544.161237,7105.977043,-4515.256246,0.000000
544.161560,9104.533087,-7624.121203,3600.648841
544.161882,8438.347739,-7624.121203,3907.087040
544.162205,5773.606348,-8512.368333,383.047749
544.162527,2516.700203,-11917.315666,-2681.334243
544.162850,-740.205942,-12361.439231,-2451.505594
544.163172,-3552.988522,-10362.883188,-153.219100
544.163494,-3108.864956,-8512.368333,0.000000
544.163817,-2294.638420,-7254.018232,-2528.115143
544.164139,-2368.659014,-8068.244768,-2374.896044
544.164462,-4663.297435,-9622.677246,536.266849
544.164784,-7031.956449,-12657.521608,1302.362347
544.165107,-6883.915261,-14285.974681,0.000000
544.165429,-3997.112087,-10288.862594,-919.314598
544.165752,370.102971,-4367.215058,-3217.601092
544.166074,4663.297435,-3330.926739,-5209.449386
544.166396,7624.121203,-5403.503377,-3064.381992
544.166719,5329.482782,-6883.915261,-459.657299
544.167041,1036.288319,-9474.636058,-1149.143247
544.167364,-2738.761985,-14582.057057,-2757.943793
544.167686,-5625.565159,-16284.530724,-4366.744339
544.168009,-7772.162391,-14137.933492,-6052.154434
544.168331,-7846.182985,-11325.150913,-6894.859482
544.168654,-4959.379811,-10732.986159,-6435.202183
544.168976,-2738.761985,-9252.574275,-3370.820191
544.169299,-2220.617826,-10807.006753,-766.095498
544.169621,-2368.659014,-14434.015869,-536.266849
544.169943,-2368.659014,-13027.624579,-1225.752797
544.170266,-148.041188,-6217.729913,-2604.724693
544.170588,5255.462188,-2368.659014,-5132.839837
544.170911,11399.171507,-5181.441594,-5822.325785
544.171233,12583.501014,-5773.606348,-1685.410096
544.171556,7994.224174,-6661.853478,3217.601092
544.171878,2368.659014,-9252.574275,3830.477490
544.172201,-1332.370696,-12361.439231,-1302.362347
544.172523,-3701.029710,-13619.789333,-5822.325785
544.172845,-5255.462188,-10955.047942,-6665.030833
544.173168,-5477.523971,-7994.224174,-5286.058936
544.173490,-4219.173869,-6365.771101,-3064.381992
544.173813,-2220.617826,-5995.668130,-1608.800546
544.174135,-740.205942,-10214.842000,-2834.553343
544.174458,-1850.514855,-14063.912898,-2604.724693
544.174780,-4367.215058,-13027.624579,-612.876398
544.175103,-4737.318029,-10955.047942,-536.266849
544.175425,-444.123565,-8808.450710,-2757.943793
544.175748,5181.441594,-5329.482782,-3677.258390
544.176070,7476.080014,-740.205942,-2298.286494
544.176392,6513.812290,74.020594,766.095498
544.176715,3478.967927,-4293.194464,995.924147
544.177037,-1702.473667,-9622.677246,76.609550
544.177360,-6513.812290,-13323.706956,-1149.143247
544.177682,-10436.903782,-13989.892304,-3447.429741
544.178005,-9844.739029,-14285.974681,-5822.325785
544.178327,-6735.874072,-11843.295072,-5898.935335
544.178650,-3478.967927,-8956.491898,-2911.162892
544.178972,-1406.391290,-9770.718434,306.438199
544.179294,-814.226536,-12287.418637,1838.629195
544.179617,-1332.370696,-12213.398043,1302.362347
544.179939,148.041188,-10584.944971,-1378.971896
544.180262,3923.091493,-10214.842000,-5669.106685
544.180584,8586.388927,-7920.203579,-4903.011187
544.180907,10584.944971,-4515.256246,-689.485948
544.181229,11695.253884,-5847.626942,1915.238745
544.181552,10510.924376,-10362.883188,2221.676944
544.181874,5477.523971,-11177.109724,1991.848295
544.182197,-2664.741391,-11325.150913,919.314598
544.182519,-6883.915261,-12657.521608,-1608.800546
544.182841,-6069.688724,-13471.748144,-4060.306139
544.183164,-5477.523971,-10066.800811,-4290.134789
544.183486,-4515.256246,-7846.182985,229.828649
544.183809,-4071.132681,-8882.471304,3294.210641
544.184131,-3256.906145,-9992.780217,3294.210641
544.184454,-2886.803174,-8808.450710,766.095498
544.184776,-2738.761985,-7994.224174,-3217.601092
544.185099,-1480.411884,-9696.697840,-5209.449386
544.185421,1184.329507,-7920.203579,-1838.629195
544.185743,1998.556043,-2146.597232,1532.190996
544.186066,2664.741391,-3108.864956,612.876398
544.186388,3330.926739,-9252.574275,-383.047749
544.186711,0.000000,-10658.965565,-306.438199
544.187033,-5477.523971,-10732.986159,-612.876398
544.187356,-8290.306550,-13471.748144,-1532.190996
544.187678,-6883.915261,-15618.345376,-2681.334243
544.188001,-5033.400406,-10584.944971,-1302.362347
544.188323,-3404.947333,-4959.379811,0.000000
544.188645,-444.123565,-5551.544565,459.657299
544.188968,1924.535449,-9696.697840,1225.752797
544.189290,2738.761985,-8956.491898,1838.629195
544.189613,2442.679609,-7920.203579,383.047749
544.189935,4293.194464,-10066.800811,-766.095498
544.190258,8734.430116,-9252.574275,0.000000
544.190580,11103.089130,-6439.791695,-919.314598
544.190903,10584.944971,-6069.688724,-995.924147
544.191225,7920.203579,-8142.265362,-383.047749
544.191548,2368.659014,-9030.512492,-153.219100
544.191870,-4071.132681,-11029.068536,-2068.457845
544.192192,-7994.224174,-13915.871710,-4060.306139
544.192515,-9918.759623,-15174.221811,-7354.516781
544.192837,-9548.656652,-14582.057057,-7277.907231
544.193160,-6957.935855,-14137.933492,-2834.553343
544.193482,-4663.297435,-14359.995275,383.047749
544.193805,-3108.864956,-10436.903782,1302.362347
544.194127,-2072.576638,-4737.318029,0.000000
544.194450,-592.164754,-3849.070898,-4213.525239
544.194772,1776.494261,-6291.750507,-6052.154434
544.195094,3330.926739,-7328.038826,-4443.353888
544.195417,2886.803174,-6587.832884,-2834.553343
544.195739,2664.741391,-11325.150913,-1072.533697
544.196062,3923.091493,-13471.748144,536.266849
544.196384,1554.432478,-10066.800811,-689.485948
544.196707,-2220.617826,-8068.244768,-2834.553343
544.197029,-5255.462188,-8660.409521,-4443.353888
544.197352,-6217.729913,-9474.636058,-5056.230287
544.197674,-7031.956449,-8808.450710,-4749.792088
544.197997,-5773.606348,-11251.130318,-2757.943793
544.198319,-2516.700203,-12879.583391,-1915.238745
544.198641,1850.514855,-10066.800811,-842.705048
544.198964,5255.462188,-6217.729913,76.609550
544.199286,7254.018232,-6661.853478,-689.485948
544.199609,8364.327145,-9326.594869,-1149.143247
544.199931,7476.080014,-7402.059420,919.314598
544.200254,5329.482782,-3923.091493,-689.485948
544.200576,3034.844362,-4219.173869,-4136.915689
544.200899,666.185348,-5847.626942,-3907.087040
544.201221,-2072.576638,-4959.379811,-1685.410096
544.201543,-5329.482782,-6513.812290,-1225.752797
544.201866,-8364.327145,-11399.171507,-3217.601092
544.202188,-10066.800811,-16062.468941,-4366.744339
544.202511,-10510.924376,-16950.716072,-4749.792088
544.202833,-10807.006753,-17246.798449,-4290.134789
544.203156,-7476.080014,-14285.974681,-2604.724693
544.203478,-2664.741391,-7698.141797,-2068.457845
544.203801,1628.453072,-3849.070898,-2834.553343
544.204123,4663.297435,-5699.585753,-1608.800546
544.204445,4589.276840,-6587.832884,-766.095498
544.204768,3478.967927,-5847.626942,383.047749
544.205090,2886.803174,-8438.347739,-1685.410096
544.205413,4959.379811,-13619.789333,-4519.963438
544.205735,5921.647536,-14508.036463,-3064.381992
544.206058,4071.132681,-10732.986159,689.485948
544.206380,666.185348,-10214.842000,2374.896044
544.206703,148.041188,-13915.871710,1225.752797
544.207025,-888.247130,-11991.336260,-229.828649
544.207348,-2738.761985,-8438.347739,-2528.115143
544.207670,-4367.215058,-8290.306550,-2451.505594
544.207992,-2146.597232,-11325.150913,229.828649
544.208315,2220.617826,-9770.718434,2987.772442
544.208637,4441.235652,-6513.812290,2757.943793
544.208960,4145.153275,-7179.997637,2221.676944
544.209282,2886.803174,-7179.997637,2374.896044
544.209605,2442.679609,-4737.318029,0.000000
544.209927,1628.453072,-4219.173869,-3907.087040
544.210250,1480.411884,-8512.368333,-4903.011187
544.210572,296.082377,-11029.068536,-919.314598
544.210894,-2146.597232,-10436.903782,2834.553343
544.211217,-4367.215058,-11843.295072,2221.676944
544.211539,-5847.626942,-13989.892304,-766.095498
544.211862,-5995.668130,-12657.521608,-2451.505594
544.212184,-5921.647536,-9474.636058,-3447.429741
544.212507,-4811.338623,-8660.409521,-1991.848295
544.212829,-2516.700203,-7698.141797,995.924147
544.213152,814.226536,-5995.668130,3524.039291
544.213474,2812.782580,-5921.647536,2834.553343
544.213797,4367.215058,-8660.409521,-766.095498
544.214119,3849.070898,-9104.533087,-2451.505594
544.214441,1998.556043,-7994.224174,-383.047749
544.214764,740.205942,-8734.430116,1225.752797
544.215086,-518.144159,-10140.821405,459.657299
544.215409,-1480.411884,-8882.471304,-383.047749
544.215731,-3701.029710,-6217.729913,-2528.115143
544.216054,-5181.441594,-8364.327145,-5132.839837
544.216376,-6439.791695,-10807.006753,-4979.620737
544.216699,-6513.812290,-13323.706956,-4826.401637
544.217021,-6143.709319,-15100.201217,-4673.182538
544.217343,-3330.926739,-16432.571912,-3294.210641
544.217666,-666.185348,-13989.892304,0.000000
544.217988,1406.391290,-9622.677246,459.657299
544.218311,2368.659014,-7476.080014,-1838.629195
544.218633,4885.359217,-6587.832884,-2987.772442
544.218956,5921.647536,-3701.029710,-2834.553343
544.219278,5847.626942,-2664.741391,-4060.306139
544.219601,6143.709319,-7328.038826,-3370.820191
544.219923,6291.750507,-9918.759623,-919.314598
544.220246,3330.926739,-8068.244768,306.438199
544.220568,-1184.329507,-8956.491898,-1225.752797
544.220890,-4811.338623,-11991.336260,-3064.381992
544.221213,-6587.832884,-13027.624579,-3983.696590
544.221535,-7846.182985,-10288.862594,-6052.154434
544.221857,-6291.750507,-9622.677246,-5515.887586
544.222180,-2368.659014,-10658.965565,-3983.696590
544.222502,1406.391290,-8586.388927,-536.266849
544.222824,3108.864956,-5921.647536,612.876398
544.223147,3256.906145,-8882.471304,-1072.533697
544.223469,2812.782580,-12287.418637,-2451.505594
544.223792,1554.432478,-8882.471304,-2451.505594
544.224114,-148.041188,-5625.565159,-3600.648841
544.224436,1258.350101,-8068.244768,-5439.278036
544.224759,3256.906145,-9178.553681,-3447.429741
544.225081,3108.864956,-5995.668130,76.609550
544.225403,-222.061783,-5995.668130,1149.143247
544.225726,-2886.803174,-11325.150913,76.609550
544.226048,-5255.462188,-13323.706956,-1762.019645
544.226371,-7105.977043,-12953.603985,-3217.601092
544.226693,-8068.244768,-13027.624579,-4443.353888
544.227015,-5625.565159,-12435.459826,-1838.629195
544.227338,0.000000,-8660.409521,842.705048
544.227660,4293.194464,-4515.256246,306.438199
544.227982,6735.874072,-5329.482782,-536.266849
544.228305,5847.626942,-6809.894666,76.609550
544.228627,2960.823768,-6291.750507,229.828649
544.228950,148.041188,-8290.306550,-2145.067394
544.229272,-1406.391290,-11991.336260,-3447.429741
544.229594,-3034.844362,-12139.377449,-2068.457845
544.229917,-4737.318029,-10214.842000,-306.438199
544.230239,-5329.482782,-10362.883188,-459.657299
544.230561,-3627.009116,-12583.501014,-1072.533697
544.230884,-3108.864956,-12139.377449,-1838.629195
544.231206,-2738.761985,-10881.027347,-2528.115143
544.231529,-1110.308913,-11029.068536,-2757.943793
544.231851,592.164754,-10658.965565,0.000000
544.232173,2368.659014,-7105.977043,1455.581446
544.232496,2960.823768,-5699.585753,919.314598
544.232818,3330.926739,-8512.368333,-995.924147
544.233140,3775.050304,-10214.842000,-1991.848295
544.233463,2812.782580,-10214.842000,-153.219100
544.233785,2516.700203,-9474.636058,2221.676944
544.234108,2960.823768,-9252.574275,76.609550
544.234430,3182.885551,-8142.265362,-459.657299
544.234752,592.164754,-6439.791695,229.828649
544.235075,-2664.741391,-6883.915261,-766.095498
544.235397,-5773.606348,-9030.512492,-2528.115143
544.235719,-6587.832884,-11473.192101,-3447.429741
544.236042,-6217.729913,-13397.727550,-3753.867940
544.236364,-4071.132681,-14508.036463,-3217.601092
544.236686,-1554.432478,-13323.706956,1608.800546
544.237009,814.226536,-10140.821405,3907.087040
544.237331,1998.556043,-7254.018232,1302.362347
