#time,accel_x,accel_y,accel_z
97.551286,2442.679609,-4885.359217,2068.457845
97.551607,3552.988522,-5329.482782,612.876398
97.551929,3627.009116,-6661.853478,-229.828649
97.552251,3034.844362,-7105.977043,-612.876398
97.552572,2368.659014,-7179.997637,-1455.581446
97.552894,2812.782580,-9252.574275,-3140.991542
97.553216,3627.009116,-10881.027347,-2528.115143
97.553537,2294.638420,-10881.027347,-1455.581446
97.553859,444.123565,-9992.780217,-459.657299
97.554181,0.000000,-10066.800811,-1378.971896
97.554502,444.123565,-10066.800811,-2451.505594
97.554824,296.082377,-9918.759623,-1532.190996
97.555146,-148.041188,-8142.265362,1455.581446
97.555467,592.164754,-5625.565159,1225.752797
97.555789,2960.823768,-4959.379811,-229.828649
97.556111,3997.112087,-6809.894666,-536.266849
97.556432,3034.844362,-8068.244768,1378.971896
97.556754,1554.432478,-7254.018232,2298.286494
97.557076,1258.350101,-8586.388927,1072.533697
97.557397,3034.844362,-10658.965565,-229.828649
97.557719,4145.153275,-10288.862594,-1072.533697
97.558041,4293.194464,-8068.244768,-1378.971896
97.558362,4515.256246,-7550.100608,-1149.143247
97.558684,4219.173869,-9400.615463,-1455.581446
97.559006,3552.988522,-11325.150913,-2374.896044
97.559327,1110.308913,-11473.192101,-2451.505594
97.559649,-222.061783,-11769.274478,-2451.505594
97.559971,-740.205942,-12879.583391,-3677.258390
97.560292,-444.123565,-12731.542202,-4213.525239
97.560614,-1184.329507,-10955.047942,-2451.505594
97.560936,-888.247130,-9474.636058,-1455.581446
97.561257,0.000000,-8808.450710,-1915.238745
97.561579,0.000000,-9030.512492,-2374.896044
97.561901,-888.247130,-8882.471304,-2374.896044
97.562222,-666.185348,-8660.409521,-2145.067394
97.562544,-148.041188,-8364.327145,-2451.505594
97.562866,592.164754,-8882.471304,-3217.601092
97.563187,1332.370696,-9696.697840,-2451.505594
97.563509,666.185348,-9474.636058,-2068.457845
97.563831,666.185348,-9178.553681,-3064.381992
97.564152,1406.391290,-10214.842000,-3830.477490
97.564474,1554.432478,-11177.109724,-4366.744339
97.564796,1480.411884,-11695.253884,-4443.353888
97.565117,1036.288319,-11769.274478,-3524.039291
97.565439,666.185348,-11177.109724,-2987.772442
97.565761,740.205942,-11325.150913,-2757.943793
97.566082,0.000000,-9992.780217,-2834.553343
97.566404,-1628.453072,-9178.553681,-2757.943793
97.566726,-2368.659014,-9030.512492,-2451.505594
97.567047,-3404.947333,-8586.388927,-1608.800546
97.567369,-4219.173869,-8586.388927,-459.657299
97.567691,-4589.276840,-8808.450710,153.219100
97.568012,-5181.441594,-8882.471304,306.438199
97.568334,-5329.482782,-8660.409521,0.000000
97.568656,-4441.235652,-8438.347739,0.000000
97.568977,-3182.885551,-7105.977043,-995.924147
97.569299,-962.267725,-7031.956449,-689.485948
97.569621,-222.061783,-7105.977043,-766.095498
97.569942,666.185348,-7476.080014,-766.095498
97.570264,1924.535449,-7994.224174,-1455.581446
97.570586,2812.782580,-8438.347739,-1991.848295
97.570907,3404.947333,-8512.368333,-1915.238745
97.571229,3182.885551,-9030.512492,-1991.848295
97.571550,3404.947333,-8734.430116,-995.924147
97.571872,2886.803174,-8438.347739,-383.047749
97.572194,2368.659014,-7920.203579,-383.047749
97.572515,2146.597232,-8142.265362,-766.095498
97.572837,1036.288319,-7624.121203,-995.924147
97.573159,444.123565,-8142.265362,-766.095498
97.573480,0.000000,-8068.244768,-383.047749
97.573802,-296.082377,-8290.306550,-459.657299
97.574124,0.000000,-8512.368333,-995.924147
97.574445,-518.144159,-8660.409521,-1838.629195
97.574767,-370.102971,-9474.636058,-2528.115143
97.575089,444.123565,-10807.006753,-3140.991542
97.575410,592.164754,-11917.315666,-3447.429741
97.575732,592.164754,-13027.624579,-3294.210641
97.576054,518.144159,-13249.686362,-2298.286494
97.576375,148.041188,-12879.583391,-2451.505594
97.576697,-1036.288319,-11843.295072,-2681.334243
97.577019,-2442.679609,-11325.150913,-3140.991542
97.577340,-4441.235652,-11399.171507,-2911.162892
97.577662,-5921.647536,-11029.068536,-2145.067394
97.577984,-7105.977043,-11843.295072,-1225.752797
97.578305,-7402.059420,-11769.274478,-459.657299
97.578627,-6513.812290,-11991.336260,-383.047749
97.578949,-5329.482782,-11029.068536,-383.047749
97.579270,-3923.091493,-10140.821405,0.000000
97.579592,-1406.391290,-9030.512492,153.219100
97.579914,962.267725,-8142.265362,-229.828649
97.580235,3627.009116,-7105.977043,-1149.143247
97.580557,5255.462188,-7698.141797,-766.095498
97.580879,6143.709319,-8438.347739,0.000000
97.581200,6143.709319,-9252.574275,-459.657299
97.581522,6365.771101,-8734.430116,0.000000
97.581844,5847.626942,-8512.368333,-383.047749
97.582165,5329.482782,-7846.182985,-689.485948
97.582487,3923.091493,-6735.874072,-306.438199
97.582809,2294.638420,-4959.379811,383.047749
97.583130,740.205942,-5033.400406,0.000000
97.583452,-888.247130,-5625.565159,229.828649
97.583774,-2590.720797,-6217.729913,0.000000
97.584095,-4145.153275,-6661.853478,0.000000
97.584417,-4441.235652,-7105.977043,-536.266849
97.584739,-3478.967927,-7254.018232,-689.485948
97.585060,-1924.535449,-8290.306550,-1608.800546
97.585382,-518.144159,-8364.327145,-1991.848295
97.585704,666.185348,-9252.574275,-2451.505594
97.586025,1628.453072,-11029.068536,-3370.820191
97.586347,2146.597232,-12509.480420,-2757.943793
97.586669,1258.350101,-13175.665768,-2681.334243
97.586990,-370.102971,-12435.459826,-2451.505594
97.587312,-2442.679609,-12213.398043,-2604.724693
97.587634,-4441.235652,-11769.274478,-2987.772442
97.587955,-5773.606348,-11251.130318,-3064.381992
97.588277,-7328.038826,-10881.027347,-2681.334243
97.588599,-7476.080014,-11547.212695,-1762.019645
97.588920,-7105.977043,-11103.089130,-536.266849
97.589242,-5921.647536,-10807.006753,-612.876398
97.589564,-4219.173869,-10584.944971,-919.314598
97.589885,-2220.617826,-10362.883188,-766.095498
97.590207,-592.164754,-9548.656652,-1838.629195
97.590529,814.226536,-8142.265362,-2221.676944
97.590850,2590.720797,-7772.162391,-2834.553343
97.591172,4367.215058,-9474.636058,-3524.039291
97.591494,4737.318029,-10732.986159,-3140.991542
97.591815,3849.070898,-11769.274478,-3064.381992
97.592137,3552.988522,-11695.253884,-1455.581446
97.592459,3404.947333,-11621.233289,-1302.362347
97.592780,2442.679609,-10510.924376,-1762.019645
97.593102,814.226536,-8364.327145,-842.705048
97.593424,-1110.308913,-5551.544565,612.876398
97.593745,-1776.494261,-4071.132681,919.314598
97.594067,-1850.514855,-2738.761985,-612.876398
97.594389,-1332.370696,-2590.720797,-1532.190996
97.594710,-666.185348,-3552.988522,-1225.752797
97.595032,222.061783,-6439.791695,-536.266849
97.595354,296.082377,-9104.533087,229.828649
97.595675,-518.144159,-10658.965565,76.609550
97.595997,-888.247130,-11695.253884,-919.314598
97.596319,-592.164754,-11547.212695,-2604.724693
97.596640,-222.061783,-10140.821405,-3524.039291
97.596962,-1036.288319,-9548.656652,-2834.553343
97.597284,-2294.638420,-9474.636058,-2298.286494
97.597605,-3256.906145,-9474.636058,-1762.019645
97.597927,-4071.132681,-10436.903782,-2145.067394
97.598249,-4811.338623,-11621.233289,-2374.896044
97.598570,-5699.585753,-12139.377449,-1608.800546
97.598892,-5403.503377,-12805.562797,-1532.190996
97.599214,-4219.173869,-13027.624579,-1072.533697
97.599535,-1554.432478,-12435.459826,-306.438199
97.599857,740.205942,-11177.109724,0.000000
97.600179,3108.864956,-9844.739029,153.219100
97.600500,5773.606348,-9252.574275,-306.438199
97.600822,7920.203579,-7994.224174,-1225.752797
97.601144,9104.533087,-7254.018232,-1762.019645
97.601465,9474.636058,-7994.224174,-919.314598
97.601787,8216.285956,-9696.697840,0.000000
97.602109,6365.771101,-9548.656652,-153.219100
97.602430,3478.967927,-9104.533087,-842.705048
97.602752,1628.453072,-8882.471304,-1685.410096
97.603074,-296.082377,-8734.430116,-1838.629195
97.603395,-2146.597232,-7105.977043,-2068.457845
97.603717,-3478.967927,-5921.647536,-1838.629195
97.604039,-3849.070898,-5921.647536,-612.876398
97.604360,-4145.153275,-7254.018232,-1302.362347
97.604682,-4737.318029,-8216.285956,-2221.676944
97.605004,-5033.400406,-9178.553681,-2145.067394
97.605325,-3404.947333,-9178.553681,-2145.067394
97.605647,-518.144159,-9104.533087,-2528.115143
97.605969,1702.473667,-9844.739029,-3830.477490
97.606290,2738.761985,-11621.233289,-2604.724693
97.606612,2368.659014,-12213.398043,-919.314598
97.606934,1406.391290,-11769.274478,76.609550
97.607255,74.020594,-10955.047942,-766.095498
97.607577,-1702.473667,-10436.903782,-1762.019645
97.607899,-3552.988522,-8882.471304,-1991.848295
97.608220,-4811.338623,-9030.512492,-1532.190996
97.608542,-5033.400406,-10658.965565,0.000000
97.608864,-5255.462188,-10807.006753,1762.019645
97.609185,-5181.441594,-10732.986159,1225.752797
97.609507,-4811.338623,-10510.924376,612.876398
97.609829,-3627.009116,-9474.636058,-536.266849
97.610150,-2368.659014,-8290.306550,-2068.457845
97.610472,-1036.288319,-7846.182985,-1991.848295
97.610794,740.205942,-7328.038826,-1685.410096
97.611115,1258.350101,-7772.162391,-2145.067394
97.611437,1554.432478,-8438.347739,-2987.772442
97.611759,1332.370696,-10288.862594,-3140.991542
97.612080,666.185348,-10807.006753,-3217.601092
97.612402,0.000000,-9992.780217,-3294.210641
97.612724,-888.247130,-8956.491898,-2451.505594
97.613045,-1406.391290,-8882.471304,-1915.238745
97.613367,-2442.679609,-7254.018232,-1532.190996
97.613689,-3404.947333,-6513.812290,-1378.971896
97.614010,-3627.009116,-5403.503377,-689.485948
97.614332,-2590.720797,-6735.874072,-1685.410096
97.614654,-1332.370696,-7254.018232,-1149.143247
97.614975,148.041188,-8586.388927,0.000000
97.615297,1998.556043,-9178.553681,229.828649
97.615619,3701.029710,-9918.759623,-612.876398
97.615940,4367.215058,-9844.739029,-1762.019645
97.616262,3256.906145,-10362.883188,-2221.676944
97.616584,2368.659014,-11325.150913,-2451.505594
97.616905,888.247130,-11843.295072,-2451.505594
97.617227,-592.164754,-11695.253884,-2681.334243
97.617549,-2368.659014,-10955.047942,-2757.943793
97.617870,-3997.112087,-10066.800811,-1225.752797
97.618192,-5329.482782,-10510.924376,-2374.896044
97.618514,-6143.709319,-10955.047942,-2451.505594
97.618835,-6513.812290,-10584.944971,-1915.238745
97.619157,-6513.812290,-10658.965565,-1302.362347
97.619479,-5255.462188,-11325.150913,-689.485948
97.619800,-2960.823768,-11251.130318,-766.095498
97.620122,-518.144159,-9844.739029,-995.924147
97.620444,2294.638420,-9030.512492,-842.705048
97.620765,5033.400406,-7920.203579,-1149.143247
97.621087,7476.080014,-7105.977043,-1608.800546
97.621409,9104.533087,-6735.874072,-1838.629195
97.621730,9400.615463,-7550.100608,-842.705048
97.622052,8808.450710,-9400.615463,229.828649
97.622374,6809.894666,-10140.821405,842.705048
97.622695,4737.318029,-8956.491898,76.609550
97.623017,3182.885551,-8882.471304,-689.485948
97.623339,2220.617826,-8586.388927,-383.047749
97.623660,222.061783,-7550.100608,76.609550
97.623982,-1184.329507,-6069.688724,306.438199
97.624304,-1628.453072,-6439.791695,689.485948
97.624625,-1554.432478,-6587.832884,153.219100
97.624947,-2516.700203,-7698.141797,-995.924147
97.625268,-2516.700203,-7772.162391,-2298.286494
97.625590,-1406.391290,-8438.347739,-2451.505594
97.625912,0.000000,-9400.615463,-3064.381992
97.626233,962.267725,-11695.253884,-3140.991542
97.626555,1110.308913,-13323.706956,-2987.772442
97.626877,148.041188,-13101.645173,-2068.457845
97.627198,-1554.432478,-12953.603985,-1915.238745
97.627520,-3775.050304,-12953.603985,-2145.067394
97.627842,-5403.503377,-11917.315666,-2221.676944
97.628163,-6735.874072,-10362.883188,-2221.676944
97.628485,-7105.977043,-9770.718434,-1685.410096
97.628807,-6439.791695,-9770.718434,0.000000
97.629128,-5403.503377,-9474.636058,842.705048
97.629450,-4515.256246,-8882.471304,995.924147
97.629772,-3034.844362,-8660.409521,612.876398
97.630093,-1480.411884,-9030.512492,229.828649
97.630415,0.000000,-9104.533087,-842.705048
97.630737,888.247130,-8290.306550,-1532.190996
97.631058,1776.494261,-7698.141797,-1838.629195
97.631380,2812.782580,-8068.244768,-2221.676944
97.631702,2886.803174,-10510.924376,-3064.381992
97.632023,2220.617826,-11251.130318,-2757.943793
97.632345,1036.288319,-10955.047942,-2451.505594
97.632667,370.102971,-10584.944971,-2528.115143
97.632988,-518.144159,-10140.821405,-2451.505594
97.633310,-2220.617826,-7550.100608,-2221.676944
97.633632,-3775.050304,-5625.565159,-1378.971896
97.633953,-4071.132681,-4959.379811,-1225.752797
97.634275,-3775.050304,-5699.585753,-1608.800546
97.634597,-2886.803174,-5625.565159,-2068.457845
97.634918,-814.226536,-6661.853478,-1838.629195
97.635240,962.267725,-8216.285956,-153.219100
97.635562,2072.576638,-9178.553681,153.219100
97.635883,2812.782580,-9178.553681,-842.705048
97.636205,3330.926739,-9474.636058,-3064.381992
97.636527,3404.947333,-9696.697840,-3983.696590
97.636848,1406.391290,-9622.677246,-3600.648841
97.637170,148.041188,-10955.047942,-2987.772442
97.637492,-1924.535449,-11917.315666,-2451.505594
97.637813,-3108.864956,-11769.274478,-2604.724693
97.638135,-3997.112087,-11917.315666,-3064.381992
97.638457,-4145.153275,-12213.398043,-2757.943793
97.638778,-4071.132681,-11843.295072,-2374.896044
97.639100,-4589.276840,-11177.109724,-1838.629195
97.639422,-3256.906145,-11399.171507,-1072.533697
97.639743,-1036.288319,-10955.047942,-459.657299
97.640065,1258.350101,-10436.903782,-1378.971896
97.640387,3478.967927,-9622.677246,-2221.676944
97.640708,5847.626942,-9030.512492,-612.876398
97.641030,7179.997637,-8142.265362,-153.219100
97.641352,8364.327145,-7846.182985,-766.095498
97.641673,9178.553681,-8512.368333,-1608.800546
97.641995,9104.533087,-7994.224174,-1838.629195
97.642317,7920.203579,-8216.285956,-1532.190996
97.642638,5403.503377,-9252.574275,-536.266849
97.642960,2960.823768,-10066.800811,76.609550
97.643282,370.102971,-8956.491898,-306.438199
97.643603,-1406.391290,-8586.388927,-1225.752797
97.643925,-2590.720797,-7402.059420,-919.314598
97.644247,-3034.844362,-6809.894666,-612.876398
97.644568,-3108.864956,-5773.606348,-1225.752797
97.644890,-3182.885551,-6439.791695,-1302.362347
97.645212,-1998.556043,-7179.997637,-842.705048
97.645533,-888.247130,-7846.182985,-1608.800546
97.645855,222.061783,-9474.636058,-2298.286494
97.646177,1110.308913,-11177.109724,-2681.334243
97.646498,1554.432478,-12657.521608,-2221.676944
97.646820,962.267725,-12879.583391,-1455.581446
97.647142,-518.144159,-11843.295072,-1225.752797
97.647463,-2442.679609,-11251.130318,-1455.581446
97.647785,-3923.091493,-10140.821405,-2145.067394
97.648107,-5699.585753,-10510.924376,-1991.848295
97.648428,-6809.894666,-11103.089130,-1302.362347
97.648750,-7254.018232,-11843.295072,0.000000
97.649072,-6809.894666,-11103.089130,995.924147
97.649393,-5625.565159,-10066.800811,1149.143247
97.649715,-3923.091493,-9104.533087,383.047749
97.650037,-2220.617826,-8438.347739,-766.095498
97.650358,-1110.308913,-8068.244768,-1072.533697
97.650680,0.000000,-7402.059420,-689.485948
97.651002,1110.308913,-7994.224174,-306.438199
97.651323,2368.659014,-8512.368333,-1915.238745
97.651645,2664.741391,-9400.615463,-3064.381992
97.651967,2442.679609,-10066.800811,-2757.943793
97.652288,1480.411884,-10510.924376,-1685.410096
97.652610,888.247130,-9548.656652,-1378.971896
97.652932,-1110.308913,-8438.347739,-2298.286494
97.653253,-2442.679609,-7624.121203,-2221.676944
97.653575,-4145.153275,-6809.894666,-2145.067394
97.653897,-4737.318029,-5847.626942,-2298.286494
97.654218,-4663.297435,-6069.688724,-2298.286494
97.654540,-3108.864956,-6069.688724,-2298.286494
97.654862,-1110.308913,-7624.121203,-1455.581446
97.655183,740.205942,-8734.430116,-536.266849
97.655505,1998.556043,-9918.759623,-383.047749
97.655827,3256.906145,-10288.862594,-1149.143247
97.656149,4219.173869,-10362.883188,-2757.943793
97.656470,3775.050304,-9992.780217,-3064.381992
97.656792,2738.761985,-10510.924376,-2681.334243
97.657114,1258.350101,-10955.047942,-2681.334243
97.657435,-296.082377,-11177.109724,-2757.943793
97.657757,-1406.391290,-11251.130318,-2911.162892
97.658079,-2738.761985,-11547.212695,-2987.772442
97.658400,-3775.050304,-11843.295072,-2298.286494
97.658722,-5181.441594,-11399.171507,-2068.457845
97.659044,-5329.482782,-10955.047942,-1838.629195
97.659365,-4515.256246,-11547.212695,-1455.581446
97.659687,-2664.741391,-11103.089130,-1991.848295
97.660009,-962.267725,-10510.924376,-2374.896044
97.660330,1924.535449,-9992.780217,-2068.457845
97.660652,4663.297435,-9326.594869,-1302.362347
97.660974,6735.874072,-8068.244768,-995.924147
97.661296,8586.388927,-8068.244768,-1762.019645
97.661617,8808.450710,-8068.244768,-2451.505594
97.661939,9030.512492,-8586.388927,-2298.286494
97.662261,7550.100608,-9104.533087,-1378.971896
97.662582,5107.421000,-9844.739029,0.000000
97.662904,2960.823768,-9474.636058,306.438199
97.663226,1406.391290,-8882.471304,-612.876398
97.663547,370.102971,-8290.306550,-995.924147
97.663869,-592.164754,-7105.977043,0.000000
97.664191,-1702.473667,-6365.771101,306.438199
97.664512,-1924.535449,-5477.523971,536.266849
97.664834,-1998.556043,-6587.832884,0.000000
97.665156,-1554.432478,-7105.977043,-612.876398
97.665478,-666.185348,-8364.327145,-1532.190996
97.665799,148.041188,-8956.491898,-2221.676944
97.666121,1184.329507,-10584.944971,-2451.505594
97.666443,1332.370696,-11843.295072,-2145.067394
97.666764,666.185348,-12879.583391,-1378.971896
97.667086,-814.226536,-12509.480420,-1149.143247
97.667408,-2960.823768,-11843.295072,-1915.238745
97.667729,-4663.297435,-11103.089130,-2451.505594
97.668051,-6143.709319,-10732.986159,-2451.505594
97.668373,-7328.038826,-10881.027347,-1608.800546
97.668694,-7402.059420,-10658.965565,-153.219100
97.669016,-7105.977043,-10066.800811,1149.143247
97.669338,-6143.709319,-9474.636058,1532.190996
97.669659,-4663.297435,-8660.409521,612.876398
97.669981,-3256.906145,-7846.182985,-153.219100
97.670303,-2220.617826,-7328.038826,-536.266849
97.670625,-740.205942,-7698.141797,-76.609550
97.670946,592.164754,-7698.141797,-689.485948
97.671268,1924.535449,-8216.285956,-2068.457845
97.671590,2664.741391,-9030.512492,-2528.115143
97.671911,2442.679609,-10732.986159,-2681.334243
97.672233,1850.514855,-11473.192101,-2221.676944
97.672555,666.185348,-11103.089130,-2451.505594
97.672876,-370.102971,-10436.903782,-2604.724693
97.673198,-1998.556043,-9178.553681,-2145.067394
97.673520,-3701.029710,-7994.224174,-1532.190996
97.673841,-4885.359217,-6069.688724,-1532.190996
97.674163,-5107.421000,-5699.585753,-1532.190996
97.674485,-3849.070898,-5921.647536,-1838.629195
97.674806,-1776.494261,-6291.750507,-2145.067394
97.675128,74.020594,-7328.038826,-689.485948
97.675450,1480.411884,-8882.471304,306.438199
97.675772,2368.659014,-9030.512492,-383.047749
97.676093,3034.844362,-9844.739029,-2374.896044
97.676415,2886.803174,-9770.718434,-3370.820191
97.676737,2368.659014,-9992.780217,-3677.258390
97.677058,1406.391290,-10881.027347,-3524.039291
97.677380,0.000000,-11621.233289,-2911.162892
97.677702,-1036.288319,-11473.192101,-2987.772442
97.678023,-2294.638420,-11473.192101,-2987.772442
97.678345,-2812.782580,-12139.377449,-2528.115143
97.678667,-4219.173869,-11843.295072,-1455.581446
97.678988,-4885.359217,-11177.109724,-1838.629195
97.679310,-4589.276840,-11621.233289,-1608.800546
97.679632,-2516.700203,-11399.171507,-1225.752797
97.679954,-296.082377,-10807.006753,-1532.190996
97.680275,2220.617826,-9992.780217,-995.924147
97.680597,4959.379811,-9326.594869,-919.314598
97.680919,7550.100608,-7698.141797,-383.047749
97.681240,8586.388927,-7105.977043,-612.876398
97.681562,9400.615463,-7698.141797,-1302.362347
97.681884,9474.636058,-8438.347739,-1991.848295
97.682205,8808.450710,-8586.388927,-1685.410096
97.682527,6661.853478,-9252.574275,-919.314598
97.682849,3997.112087,-9844.739029,229.828649
97.683170,1628.453072,-9622.677246,0.000000
97.683492,-148.041188,-8512.368333,-1149.143247
97.683814,-1332.370696,-7328.038826,-2068.457845
97.684135,-2146.597232,-6439.791695,-536.266849
97.684457,-2368.659014,-5921.647536,-153.219100
97.684779,-2886.803174,-5773.606348,-383.047749
97.685101,-2220.617826,-6587.832884,-689.485948
97.685422,-1332.370696,-8290.306550,-1302.362347
97.685744,148.041188,-9622.677246,-2221.676944
97.686066,666.185348,-10510.924376,-2374.896044
97.686387,888.247130,-11547.212695,-1685.410096
97.686709,814.226536,-12213.398043,-1072.533697
97.687031,0.000000,-11843.295072,-536.266849
97.687352,-1998.556043,-10732.986159,-1991.848295
97.687674,-3627.009116,-9992.780217,-2834.553343
97.687996,-5329.482782,-10658.965565,-2451.505594
97.688317,-6587.832884,-11547.212695,-1302.362347
97.688639,-7328.038826,-12065.356855,0.000000
97.688961,-7179.997637,-11843.295072,612.876398
97.689282,-7031.956449,-10807.006753,1225.752797
97.689604,-5625.565159,-10066.800811,76.609550
97.689926,-3997.112087,-9400.615463,-689.485948
97.690248,-2442.679609,-8068.244768,-995.924147
97.690569,-888.247130,-7698.141797,-536.266849
97.690891,0.000000,-7328.038826,-536.266849
97.691213,1628.453072,-8290.306550,-1072.533697
97.691534,2368.659014,-8956.491898,-2374.896044
97.691856,2294.638420,-10140.821405,-2987.772442
97.692178,1554.432478,-10436.903782,-2145.067394
97.692499,222.061783,-10066.800811,-919.314598
97.692821,-740.205942,-9030.512492,-1685.410096
97.693143,-2146.597232,-8142.265362,-2145.067394
97.693464,-3627.009116,-7105.977043,-1991.848295
97.693786,-5181.441594,-5773.606348,-1991.848295
97.694108,-5847.626942,-5477.523971,-1608.800546
97.694429,-4959.379811,-6291.750507,-2374.896044
97.694751,-3923.091493,-7179.997637,-1915.238745
97.695073,-2072.576638,-8364.327145,-919.314598
97.695395,-370.102971,-9252.574275,-689.485948
97.695716,1184.329507,-9400.615463,-1149.143247
97.696038,2516.700203,-9400.615463,-2451.505594
97.696360,2738.761985,-9178.553681,-2834.553343
97.696681,2220.617826,-10510.924376,-3140.991542
97.697003,1628.453072,-11621.233289,-2834.553343
97.697325,222.061783,-11695.253884,-2834.553343
97.697646,-592.164754,-11325.150913,-2834.553343
97.697968,-1554.432478,-11325.150913,-2145.067394
97.698290,-1998.556043,-11473.192101,-1838.629195
97.698611,-3108.864956,-11251.130318,-2068.457845
97.698933,-4071.132681,-10584.944971,-1378.971896
97.699255,-3997.112087,-11473.192101,-995.924147
97.699577,-2886.803174,-10881.027347,-995.924147
97.699898,-740.205942,-10807.006753,-2374.896044
97.700220,1554.432478,-9992.780217,-1915.238745
97.700542,3849.070898,-9400.615463,0.000000
97.700863,6217.729913,-8364.327145,-383.047749
97.701185,7476.080014,-7179.997637,-1302.362347
97.701507,8660.409521,-7105.977043,-2221.676944
97.701828,8438.347739,-7846.182985,-2298.286494
97.702150,7179.997637,-9400.615463,-1455.581446
97.702472,5181.441594,-10510.924376,-536.266849
97.702793,3552.988522,-10214.842000,-995.924147
97.703115,2220.617826,-9326.594869,-689.485948
97.703437,888.247130,-9178.553681,-1072.533697
97.703758,-296.082377,-8068.244768,-459.657299
97.704080,-1184.329507,-6217.729913,-306.438199
97.704402,-1332.370696,-5847.626942,0.000000
97.704724,-888.247130,-6439.791695,76.609550
97.705045,-1480.411884,-7031.956449,-459.657299
97.705367,-962.267725,-7550.100608,-1685.410096
97.705689,296.082377,-8438.347739,-1762.019645
97.706010,2146.597232,-10066.800811,-2221.676944
97.706332,2960.823768,-11769.274478,-2451.505594
97.706654,2368.659014,-12953.603985,-1608.800546
97.706975,666.185348,-12583.501014,-995.924147
97.707297,-1924.535449,-12213.398043,-1378.971896
97.707619,-4663.297435,-11399.171507,-2374.896044
97.707940,-6883.915261,-10955.047942,-2987.772442
97.708262,-7624.121203,-10807.006753,-2757.943793
97.708584,-8364.327145,-11399.171507,-1608.800546
97.708905,-8364.327145,-11177.109724,919.314598
97.709227,-7846.182985,-10288.862594,1838.629195
97.709549,-6513.812290,-8290.306550,1225.752797
97.709871,-4811.338623,-8142.265362,76.609550
97.710192,-3478.967927,-8364.327145,-1072.533697
97.710514,-2960.823768,-7550.100608,-689.485948
97.710836,-1332.370696,-6587.832884,-689.485948
97.711157,740.205942,-7254.018232,-1762.019645
97.711479,2294.638420,-8290.306550,-2068.457845
97.711801,2220.617826,-10214.842000,-1608.800546
97.712122,1702.473667,-11399.171507,-1532.190996
97.712444,962.267725,-11177.109724,-1378.971896
97.712766,370.102971,-10436.903782,-2298.286494
97.713087,-962.267725,-9252.574275,-2451.505594
97.713409,-2960.823768,-7105.977043,-1532.190996
97.713731,-4663.297435,-5995.668130,-842.705048
97.714052,-5329.482782,-5403.503377,-1149.143247
97.714374,-4811.338623,-5921.647536,-1302.362347
97.714696,-3108.864956,-6439.791695,-1455.581446
97.715018,-740.205942,-6883.915261,-1302.362347
97.715339,962.267725,-8364.327145,-383.047749
97.715661,2220.617826,-8734.430116,306.438199
97.715983,2886.803174,-8586.388927,-689.485948
97.716304,3404.947333,-9474.636058,-3217.601092
97.716626,2590.720797,-9844.739029,-3753.867940
97.716948,1258.350101,-9992.780217,-3677.258390
97.717269,0.000000,-11621.233289,-3064.381992
97.717591,-814.226536,-12213.398043,-2528.115143
97.717913,-2072.576638,-11917.315666,-2911.162892
97.718234,-2960.823768,-11547.212695,-2911.162892
97.718556,-3627.009116,-11029.068536,-2298.286494
97.718878,-4145.153275,-11029.068536,-1838.629195
97.719200,-4145.153275,-11695.253884,-2221.676944
97.719521,-2516.700203,-11843.295072,-1302.362347
97.719843,0.000000,-11843.295072,-1455.581446
97.720165,2442.679609,-10955.047942,-689.485948
97.720486,5255.462188,-9844.739029,-306.438199
97.720808,7624.121203,-7846.182985,-153.219100
97.721130,9030.512492,-7624.121203,-995.924147
97.721451,9696.697840,-7846.182985,-1532.190996
97.721773,9844.739029,-8808.450710,-1915.238745
97.722095,9548.656652,-8956.491898,-2757.943793
97.722416,7402.059420,-9474.636058,-1762.019645
97.722738,5329.482782,-9622.677246,-383.047749
97.723060,2220.617826,-9696.697840,-153.219100
97.723381,0.000000,-8956.491898,-1149.143247
97.723703,-1628.453072,-8290.306550,-2068.457845
97.724025,-2368.659014,-7254.018232,-1532.190996
97.724347,-2886.803174,-6513.812290,-919.314598
97.724668,-3330.926739,-5921.647536,-229.828649
97.724990,-2886.803174,-6291.750507,-689.485948
97.725312,-1998.556043,-7105.977043,-1378.971896
97.725633,-666.185348,-8438.347739,-2221.676944
97.725955,814.226536,-9548.656652,-3294.210641
97.726277,1406.391290,-11399.171507,-2528.115143
97.726598,1110.308913,-12509.480420,-1225.752797
97.726920,148.041188,-12065.356855,-842.705048
97.727242,-962.267725,-11769.274478,-1532.190996
97.727563,-2738.761985,-10881.027347,-2987.772442
97.727885,-4811.338623,-10288.862594,-3217.601092
97.728207,-6587.832884,-11103.089130,-2221.676944
97.728528,-7624.121203,-11917.315666,-229.828649
97.728850,-7550.100608,-11843.295072,1072.533697
97.729172,-6439.791695,-11251.130318,459.657299
97.729494,-5329.482782,-9844.739029,612.876398
97.729815,-4145.153275,-8808.450710,0.000000
97.730137,-3034.844362,-8216.285956,-612.876398
97.730459,-2220.617826,-7994.224174,-383.047749
97.730780,-1036.288319,-7031.956449,-153.219100
97.731102,148.041188,-7105.977043,-1225.752797
97.731424,1406.391290,-7772.162391,-2374.896044
97.731745,1702.473667,-9844.739029,-2528.115143
97.732067,1258.350101,-10732.986159,-2451.505594
97.732389,370.102971,-10658.965565,-1685.410096
97.732710,-296.082377,-9918.759623,-842.705048
97.733032,-1628.453072,-9030.512492,-1838.629195
97.733354,-3108.864956,-7328.038826,-2681.334243
97.733676,-4811.338623,-6143.709319,-2221.676944
97.733997,-5625.565159,-5033.400406,-1685.410096
97.734319,-5255.462188,-5699.585753,-1762.019645
97.734641,-4441.235652,-6735.874072,-1378.971896
97.734962,-2368.659014,-8068.244768,-1302.362347
97.735284,222.061783,-9252.574275,-919.314598
97.735606,2220.617826,-9770.718434,-306.438199
97.735927,3034.844362,-9622.677246,-689.485948
97.736249,3256.906145,-9844.739029,-2451.505594
97.736571,3182.885551,-9918.759623,-2757.943793
97.736892,2072.576638,-10584.944971,-2987.772442
97.737214,740.205942,-11399.171507,-3064.381992
97.737536,-518.144159,-11991.336260,-2757.943793
97.737857,-1184.329507,-11991.336260,-2604.724693
97.738179,-2294.638420,-11621.233289,-2528.115143
97.738501,-2738.761985,-11769.274478,-1915.238745
97.738823,-3404.947333,-11473.192101,-1608.800546
97.739144,-3627.009116,-11473.192101,-2068.457845
97.739466,-2738.761985,-11695.253884,-1378.971896
97.739788,-1258.350101,-11325.150913,-1608.800546
97.740109,1332.370696,-10362.883188,-1225.752797
97.740431,4219.173869,-9400.615463,-842.705048
97.740753,6439.791695,-8438.347739,-459.657299
97.741074,7476.080014,-8068.244768,-689.485948
97.741396,8290.306550,-7846.182985,-1149.143247
97.741718,8660.409521,-8586.388927,-1762.019645
97.742039,8142.265362,-8290.306550,-1991.848295
97.742361,6809.894666,-8586.388927,-1378.971896
97.742683,4737.318029,-9326.594869,-229.828649
97.743004,1998.556043,-9548.656652,-153.219100
97.743326,814.226536,-9030.512492,-1455.581446
97.743648,-518.144159,-8290.306550,-1378.971896
97.743970,-1110.308913,-7550.100608,-612.876398
97.744291,-1554.432478,-7105.977043,76.609550
97.744613,-1924.535449,-5551.544565,306.438199
97.744935,-1036.288319,-6735.874072,-536.266849
97.745256,-592.164754,-6957.935855,-1072.533697
97.745578,370.102971,-7846.182985,-1991.848295
97.745900,1702.473667,-9178.553681,-2757.943793
97.746221,2072.576638,-10807.006753,-2528.115143
97.746543,2368.659014,-12213.398043,-1991.848295
97.746865,962.267725,-12731.542202,-1072.533697
97.747186,-888.247130,-12361.439231,-1532.190996
97.747508,-3701.029710,-11695.253884,-2298.286494
97.747830,-5847.626942,-10584.944971,-2911.162892
97.748151,-7994.224174,-10732.986159,-3140.991542
97.748473,-8216.285956,-11547.212695,-1608.800546
97.748795,-8142.265362,-11103.089130,0.000000
97.749117,-7105.977043,-9992.780217,766.095498
97.749438,-5477.523971,-9252.574275,536.266849
97.749760,-4367.215058,-8734.430116,306.438199
97.750082,-3256.906145,-8364.327145,-919.314598
97.750403,-2812.782580,-8438.347739,-1225.752797
97.750725,-1924.535449,-8068.244768,-842.705048
97.751047,-444.123565,-7846.182985,-1915.238745
97.751368,1258.350101,-8216.285956,-2834.553343
97.751690,1998.556043,-9400.615463,-2298.286494
97.752012,1924.535449,-10807.006753,-2451.505594
97.752333,1184.329507,-11251.130318,-1762.019645
97.752655,518.144159,-10807.006753,-1532.190996
97.752977,-962.267725,-10066.800811,-1991.848295
97.753299,-2146.597232,-8438.347739,-2451.505594
97.753620,-4219.173869,-6439.791695,-1685.410096
97.753942,-5255.462188,-5329.482782,-1762.019645
97.754264,-4811.338623,-5847.626942,-1455.581446
97.754585,-3552.988522,-6143.709319,-1608.800546
97.754907,-1406.391290,-6957.935855,-383.047749
97.755229,592.164754,-7624.121203,-689.485948
97.755550,2146.597232,-8956.491898,0.000000
97.755872,2960.823768,-8734.430116,-689.485948
97.756194,2960.823768,-9326.594869,-2528.115143
97.756516,2664.741391,-10066.800811,-3600.648841
97.756837,1998.556043,-9992.780217,-3524.039291
97.757159,666.185348,-10214.842000,-3064.381992
97.757481,-518.144159,-11473.192101,-2757.943793
97.757802,-1036.288319,-11621.233289,-2374.896044
97.758124,-1924.535449,-11547.212695,-2757.943793
97.758446,-2960.823768,-11325.150913,-2528.115143
97.758768,-3627.009116,-11103.089130,-1072.533697
97.759089,-4071.132681,-10881.027347,-1532.190996
97.759411,-3330.926739,-11991.336260,-1685.410096
97.759733,-1258.350101,-11843.295072,-1455.581446
97.760054,888.247130,-11177.109724,-1072.533697
97.760376,3552.988522,-10140.821405,-689.485948
97.760698,6439.791695,-9030.512492,76.609550
97.761020,7994.224174,-7550.100608,0.000000
97.761341,9252.574275,-6957.935855,-1072.533697
97.761663,10066.800811,-8438.347739,-1685.410096
97.761985,9696.697840,-8512.368333,-1915.238745
97.762306,8512.368333,-8586.388927,-1455.581446
97.762628,6661.853478,-9474.636058,-306.438199
97.762950,4145.153275,-10288.862594,0.000000
97.763271,1998.556043,-9770.718434,-766.095498
97.763593,-296.082377,-8956.491898,-1608.800546
97.763915,-1702.473667,-7105.977043,-842.705048
97.764237,-2220.617826,-6217.729913,-459.657299
97.764558,-2664.741391,-5477.523971,-919.314598
97.764880,-2960.823768,-6439.791695,-1455.581446
97.765202,-2590.720797,-7031.956449,-995.924147
97.765523,-2368.659014,-7846.182985,-1149.143247
97.765845,-74.020594,-9252.574275,-2068.457845
97.766167,1184.329507,-10510.924376,-2757.943793
97.766489,1998.556043,-11621.233289,-3140.991542
97.766810,1628.453072,-12583.501014,-2374.896044
97.767132,296.082377,-12287.418637,-1378.971896
97.767454,-1332.370696,-11991.336260,-2298.286494
97.767775,-3775.050304,-11103.089130,-2298.286494
97.768097,-5921.647536,-11029.068536,-2451.505594
97.768419,-7254.018232,-11843.295072,-2374.896044
97.768741,-7994.224174,-12361.439231,-1149.143247
97.769062,-7550.100608,-11843.295072,919.314598
97.769384,-6735.874072,-10288.862594,1225.752797
97.769706,-5033.400406,-8660.409521,919.314598
97.770027,-3256.906145,-7920.203579,76.609550
97.770349,-2368.659014,-7994.224174,-995.924147
97.770671,-2072.576638,-7550.100608,-383.047749
97.770992,-1480.411884,-7179.997637,-536.266849
97.771314,0.000000,-7476.080014,-1915.238745
97.771636,1258.350101,-9178.553681,-3064.381992
97.771958,1036.288319,-10140.821405,-3064.381992
97.772279,666.185348,-10436.903782,-2451.505594
97.772601,0.000000,-10214.842000,-1149.143247
97.772923,-962.267725,-9696.697840,-1991.848295
97.773244,-2368.659014,-8364.327145,-2374.896044
97.773566,-4663.297435,-7031.956449,-2298.286494
97.773888,-5995.668130,-5181.441594,-2068.457845
97.774210,-5847.626942,-5181.441594,-1838.629195
97.774531,-5551.544565,-4959.379811,-1838.629195
97.774853,-3552.988522,-6883.915261,-1225.752797
97.775175,-1406.391290,-7920.203579,-919.314598
97.775496,74.020594,-9252.574275,0.000000
97.775818,1110.308913,-9474.636058,153.219100
97.776140,2368.659014,-10140.821405,-766.095498
97.776461,3182.885551,-9844.739029,-2757.943793
97.776783,3034.844362,-9770.718434,-3447.429741
97.777105,2368.659014,-9918.759623,-3140.991542
97.777427,814.226536,-11473.192101,-2451.505594
97.777748,-222.061783,-11991.336260,-1762.019645
97.778070,-1258.350101,-12213.398043,-2374.896044
97.778392,-1924.535449,-11991.336260,-2451.505594
97.778713,-2442.679609,-11917.315666,-1378.971896
97.779035,-3404.947333,-11325.150913,-689.485948
97.779357,-3256.906145,-11177.109724,-842.705048
97.779679,-1480.411884,-10658.965565,-995.924147
97.780000,666.185348,-9770.718434,-1378.971896
97.780322,3108.864956,-9030.512492,-1762.019645
97.780644,5107.421000,-8808.450710,-383.047749
97.780965,5847.626942,-7550.100608,612.876398
97.781287,7476.080014,-7846.182985,-919.314598
97.781609,8142.265362,-8586.388927,-1991.848295
97.781931,8586.388927,-8660.409521,-2528.115143
97.782252,7328.038826,-8512.368333,-2451.505594
97.782574,5995.668130,-9622.677246,-1225.752797
97.782896,4145.153275,-10955.047942,459.657299
97.783217,1998.556043,-10288.862594,-229.828649
97.783539,0.000000,-9178.553681,-995.924147
97.783861,-740.205942,-8290.306550,-383.047749
97.784182,-1036.288319,-7328.038826,0.000000
97.784504,-1258.350101,-5403.503377,-919.314598
97.784826,-592.164754,-5699.585753,-766.095498
97.785148,-370.102971,-6661.853478,-153.219100
97.785469,-222.061783,-7698.141797,-689.485948
97.785791,370.102971,-8586.388927,-1532.190996
97.786113,1258.350101,-10066.800811,-2221.676944
97.786434,2294.638420,-11769.274478,-2911.162892
97.786756,1628.453072,-13323.706956,-2451.505594
97.787078,222.061783,-13175.665768,-1762.019645
97.787400,-2368.659014,-12361.439231,-1455.581446
97.787721,-4441.235652,-11547.212695,-2374.896044
97.788043,-6365.771101,-11843.295072,-2911.162892
97.788365,-7846.182985,-11399.171507,-2528.115143
97.788686,-8808.450710,-11769.274478,-1762.019645
97.789008,-8512.368333,-11103.089130,0.000000
97.789330,-7031.956449,-10140.821405,919.314598
97.789651,-4959.379811,-8438.347739,1072.533697
97.789973,-3478.967927,-7550.100608,153.219100
97.790295,-2812.782580,-7179.997637,-995.924147
97.790617,-2442.679609,-7698.141797,-842.705048
97.790938,-1628.453072,-7476.080014,-766.095498
97.791260,-222.061783,-7328.038826,-1991.848295
97.791582,1258.350101,-8586.388927,-2068.457845
97.791903,1998.556043,-10214.842000,-2451.505594
97.792225,1628.453072,-11399.171507,-2068.457845
97.792547,666.185348,-10955.047942,-1608.800546
97.792869,-370.102971,-10066.800811,-1762.019645
97.793190,-1480.411884,-9474.636058,-2068.457845
97.793512,-3849.070898,-7550.100608,-2298.286494
97.793834,-5329.482782,-5847.626942,-1762.019645
97.794155,-5625.565159,-5625.565159,-1225.752797
97.794477,-4515.256246,-6069.688724,-1455.581446
97.794799,-3108.864956,-6513.812290,-995.924147
97.795121,-370.102971,-6809.894666,-842.705048
97.795442,1406.391290,-8290.306550,-612.876398
97.795764,1998.556043,-8734.430116,76.609550
97.796086,1850.514855,-8808.450710,-1225.752797
97.796407,2072.576638,-9696.697840,-3140.991542
97.796729,2294.638420,-10214.842000,-4366.744339
97.797051,1998.556043,-10066.800811,-3600.648841
97.797372,0.000000,-10732.986159,-2987.772442
97.797694,-666.185348,-11991.336260,-2451.505594
97.798016,-1850.514855,-12583.501014,-2068.457845
97.798338,-2738.761985,-11843.295072,-3140.991542
97.798659,-3330.926739,-11695.253884,-1915.238745
97.798981,-3552.988522,-11843.295072,-1378.971896
97.799303,-3404.947333,-12139.377449,-1915.238745
97.799624,-1702.473667,-11769.274478,-1532.190996
97.799946,518.144159,-11325.150913,-919.314598
97.800268,3404.947333,-10214.842000,-995.924147
97.800590,5625.565159,-9548.656652,0.000000
97.800911,7550.100608,-7846.182985,-229.828649
97.801233,8438.347739,-7476.080014,-459.657299
97.801555,9474.636058,-7476.080014,-689.485948
97.801876,9844.739029,-8364.327145,-1838.629195
97.802198,8882.471304,-8734.430116,-2221.676944
97.802520,7402.059420,-9252.574275,-1072.533697
97.802841,4663.297435,-9918.759623,0.000000
97.803163,1998.556043,-10584.944971,229.828649
97.803485,-296.082377,-9844.739029,-383.047749
97.803807,-1776.494261,-8216.285956,-1225.752797
97.804128,-2442.679609,-6365.771101,-1302.362347
97.804450,-2368.659014,-5699.585753,-842.705048
97.804772,-2146.597232,-5921.647536,-995.924147
97.805093,-1924.535449,-6365.771101,-995.924147
97.805415,-1184.329507,-7328.038826,-612.876398
97.805737,0.000000,-8808.450710,-1225.752797
97.806059,962.267725,-10362.883188,-2451.505594
97.806380,1480.411884,-11621.233289,-2451.505594
97.806702,1184.329507,-12213.398043,-1608.800546
97.807024,222.061783,-11843.295072,-1149.143247
97.807345,-1628.453072,-10881.027347,-1685.410096
97.807667,-3182.885551,-10066.800811,-2374.896044
97.807989,-5033.400406,-10584.944971,-2757.943793
97.808311,-6883.915261,-11473.192101,-2221.676944
97.808632,-7846.182985,-12435.459826,-842.705048
97.808954,-8068.244768,-11695.253884,383.047749
97.809276,-7402.059420,-10214.842000,689.485948
97.809597,-5773.606348,-9178.553681,229.828649
97.809919,-4219.173869,-8586.388927,-459.657299
97.810241,-3256.906145,-8068.244768,-1149.143247
97.810562,-1998.556043,-7846.182985,-766.095498
97.810884,-592.164754,-6883.915261,-766.095498
97.811206,740.205942,-7920.203579,-1225.752797
97.811528,1850.514855,-8882.471304,-2604.724693
97.811849,1628.453072,-9918.759623,-3217.601092
97.812171,1406.391290,-10510.924376,-2451.505594
97.812493,444.123565,-10140.821405,-1608.800546
97.812814,-370.102971,-9474.636058,-2145.067394
97.813136,-2146.597232,-8734.430116,-2451.505594
97.813458,-3849.070898,-7254.018232,-2374.896044
97.813780,-5033.400406,-6143.709319,-1608.800546
97.814101,-5329.482782,-5847.626942,-1915.238745
97.814423,-5181.441594,-5699.585753,-2528.115143
97.814745,-3478.967927,-6735.874072,-1762.019645
97.815066,-1702.473667,-7994.224174,-1149.143247
97.815388,0.000000,-9400.615463,-766.095498
97.815710,962.267725,-9992.780217,76.609550
97.816032,2146.597232,-9474.636058,-1685.410096
97.816353,3108.864956,-10066.800811,-2834.553343
97.816675,2664.741391,-9992.780217,-2911.162892
97.816997,1924.535449,-10362.883188,-3140.991542
97.817318,296.082377,-11473.192101,-2604.724693
97.817640,-740.205942,-11621.233289,-2145.067394
97.817962,-1332.370696,-12139.377449,-2604.724693
97.818283,-2442.679609,-11695.253884,-2604.724693
97.818605,-3256.906145,-11843.295072,-1838.629195
97.818927,-3997.112087,-11547.212695,-1149.143247
97.819249,-4071.132681,-11621.233289,-1072.533697
97.819570,-2072.576638,-11399.171507,-995.924147
97.819892,0.000000,-10807.006753,-1072.533697
97.820214,2738.761985,-9918.759623,-1149.143247
97.820535,4959.379811,-9178.553681,-229.828649
97.820857,6883.915261,-7846.182985,612.876398
97.821179,7994.224174,-6735.874072,-229.828649
97.821501,9030.512492,-7698.141797,-1149.143247
97.821822,9178.553681,-8290.306550,-1838.629195
97.822144,7994.224174,-8142.265362,-1378.971896
97.822466,6143.709319,-9178.553681,-842.705048
97.822787,4071.132681,-9992.780217,153.219100
97.823109,1850.514855,-9770.718434,0.000000
97.823431,148.041188,-8956.491898,-689.485948
97.823752,-1110.308913,-8290.306550,-612.876398
97.824074,-1776.494261,-7031.956449,0.000000
97.824396,-2072.576638,-5699.585753,-383.047749
97.824718,-1776.494261,-5699.585753,-1302.362347
97.825039,-1184.329507,-6365.771101,-536.266849
97.825361,-666.185348,-7328.038826,-995.924147
97.825683,592.164754,-8364.327145,-1838.629195
97.826004,1702.473667,-9770.718434,-2221.676944
97.826326,2516.700203,-11103.089130,-2528.115143
97.826648,1480.411884,-12435.459826,-1532.190996
97.826970,-148.041188,-11991.336260,-1072.533697
97.827291,-2368.659014,-11399.171507,-1762.019645
97.827613,-4145.153275,-10807.006753,-2911.162892
97.827935,-5847.626942,-10881.027347,-3447.429741
97.828256,-7254.018232,-11399.171507,-2987.772442
97.828578,-8364.327145,-12139.377449,-919.314598
97.828900,-8290.306550,-11769.274478,306.438199
97.829222,-6883.915261,-10584.944971,383.047749
97.829543,-5107.421000,-9326.594869,-536.266849
97.829865,-3627.009116,-8734.430116,-766.095498
97.830187,-2960.823768,-8290.306550,-1762.019645
97.830508,-2368.659014,-8142.265362,-766.095498
97.830830,-888.247130,-7994.224174,-919.314598
97.831152,518.144159,-8068.244768,-2145.067394
97.831473,1776.494261,-8808.450710,-2757.943793
97.831795,1998.556043,-10140.821405,-2604.724693
97.832117,1110.308913,-10955.047942,-2451.505594
97.832439,370.102971,-10807.006753,-1685.410096
97.832760,-740.205942,-9770.718434,-1915.238745
97.833082,-2220.617826,-9104.533087,-2374.896044
97.833404,-3923.091493,-7550.100608,-2068.457845
97.833725,-5255.462188,-6513.812290,-1991.848295
97.834047,-5329.482782,-5847.626942,-1838.629195
97.834369,-4737.318029,-6439.791695,-1608.800546
97.834691,-3256.906145,-6957.935855,-1225.752797
97.835012,-1258.350101,-7402.059420,-995.924147
97.835334,1184.329507,-7846.182985,-766.095498
97.835656,2442.679609,-8882.471304,-229.828649
97.835977,3034.844362,-8660.409521,-842.705048
97.836299,3034.844362,-9622.677246,-2298.286494
97.836621,3108.864956,-9918.759623,-2451.505594
97.836942,2886.803174,-9844.739029,-3370.820191
97.837264,1258.350101,-10510.924376,-3140.991542
97.837586,-222.061783,-11399.171507,-2757.943793
97.837908,-1776.494261,-11917.315666,-2374.896044
97.838229,-3108.864956,-11473.192101,-2528.115143
97.838551,-3849.070898,-11325.150913,-2374.896044
97.838873,-3997.112087,-11103.089130,-1685.410096
97.839194,-3627.009116,-11843.295072,-2298.286494
97.839516,-2072.576638,-12065.356855,-1762.019645
97.839838,296.082377,-12065.356855,-612.876398
97.840160,2886.803174,-11029.068536,0.000000
97.840481,5699.585753,-8956.491898,689.485948
97.840803,7550.100608,-7254.018232,-306.438199
97.841125,8734.430116,-6957.935855,-842.705048
97.841446,9548.656652,-7179.997637,-459.657299
97.841768,9696.697840,-8216.285956,-766.095498
97.842090,9326.594869,-8142.265362,-1838.629195
97.842412,8216.285956,-9474.636058,-1149.143247
97.842733,5921.647536,-9992.780217,0.000000
97.843055,3256.906145,-10436.903782,-229.828649
97.843377,592.164754,-9474.636058,-612.876398
97.843698,-1184.329507,-8142.265362,-1149.143247
97.844020,-2220.617826,-6809.894666,-1685.410096
97.844342,-2886.803174,-6143.709319,-1608.800546
97.844663,-3034.844362,-6217.729913,-1378.971896
97.844985,-2960.823768,-6883.915261,-1225.752797
97.845307,-1924.535449,-7402.059420,-766.095498
97.845629,-518.144159,-8438.347739,-1532.190996
97.845950,1110.308913,-9918.759623,-2604.724693
97.846272,1628.453072,-11473.192101,-2604.724693
97.846594,1184.329507,-12361.439231,-1762.019645
97.846915,0.000000,-11843.295072,-1072.533697
97.847237,-1480.411884,-10658.965565,-995.924147
97.847559,-3404.947333,-10362.883188,-2528.115143
97.847881,-5033.400406,-10584.944971,-3447.429741
97.848202,-6587.832884,-11473.192101,-2911.162892
97.848524,-7698.141797,-12731.542202,-1302.362347
97.848846,-7920.203579,-12657.521608,766.095498
97.849167,-7105.977043,-11843.295072,842.705048
97.849489,-5847.626942,-9474.636058,-383.047749
97.849811,-4145.153275,-8660.409521,-995.924147
97.850132,-3330.926739,-8068.244768,-1225.752797
97.850454,-2590.720797,-7920.203579,-612.876398
97.850776,-1332.370696,-7476.080014,-612.876398
97.851098,296.082377,-8290.306550,-995.924147
97.851419,1554.432478,-8734.430116,-1991.848295
97.851741,1628.453072,-10066.800811,-2604.724693
97.852063,1110.308913,-10436.903782,-2145.067394
97.852384,740.205942,-9992.780217,-1378.971896
97.852706,0.000000,-8956.491898,-1915.238745
97.853028,-1554.432478,-8290.306550,-2298.286494
97.853350,-3478.967927,-7105.977043,-2298.286494
97.853671,-5181.441594,-6217.729913,-1991.848295
97.853993,-5921.647536,-5255.462188,-1685.410096
97.854315,-5625.565159,-5699.585753,-1072.533697
97.854636,-4515.256246,-6365.771101,-1149.143247
97.854958,-2886.803174,-7402.059420,-1225.752797
97.855280,-740.205942,-8734.430116,-766.095498
97.855602,518.144159,-9252.574275,-689.485948
97.855923,2368.659014,-9474.636058,-2145.067394
97.856245,3182.885551,-9844.739029,-2221.676944
97.856567,3701.029710,-9770.718434,-3064.381992
97.856888,2886.803174,-10066.800811,-2757.943793
97.857210,1776.494261,-10732.986159,-2681.334243
97.857532,222.061783,-11621.233289,-2298.286494
97.857854,-518.144159,-11769.274478,-2681.334243
97.858175,-1998.556043,-11473.192101,-2911.162892
97.858497,-2516.700203,-11547.212695,-1991.848295
97.858819,-3478.967927,-11103.089130,-1302.362347
97.859140,-3404.947333,-11251.130318,-1608.800546
97.859462,-2368.659014,-11843.295072,-1225.752797
97.859784,-518.144159,-11621.233289,-995.924147
97.860106,1776.494261,-10658.965565,-995.924147
97.860427,4441.235652,-9326.594869,-459.657299
97.860749,6587.832884,-8512.368333,76.609550
97.861071,7550.100608,-7031.956449,-306.438199
97.861392,8660.409521,-7328.038826,-995.924147
97.861714,9252.574275,-8142.265362,-2221.676944
97.862036,8438.347739,-8364.327145,-1991.848295
97.862358,6587.832884,-9400.615463,-1225.752797
97.862679,4663.297435,-10732.986159,-383.047749
97.863001,2664.741391,-11473.192101,-612.876398
97.863323,740.205942,-9622.677246,-995.924147
97.863644,-888.247130,-8808.450710,-1225.752797
97.863966,-1184.329507,-7105.977043,-612.876398
97.864288,-1924.535449,-6069.688724,-766.095498
97.864610,-2146.597232,-5255.462188,-536.266849
97.864931,-1850.514855,-6883.915261,-612.876398
97.865253,-1480.411884,-7254.018232,-689.485948
97.865575,-740.205942,-8068.244768,-995.924147
97.865896,962.267725,-8660.409521,-2221.676944
97.866218,2368.659014,-10066.800811,-2757.943793
97.866540,2886.803174,-11769.274478,-2145.067394
97.866862,1998.556043,-12435.459826,-1302.362347
97.867183,0.000000,-11917.315666,-1072.533697
97.867505,-2812.782580,-11769.274478,-2145.067394
97.867827,-4885.359217,-11547.212695,-2834.553343
97.868148,-7550.100608,-11843.295072,-2757.943793
97.868470,-8438.347739,-12435.459826,-2987.772442
97.868792,-8808.450710,-12361.439231,-536.266849
97.869114,-7846.182985,-11103.089130,612.876398
97.869435,-6143.709319,-8956.491898,459.657299
97.869757,-4293.194464,-7772.162391,229.828649
97.870079,-3330.926739,-7476.080014,-1378.971896
97.870400,-3330.926739,-7698.141797,-842.705048
97.870722,-2590.720797,-7772.162391,-689.485948
97.871044,-1110.308913,-7698.141797,-1762.019645
97.871366,666.185348,-7994.224174,-2298.286494
97.871687,1258.350101,-9104.533087,-2681.334243
97.872009,1258.350101,-10658.965565,-2451.505594
97.872331,740.205942,-11547.212695,-1915.238745
97.872652,296.082377,-10955.047942,-1608.800546
97.872974,-1110.308913,-9918.759623,-1991.848295
97.873296,-2368.659014,-8142.265362,-1838.629195
97.873618,-4441.235652,-6809.894666,-1608.800546
97.873939,-5403.503377,-5181.441594,-1532.190996
97.874261,-5773.606348,-4885.359217,-1532.190996
97.874583,-5033.400406,-5403.503377,-1225.752797
97.874904,-2960.823768,-6735.874072,-919.314598
97.875226,-518.144159,-7624.121203,-919.314598
97.875548,1332.370696,-9252.574275,-459.657299
97.875870,2886.803174,-9326.594869,229.828649
97.876191,3701.029710,-9400.615463,-1072.533697
97.876513,4293.194464,-9696.697840,-3217.601092
97.876835,3849.070898,-9252.574275,-3600.648841
97.877156,2368.659014,-9548.656652,-3217.601092
97.877478,296.082377,-11325.150913,-2834.553343
97.877800,-1036.288319,-12435.459826,-2145.067394
97.878122,-2146.597232,-12509.480420,-2528.115143
97.878443,-2886.803174,-12213.398043,-2757.943793
97.878765,-3330.926739,-11695.253884,-1685.410096
97.879087,-3108.864956,-11473.192101,-995.924147
97.879408,-2516.700203,-11177.109724,-1532.190996
97.879730,-1258.350101,-10658.965565,-1149.143247
97.880052,1184.329507,-10732.986159,-766.095498
97.880374,3256.906145,-9844.739029,-995.924147
97.880695,5181.441594,-8512.368333,-842.705048
97.881017,6587.832884,-7994.224174,-229.828649
97.881339,7624.121203,-7920.203579,-229.828649
97.881660,8956.491898,-8808.450710,-1302.362347
97.881982,9030.512492,-8660.409521,-2604.724693
97.882304,8364.327145,-8956.491898,-2451.505594
97.882626,6513.812290,-10066.800811,-1302.362347
97.882947,3997.112087,-11473.192101,-229.828649
97.883269,1480.411884,-10732.986159,0.000000
97.883591,-1036.288319,-9030.512492,-766.095498
97.883912,-1776.494261,-7179.997637,-1532.190996
97.884234,-2368.659014,-6439.791695,-919.314598
97.884556,-2220.617826,-5255.462188,-1302.362347
97.884878,-1998.556043,-5551.544565,-1378.971896
97.885199,-1332.370696,-6809.894666,-536.266849
97.885521,-1184.329507,-7994.224174,306.438199
97.885843,-370.102971,-8956.491898,-306.438199
97.886164,740.205942,-9918.759623,-2298.286494
97.886486,1850.514855,-11695.253884,-3140.991542
97.886808,2072.576638,-12805.562797,-2451.505594
97.887130,1406.391290,-12139.377449,-995.924147
97.887451,-888.247130,-10732.986159,-1762.019645
97.887773,-2516.700203,-10658.965565,-1762.019645
97.888095,-4737.318029,-10881.027347,-2528.115143
97.888416,-6513.812290,-11547.212695,-2834.553343
97.888738,-7920.203579,-12287.418637,-1685.410096
97.889060,-7994.224174,-12139.377449,153.219100
97.889382,-7476.080014,-10732.986159,1149.143247
97.889703,-5551.544565,-8734.430116,919.314598
97.890025,-3552.988522,-7328.038826,0.000000
97.890347,-2590.720797,-7105.977043,-995.924147
97.890668,-2368.659014,-7105.977043,-842.705048
97.890990,-1332.370696,-6809.894666,-536.266849
97.891312,-444.123565,-7476.080014,-1225.752797
97.891634,592.164754,-8882.471304,-2528.115143
97.891955,1036.288319,-10288.862594,-2987.772442
97.892277,444.123565,-10584.944971,-2451.505594
97.892599,222.061783,-10436.903782,-2604.724693
97.892920,-148.041188,-9992.780217,-2221.676944
97.893242,-1850.514855,-8882.471304,-2451.505594
97.893564,-3478.967927,-7179.997637,-2068.457845
97.893886,-4885.359217,-5773.606348,-2298.286494
97.894207,-5477.523971,-5181.441594,-2145.067394
97.894529,-4959.379811,-6143.709319,-2374.896044
97.894851,-3997.112087,-7105.977043,-1455.581446
97.895172,-2146.597232,-7772.162391,-919.314598
97.895494,0.000000,-9326.594869,-612.876398
97.895816,1332.370696,-9918.759623,76.609550
97.896138,2220.617826,-10288.862594,-1072.533697
97.896459,2886.803174,-10288.862594,-2528.115143
97.896781,2590.720797,-10436.903782,-3140.991542
97.897103,1628.453072,-9918.759623,-3140.991542
97.897424,-370.102971,-10955.047942,-2911.162892
97.897746,-740.205942,-13175.665768,-2374.896044
97.898068,-2590.720797,-12509.480420,-1991.848295
97.898390,-2812.782580,-11991.336260,-2834.553343
97.898711,-3330.926739,-11917.315666,-1838.629195
97.899033,-3627.009116,-11399.171507,-995.924147
97.899355,-3701.029710,-10955.047942,-383.047749
97.899676,-2738.761985,-10436.903782,-919.314598
97.899998,-444.123565,-9474.636058,-1149.143247
97.900320,2146.597232,-8438.347739,-1608.800546
97.900642,3849.070898,-8956.491898,-1149.143247
97.900963,5329.482782,-8142.265362,229.828649
97.901285,6661.853478,-7550.100608,306.438199
97.901607,8512.368333,-7994.224174,-1072.533697
97.901928,9474.636058,-8142.265362,-2068.457845
97.902250,8438.347739,-8438.347739,-2145.067394
97.902572,6513.812290,-9844.739029,-766.095498
97.902894,3923.091493,-10362.883188,459.657299
97.903215,2294.638420,-10066.800811,383.047749
97.903537,1036.288319,-9030.512492,-919.314598
97.903859,296.082377,-8364.327145,-612.876398
97.904180,-592.164754,-6883.915261,689.485948
97.904502,-888.247130,-5033.400406,-459.657299
97.904824,0.000000,-4811.338623,153.219100
97.905146,74.020594,-5847.626942,0.000000
97.905467,-148.041188,-7105.977043,-689.485948
97.905789,0.000000,-7846.182985,-842.705048
97.906111,1036.288319,-9178.553681,-1838.629195
97.906432,2220.617826,-11547.212695,-2757.943793
97.906754,2072.576638,-12953.603985,-2374.896044
97.907076,444.123565,-12805.562797,-1532.190996
97.907398,-2220.617826,-12509.480420,-1685.410096
97.907719,-3997.112087,-11991.336260,-2145.067394
97.908041,-6069.688724,-11695.253884,-2604.724693
97.908363,-7254.018232,-11843.295072,-3907.087040
97.908684,-8068.244768,-11917.315666,-2987.772442
97.909006,-8364.327145,-11769.274478,-229.828649
97.909328,-7179.997637,-10140.821405,536.266849
97.909650,-5329.482782,-8068.244768,612.876398
97.909971,-3330.926739,-8142.265362,-459.657299
97.910293,-2590.720797,-8068.244768,-1225.752797
97.910615,-2368.659014,-8290.306550,-1072.533697
97.910936,-1184.329507,-7772.162391,-1302.362347
97.911258,666.185348,-7846.182985,-2298.286494
97.911580,2146.597232,-8808.450710,-2528.115143
97.911902,1924.535449,-10214.842000,-2374.896044
97.912223,1258.350101,-11769.274478,-2068.457845
97.912545,296.082377,-11547.212695,-1991.848295
97.912867,-592.164754,-10658.965565,-2374.896044
97.913188,-1628.453072,-9400.615463,-3064.381992
97.913510,-3478.967927,-7698.141797,-2374.896044
97.913832,-5403.503377,-5847.626942,-1838.629195
97.914154,-6217.729913,-4737.318029,-1762.019645
97.914475,-5625.565159,-5329.482782,-1838.629195
97.914797,-4663.297435,-6217.729913,-1762.019645
97.915119,-2886.803174,-7031.956449,-1685.410096
97.915440,-444.123565,-8142.265362,-1302.362347
97.915762,1554.432478,-9030.512492,-536.266849
97.916084,2220.617826,-9104.533087,0.000000
97.916406,2072.576638,-8808.450710,-1762.019645
97.916727,2664.741391,-10288.862594,-3753.867940
97.917049,1850.514855,-10288.862594,-3983.696590
97.917371,444.123565,-10362.883188,-3600.648841
97.917692,-1036.288319,-11103.089130,-2374.896044
97.918014,-1332.370696,-12435.459826,-1225.752797
97.918336,-1702.473667,-11843.295072,-2068.457845
97.918658,-2738.761985,-11325.150913,-2374.896044
97.918979,-3182.885551,-10732.986159,-1149.143247
97.919301,-3256.906145,-11103.089130,-459.657299
97.919623,-2590.720797,-10658.965565,-919.314598
97.919944,-962.267725,-10066.800811,-612.876398
97.920266,2590.720797,-9252.574275,-842.705048
97.920588,5329.482782,-9400.615463,-1302.362347
97.920910,7179.997637,-9178.553681,0.000000
97.921231,7772.162391,-8216.285956,842.705048
97.921553,9104.533087,-7846.182985,-612.876398
97.921875,10362.883188,-8734.430116,-2604.724693
97.922196,9252.574275,-8660.409521,-2528.115143
97.922518,6957.935855,-9400.615463,-1838.629195
97.922840,4145.153275,-10140.821405,-459.657299
97.923162,2220.617826,-10436.903782,229.828649
97.923483,296.082377,-9844.739029,-536.266849
97.923805,-740.205942,-8438.347739,-995.924147
97.924127,-1554.432478,-7179.997637,-689.485948
97.924448,-1554.432478,-5625.565159,-306.438199
97.924770,-1332.370696,-5699.585753,-536.266849
97.925092,-666.185348,-6587.832884,-459.657299
97.925414,-222.061783,-7920.203579,-536.266849
97.925735,444.123565,-8956.491898,-1072.533697
97.926057,1184.329507,-10362.883188,-2374.896044
97.926379,2072.576638,-11325.150913,-2834.553343
97.926700,1924.535449,-12139.377449,-2068.457845
97.927022,888.247130,-11991.336260,-842.705048
97.927344,-814.226536,-11547.212695,-1072.533697
97.927666,-3034.844362,-10955.047942,-2374.896044
97.927987,-4589.276840,-11473.192101,-3370.820191
97.928309,-5995.668130,-11843.295072,-3064.381992
97.928631,-7254.018232,-12287.418637,-2068.457845
97.928952,-7402.059420,-11843.295072,0.000000
97.929274,-7402.059420,-10436.903782,1225.752797
97.929596,-6069.688724,-9178.553681,459.657299
97.929918,-4737.318029,-8808.450710,-842.705048
97.930239,-3997.112087,-8438.347739,-1072.533697
97.930561,-3108.864956,-7920.203579,-612.876398
97.930883,-1480.411884,-7328.038826,-536.266849
97.931204,222.061783,-7476.080014,-1149.143247
97.931526,1850.514855,-8512.368333,-2451.505594
97.931848,1628.453072,-9548.656652,-2604.724693
97.932170,740.205942,-10362.883188,-2374.896044
97.932491,-222.061783,-9918.759623,-1532.190996
97.932813,-814.226536,-9696.697840,-2145.067394
97.933135,-2072.576638,-8808.450710,-2987.772442
97.933456,-3330.926739,-7105.977043,-2604.724693
97.933778,-4589.276840,-5699.585753,-1915.238745
97.934100,-4737.318029,-5107.421000,-2298.286494
97.934422,-4811.338623,-5995.668130,-2068.457845
97.934743,-3997.112087,-7031.956449,-1608.800546
97.935065,-2442.679609,-8216.285956,-1455.581446
97.935387,-592.164754,-9104.533087,-995.924147
97.935708,1110.308913,-9400.615463,0.000000
97.936030,1924.535449,-8882.471304,-995.924147
97.936352,2368.659014,-9400.615463,-1991.848295
97.936674,2368.659014,-9770.718434,-2757.943793
97.936995,1406.391290,-9992.780217,-2987.772442
97.937317,0.000000,-11177.109724,-2834.553343
97.937639,-962.267725,-11621.233289,-2528.115143
97.937960,-1850.514855,-12139.377449,-2451.505594
97.938282,-2738.761985,-11251.130318,-2451.505594
97.938604,-3182.885551,-11325.150913,-2068.457845
97.938926,-3330.926739,-11177.109724,-1608.800546
97.939247,-2812.782580,-11695.253884,-1378.971896
97.939569,-1998.556043,-11695.253884,-1991.848295
97.939891,518.144159,-11843.295072,-919.314598
97.940212,3330.926739,-10362.883188,-459.657299
97.940534,5921.647536,-9252.574275,0.000000
97.940856,7772.162391,-7920.203579,-306.438199
97.941178,9252.574275,-7105.977043,-536.266849
97.941499,9474.636058,-7328.038826,-842.705048
97.941821,9622.677246,-8438.347739,-1455.581446
97.942143,8660.409521,-8438.347739,-1072.533697
97.942464,6809.894666,-9474.636058,-383.047749
97.942786,3923.091493,-9696.697840,689.485948
97.943108,1776.494261,-10214.842000,0.000000
97.943430,0.000000,-8882.471304,-842.705048
97.943751,-1406.391290,-7846.182985,-1072.533697
97.944073,-1554.432478,-6809.894666,-612.876398
97.944395,-1702.473667,-5995.668130,-689.485948
97.944716,-1628.453072,-5921.647536,-612.876398
97.945038,-1480.411884,-7105.977043,-689.485948
97.945360,-666.185348,-7994.224174,-995.924147
97.945682,444.123565,-9178.553681,-2451.505594
97.946003,1628.453072,-10066.800811,-3370.820191
97.946325,2146.597232,-11029.068536,-2604.724693
97.946647,1406.391290,-11843.295072,-1225.752797
97.946968,0.000000,-11399.171507,-766.095498
97.947290,-2072.576638,-11251.130318,-1608.800546
97.947612,-4367.215058,-10658.965565,-2911.162892
97.947934,-6291.750507,-10658.965565,-3524.039291
97.948255,-8438.347739,-11621.233289,-2451.505594
97.948577,-8734.430116,-12287.418637,-612.876398
97.948899,-8512.368333,-11251.130318,0.000000
97.949220,-7179.997637,-9918.759623,0.000000
97.949542,-5329.482782,-9474.636058,-1149.143247
97.949864,-3923.091493,-8956.491898,-766.095498
97.950186,-3404.947333,-8216.285956,-1302.362347
97.950507,-2368.659014,-7994.224174,-1072.533697
97.950829,-444.123565,-7994.224174,-1302.362347
97.951151,1036.288319,-8586.388927,-2221.676944
97.951472,1406.391290,-8660.409521,-2681.334243
97.951794,1406.391290,-9770.718434,-2528.115143
97.952116,814.226536,-10732.986159,-2145.067394
97.952438,0.000000,-10881.027347,-1608.800546
97.952759,-1332.370696,-10066.800811,-2068.457845
97.953081,-2590.720797,-8808.450710,-1838.629195
97.953403,-4071.132681,-7105.977043,-1762.019645
97.953724,-4515.256246,-5995.668130,-1685.410096
97.954046,-4737.318029,-5255.462188,-1378.971896
97.954368,-4293.194464,-6143.709319,-1149.143247
97.954690,-3108.864956,-6883.915261,-1149.143247
97.955011,-962.267725,-7624.121203,-1302.362347
97.955333,1036.288319,-8512.368333,-612.876398
97.955655,2368.659014,-8882.471304,-229.828649
97.955976,2664.741391,-8364.327145,-995.924147
97.956298,3034.844362,-9326.594869,-2451.505594
97.956620,3108.864956,-9474.636058,-2681.334243
97.956942,2072.576638,-10362.883188,-3294.210641
97.957263,814.226536,-11399.171507,-2987.772442
97.957585,-888.247130,-11843.295072,-2604.724693
97.957907,-2368.659014,-11621.233289,-2068.457845
97.958228,-3478.967927,-10658.965565,-2451.505594
97.958550,-3478.967927,-10584.944971,-1991.848295
97.958872,-3182.885551,-10955.047942,-2834.553343
97.959193,-2368.659014,-11695.253884,-2757.943793
97.959515,-962.267725,-12435.459826,-1838.629195
97.959837,888.247130,-13397.727550,76.609550
97.960159,3552.988522,-11991.336260,1225.752797
97.960480,5551.544565,-9474.636058,306.438199
97.960802,7179.997637,-7550.100608,-459.657299
97.961124,8808.450710,-6735.874072,-1072.533697
97.961445,10214.842000,-6883.915261,-1685.410096
97.961767,10584.944971,-7846.182985,-1915.238745
97.962089,10140.821405,-8586.388927,-766.095498
97.962411,8808.450710,-10288.862594,612.876398
97.962732,5107.421000,-10510.924376,612.876398
97.963054,1702.473667,-9992.780217,0.000000
97.963376,-518.144159,-8660.409521,-1149.143247
97.963697,-1998.556043,-6957.935855,-2757.943793
97.964019,-2368.659014,-6661.853478,-2757.943793
97.964341,-3478.967927,-7031.956449,-1072.533697
97.964663,-3552.988522,-6661.853478,-153.219100
97.964984,-2812.782580,-7550.100608,-459.657299
97.965306,-1850.514855,-8142.265362,-1532.190996
97.965628,-296.082377,-9696.697840,-2528.115143
97.965949,370.102971,-9770.718434,-3064.381992
97.966271,888.247130,-10510.924376,-2834.553343
97.966593,1184.329507,-11177.109724,-1455.581446
97.966915,962.267725,-10955.047942,-919.314598
97.967236,-592.164754,-10584.944971,-1838.629195
97.967558,-2886.803174,-10066.800811,-2068.457845
97.967880,-4737.318029,-10584.944971,-2528.115143
97.968201,-5847.626942,-11621.233289,-2451.505594
97.968523,-6957.935855,-12065.356855,-1225.752797
97.968845,-7179.997637,-11547.212695,612.876398
97.969167,-6661.853478,-10584.944971,689.485948
97.969488,-5995.668130,-9548.656652,0.000000
97.969810,-5033.400406,-9400.615463,-612.876398
97.970132,-3923.091493,-8660.409521,-1378.971896
97.970453,-2516.700203,-8068.244768,-612.876398
97.970775,-518.144159,-8068.244768,-1149.143247
97.971097,518.144159,-8142.265362,-1455.581446
97.971418,1776.494261,-8808.450710,-2298.286494
97.971740,1554.432478,-9622.677246,-2834.553343
97.972062,592.164754,-10140.821405,-2451.505594
97.972384,-370.102971,-10140.821405,-1685.410096
97.972705,-1554.432478,-9326.594869,-1762.019645
97.973027,-2368.659014,-8734.430116,-2451.505594
97.973349,-3552.988522,-7179.997637,-2298.286494
97.973670,-4367.215058,-6661.853478,-1685.410096
97.973992,-5181.441594,-5033.400406,-1762.019645
97.974314,-4367.215058,-6069.688724,-1072.533697
97.974636,-3627.009116,-7105.977043,-1532.190996
97.974957,-2072.576638,-8660.409521,-1149.143247
97.975279,0.000000,-9104.533087,-919.314598
97.975601,1480.411884,-9548.656652,-536.266849
97.975922,2442.679609,-9474.636058,-1149.143247
97.976244,3552.988522,-9548.656652,-2221.676944
97.976566,3034.844362,-9918.759623,-2451.505594
97.976888,2072.576638,-10584.944971,-2374.896044
97.977209,1258.350101,-11621.233289,-2221.676944
97.977531,0.000000,-11251.130318,-2451.505594
97.977853,-1702.473667,-10881.027347,-2451.505594
97.978174,-3034.844362,-10732.986159,-1915.238745
97.978496,-3997.112087,-10584.944971,-1762.019645
97.978818,-4367.215058,-10881.027347,-2451.505594
97.979140,-3627.009116,-12139.377449,-2911.162892
97.979461,-2146.597232,-13027.624579,-1991.848295
97.979783,-296.082377,-13323.706956,-536.266849
97.980105,1850.514855,-11177.109724,995.924147
97.980426,4589.276840,-8660.409521,842.705048
97.980748,7105.977043,-7105.977043,-383.047749
97.981070,9030.512492,-6735.874072,-1762.019645
97.981391,9770.718434,-7179.997637,-1762.019645
97.981713,9252.574275,-7772.162391,-995.924147
97.982035,8882.471304,-8216.285956,306.438199
97.982357,7328.038826,-9104.533087,306.438199
97.982678,4663.297435,-9622.677246,-383.047749
97.983000,1924.535449,-9696.697840,-689.485948
97.983322,0.000000,-7772.162391,-1302.362347
97.983643,-1406.391290,-7698.141797,-2068.457845
97.983965,-1628.453072,-7179.997637,-1072.533697
97.984287,-2516.700203,-7254.018232,-153.219100
97.984609,-3404.947333,-6291.750507,536.266849
97.984930,-2590.720797,-7105.977043,-153.219100
97.985252,-1258.350101,-7476.080014,-1608.800546
97.985574,74.020594,-8142.265362,-3294.210641
97.985895,1184.329507,-8734.430116,-3447.429741
97.986217,1702.473667,-10214.842000,-2604.724693
97.986539,1998.556043,-11991.336260,-995.924147
97.986861,814.226536,-12139.377449,-689.485948
97.987182,-1110.308913,-11621.233289,-1685.410096
97.987504,-3627.009116,-11029.068536,-2757.943793
97.987826,-5551.544565,-10881.027347,-3370.820191
97.988147,-7031.956449,-11843.295072,-3217.601092
97.988469,-7624.121203,-12139.377449,-1915.238745
97.988791,-7994.224174,-12139.377449,0.000000
97.989113,-7179.997637,-11177.109724,612.876398
97.989434,-5921.647536,-10066.800811,0.000000
97.989756,-4293.194464,-8882.471304,-536.266849
97.990078,-3330.926739,-8438.347739,-1608.800546
97.990399,-2368.659014,-8364.327145,-1072.533697
97.990721,-1036.288319,-7920.203579,-1072.533697
97.991043,592.164754,-8068.244768,-1762.019645
97.991365,1480.411884,-8586.388927,-2221.676944
97.991686,1776.494261,-10066.800811,-2681.334243
97.992008,814.226536,-11325.150913,-2298.286494
97.992330,0.000000,-11621.233289,-1991.848295
97.992651,-1036.288319,-10510.924376,-2145.067394
97.992973,-2072.576638,-9548.656652,-2374.896044
97.993295,-3108.864956,-8068.244768,-1762.019645
97.993616,-4441.235652,-6735.874072,-1378.971896
97.993938,-4885.359217,-5477.523971,-919.314598
97.994260,-4515.256246,-6143.709319,-689.485948
97.994582,-3256.906145,-6661.853478,-842.705048
97.994903,-1110.308913,-7105.977043,-995.924147
97.995225,1184.329507,-7772.162391,-306.438199
97.995547,2368.659014,-8364.327145,383.047749
97.995868,2664.741391,-8290.306550,229.828649
97.996190,2886.803174,-9104.533087,-1378.971896
97.996512,2664.741391,-9770.718434,-2528.115143
97.996834,2220.617826,-9992.780217,-3370.820191
97.997155,1628.453072,-10436.903782,-2987.772442
97.997477,0.000000,-11103.089130,-2604.724693
97.997799,-1702.473667,-11325.150913,-1991.848295
97.998120,-3108.864956,-10584.944971,-1608.800546
97.998442,-4219.173869,-9844.739029,-1838.629195
97.998764,-4293.194464,-10807.006753,-2528.115143
97.999086,-3775.050304,-12213.398043,-3524.039291
97.999407,-2442.679609,-12805.562797,-2374.896044
97.999729,-296.082377,-13101.645173,-383.047749
98.000051,2368.659014,-12361.439231,1685.410096
98.000372,4811.338623,-9918.759623,1532.190996
98.000694,7031.956449,-7105.977043,0.000000
98.001016,8512.368333,-6217.729913,-1302.362347
98.001338,9844.739029,-6809.894666,-1685.410096
98.001659,10436.903782,-7846.182985,-1225.752797
98.001981,10214.842000,-8512.368333,-842.705048
98.002303,8956.491898,-9622.677246,459.657299
98.002624,6661.853478,-10436.903782,459.657299
98.002946,3034.844362,-10214.842000,0.000000
98.003268,0.000000,-8956.491898,-1608.800546
98.003589,-1850.514855,-7772.162391,-2987.772442
98.003911,-3034.844362,-7031.956449,-2604.724693
98.004233,-3627.009116,-7624.121203,-1685.410096
98.004555,-4219.173869,-6957.935855,-689.485948
98.004876,-3552.988522,-6957.935855,-1149.143247
98.005198,-2146.597232,-7772.162391,-2068.457845
98.005520,-1406.391290,-9178.553681,-2681.334243
98.005841,0.000000,-9770.718434,-3294.210641
98.006163,222.061783,-10510.924376,-2451.505594
98.006485,740.205942,-11695.253884,-1991.848295
98.006807,518.144159,-11917.315666,-1225.752797
98.007128,-666.185348,-10658.965565,-1685.410096
98.007450,-2146.597232,-10288.862594,-2911.162892
98.007772,-3923.091493,-10214.842000,-2911.162892
98.008093,-5329.482782,-11103.089130,-2374.896044
98.008415,-6217.729913,-11843.295072,-1302.362347
98.008737,-6883.915261,-12435.459826,536.266849
98.009059,-7105.977043,-11251.130318,536.266849
98.009380,-6365.771101,-10658.965565,0.000000
98.009702,-4959.379811,-9548.656652,-766.095498
98.010024,-3330.926739,-8808.450710,-1225.752797
98.010345,-2072.576638,-7994.224174,-995.924147
98.010667,-814.226536,-7698.141797,-842.705048
98.010989,814.226536,-7624.121203,-842.705048
98.011311,1628.453072,-8290.306550,-1838.629195
98.011632,2146.597232,-9548.656652,-2604.724693
98.011954,962.267725,-10362.883188,-2604.724693
98.012276,148.041188,-10658.965565,-1762.019645
98.012597,-1036.288319,-9252.574275,-919.314598
98.012919,-2072.576638,-8438.347739,-1915.238745
98.013241,-3034.844362,-7254.018232,-2221.676944
98.013563,-4367.215058,-6365.771101,-1915.238745
98.013884,-5107.421000,-5181.441594,-1455.581446
98.014206,-4811.338623,-5255.462188,-1378.971896
98.014528,-3997.112087,-6217.729913,-1072.533697
98.014849,-2294.638420,-7772.162391,-1225.752797
98.015171,-518.144159,-8512.368333,-995.924147
98.015493,1036.288319,-9326.594869,-459.657299
98.015814,2664.741391,-9696.697840,-153.219100
98.016136,3256.906145,-9696.697840,-1532.190996
98.016458,3404.947333,-9992.780217,-2528.115143
98.016780,2738.761985,-10584.944971,-2451.505594
98.017101,2072.576638,-11103.089130,-2451.505594
98.017423,1036.288319,-11325.150913,-2987.772442
98.017745,0.000000,-11103.089130,-2528.115143
98.018066,-1776.494261,-11029.068536,-2221.676944
98.018388,-3256.906145,-11251.130318,-1532.190996
98.018710,-4219.173869,-11473.192101,-1991.848295
98.019032,-4071.132681,-11843.295072,-2757.943793
98.019353,-2886.803174,-12953.603985,-2068.457845
98.019675,-1110.308913,-12953.603985,-995.924147
98.019997,666.185348,-11473.192101,153.219100
98.020318,3404.947333,-9104.533087,689.485948
98.020640,5699.585753,-7254.018232,-153.219100
98.020962,7402.059420,-6587.832884,-1991.848295
98.021284,8512.368333,-6735.874072,-2681.334243
98.021605,8660.409521,-8290.306550,-2221.676944
98.021927,8290.306550,-9104.533087,-919.314598
98.022249,7105.977043,-9844.739029,229.828649
98.022570,4885.359217,-10732.986159,76.609550
98.022892,2220.617826,-10584.944971,-612.876398
98.023214,148.041188,-9030.512492,-1915.238745
98.023536,-1258.350101,-7772.162391,-1991.848295
98.023857,-1924.535449,-7031.956449,-1302.362347
98.024179,-2516.700203,-6513.812290,0.000000
98.024501,-2812.782580,-5847.626942,-383.047749
98.024822,-2664.741391,-6957.935855,0.000000
98.025144,-1480.411884,-7624.121203,-995.924147
98.025466,-148.041188,-8438.347739,-2451.505594
98.025787,740.205942,-8882.471304,-3064.381992
98.026109,1184.329507,-9696.697840,-2068.457845
98.026431,1332.370696,-10732.986159,-1608.800546
98.026753,296.082377,-11547.212695,-1378.971896
98.027074,-1480.411884,-11251.130318,-1762.019645
98.027396,-3701.029710,-11103.089130,-2987.772442
98.027718,-5551.544565,-11251.130318,-3677.258390
98.028039,-7254.018232,-12065.356855,-2757.943793
98.028361,-7698.141797,-12805.562797,-1608.800546
98.028683,-8142.265362,-11991.336260,0.000000
98.029005,-7254.018232,-10510.924376,76.609550
98.029326,-6217.729913,-9474.636058,-612.876398
98.029648,-4515.256246,-8216.285956,-995.924147
98.029970,-3108.864956,-8290.306550,-766.095498
98.030291,-2368.659014,-7846.182985,-766.095498
98.030613,-888.247130,-8142.265362,-459.657299
98.030935,814.226536,-8068.244768,-1149.143247
98.031257,2146.597232,-8438.347739,-2374.896044
98.031578,2664.741391,-9474.636058,-2451.505594
98.031900,1924.535449,-10436.903782,-1991.848295
98.032222,1036.288319,-10584.944971,-1608.800546
98.032543,0.000000,-10510.924376,-1991.848295
98.032865,-1110.308913,-9992.780217,-2298.286494
98.033187,-2590.720797,-9178.553681,-1762.019645
98.033509,-3404.947333,-7994.224174,-1762.019645
98.033830,-4663.297435,-5847.626942,-919.314598
98.034152,-4219.173869,-5329.482782,-536.266849
98.034474,-2886.803174,-5847.626942,-842.705048
98.034795,-1406.391290,-5995.668130,-1915.238745
98.035117,814.226536,-6957.935855,-2068.457845
98.035439,1924.535449,-8290.306550,-306.438199
98.035761,2590.720797,-9104.533087,536.266849
98.036082,2590.720797,-9622.677246,-919.314598
98.036404,2590.720797,-10436.903782,-2681.334243
98.036726,2368.659014,-10066.800811,-3217.601092
98.037047,1850.514855,-9844.739029,-3294.210641
98.037369,370.102971,-10807.006753,-3140.991542
98.037691,-814.226536,-10955.047942,-2528.115143
98.038012,-2516.700203,-11029.068536,-2681.334243
98.038334,-4145.153275,-10955.047942,-2528.115143
98.038656,-3923.091493,-12139.377449,-2145.067394
98.038978,-3330.926739,-12509.480420,-2987.772442
98.039299,-2368.659014,-13027.624579,-2604.724693
98.039621,-296.082377,-12953.603985,-689.485948
98.039943,1998.556043,-11917.315666,1149.143247
98.040264,3997.112087,-9770.718434,919.314598
98.040586,6069.688724,-8068.244768,76.609550
98.040908,7698.141797,-6587.832884,-612.876398
98.041230,9400.615463,-6587.832884,-1455.581446
98.041551,10066.800811,-7624.121203,-2068.457845
98.041873,10140.821405,-9104.533087,-995.924147
98.042195,8882.471304,-9474.636058,612.876398
98.042516,6661.853478,-10510.924376,383.047749
98.042838,3182.885551,-10362.883188,0.000000
98.043160,0.000000,-8808.450710,-919.314598
98.043482,-2072.576638,-7624.121203,-2681.334243
98.043803,-3256.906145,-7031.956449,-2757.943793
98.044125,-4071.132681,-6883.915261,-1378.971896
98.044447,-4589.276840,-6365.771101,-612.876398
98.044768,-4367.215058,-6587.832884,-766.095498
98.045090,-3182.885551,-7772.162391,-1455.581446
98.045412,-1702.473667,-8956.491898,-2221.676944
98.045734,-740.205942,-9178.553681,-2757.943793
98.046055,148.041188,-9474.636058,-2681.334243
98.046377,1036.288319,-10288.862594,-1762.019645
98.046699,1258.350101,-10955.047942,-1072.533697
98.047020,370.102971,-10510.924376,-1762.019645
98.047342,-1184.329507,-10288.862594,-2221.676944
98.047664,-2960.823768,-10658.965565,-2451.505594
98.047985,-4737.318029,-11621.233289,-2221.676944
98.048307,-6069.688724,-12213.398043,-1302.362347
98.048629,-7179.997637,-12583.501014,0.000000
98.048951,-7105.977043,-10955.047942,766.095498
98.049272,-6291.750507,-10214.842000,-536.266849
98.049594,-4885.359217,-9474.636058,-919.314598
98.049916,-3849.070898,-8734.430116,-919.314598
98.050237,-2664.741391,-8068.244768,-919.314598
98.050559,-1628.453072,-8660.409521,-689.485948
98.050881,74.020594,-8660.409521,-689.485948
98.051203,814.226536,-8808.450710,-1838.629195
98.051524,1406.391290,-9104.533087,-2911.162892
98.051846,888.247130,-9918.759623,-2834.553343
98.052168,148.041188,-10214.842000,-2068.457845
98.052489,-370.102971,-10140.821405,-1838.629195
98.052811,-1406.391290,-9104.533087,-2068.457845
98.053133,-2442.679609,-8808.450710,-2374.896044
98.053455,-3330.926739,-7476.080014,-2374.896044
98.053776,-4219.173869,-5995.668130,-1532.190996
98.054098,-4589.276840,-4885.359217,-306.438199
98.054420,-3552.988522,-5921.647536,-1302.362347
98.054741,-1850.514855,-7254.018232,-1532.190996
98.055063,-444.123565,-8364.327145,-1378.971896
98.055385,1332.370696,-9178.553681,-612.876398
98.055707,2220.617826,-9030.512492,-229.828649
98.056028,3478.967927,-10214.842000,-1149.143247
98.056350,3997.112087,-10362.883188,-2451.505594
98.056672,3330.926739,-10658.965565,-2528.115143
98.056993,2220.617826,-10955.047942,-2298.286494
98.057315,518.144159,-11177.109724,-2451.505594
98.057637,-444.123565,-10732.986159,-2987.772442
98.057959,-2146.597232,-10362.883188,-3064.381992
98.058280,-3627.009116,-10807.006753,-2528.115143
98.058602,-4441.235652,-11547.212695,-2145.067394
98.058924,-4589.276840,-11695.253884,-2451.505594
98.059245,-3849.070898,-12509.480420,-1685.410096
98.059567,-2072.576638,-12583.501014,-536.266849
98.059889,0.000000,-12139.377449,229.828649
98.060211,2368.659014,-9474.636058,383.047749
98.060532,5181.441594,-7772.162391,-229.828649
98.060854,7772.162391,-6735.874072,-995.924147
98.061176,9326.594869,-6439.791695,-1838.629195
98.061497,9696.697840,-7402.059420,-1225.752797
98.061819,9400.615463,-8290.306550,-459.657299
98.062141,8216.285956,-8882.471304,459.657299
98.062463,6069.688724,-9474.636058,153.219100
98.062784,3552.988522,-9326.594869,-383.047749
98.063106,888.247130,-9104.533087,-1072.533697
98.063428,-1036.288319,-7772.162391,-1685.410096
98.063749,-1924.535449,-7402.059420,-1378.971896
98.064071,-2590.720797,-6809.894666,-536.266849
98.064393,-2960.823768,-6217.729913,-459.657299
98.064715,-2960.823768,-6809.894666,-536.266849
98.065036,-2220.617826,-7846.182985,-919.314598
98.065358,-962.267725,-8142.265362,-1838.629195
98.065680,296.082377,-8216.285956,-2834.553343
98.066001,1258.350101,-9104.533087,-2987.772442
98.066323,1702.473667,-10436.903782,-2068.457845
98.066645,888.247130,-11547.212695,-1302.362347
98.066967,-518.144159,-11473.192101,-1455.581446
98.067288,-2368.659014,-11621.233289,-2221.676944
98.067610,-4515.256246,-11547.212695,-2757.943793
98.067932,-6069.688724,-11325.150913,-2834.553343
98.068254,-7476.080014,-11473.192101,-2145.067394
98.068575,-7698.141797,-12139.377449,-919.314598
98.068897,-7698.141797,-11177.109724,0.000000
98.069219,-7105.977043,-9918.759623,0.000000
98.069540,-5551.544565,-8882.471304,-689.485948
98.069862,-3701.029710,-9030.512492,-1302.362347
98.070184,-2738.761985,-8438.347739,-1455.581446
98.070506,-1628.453072,-8882.471304,-612.876398
98.070827,-148.041188,-8660.409521,-919.314598
98.071149,1480.411884,-8660.409521,-2451.505594
98.071471,1998.556043,-8364.327145,-3140.991542
98.071792,1110.308913,-10140.821405,-2834.553343
98.072114,740.205942,-11251.130318,-2528.115143
98.072436,-148.041188,-11325.150913,-2298.286494
98.072758,-1480.411884,-10436.903782,-1991.848295
98.073079,-2368.659014,-9622.677246,-2221.676944
98.073401,-3701.029710,-7920.203579,-1455.581446
98.073723,-4737.318029,-6661.853478,-995.924147
98.074044,-4811.338623,-4811.338623,-612.876398
98.074366,-3701.029710,-5255.462188,-689.485948
98.074688,-1924.535449,-5329.482782,-1149.143247
98.075010,74.020594,-6661.853478,-1149.143247
98.075331,1110.308913,-7698.141797,-229.828649
98.075653,1924.535449,-9326.594869,1149.143247
98.075975,2368.659014,-9400.615463,76.609550
98.076296,2516.700203,-9844.739029,-1991.848295
98.076618,3034.844362,-10658.965565,-3294.210641
98.076940,2664.741391,-9548.656652,-3140.991542
98.077262,1406.391290,-10140.821405,-2604.724693
98.077583,-148.041188,-10658.965565,-2068.457845
98.077905,-1776.494261,-10955.047942,-1838.629195
98.078227,-3552.988522,-9844.739029,-2451.505594
98.078548,-4367.215058,-10140.821405,-2528.115143
98.078870,-4219.173869,-11917.315666,-2757.943793
98.079192,-3256.906145,-12731.542202,-2681.334243
98.079514,-1406.391290,-13027.624579,-1532.190996
98.079835,962.267725,-12731.542202,1072.533697
98.080157,3478.967927,-10584.944971,2298.286494
98.080479,5699.585753,-7698.141797,995.924147
98.080800,7328.038826,-5921.647536,-1455.581446
98.081122,8882.471304,-6143.709319,-1685.410096
98.081444,9844.739029,-6957.935855,-1072.533697
98.081766,9918.759623,-8142.265362,-1072.533697
98.082087,9844.739029,-9770.718434,-612.876398
98.082409,8364.327145,-10955.047942,459.657299
98.082731,5329.482782,-11029.068536,0.000000
98.083052,1628.453072,-10140.821405,-766.095498
98.083374,-814.226536,-8586.388927,-1532.190996
98.083696,-1998.556043,-7105.977043,-3064.381992
98.084018,-3256.906145,-6439.791695,-2911.162892
98.084339,-4071.132681,-7476.080014,-1838.629195
98.084661,-4441.235652,-7328.038826,-766.095498
98.084983,-3849.070898,-7624.121203,-1378.971896
98.085305,-2294.638420,-8586.388927,-2068.457845
98.085626,-1258.350101,-9548.656652,-3140.991542
98.085948,0.000000,-9770.718434,-2834.553343
98.086270,370.102971,-10214.842000,-2451.505594
98.086591,740.205942,-10658.965565,-1225.752797
98.086913,370.102971,-11029.068536,-1302.362347
98.087235,-592.164754,-10732.986159,-2145.067394
98.087557,-3034.844362,-10584.944971,-2757.943793
98.087878,-4737.318029,-11029.068536,-2451.505594
98.088200,-5995.668130,-11843.295072,-1915.238745
98.088522,-6809.894666,-12361.439231,-1378.971896
98.088843,-6809.894666,-12361.439231,-612.876398
98.089165,-6883.915261,-11325.150913,-383.047749
98.089487,-5773.606348,-10140.821405,-536.266849
98.089809,-4293.194464,-9548.656652,-842.705048
98.090130,-2664.741391,-8290.306550,-842.705048
98.090452,-1332.370696,-7550.100608,-306.438199
98.090774,148.041188,-7179.997637,0.000000
98.091095,1332.370696,-8068.244768,-766.095498
98.091417,1924.535449,-8142.265362,-1685.410096
98.091739,1776.494261,-8734.430116,-2757.943793
98.092061,814.226536,-9844.739029,-2221.676944
98.092382,-370.102971,-9918.759623,-1608.800546
98.092704,-1702.473667,-9178.553681,-1991.848295
98.093026,-2590.720797,-8882.471304,-1685.410096
98.093347,-3330.926739,-7698.141797,-2068.457845
98.093669,-4441.235652,-6735.874072,-1991.848295
98.093991,-4737.318029,-4737.318029,-1302.362347
98.094313,-4589.276840,-5033.400406,-1762.019645
98.094634,-3256.906145,-6143.709319,-1455.581446
98.094956,-1776.494261,-8142.265362,-1685.410096
98.095278,-296.082377,-9400.615463,-995.924147
98.095599,962.267725,-10362.883188,76.609550
98.095921,2442.679609,-10140.821405,-306.438199
98.096243,3256.906145,-10362.883188,-1685.410096
98.096565,3849.070898,-10362.883188,-2451.505594
98.096886,3256.906145,-10140.821405,-2374.896044
98.097208,2146.597232,-9844.739029,-2221.676944
98.097530,518.144159,-10288.862594,-1455.581446
98.097851,-592.164754,-10436.903782,-2681.334243
98.098173,-2590.720797,-10584.944971,-2528.115143
98.098495,-3775.050304,-11769.274478,-2451.505594
98.098817,-4441.235652,-12435.459826,-2221.676944
98.099138,-3627.009116,-12953.603985,-2068.457845
98.099460,-1924.535449,-13175.665768,-1225.752797
98.099782,0.000000,-13027.624579,0.000000
98.100103,2220.617826,-10881.027347,383.047749
98.100425,4071.132681,-8660.409521,153.219100
98.100747,6587.832884,-7105.977043,-689.485948
98.101069,8216.285956,-6735.874072,-1991.848295
98.101390,8734.430116,-6735.874072,-1991.848295
98.101712,9030.512492,-8142.265362,-1225.752797
98.102034,7994.224174,-8956.491898,0.000000
98.102356,5921.647536,-9696.697840,306.438199
98.102677,3701.029710,-10214.842000,-612.876398
98.102999,740.205942,-9696.697840,-536.266849
98.103321,-740.205942,-8364.327145,-1608.800546
98.103642,-1998.556043,-7105.977043,-1991.848295
98.103964,-2146.597232,-6883.915261,-1225.752797
98.104286,-2590.720797,-6809.894666,-383.047749
98.104608,-2516.700203,-6513.812290,-229.828649
98.104929,-2072.576638,-7698.141797,-919.314598
98.105251,-1184.329507,-8290.306550,-1532.190996
98.105573,222.061783,-8586.388927,-2298.286494
98.105894,1258.350101,-8660.409521,-2911.162892
98.106216,1628.453072,-9622.677246,-2528.115143
98.106538,1998.556043,-11177.109724,-1685.410096
98.106860,370.102971,-11547.212695,-1072.533697
98.107181,-1776.494261,-10955.047942,-1455.581446
98.107503,-4071.132681,-11251.130318,-2298.286494
98.107825,-6217.729913,-11103.089130,-3294.210641
98.108146,-7698.141797,-11325.150913,-2987.772442
98.108468,-7846.182985,-11991.336260,-1685.410096
98.108790,-8068.244768,-11695.253884,-306.438199
98.109112,-7624.121203,-10584.944971,0.000000
98.109433,-6439.791695,-9474.636058,-153.219100
98.109755,-4737.318029,-8882.471304,-995.924147
98.110077,-3330.926739,-8660.409521,-2298.286494
98.110398,-2516.700203,-8438.347739,-1455.581446
98.110720,-1480.411884,-7994.224174,-919.314598
98.111042,444.123565,-7994.224174,-1455.581446
98.111364,2294.638420,-8438.347739,-2374.896044
98.111685,2368.659014,-9252.574275,-2911.162892
98.112007,1332.370696,-10584.944971,-2374.896044
98.112329,296.082377,-11177.109724,-1991.848295
98.112650,-518.144159,-10807.006753,-1685.410096
98.112972,-1554.432478,-10436.903782,-2145.067394
98.113294,-2590.720797,-9104.533087,-1378.971896
98.113616,-3849.070898,-7476.080014,-1072.533697
98.113937,-4219.173869,-5255.462188,-766.095498
98.114259,-3552.988522,-4737.318029,-689.485948
98.114581,-1628.453072,-5107.421000,-1072.533697
98.114902,222.061783,-5699.585753,-1455.581446
98.115224,1554.432478,-7031.956449,-995.924147
98.115546,2368.659014,-9474.636058,612.876398
98.115868,3034.844362,-10288.862594,919.314598
98.116189,3182.885551,-10214.842000,-1149.143247
98.116511,3182.885551,-10510.924376,-3140.991542
98.116833,2664.741391,-9992.780217,-2987.772442
98.117154,1480.411884,-9548.656652,-3370.820191
98.117476,0.000000,-10436.903782,-2604.724693
98.117798,-1554.432478,-10658.965565,-2221.676944
98.118120,-3182.885551,-10881.027347,-2681.334243
98.118441,-4515.256246,-10807.006753,-3140.991542
98.118763,-4959.379811,-11769.274478,-2604.724693
98.119085,-3997.112087,-13027.624579,-3064.381992
98.119407,-2664.741391,-13471.748144,-2604.724693
98.119728,-740.205942,-12583.501014,-306.438199
98.120050,1628.453072,-10955.047942,1532.190996
98.120372,3849.070898,-8882.471304,612.876398
98.120693,6217.729913,-7254.018232,-766.095498
98.121015,8068.244768,-7031.956449,-2221.676944
98.121337,9400.615463,-7105.977043,-1378.971896
98.121659,9474.636058,-7698.141797,-689.485948
98.121980,9696.697840,-8808.450710,-459.657299
98.122302,9178.553681,-10362.883188,-153.219100
98.122624,7550.100608,-11029.068536,-153.219100
98.122945,4515.256246,-10881.027347,-383.047749
98.123267,1406.391290,-9326.594869,-842.705048
98.123589,-814.226536,-7624.121203,-1378.971896
98.123911,-2220.617826,-6439.791695,-1532.190996
98.124232,-3404.947333,-6291.750507,-1149.143247
98.124554,-4219.173869,-6143.709319,-1072.533697
98.124876,-4589.276840,-7179.997637,-1378.971896
98.125197,-4219.173869,-8364.327145,-1455.581446
98.125519,-3404.947333,-8216.285956,-1149.143247
98.125841,-1776.494261,-8808.450710,-2145.067394
98.126163,-740.205942,-9178.553681,-2528.115143
98.126484,296.082377,-10066.800811,-2604.724693
98.126806,592.164754,-10881.027347,-1838.629195
98.127128,296.082377,-10436.903782,-1608.800546
98.127449,-1258.350101,-11103.089130,-1762.019645
98.127771,-3256.906145,-11769.274478,-1991.848295
98.128093,-4811.338623,-11843.295072,-1685.410096
98.128415,-5551.544565,-11917.315666,-1532.190996
98.128736,-5921.647536,-12065.356855,-1149.143247
98.129058,-5773.606348,-11177.109724,0.000000
98.129380,-5255.462188,-9770.718434,306.438199
98.129701,-3997.112087,-8734.430116,153.219100
98.130023,-2738.761985,-8512.368333,-153.219100
98.130345,-1998.556043,-7994.224174,-229.828649
98.130667,-1110.308913,-7698.141797,0.000000
98.130988,-296.082377,-7624.121203,-766.095498
98.131310,1184.329507,-7846.182985,-1455.581446
98.131632,1628.453072,-8512.368333,-2451.505594
98.131953,1110.308913,-9770.718434,-2757.943793
98.132275,0.000000,-10584.944971,-2451.505594
98.132597,-1110.308913,-10658.965565,-2451.505594
98.132919,-2294.638420,-10436.903782,-2911.162892
98.133240,-3330.926739,-9696.697840,-2757.943793
98.133562,-4589.276840,-8068.244768,-2528.115143
98.133884,-5033.400406,-5699.585753,-1762.019645
98.134205,-5033.400406,-5329.482782,-1762.019645
98.134527,-4293.194464,-5699.585753,-1608.800546
98.134849,-2738.761985,-6661.853478,-1378.971896
98.135171,-1184.329507,-7772.162391,-1302.362347
98.135492,518.144159,-9548.656652,-612.876398
98.135814,2220.617826,-9844.739029,153.219100
98.136136,2886.803174,-10214.842000,-536.266849
98.136458,3849.070898,-10732.986159,-1685.410096
98.136779,3997.112087,-10510.924376,-2221.676944
98.137101,3182.885551,-10066.800811,-2451.505594
98.137423,1702.473667,-10732.986159,-2298.286494
98.137744,0.000000,-10510.924376,-1378.971896
98.138066,-1258.350101,-11177.109724,-2374.896044
98.138388,-2738.761985,-11103.089130,-2451.505594
98.138710,-3404.947333,-11843.295072,-1991.848295
98.139031,-3627.009116,-11843.295072,-1608.800546
98.139353,-3775.050304,-12213.398043,-1762.019645
98.139675,-2442.679609,-11843.295072,-1149.143247
98.139996,-444.123565,-10732.986159,-153.219100
98.140318,1924.535449,-9326.594869,-612.876398
98.140640,4145.153275,-8142.265362,-536.266849
98.140962,5847.626942,-6957.935855,-919.314598
98.141283,7328.038826,-5995.668130,-1991.848295
98.141605,8216.285956,-7105.977043,-1915.238745
98.141927,8364.327145,-8068.244768,-1455.581446
98.142248,7254.018232,-8808.450710,-919.314598
98.142570,5625.565159,-10288.862594,-919.314598
98.142892,3478.967927,-11399.171507,459.657299
98.143214,1924.535449,-10732.986159,-536.266849
98.143535,296.082377,-8438.347739,-1378.971896
98.143857,-370.102971,-7105.977043,-842.705048
98.144179,-1110.308913,-6143.709319,-306.438199
98.144500,-1332.370696,-4737.318029,-536.266849
98.144822,-1184.329507,-6143.709319,-995.924147
98.145144,-814.226536,-7328.038826,-919.314598
98.145466,-444.123565,-7772.162391,-383.047749
98.145787,222.061783,-7994.224174,-612.876398
98.146109,1702.473667,-8660.409521,-1915.238745
98.146431,2442.679609,-10732.986159,-3217.601092
98.146752,1702.473667,-12065.356855,-2528.115143
98.147074,-296.082377,-12213.398043,-1532.190996
98.147396,-3108.864956,-12213.398043,-1608.800546
98.147718,-5107.421000,-12213.398043,-2221.676944
98.148039,-6809.894666,-12435.459826,-2757.943793
98.148361,-7846.182985,-12139.377449,-3600.648841
98.148683,-8438.347739,-11917.315666,-2298.286494
98.149004,-8290.306550,-11029.068536,-229.828649
98.149326,-7031.956449,-9326.594869,612.876398
98.149648,-5033.400406,-7698.141797,0.000000
98.149970,-3552.988522,-7698.141797,-1149.143247
98.150291,-2886.803174,-8290.306550,-1685.410096
98.150613,-2590.720797,-8364.327145,-1225.752797
98.150935,-1332.370696,-8364.327145,-1378.971896
98.151256,518.144159,-8808.450710,-2068.457845
98.151578,1628.453072,-9400.615463,-3140.991542
98.151900,1554.432478,-10362.883188,-2757.943793
98.152222,1036.288319,-11251.130318,-2528.115143
98.152543,592.164754,-11621.233289,-2298.286494
98.152865,-296.082377,-11325.150913,-2451.505594
98.153187,-1406.391290,-10658.965565,-2374.896044
98.153509,-3330.926739,-8586.388927,-1149.143247
98.153830,-4589.276840,-6587.832884,-842.705048
98.154152,-4589.276840,-5181.441594,-919.314598
98.154474,-3256.906145,-4811.338623,-1149.143247
98.154795,-1776.494261,-4811.338623,-1532.190996
98.155117,0.000000,-5403.503377,-1532.190996
98.155439,1628.453072,-7698.141797,0.000000
98.155760,2146.597232,-8956.491898,1455.581446
98.156082,2072.576638,-9326.594869,612.876398
98.156404,2294.638420,-9992.780217,-1991.848295
98.156726,1776.494261,-10436.903782,-2987.772442
98.157047,1184.329507,-9622.677246,-3600.648841
98.157369,0.000000,-9622.677246,-2757.943793
98.157691,-1554.432478,-10510.924376,-2374.896044
98.158012,-2368.659014,-11251.130318,-2221.676944
98.158334,-3478.967927,-11029.068536,-3447.429741
98.158656,-4219.173869,-11251.130318,-3294.210641
98.158977,-4071.132681,-12065.356855,-2374.896044
98.159299,-3108.864956,-12805.562797,-2068.457845
98.159621,-1554.432478,-12509.480420,-1762.019645
98.159943,740.205942,-11325.150913,0.000000
98.160264,3108.864956,-10140.821405,536.266849
98.160586,5773.606348,-8734.430116,0.000000
98.160908,7698.141797,-7402.059420,-1225.752797
98.161229,9030.512492,-7254.018232,-1072.533697
98.161551,9992.780217,-7550.100608,-766.095498
98.161873,10140.821405,-8216.285956,-1225.752797
98.162194,10066.800811,-8438.347739,-995.924147
98.162516,8660.409521,-9770.718434,-995.924147
98.162838,6217.729913,-10807.006753,-689.485948
98.163160,2960.823768,-11399.171507,-383.047749
98.163481,296.082377,-9992.780217,-766.095498
98.163803,-1998.556043,-7920.203579,-689.485948
98.164125,-2442.679609,-6809.894666,-1455.581446
98.164446,-3256.906145,-5847.626942,-1915.238745
98.164768,-3552.988522,-6069.688724,-2298.286494
98.165090,-3182.885551,-7105.977043,-1838.629195
98.165411,-2664.741391,-7846.182985,-1302.362347
98.165733,-1850.514855,-8882.471304,-1149.143247
98.166055,-370.102971,-9474.636058,-2374.896044
98.166377,1184.329507,-10584.944971,-3370.820191
98.166698,1702.473667,-11695.253884,-2987.772442
98.167020,1554.432478,-11621.233289,-1225.752797
98.167342,-444.123565,-11399.171507,-995.924147
98.167663,-2960.823768,-10807.006753,-1225.752797
98.167985,-4811.338623,-11103.089130,-1915.238745
98.168307,-6217.729913,-11177.109724,-2528.115143
98.168628,-6883.915261,-12065.356855,-2757.943793
98.168950,-7105.977043,-11843.295072,-306.438199
98.169272,-7031.956449,-10732.986159,995.924147
98.169594,-5329.482782,-8956.491898,1149.143247
98.169915,-3627.009116,-8142.265362,153.219100
98.170237,-2516.700203,-7772.162391,-1072.533697
98.170559,-2368.659014,-7624.121203,-1149.143247
98.170880,-1332.370696,-7179.997637,-842.705048
98.171202,-296.082377,-7846.182985,-995.924147
98.171524,1036.288319,-9030.512492,-1762.019645
98.171845,1110.308913,-10214.842000,-2451.505594
98.172167,148.041188,-10658.965565,-2757.943793
98.172489,-444.123565,-10955.047942,-2604.724693
98.172811,-814.226536,-10362.883188,-2757.943793
98.173132,-2368.659014,-9622.677246,-3140.991542
98.173454,-3701.029710,-7772.162391,-2451.505594
98.173776,-4885.359217,-6439.791695,-1532.190996
98.174097,-4885.359217,-5107.421000,-842.705048
98.174419,-4219.173869,-5921.647536,-1762.019645
98.174741,-2960.823768,-6365.771101,-1762.019645
98.175062,-1332.370696,-7772.162391,-1532.190996
98.175384,0.000000,-9104.533087,-153.219100
98.175706,1110.308913,-9474.636058,1072.533697
98.176028,2590.720797,-9770.718434,0.000000
98.176349,3627.009116,-10066.800811,-2068.457845
98.176671,3256.906145,-9918.759623,-2757.943793
98.176993,2072.576638,-9992.780217,-2451.505594
98.177314,666.185348,-10584.944971,-2145.067394
98.177636,0.000000,-11251.130318,-2451.505594
98.177958,-1480.411884,-11325.150913,-2528.115143
98.178279,-2442.679609,-11177.109724,-2757.943793
98.178601,-3330.926739,-11695.253884,-2374.896044
98.178923,-3849.070898,-11621.233289,-2145.067394
98.179245,-3478.967927,-11917.315666,-2298.286494
98.179566,-2072.576638,-12361.439231,-1762.019645
98.179888,-370.102971,-12213.398043,-689.485948
98.180210,1702.473667,-10214.842000,0.000000
98.180531,3997.112087,-8364.327145,0.000000
98.180853,6513.812290,-6735.874072,-459.657299
98.181175,7698.141797,-6365.771101,-995.924147
98.181496,8734.430116,-6661.853478,-1532.190996
98.181818,8956.491898,-7994.224174,-1685.410096
98.182140,8290.306550,-8586.388927,-995.924147
98.182462,7105.977043,-10066.800811,-383.047749
98.182783,5329.482782,-11325.150913,0.000000
98.183105,2516.700203,-11103.089130,-229.828649
98.183427,592.164754,-9474.636058,-842.705048
98.183748,-888.247130,-7772.162391,-1225.752797
98.184070,-1332.370696,-6439.791695,-919.314598
98.184392,-1776.494261,-5773.606348,-1225.752797
98.184713,-1776.494261,-6217.729913,-1072.533697
98.185035,-1850.514855,-7031.956449,-1072.533697
98.185357,-1332.370696,-7846.182985,-383.047749
98.185679,-592.164754,-8586.388927,-995.924147
98.186000,666.185348,-8956.491898,-2068.457845
98.186322,1702.473667,-10066.800811,-2834.553343
98.186644,1480.411884,-11621.233289,-2681.334243
98.186965,518.144159,-11843.295072,-1608.800546
98.187287,-1628.453072,-11399.171507,-1302.362347
98.187609,-4145.153275,-11621.233289,-2068.457845
98.187930,-5921.647536,-11547.212695,-2451.505594
98.188252,-7920.203579,-11843.295072,-3140.991542
98.188574,-8216.285956,-11991.336260,-2604.724693
98.188896,-8068.244768,-11843.295072,-1149.143247
98.189217,-7179.997637,-10584.944971,229.828649
98.189539,-5551.544565,-8882.471304,689.485948
98.189861,-3849.070898,-8068.244768,306.438199
98.190182,-2516.700203,-7846.182985,-536.266849
98.190504,-1924.535449,-7920.203579,-689.485948
98.190826,-888.247130,-7254.018232,-995.924147
98.191147,444.123565,-7846.182985,-1302.362347
98.191469,2072.576638,-8882.471304,-1762.019645
98.191791,1998.556043,-9992.780217,-2068.457845
98.192113,1184.329507,-11325.150913,-1838.629195
98.192434,148.041188,-11917.315666,-2145.067394
98.192756,-814.226536,-11473.192101,-2221.676944
98.193078,-2146.597232,-10658.965565,-2068.457845
98.193399,-2886.803174,-8660.409521,-2221.676944
98.193721,-4071.132681,-6957.935855,-1378.971896
98.194043,-4441.235652,-4737.318029,-919.314598
98.194364,-3849.070898,-4663.297435,-1225.752797
98.194686,-2368.659014,-4737.318029,-1378.971896
98.195008,-962.267725,-6143.709319,-1838.629195
98.195330,222.061783,-8216.285956,-919.314598
98.195651,740.205942,-10214.842000,842.705048
98.195973,592.164754,-10140.821405,612.876398
98.196295,1776.494261,-10510.924376,-1455.581446
98.196616,2368.659014,-10066.800811,-3140.991542
98.196938,1776.494261,-9622.677246,-3907.087040
98.197260,222.061783,-9326.594869,-2911.162892
98.197581,-1184.329507,-10436.903782,-2068.457845
98.197903,-1850.514855,-10732.986159,-2221.676944
98.198225,-2664.741391,-10140.821405,-3370.820191
98.198547,-3627.009116,-10732.986159,-3753.867940
98.198868,-3404.947333,-12287.418637,-2987.772442
98.199190,-2960.823768,-13397.727550,-2911.162892
98.199512,-1480.411884,-14063.912898,-2221.676944
98.199833,518.144159,-13619.789333,229.828649
98.200155,2960.823768,-10732.986159,1225.752797
98.200477,4885.359217,-8660.409521,153.219100
98.200798,6957.935855,-6661.853478,-1302.362347
98.201120,8882.471304,-6143.709319,-2221.676944
98.201442,9992.780217,-6809.894666,-1532.190996
98.201764,9548.656652,-7624.121203,-229.828649
98.202085,9844.739029,-8808.450710,229.828649
98.202407,8290.306550,-10288.862594,-459.657299
98.202729,6365.771101,-11103.089130,-766.095498
98.203050,2960.823768,-10510.924376,-919.314598
98.203372,148.041188,-9104.533087,-1072.533697
98.203694,-1702.473667,-7476.080014,-1532.190996
98.204015,-2368.659014,-6439.791695,-1838.629195
98.204337,-3330.926739,-6217.729913,-1762.019645
98.204659,-3552.988522,-6735.874072,-1532.190996
98.204981,-3701.029710,-7698.141797,-1149.143247
98.205302,-3108.864956,-8216.285956,-1149.143247
98.205624,-1998.556043,-8808.450710,-1302.362347
98.205946,-518.144159,-8956.491898,-2145.067394
98.206267,888.247130,-9622.677246,-2757.943793
98.206589,1480.411884,-10658.965565,-2221.676944
98.206911,1628.453072,-11399.171507,-1378.971896
98.207232,74.020594,-11325.150913,-306.438199
98.207554,-1998.556043,-10955.047942,-995.924147
98.207876,-4145.153275,-10807.006753,-1302.362347
98.208198,-5699.585753,-10881.027347,-1685.410096
98.208519,-6217.729913,-11177.109724,-2298.286494
98.208841,-6661.853478,-11917.315666,-1072.533697
98.209163,-6957.935855,-11769.274478,229.828649
98.209484,-6587.832884,-10584.944971,689.485948
98.209806,-5033.400406,-9178.553681,229.828649
98.210128,-3182.885551,-8734.430116,-766.095498
98.210449,-1924.535449,-8364.327145,-1685.410096
98.210771,-1036.288319,-7624.121203,-1225.752797
98.211093,0.000000,-7328.038826,-1072.533697
98.211415,962.267725,-8438.347739,-1302.362347
98.211736,1480.411884,-9844.739029,-2298.286494
98.212058,814.226536,-10510.924376,-2681.334243
98.212380,-296.082377,-11177.109724,-1915.238745
98.212701,-1110.308913,-10807.006753,-2451.505594
98.213023,-2146.597232,-10214.842000,-2451.505594
98.213345,-3182.885551,-8586.388927,-2221.676944
98.213666,-4145.153275,-7031.956449,-1762.019645
98.213988,-4663.297435,-4959.379811,-1378.971896
98.214310,-4145.153275,-4737.318029,-2068.457845
98.214632,-2886.803174,-5477.523971,-2221.676944
98.214953,-1480.411884,-7550.100608,-1532.190996
98.215275,0.000000,-8956.491898,-842.705048
98.215597,962.267725,-10362.883188,459.657299
98.215918,2294.638420,-10362.883188,766.095498
98.216240,3330.926739,-10658.965565,-1915.238745
98.216562,3330.926739,-10288.862594,-2757.943793
98.216883,2516.700203,-10066.800811,-2528.115143
98.217205,1406.391290,-10140.821405,-2451.505594
98.217527,74.020594,-10214.842000,-2221.676944
98.217849,-1332.370696,-10436.903782,-2834.553343
98.218170,-2664.741391,-10732.986159,-2911.162892
98.218492,-3923.091493,-11251.130318,-2528.115143
98.218814,-4515.256246,-11843.295072,-2451.505594
98.219135,-3775.050304,-11991.336260,-2068.457845
98.219457,-2072.576638,-12879.583391,-1532.190996
98.219779,-222.061783,-12583.501014,-306.438199
98.220100,1628.453072,-10955.047942,459.657299
98.220422,3701.029710,-8364.327145,612.876398
98.220744,6069.688724,-6587.832884,-995.924147
98.221066,7698.141797,-5921.647536,-1532.190996
98.221387,8512.368333,-5921.647536,-1762.019645
98.221709,8956.491898,-7328.038826,-1378.971896
98.222031,8660.409521,-8438.347739,-919.314598
98.222352,7698.141797,-10288.862594,-383.047749
98.222674,6069.688724,-11103.089130,0.000000
98.222996,3256.906145,-11251.130318,-306.438199
98.223317,1258.350101,-9992.780217,-842.705048
98.223639,-296.082377,-8586.388927,-1378.971896
98.223961,-1258.350101,-6809.894666,-1378.971896
98.224283,-2146.597232,-6291.750507,-766.095498
98.224604,-2812.782580,-5255.462188,-459.657299
98.224926,-2516.700203,-6587.832884,-612.876398
98.225248,-2146.597232,-7402.059420,-383.047749
98.225569,-1258.350101,-8290.306550,-1225.752797
98.225891,222.061783,-8660.409521,-2145.067394
98.226213,1036.288319,-9844.739029,-2757.943793
98.226534,1332.370696,-10584.944971,-2374.896044
98.226856,962.267725,-11399.171507,-1762.019645
98.227178,-888.247130,-11325.150913,-1838.629195
98.227500,-3256.906145,-11621.233289,-2374.896044
98.227821,-5625.565159,-11991.336260,-2681.334243
98.228143,-7920.203579,-12583.501014,-2451.505594
98.228465,-8364.327145,-12879.583391,-2451.505594
98.228786,-8438.347739,-12731.542202,-1532.190996
98.229108,-7328.038826,-11103.089130,-459.657299
98.229430,-6069.688724,-9178.553681,-306.438199
98.229751,-4145.153275,-7846.182985,0.000000
98.230073,-2442.679609,-7624.121203,-689.485948
98.230395,-2220.617826,-7698.141797,-766.095498
98.230717,-1480.411884,-8290.306550,-459.657299
98.231038,-296.082377,-8660.409521,-995.924147
98.231360,666.185348,-8882.471304,-1762.019645
98.231682,1406.391290,-9178.553681,-2221.676944
98.232003,1184.329507,-9918.759623,-2528.115143
98.232325,666.185348,-10807.006753,-1991.848295
98.232647,-148.041188,-10955.047942,-2374.896044
98.232968,-1702.473667,-10436.903782,-1915.238745
98.233290,-2664.741391,-9770.718434,-1915.238745
98.233612,-4145.153275,-8290.306550,-1685.410096
98.233934,-4663.297435,-5921.647536,-1302.362347
98.234255,-4367.215058,-5033.400406,-1072.533697
98.234577,-2738.761985,-4959.379811,-1072.533697
98.234899,-1110.308913,-5477.523971,-2068.457845
98.235220,666.185348,-6587.832884,-1225.752797
98.235542,1406.391290,-8734.430116,0.000000
98.235864,1702.473667,-9770.718434,1072.533697
98.236185,2072.576638,-9918.759623,-536.266849
98.236507,2442.679609,-10732.986159,-2681.334243
98.236829,2738.761985,-10214.842000,-3447.429741
98.237151,1702.473667,-8882.471304,-3217.601092
98.237472,0.000000,-9548.656652,-2604.724693
98.237794,-1628.453072,-10436.903782,-2374.896044
98.238116,-3034.844362,-11325.150913,-2757.943793
98.238437,-3552.988522,-11547.212695,-3524.039291
98.238759,-3256.906145,-12731.542202,-3524.039291
98.239081,-2294.638420,-13767.830521,-3140.991542
98.239402,-814.226536,-14063.912898,-2604.724693
98.239724,814.226536,-13249.686362,0.000000
98.240046,2442.679609,-10584.944971,1608.800546
98.240368,4219.173869,-8512.368333,1378.971896
98.240689,6439.791695,-7254.018232,-1149.143247
98.241011,7920.203579,-6661.853478,-1762.019645
98.241333,9030.512492,-6883.915261,-1608.800546
98.241654,9400.615463,-7476.080014,-536.266849
98.241976,9770.718434,-8142.265362,919.314598
98.242298,9030.512492,-8586.388927,0.000000
98.242619,7402.059420,-10214.842000,-1762.019645
98.242941,4293.194464,-11325.150913,-1838.629195
98.243263,740.205942,-10732.986159,-1302.362347
98.243585,-2368.659014,-9252.574275,-1455.581446
98.243906,-3330.926739,-7772.162391,-1685.410096
98.244228,-3552.988522,-7254.018232,-2068.457845
98.244550,-3478.967927,-6439.791695,-2451.505594
98.244871,-3701.029710,-7105.977043,-2221.676944
98.245193,-2960.823768,-7550.100608,-1225.752797
98.245515,-2368.659014,-8216.285956,-383.047749
98.245836,-518.144159,-8512.368333,-1608.800546
98.246158,888.247130,-9326.594869,-2451.505594
98.246480,1702.473667,-10658.965565,-2451.505594
98.246802,1406.391290,-11103.089130,-1762.019645
98.247123,296.082377,-10214.842000,-919.314598
98.247445,-1850.514855,-10658.965565,-1072.533697
98.247767,-3923.091493,-10807.006753,-1455.581446
98.248088,-5921.647536,-11251.130318,-2068.457845
98.248410,-7031.956449,-11917.315666,-2374.896044
98.248732,-7476.080014,-12583.501014,-1302.362347
98.249053,-7105.977043,-12435.459826,0.000000
98.249375,-6587.832884,-10140.821405,689.485948
98.249697,-4885.359217,-8512.368333,0.000000
98.250019,-3182.885551,-8142.265362,-766.095498
98.250340,-2738.761985,-7698.141797,-995.924147
98.250662,-2146.597232,-7920.203579,-1302.362347
98.250984,-1702.473667,-8068.244768,-919.314598
98.251305,0.000000,-8438.347739,-1455.581446
98.251627,888.247130,-9030.512492,-1991.848295
98.251949,592.164754,-9548.656652,-2528.115143
98.252270,-148.041188,-9992.780217,-1685.410096
98.252592,-814.226536,-10214.842000,-2298.286494
98.252914,-1850.514855,-9474.636058,-2604.724693
98.253236,-2960.823768,-8808.450710,-2451.505594
98.253557,-4071.132681,-7772.162391,-1915.238745
98.253879,-4515.256246,-5921.647536,-1762.019645
98.254201,-4515.256246,-4885.359217,-1685.410096
98.254522,-3034.844362,-5255.462188,-1532.190996
98.254844,-1332.370696,-6883.915261,-1378.971896
98.255166,74.020594,-8142.265362,-919.314598
98.255487,1406.391290,-10066.800811,-153.219100
98.255809,2442.679609,-10658.965565,0.000000
98.256131,3701.029710,-10955.047942,-1072.533697
98.256452,3701.029710,-10732.986159,-2374.896044
98.256774,3182.885551,-10436.903782,-2681.334243
98.257096,2146.597232,-9622.677246,-2681.334243
98.257418,888.247130,-9918.759623,-2374.896044
98.257739,-518.144159,-10140.821405,-2298.286494
98.258061,-2368.659014,-10881.027347,-2681.334243
98.258383,-3849.070898,-11103.089130,-3370.820191
98.258704,-4737.318029,-11991.336260,-2834.553343
98.259026,-3775.050304,-12213.398043,-2298.286494
98.259348,-2590.720797,-13175.665768,-1915.238745
98.259669,-592.164754,-12953.603985,-1532.190996
98.259991,1258.350101,-11917.315666,306.438199
98.260313,3034.844362,-9252.574275,842.705048
98.260634,5033.400406,-7328.038826,-459.657299
98.260956,7179.997637,-5995.668130,-1685.410096
98.261278,8364.327145,-6143.709319,-2221.676944
98.261600,8808.450710,-6883.915261,-1225.752797
98.261921,8808.450710,-8438.347739,-536.266849
98.262243,8142.265362,-10066.800811,-383.047749
98.262565,7179.997637,-10807.006753,-306.438199
98.262886,5033.400406,-11251.130318,-995.924147
98.263208,2220.617826,-10436.903782,-689.485948
98.263530,0.000000,-8956.491898,-689.485948
98.263851,-1480.411884,-7476.080014,-1455.581446
98.264173,-2368.659014,-6365.771101,-1225.752797
98.264495,-2960.823768,-5699.585753,-1532.190996
98.264816,-2960.823768,-6365.771101,-919.314598
98.265138,-2664.741391,-6883.915261,-1149.143247
98.265460,-1850.514855,-7698.141797,-1302.362347
98.265782,-592.164754,-8068.244768,-1378.971896
98.266103,148.041188,-9252.574275,-1838.629195
98.266425,1184.329507,-10288.862594,-2374.896044
98.266747,592.164754,-11251.130318,-1991.848295
98.267068,-518.144159,-11251.130318,-1838.629195
98.267390,-2812.782580,-12065.356855,-1762.019645
98.267712,-5255.462188,-11843.295072,-2221.676944
98.268033,-7402.059420,-11473.192101,-1915.238745
98.268355,-7772.162391,-11917.315666,-2374.896044
98.268677,-7846.182985,-12287.418637,-1532.190996
98.268998,-7476.080014,-11325.150913,-229.828649
98.269320,-6513.812290,-9770.718434,689.485948
98.269642,-4515.256246,-7994.224174,612.876398
98.269964,-2960.823768,-7476.080014,-153.219100
98.270285,-2294.638420,-7328.038826,-766.095498
98.270607,-1776.494261,-7698.141797,-919.314598
98.270929,-592.164754,-8068.244768,-842.705048
98.271250,1110.308913,-8808.450710,-1225.752797
98.271572,1776.494261,-8808.450710,-1762.019645
98.271894,1480.411884,-10066.800811,-2451.505594
98.272215,1036.288319,-11251.130318,-2298.286494
98.272537,0.000000,-11843.295072,-2298.286494
98.272859,-1406.391290,-11103.089130,-2757.943793
98.273180,-2368.659014,-10584.944971,-1991.848295
98.273502,-3404.947333,-8956.491898,-1762.019645
98.273824,-4219.173869,-6883.915261,-995.924147
98.274146,-4441.235652,-4737.318029,-995.924147
98.274467,-3108.864956,-4219.173869,-995.924147
98.274789,-1036.288319,-4515.256246,-1685.410096
98.275111,296.082377,-5773.606348,-2145.067394
98.275432,1554.432478,-8512.368333,-612.876398
98.275754,1554.432478,-10732.986159,689.485948
98.276076,1554.432478,-11029.068536,842.705048
98.276397,2072.576638,-11325.150913,-1608.800546
98.276719,2368.659014,-10362.883188,-3370.820191
98.277041,2072.576638,-9548.656652,-4366.744339
98.277362,592.164754,-9030.512492,-3370.820191
98.277684,-1184.329507,-9548.656652,-2451.505594
98.278006,-2368.659014,-10658.965565,-2374.896044
98.278328,-3108.864956,-11029.068536,-3830.477490
98.278649,-3256.906145,-12065.356855,-4366.744339
98.278971,-3108.864956,-13989.892304,-3140.991542
98.279293,-2368.659014,-14656.077652,-1915.238745
98.279614,-1628.453072,-14063.912898,-766.095498
98.279936,592.164754,-11769.274478,842.705048
98.280258,3256.906145,-8068.244768,1072.533697
98.280579,5921.647536,-6439.791695,-1838.629195
98.280901,8068.244768,-6217.729913,-2451.505594
98.281223,9474.636058,-7031.956449,-1302.362347
98.281544,9844.739029,-7550.100608,0.000000
98.281866,9622.677246,-7994.224174,1455.581446
98.282188,9696.697840,-9178.553681,229.828649
98.282509,7698.141797,-10214.842000,-1608.800546
98.282831,4959.379811,-10584.944971,-1991.848295
98.283153,1702.473667,-10288.862594,-1149.143247
98.283475,-962.267725,-8660.409521,-689.485948
98.283796,-2516.700203,-7105.977043,-1302.362347
98.284118,-3108.864956,-6809.894666,-1915.238745
98.284440,-3478.967927,-6883.915261,-2604.724693
98.284761,-3923.091493,-7476.080014,-1991.848295
98.285083,-3997.112087,-7920.203579,-1072.533697
98.285405,-3108.864956,-7920.203579,-229.828649
98.285726,-1406.391290,-7846.182985,-1608.800546
98.286048,-444.123565,-8882.471304,-2757.943793
98.286370,518.144159,-10214.842000,-2528.115143
98.286691,740.205942,-11103.089130,-1915.238745
98.287013,-148.041188,-11029.068536,-766.095498
98.287335,-1110.308913,-11103.089130,-229.828649
98.287657,-3108.864956,-10955.047942,-995.924147
98.287978,-4811.338623,-10807.006753,-1532.190996
98.288300,-5625.565159,-10732.986159,-2298.286494
98.288622,-5921.647536,-11695.253884,-1762.019645
98.288943,-6143.709319,-11769.274478,-536.266849
98.289265,-6291.750507,-11325.150913,995.924147
98.289587,-5255.462188,-10214.842000,1149.143247
98.289908,-3849.070898,-9400.615463,153.219100
98.290230,-2368.659014,-8364.327145,-1302.362347
98.290552,-1110.308913,-8068.244768,-1149.143247
98.290873,-296.082377,-7476.080014,-995.924147
98.291195,444.123565,-7846.182985,-689.485948
98.291517,1184.329507,-8660.409521,-1149.143247
98.291839,1258.350101,-9992.780217,-2221.676944
98.292160,444.123565,-10214.842000,-2298.286494
98.292482,-370.102971,-10955.047942,-2834.553343
98.292804,-1406.391290,-10140.821405,-2604.724693
98.293125,-2516.700203,-9474.636058,-2221.676944
98.293447,-3330.926739,-7994.224174,-1915.238745
98.293769,-4145.153275,-6513.812290,-1762.019645
98.294090,-4219.173869,-4885.359217,-1225.752797
98.294412,-3627.009116,-5107.421000,-1991.848295
98.294734,-2442.679609,-6513.812290,-1991.848295
98.295055,-1332.370696,-8290.306550,-1302.362347
98.295377,-296.082377,-9622.677246,-153.219100
98.295699,1258.350101,-10584.944971,0.000000
98.296021,2664.741391,-10436.903782,-612.876398
98.296342,3404.947333,-10436.903782,-2451.505594
98.296664,3256.906145,-9770.718434,-2834.553343
98.296986,2294.638420,-9770.718434,-2451.505594
98.297307,888.247130,-10436.903782,-1991.848295
98.297629,0.000000,-10436.903782,-2374.896044
98.297951,-1480.411884,-10584.944971,-2757.943793
98.298272,-2738.761985,-10658.965565,-2911.162892
98.298594,-3849.070898,-11621.233289,-2757.943793
98.298916,-4515.256246,-11991.336260,-2221.676944
98.299237,-3627.009116,-13027.624579,-1762.019645
98.299559,-2516.700203,-12583.501014,-1532.190996
98.299881,-592.164754,-12065.356855,-689.485948
98.300203,1924.535449,-9918.759623,-306.438199
98.300524,4515.256246,-7846.182985,-306.438199
98.300846,7105.977043,-6143.709319,-1225.752797
98.301168,8290.306550,-6143.709319,-1149.143247
98.301489,9178.553681,-6883.915261,-1302.362347
98.301811,8512.368333,-7994.224174,-1302.362347
98.302133,7624.121203,-8882.471304,-1072.533697
98.302454,6439.791695,-10658.965565,-842.705048
98.302776,4663.297435,-10732.986159,-383.047749
98.303098,2590.720797,-10584.944971,-689.485948
98.303419,740.205942,-8808.450710,-919.314598
98.303741,-370.102971,-7772.162391,-1149.143247
98.304063,-1184.329507,-6587.832884,-919.314598
98.304385,-2664.741391,-5551.544565,-612.876398
98.304706,-3404.947333,-5477.523971,-1072.533697
98.305028,-2886.803174,-6735.874072,-766.095498
98.305350,-1998.556043,-7550.100608,-919.314598
98.305671,-666.185348,-7920.203579,-1608.800546
98.305993,962.267725,-8808.450710,-2221.676944
98.306315,1998.556043,-10140.821405,-2451.505594
98.306636,1480.411884,-11547.212695,-2145.067394
98.306958,222.061783,-11695.253884,-1225.752797
98.307280,-1998.556043,-12065.356855,-1915.238745
98.307601,-4515.256246,-11917.315666,-2604.724693
98.307923,-6365.771101,-11843.295072,-2834.553343
98.308245,-7550.100608,-12287.418637,-2757.943793
98.308567,-7698.141797,-12657.521608,-2221.676944
98.308888,-7476.080014,-12361.439231,-689.485948
98.309210,-6809.894666,-10807.006753,459.657299
98.309532,-5403.503377,-8882.471304,459.657299
98.309853,-2960.823768,-8438.347739,153.219100
98.310175,-2368.659014,-7846.182985,-842.705048
98.310497,-2146.597232,-7402.059420,-306.438199
98.310818,-962.267725,-7328.038826,-383.047749
98.311140,444.123565,-8216.285956,-766.095498
98.311462,1554.432478,-8142.265362,-2221.676944
98.311783,1628.453072,-9474.636058,-1838.629195
98.312105,1036.288319,-10955.047942,-2068.457845
98.312427,296.082377,-11843.295072,-2145.067394
98.312749,-370.102971,-11547.212695,-2068.457845
98.313070,-1554.432478,-11103.089130,-2451.505594
98.313392,-2368.659014,-9400.615463,-2221.676944
98.313714,-3775.050304,-7476.080014,-1378.971896
98.314035,-4145.153275,-5329.482782,-1149.143247
98.314357,-3627.009116,-4515.256246,-766.095498
98.314679,-1776.494261,-4515.256246,-1149.143247
98.315000,-222.061783,-5107.421000,-1378.971896
98.315322,1110.308913,-7179.997637,-766.095498
98.315644,1702.473667,-9844.739029,689.485948
98.315965,1628.453072,-10140.821405,1072.533697
98.316287,1998.556043,-10288.862594,-766.095498
98.316609,2960.823768,-10658.965565,-3294.210641
98.316931,2442.679609,-9178.553681,-3753.867940
98.317252,1332.370696,-9030.512492,-3294.210641
98.317574,-222.061783,-9992.780217,-2068.457845
98.317896,-1406.391290,-10955.047942,-2068.457845
98.318217,-2442.679609,-11325.150913,-3140.991542
98.318539,-4071.132681,-11251.130318,-3600.648841
98.318861,-4589.276840,-12657.521608,-2911.162892
98.319182,-3849.070898,-13471.748144,-2451.505594
98.319504,-3034.844362,-13101.645173,-2068.457845
98.319826,-962.267725,-12065.356855,-689.485948
98.320147,1850.514855,-9844.739029,383.047749
98.320469,4589.276840,-7846.182985,-536.266849
98.320791,7179.997637,-6809.894666,-2298.286494
98.321112,9400.615463,-7105.977043,-1991.848295
98.321434,10066.800811,-7624.121203,-1149.143247
98.321756,9992.780217,-8438.347739,-229.828649
98.322078,9474.636058,-9400.615463,-306.438199
98.322399,7994.224174,-10362.883188,-1225.752797
98.322721,5847.626942,-10881.027347,-1838.629195
98.323043,3034.844362,-10955.047942,-1378.971896
98.323364,222.061783,-9844.739029,-995.924147
98.323686,-1332.370696,-8438.347739,-1608.800546
98.324008,-2220.617826,-6365.771101,-1455.581446
98.324329,-2664.741391,-6513.812290,-2068.457845
98.324651,-3108.864956,-6661.853478,-1608.800546
98.324973,-4071.132681,-7254.018232,-1149.143247
98.325294,-3256.906145,-7772.162391,-995.924147
98.325616,-2516.700203,-7772.162391,-1149.143247
98.325938,-592.164754,-9030.512492,-2604.724693
98.326260,518.144159,-10214.842000,-3294.210641
98.326581,740.205942,-11103.089130,-2068.457845
98.326903,370.102971,-10658.965565,-1302.362347
98.327225,-814.226536,-10807.006753,-995.924147
98.327546,-2664.741391,-11547.212695,-1991.848295
98.327868,-4737.318029,-11325.150913,-2221.676944
98.328190,-6143.709319,-11399.171507,-2298.286494
98.328511,-6661.853478,-11547.212695,-1608.800546
98.328833,-6439.791695,-11843.295072,-229.828649
98.329155,-6513.812290,-10955.047942,383.047749
98.329476,-5847.626942,-9474.636058,842.705048
98.329798,-4515.256246,-8808.450710,689.485948
98.330120,-3108.864956,-8142.265362,153.219100
98.330442,-2368.659014,-7920.203579,-689.485948
98.330763,-962.267725,-7105.977043,-766.095498
98.331085,370.102971,-7105.977043,-306.438199
98.331407,1776.494261,-7772.162391,-919.314598
98.331728,1776.494261,-8808.450710,-2298.286494
98.332050,1406.391290,-10140.821405,-2298.286494
98.332372,296.082377,-10881.027347,-1838.629195
98.332693,-814.226536,-10658.965565,-2298.286494
98.333015,-2072.576638,-10140.821405,-2528.115143
98.333337,-2738.761985,-8586.388927,-2681.334243
98.333658,-3849.070898,-7254.018232,-2298.286494
98.333980,-4663.297435,-5625.565159,-1225.752797
98.334302,-4663.297435,-5551.544565,-1378.971896
98.334624,-3997.112087,-6069.688724,-1532.190996
98.334945,-2368.659014,-7402.059420,-1762.019645
98.335267,-444.123565,-8290.306550,-1378.971896
98.335589,1110.308913,-9548.656652,-383.047749
98.335910,2072.576638,-9622.677246,0.000000
98.336232,2812.782580,-10436.903782,-1072.533697
98.336554,3256.906145,-10436.903782,-2145.067394
98.336875,2442.679609,-10140.821405,-2451.505594
98.337197,1628.453072,-10732.986159,-2757.943793
98.337519,296.082377,-11769.274478,-2911.162892
98.337840,-370.102971,-11547.212695,-2834.553343
98.338162,-1776.494261,-11843.295072,-3524.039291
98.338484,-2590.720797,-12139.377449,-2911.162892
98.338806,-2960.823768,-12657.521608,-2145.067394
98.339127,-3108.864956,-12287.418637,-2911.162892
98.339449,-2368.659014,-12213.398043,-2145.067394
98.339771,-666.185348,-11769.274478,-1072.533697
98.340092,1554.432478,-10140.821405,-766.095498
98.340414,3775.050304,-8216.285956,-766.095498
98.340736,6291.750507,-6587.832884,-842.705048
98.341057,7476.080014,-6143.709319,-1149.143247
98.341379,7994.224174,-6661.853478,-995.924147
98.341701,7920.203579,-7772.162391,-1225.752797
98.342022,7550.100608,-8660.409521,-1762.019645
98.342344,6439.791695,-9622.677246,-1608.800546
98.342666,4959.379811,-11177.109724,-995.924147
98.342988,2590.720797,-11251.130318,0.000000
98.343309,814.226536,-9622.677246,-689.485948
98.343631,-518.144159,-8068.244768,-1532.190996
98.343953,-1258.350101,-6735.874072,-1302.362347
98.344274,-2442.679609,-6143.709319,-383.047749
98.344596,-2664.741391,-4737.318029,0.000000
98.344918,-2516.700203,-5773.606348,-536.266849
98.345239,-1406.391290,-6291.750507,-306.438199
98.345561,-222.061783,-7328.038826,-612.876398
98.345883,592.164754,-8142.265362,-1915.238745
98.346204,962.267725,-9844.739029,-1991.848295
98.346526,1110.308913,-11325.150913,-1838.629195
98.346848,0.000000,-12065.356855,-1225.752797
98.347170,-1554.432478,-11843.295072,-1608.800546
98.347491,-3552.988522,-11621.233289,-2298.286494
98.347813,-5403.503377,-11769.274478,-2604.724693
98.348135,-7031.956449,-12361.439231,-2221.676944
98.348456,-7920.203579,-12731.542202,-1532.190996
98.348778,-8216.285956,-12361.439231,-459.657299
98.349100,-7476.080014,-10732.986159,0.000000
98.349421,-5995.668130,-9326.594869,0.000000
98.349743,-4293.194464,-8512.368333,-536.266849
98.350065,-3034.844362,-7772.162391,-306.438199
98.350386,-2368.659014,-7476.080014,-306.438199
98.350708,-1258.350101,-7772.162391,-459.657299
98.351030,222.061783,-8216.285956,-1072.533697
98.351352,1554.432478,-8216.285956,-1455.581446
98.351673,1776.494261,-9400.615463,-2145.067394
98.351995,1258.350101,-10732.986159,-1915.238745
