#time,accel_x,accel_y,accel_z
470.510201,-296.082377,-8808.450710,-1608.800546
470.510523,-592.164754,-9252.574275,-1225.752797
470.510846,-222.061783,-9400.615463,-1149.143247
470.511168,-518.144159,-9474.636058,-1149.143247
470.511491,-518.144159,-9474.636058,-1072.533697
470.511814,-370.102971,-9400.615463,-1302.362347
470.512136,74.020594,-9104.533087,-1532.190996
470.512459,-370.102971,-8956.491898,-1225.752797
470.512781,-148.041188,-9030.512492,-1225.752797
470.513104,-370.102971,-9104.533087,-1532.190996
470.513427,-518.144159,-9104.533087,-1532.190996
470.513749,-666.185348,-9252.574275,-1072.533697
470.514072,-814.226536,-9252.574275,-766.095498
470.514394,-666.185348,-9474.636058,-1302.362347
470.514717,-296.082377,-9252.574275,-1378.971896
470.515040,-296.082377,-9104.533087,-1532.190996
470.515362,-222.061783,-8586.388927,-1838.629195
470.515685,-222.061783,-8956.491898,-2374.896044
470.516007,-296.082377,-9548.656652,-1378.971896
470.516330,-518.144159,-9548.656652,-1608.800546
470.516653,-444.123565,-9696.697840,-1762.019645
470.516975,-592.164754,-9400.615463,-1762.019645
470.517298,-370.102971,-9474.636058,-1991.848295
470.517620,-296.082377,-9178.553681,-1685.410096
470.517943,0.000000,-9252.574275,-1991.848295
470.518266,-296.082377,-9326.594869,-1915.238745
470.518588,-296.082377,-9474.636058,-1762.019645
470.518911,-370.102971,-9326.594869,-1838.629195
470.519233,-370.102971,-9696.697840,-1685.410096
470.519556,-518.144159,-9770.718434,-1762.019645
470.519879,-444.123565,-9474.636058,-1915.238745
470.520201,-296.082377,-9252.574275,-1838.629195
470.520524,-148.041188,-9252.574275,-1838.629195
470.520846,-592.164754,-8808.450710,-1455.581446
470.521169,-518.144159,-9474.636058,-1991.848295
470.521491,-518.144159,-9622.677246,-1685.410096
470.521814,-592.164754,-9696.697840,-1991.848295
470.522137,-592.164754,-9548.656652,-1762.019645
470.522459,-518.144159,-9326.594869,-1838.629195
470.522782,-296.082377,-9252.574275,-1762.019645
470.523104,0.000000,-9104.533087,-1455.581446
470.523427,-370.102971,-8882.471304,-1762.019645
470.523750,-370.102971,-9252.574275,-1762.019645
470.524072,0.000000,-9622.677246,-1608.800546
470.524395,-888.247130,-9400.615463,-1608.800546
470.524717,-666.185348,-9474.636058,-1378.971896
470.525040,-370.102971,-9474.636058,-1455.581446
470.525363,-296.082377,-9178.553681,-1532.190996
470.525685,296.082377,-8882.471304,-1762.019645
470.526008,1850.514855,-9104.533087,-1608.800546
470.526330,2516.700203,-9622.677246,-1762.019645
470.526653,2442.679609,-9178.553681,-536.266849
470.526976,1480.411884,-8808.450710,-153.219100
470.527298,370.102971,-9178.553681,-1378.971896
470.527621,-518.144159,-9400.615463,-1915.238745
470.527943,-1776.494261,-9474.636058,-2298.286494
470.528266,-3256.906145,-9326.594869,-1838.629195
470.528589,-3923.091493,-9252.574275,-2528.115143
470.528911,-2738.761985,-9178.553681,-2987.772442
470.529234,0.000000,-9992.780217,-2834.553343
470.529556,2442.679609,-11695.253884,-1149.143247
470.529879,2886.803174,-10807.006753,76.609550
470.530202,2220.617826,-9400.615463,229.828649
470.530524,1924.535449,-8808.450710,-995.924147
470.530847,2590.720797,-9474.636058,-2068.457845
470.531169,2590.720797,-9622.677246,-2987.772442
470.531492,1184.329507,-9030.512492,-766.095498
470.531815,0.000000,-7476.080014,0.000000
470.532137,592.164754,-7476.080014,-842.705048
470.532460,2146.597232,-9474.636058,-2528.115143
470.532782,1924.535449,-10732.986159,-1302.362347
470.533105,-296.082377,-9548.656652,76.609550
470.533428,-1332.370696,-8956.491898,-1378.971896
470.533750,-370.102971,-9548.656652,-3600.648841
470.534073,518.144159,-9474.636058,-3064.381992
470.534395,444.123565,-10436.903782,-1532.190996
470.534718,1258.350101,-10510.924376,-919.314598
470.535041,2368.659014,-9548.656652,-2068.457845
470.535363,3552.988522,-9548.656652,-1762.019645
470.535686,4515.256246,-11399.171507,-229.828649
470.536008,3923.091493,-11325.150913,-229.828649
470.536331,2812.782580,-9178.553681,-1225.752797
470.536654,2590.720797,-7402.059420,-919.314598
470.536976,2368.659014,-7846.182985,-995.924147
470.537299,2442.679609,-7772.162391,-1302.362347
470.537621,1554.432478,-7105.977043,-1455.581446
470.537944,1480.411884,-8142.265362,-766.095498
470.538266,2442.679609,-10066.800811,-689.485948
470.538589,2960.823768,-10881.027347,-1072.533697
470.538912,2590.720797,-9622.677246,-1762.019645
470.539234,2220.617826,-9696.697840,-1915.238745
470.539557,2812.782580,-10140.821405,-1149.143247
470.539879,3256.906145,-9326.594869,-689.485948
470.540202,2886.803174,-9030.512492,-2757.943793
470.540525,2442.679609,-9400.615463,-2298.286494
470.540847,3034.844362,-9844.739029,-995.924147
470.541170,3330.926739,-9696.697840,-919.314598
470.541492,2664.741391,-9474.636058,-1915.238745
470.541815,2220.617826,-9400.615463,-1532.190996
470.542138,1702.473667,-8956.491898,-689.485948
470.542460,962.267725,-7698.141797,-1225.752797
470.542783,-296.082377,-8068.244768,-2145.067394
470.543105,-1036.288319,-8660.409521,-2221.676944
470.543428,-1110.308913,-10140.821405,-1608.800546
470.543751,-962.267725,-10584.944971,-1225.752797
470.544073,0.000000,-11621.233289,-1302.362347
470.544396,518.144159,-11991.336260,-1225.752797
470.544718,1406.391290,-11769.274478,-612.876398
470.545041,1998.556043,-10658.965565,0.000000
470.545364,1998.556043,-9474.636058,-919.314598
470.545686,1850.514855,-8660.409521,-1225.752797
470.546009,1776.494261,-7846.182985,-1149.143247
470.546331,1480.411884,-8068.244768,-842.705048
470.546654,1406.391290,-8142.265362,-995.924147
470.546977,1850.514855,-8660.409521,-1225.752797
470.547299,1628.453072,-8438.347739,-1072.533697
470.547622,2072.576638,-8438.347739,-1302.362347
470.547944,2072.576638,-7920.203579,-1991.848295
470.548267,1998.556043,-8290.306550,-2145.067394
470.548590,1776.494261,-9252.574275,-1302.362347
470.548912,1406.391290,-9474.636058,-1915.238745
470.549235,1110.308913,-10066.800811,-2451.505594
470.549557,1110.308913,-10955.047942,-2451.505594
470.549880,814.226536,-11843.295072,-1991.848295
470.550203,740.205942,-11621.233289,-1608.800546
470.550525,1406.391290,-11029.068536,-1225.752797
470.550848,1480.411884,-10362.883188,-995.924147
470.551170,2368.659014,-10140.821405,-1302.362347
470.551493,2664.741391,-9474.636058,-612.876398
470.551816,2516.700203,-8438.347739,0.000000
470.552138,3108.864956,-7402.059420,-306.438199
470.552461,4367.215058,-7772.162391,-1072.533697
470.552783,5699.585753,-7772.162391,-1838.629195
470.553106,5995.668130,-7624.121203,-1762.019645
470.553429,5847.626942,-8512.368333,-1149.143247
470.553751,5107.421000,-9252.574275,-842.705048
470.554074,3849.070898,-10362.883188,-2451.505594
470.554396,2590.720797,-11843.295072,-2528.115143
470.554719,1036.288319,-12805.562797,-1915.238745
470.555041,0.000000,-11843.295072,-1072.533697
470.555364,-370.102971,-10510.924376,-995.924147
470.555687,-74.020594,-9400.615463,-536.266849
470.556009,0.000000,-8290.306550,459.657299
470.556332,148.041188,-6735.874072,459.657299
470.556654,222.061783,-5847.626942,-536.266849
470.556977,592.164754,-5625.565159,-919.314598
470.557300,888.247130,-5773.606348,-612.876398
470.557622,1110.308913,-6735.874072,-995.924147
470.557945,888.247130,-8068.244768,-1608.800546
470.558267,814.226536,-9696.697840,-2221.676944
470.558590,1036.288319,-11177.109724,-2451.505594
470.558913,740.205942,-11843.295072,-2681.334243
470.559235,74.020594,-12139.377449,-2834.553343
470.559558,-1332.370696,-11547.212695,-2834.553343
470.559880,-1776.494261,-11843.295072,-2834.553343
470.560203,-1924.535449,-11547.212695,-2451.505594
470.560526,-2812.782580,-10955.047942,-1991.848295
470.560848,-3034.844362,-10807.006753,-1685.410096
470.561171,-2664.741391,-11251.130318,-766.095498
470.561493,-2072.576638,-10510.924376,76.609550
470.561816,-1702.473667,-9400.615463,536.266849
470.562139,-370.102971,-7994.224174,459.657299
470.562461,1332.370696,-6735.874072,0.000000
470.562784,3775.050304,-5699.585753,-612.876398
470.563106,5255.462188,-5107.421000,-919.314598
470.563429,5847.626942,-4737.318029,-689.485948
470.563752,6513.812290,-5477.523971,-1762.019645
470.564074,6883.915261,-8068.244768,-4136.915689
470.564397,6439.791695,-11473.192101,-4136.915689
470.564719,5255.462188,-13989.892304,-3447.429741
470.565042,2664.741391,-13989.892304,-1991.848295
470.565365,0.000000,-12879.583391,-919.314598
470.565687,-1110.308913,-11695.253884,-842.705048
470.566010,-1924.535449,-10807.006753,-2757.943793
470.566332,-3775.050304,-10066.800811,-2987.772442
470.566655,-5477.523971,-8068.244768,766.095498
470.566978,-6291.750507,-5255.462188,229.828649
470.567300,-4219.173869,-5921.647536,-1532.190996
470.567623,148.041188,-8068.244768,-1149.143247
470.567945,4145.153275,-8068.244768,-2068.457845
470.568268,7402.059420,-9474.636058,-3370.820191
470.568591,10955.047942,-11325.150913,-995.924147
470.568913,13841.851115,-11029.068536,536.266849
470.569236,15322.262999,-9548.656652,-1225.752797
470.569558,15174.221811,-8882.471304,-2834.553343
470.569881,12213.398043,-9252.574275,-1532.190996
470.570204,8142.265362,-10214.842000,-1838.629195
470.570526,3775.050304,-10584.944971,-1455.581446
470.570849,-740.205942,-11695.253884,-842.705048
470.571171,-3108.864956,-12953.603985,-1455.581446
470.571494,-5773.606348,-13249.686362,-1072.533697
470.571816,-7994.224174,-12657.521608,1685.410096
470.572139,-10288.862594,-8956.491898,3907.087040
470.572462,-10510.924376,-3627.009116,2221.676944
470.572784,-7179.997637,-2590.720797,-1378.971896
470.573107,-2886.803174,-3627.009116,-1991.848295
470.573429,1110.308913,-4589.276840,-3217.601092
470.573752,4737.318029,-6957.935855,-3294.210641
470.574075,8882.471304,-10510.924376,-1455.581446
470.574397,11769.274478,-12435.459826,-1378.971896
470.574720,11695.253884,-12435.459826,-2528.115143
470.575042,8734.430116,-12435.459826,-2757.943793
470.575365,5107.421000,-11103.089130,-4136.915689
470.575688,2516.700203,-11399.171507,-6894.859482
470.576010,1036.288319,-10955.047942,-6128.763984
470.576333,-888.247130,-10436.903782,-2374.896044
470.576655,-3627.009116,-12139.377449,1532.190996
470.576977,-6661.853478,-11325.150913,4519.963438
470.577300,-7254.018232,-9696.697840,5286.058936
470.577622,-6217.729913,-7105.977043,459.657299
470.577945,-3849.070898,-7031.956449,-1685.410096
470.578267,592.164754,-7105.977043,-153.219100
470.578590,6143.709319,-4663.297435,766.095498
470.578912,10362.883188,-4441.235652,-919.314598
470.579235,13101.645173,-7179.997637,-919.314598
470.579557,12213.398043,-9918.759623,153.219100
470.579880,7846.182985,-10807.006753,-995.924147
470.580202,1850.514855,-13471.748144,-4519.963438
470.580525,-3034.844362,-15840.407159,-7124.688131
470.580847,-5625.565159,-16654.633695,-6741.640382
470.581170,-7846.182985,-12213.398043,-3140.991542
470.581492,-9474.636058,-6809.894666,-995.924147
470.581815,-7254.018232,-4885.359217,-3753.867940
470.582137,-2812.782580,-6587.832884,-2068.457845
470.582460,-1924.535449,-8438.347739,-612.876398
470.582782,-2738.761985,-9474.636058,2681.334243
470.583105,-3256.906145,-9030.512492,3524.039291
470.583427,0.000000,-6513.812290,-306.438199
470.583750,3775.050304,-4589.276840,-1762.019645
470.584072,5625.565159,-5107.421000,-1532.190996
470.584395,5477.523971,-5329.482782,-1991.848295
470.584717,4811.338623,-9030.512492,-1762.019645
470.585040,5181.441594,-11473.192101,-1608.800546
470.585362,5329.482782,-12879.583391,-3447.429741
470.585685,4959.379811,-14063.912898,-6894.859482
470.586007,3627.009116,-14211.954086,-5745.716235
470.586330,1776.494261,-12879.583391,-1608.800546
470.586652,370.102971,-11325.150913,842.705048
470.586975,-1406.391290,-10214.842000,-995.924147
470.587297,-2664.741391,-10214.842000,-2681.334243
470.587620,-3330.926739,-10658.965565,-1225.752797
470.587942,-3034.844362,-10510.924376,1532.190996
470.588265,-962.267725,-9474.636058,2068.457845
470.588587,1998.556043,-7105.977043,1378.971896
470.588910,4885.359217,-5033.400406,1762.019645
470.589232,6365.771101,-3478.967927,2681.334243
470.589554,5329.482782,-2960.823768,153.219100
470.589877,3627.009116,-4071.132681,-3600.648841
470.590199,2442.679609,-6217.729913,-4290.134789
470.590522,592.164754,-8808.450710,-4060.306139
470.590844,-1332.370696,-11547.212695,-4826.401637
470.591167,-3997.112087,-14359.995275,-5592.497135
470.591489,-5181.441594,-16358.551318,-4749.792088
470.591812,-5107.421000,-15470.304188,-2987.772442
470.592134,-4663.297435,-13693.809927,-3217.601092
470.592457,-5329.482782,-11103.089130,-4749.792088
470.592779,-4441.235652,-9844.739029,-3524.039291
470.593102,-2220.617826,-9548.656652,76.609550
470.593424,1332.370696,-9326.594869,2298.286494
470.593747,4219.173869,-8660.409521,1072.533697
470.594069,5699.585753,-8216.285956,0.000000
470.594392,5107.421000,-8808.450710,3447.429741
470.594714,3478.967927,-7846.182985,6435.202183
470.595037,1924.535449,-4589.276840,3677.258390
470.595359,2072.576638,-4589.276840,-2451.505594
470.595682,3997.112087,-6291.750507,-4366.744339
470.596004,4145.153275,-8660.409521,-2451.505594
470.596327,2220.617826,-9178.553681,306.438199
470.596649,0.000000,-10066.800811,919.314598
470.596972,-296.082377,-11621.233289,-1991.848295
470.597294,-1258.350101,-11325.150913,-4519.963438
470.597617,-4293.194464,-10214.842000,-6971.469032
470.597939,-8808.450710,-9770.718434,-5822.325785
470.598262,-10214.842000,-11103.089130,-3140.991542
470.598584,-8364.327145,-11103.089130,-1608.800546
470.598907,-5181.441594,-10362.883188,-2528.115143
470.599229,-4071.132681,-8734.430116,-3830.477490
470.599552,-2590.720797,-9104.533087,-1685.410096
470.599874,-888.247130,-8734.430116,2068.457845
470.600197,444.123565,-6809.894666,1915.238745
470.600519,1406.391290,-5255.462188,-1225.752797
470.600842,1406.391290,-7328.038826,-2911.162892
470.601164,0.000000,-9474.636058,-536.266849
470.601487,-2368.659014,-10362.883188,1302.362347
470.601809,-2072.576638,-9844.739029,-153.219100
470.602131,1480.411884,-10510.924376,-3370.820191
470.602454,5329.482782,-11769.274478,-3983.696590
470.602776,6957.935855,-11843.295072,-612.876398
470.603099,6291.750507,-10140.821405,1685.410096
470.603421,5329.482782,-9178.553681,842.705048
470.603744,4589.276840,-9178.553681,-919.314598
470.604066,1776.494261,-7846.182985,-2451.505594
470.604389,-2442.679609,-7179.997637,-4673.182538
470.604711,-6809.894666,-8956.491898,-4366.744339
470.605034,-8438.347739,-10584.944971,-1915.238745
470.605356,-7254.018232,-10362.883188,-1072.533697
470.605679,-5403.503377,-9178.553681,-4060.306139
470.606001,-3330.926739,-9030.512492,-5515.887586
470.606324,-3404.947333,-9474.636058,-1838.629195
470.606646,-4145.153275,-7698.141797,0.000000
470.606969,-3627.009116,-7846.182985,-1532.190996
470.607291,-1702.473667,-9326.594869,-4673.182538
470.607614,0.000000,-9918.759623,-7277.907231
470.607936,-666.185348,-11991.336260,-3907.087040
470.608259,-888.247130,-14137.933492,1532.190996
470.608581,370.102971,-12879.583391,3677.258390
470.608904,4885.359217,-9622.677246,842.705048
470.609226,9326.594869,-7031.956449,-1455.581446
470.609549,11029.068536,-6883.915261,-842.705048
470.609871,10214.842000,-7476.080014,1762.019645
470.610194,7772.162391,-5181.441594,4673.182538
470.610516,5403.503377,-4367.215058,3524.039291
470.610839,3701.029710,-6957.935855,-612.876398
470.611161,518.144159,-7920.203579,-2834.553343
470.611484,-4219.173869,-9252.574275,-3830.477490
470.611806,-7105.977043,-10658.965565,-2987.772442
470.612129,-5699.585753,-12953.603985,-3830.477490
470.612451,-3256.906145,-13915.871710,-4903.011187
470.612774,-3552.988522,-11103.089130,-3140.991542
470.613096,-5847.626942,-8068.244768,-2145.067394
470.613419,-7105.977043,-9474.636058,-3217.601092
470.613741,-4441.235652,-12731.542202,-3983.696590
470.614064,-2368.659014,-12065.356855,-5286.058936
470.614386,-2664.741391,-11547.212695,-5362.668486
470.614708,-3108.864956,-12065.356855,-1302.362347
470.615031,-1702.473667,-12287.418637,3524.039291
470.615353,296.082377,-10066.800811,3217.601092
470.615676,2368.659014,-5551.544565,842.705048
470.615998,3849.070898,-3330.926739,-995.924147
470.616321,5255.462188,-5551.544565,-1149.143247
470.616643,5625.565159,-8216.285956,2374.896044
470.616966,4885.359217,-7179.997637,3907.087040
470.617288,3108.864956,-5329.482782,766.095498
470.617611,2294.638420,-7624.121203,-1532.190996
470.617933,0.000000,-9992.780217,-2451.505594
470.618256,-4071.132681,-11251.130318,-3140.991542
470.618578,-8438.347739,-11843.295072,-3600.648841
470.618901,-9474.636058,-12583.501014,-3064.381992
470.619223,-6513.812290,-12287.418637,-3830.477490
470.619546,-3923.091493,-10214.842000,-5515.887586
470.619868,-3404.947333,-8956.491898,-5056.230287
470.620191,-2442.679609,-9622.677246,-2451.505594
470.620513,-296.082377,-10584.944971,76.609550
470.620836,0.000000,-9622.677246,383.047749
470.621158,-2442.679609,-8586.388927,-1532.190996
470.621481,-3923.091493,-8882.471304,-2451.505594
470.621803,-4071.132681,-8956.491898,-1685.410096
470.622126,-2146.597232,-8142.265362,0.000000
470.622448,370.102971,-6439.791695,-229.828649
470.622771,2960.823768,-6439.791695,-1225.752797
470.623093,6217.729913,-7624.121203,0.000000
470.623416,8068.244768,-8882.471304,1762.019645
470.623738,7402.059420,-9326.594869,612.876398
470.624061,6217.729913,-10140.821405,-2221.676944
470.624383,4441.235652,-10362.883188,-2757.943793
470.624706,1776.494261,-10362.883188,-2834.553343
470.625028,-2368.659014,-10584.944971,-2451.505594
470.625351,-4811.338623,-11325.150913,-2374.896044
470.625673,-4737.318029,-11325.150913,-3064.381992
470.625996,-2146.597232,-11103.089130,-4596.572988
470.626318,-592.164754,-10881.027347,-5592.497135
470.626641,-1110.308913,-10807.006753,-2987.772442
470.626963,-1702.473667,-9474.636058,1378.971896
470.627285,-1850.514855,-7105.977043,766.095498
470.627608,-1924.535449,-6809.894666,-3753.867940
470.627930,-1924.535449,-8438.347739,-6128.763984
470.628253,-2886.803174,-9252.574275,-4443.353888
470.628575,-2886.803174,-11103.089130,-766.095498
470.628898,-1924.535449,-11843.295072,2145.067394
470.629220,888.247130,-10436.903782,1455.581446
470.629543,4441.235652,-8660.409521,-1378.971896
470.629865,6439.791695,-7550.100608,-1838.629195
470.630188,6735.874072,-7624.121203,-612.876398
470.630510,5995.668130,-7920.203579,-153.219100
470.630833,5033.400406,-7105.977043,689.485948
470.631155,2812.782580,-6735.874072,-383.047749
470.631478,74.020594,-8734.430116,-2528.115143
470.631800,-2886.803174,-10288.862594,-2681.334243
470.632123,-4885.359217,-11399.171507,-1915.238745
470.632445,-5255.462188,-10807.006753,-1455.581446
470.632768,-4219.173869,-9770.718434,-2528.115143
470.633090,-3182.885551,-9474.636058,-3677.258390
470.633413,-3330.926739,-9178.553681,-2221.676944
470.633735,-3775.050304,-9030.512492,-1072.533697
470.634058,-3923.091493,-9400.615463,-2145.067394
470.634380,-3404.947333,-9770.718434,-2757.943793
470.634703,-4071.132681,-9918.759623,-2604.724693
470.635025,-4885.359217,-11769.274478,-919.314598
470.635348,-4219.173869,-12361.439231,1225.752797
470.635670,-2146.597232,-10732.986159,-612.876398
470.635993,740.205942,-7920.203579,-2068.457845
470.636315,2738.761985,-6883.915261,-1608.800546
470.636638,2886.803174,-7254.018232,153.219100
470.636960,1332.370696,-7920.203579,2834.553343
470.637283,1480.411884,-7846.182985,2757.943793
470.637605,1628.453072,-7698.141797,-1225.752797
470.637928,1554.432478,-7920.203579,-5132.839837
470.638250,-296.082377,-8808.450710,-4673.182538
470.638573,-3034.844362,-9992.780217,-1072.533697
470.638895,-4219.173869,-10510.924376,536.266849
470.639218,-3701.029710,-10436.903782,-1685.410096
470.639540,-2220.617826,-10362.883188,-4903.011187
470.639862,-1406.391290,-11399.171507,-6128.763984
470.640185,-2072.576638,-12805.562797,-3370.820191
470.640507,-2368.659014,-12139.377449,536.266849
470.640830,-740.205942,-9030.512492,1302.362347
470.641152,1036.288319,-6661.853478,-2068.457845
470.641475,1850.514855,-7179.997637,-3524.039291
470.641797,740.205942,-9104.533087,-1838.629195
470.642120,-1258.350101,-9918.759623,766.095498
470.642442,-1036.288319,-10066.800811,1915.238745
470.642765,1554.432478,-8438.347739,0.000000
470.643087,4515.256246,-7920.203579,-2604.724693
470.643410,5847.626942,-7994.224174,-1915.238745
470.643732,5921.647536,-7402.059420,995.924147
470.644055,5033.400406,-6587.832884,1532.190996
470.644377,4737.318029,-7179.997637,-536.266849
470.644700,3552.988522,-7846.182985,-3140.991542
470.645022,592.164754,-9474.636058,-4903.011187
470.645345,-3478.967927,-10881.027347,-4366.744339
470.645667,-5847.626942,-12583.501014,-3294.210641
470.645990,-5329.482782,-13249.686362,-2911.162892
470.646312,-3404.947333,-11917.315666,-5056.230287
470.646635,-2368.659014,-11325.150913,-4519.963438
470.646957,-3034.844362,-10066.800811,-1685.410096
470.647280,-2886.803174,-8808.450710,153.219100
470.647602,-1110.308913,-7550.100608,-1302.362347
470.647925,370.102971,-7920.203579,-3753.867940
470.648247,1554.432478,-8956.491898,-3524.039291
470.648570,0.000000,-10066.800811,-689.485948
470.648892,-2220.617826,-11177.109724,3447.429741
470.649215,-1110.308913,-9770.718434,3677.258390
470.649537,2442.679609,-8364.327145,-1762.019645
470.649860,4811.338623,-8142.265362,-5056.230287
470.650182,5033.400406,-9400.615463,-1378.971896
470.650505,3256.906145,-8290.306550,2451.505594
470.650827,1406.391290,-7328.038826,2911.162892
470.651150,444.123565,-7105.977043,0.000000
470.651472,-296.082377,-7476.080014,-4136.915689
470.651795,-3034.844362,-8290.306550,-6741.640382
470.652117,-7476.080014,-9622.677246,-5056.230287
470.652439,-9844.739029,-11325.150913,-1685.410096
470.652762,-8734.430116,-12287.418637,-1838.629195
470.653084,-5625.565159,-10955.047942,-3524.039291
470.653407,-4219.173869,-9622.677246,-5362.668486
470.653729,-4145.153275,-10288.862594,-4903.011187
470.654052,-3404.947333,-11177.109724,-1072.533697
470.654374,-1628.453072,-9474.636058,842.705048
470.654697,-222.061783,-7105.977043,-1072.533697
470.655019,1406.391290,-7179.997637,-2911.162892
470.655342,1332.370696,-8068.244768,-995.924147
470.655664,592.164754,-10066.800811,1302.362347
470.655987,888.247130,-11103.089130,1608.800546
470.656309,3034.844362,-10732.986159,459.657299
470.656632,5255.462188,-8364.327145,-612.876398
470.656954,5329.482782,-6513.812290,229.828649
470.657277,4071.132681,-7254.018232,1762.019645
470.657599,3404.947333,-7846.182985,1915.238745
470.657922,3404.947333,-7550.100608,-1072.533697
470.658244,2516.700203,-7105.977043,-3524.039291
470.658567,-1332.370696,-8808.450710,-3294.210641
470.658889,-4885.359217,-10732.986159,-1915.238745
470.659212,-7105.977043,-12879.583391,-2374.896044
470.659534,-6809.894666,-12879.583391,-3524.039291
470.659857,-5551.544565,-11251.130318,-5056.230287
470.660179,-5255.462188,-9622.677246,-6052.154434
470.660502,-4737.318029,-9844.739029,-3753.867940
470.660824,-3182.885551,-10214.842000,-766.095498
470.661147,0.000000,-9326.594869,-1455.581446
470.661469,2442.679609,-8142.265362,-3677.258390
470.661792,3330.926739,-9770.718434,-3064.381992
470.662114,2516.700203,-11103.089130,-153.219100
470.662437,1702.473667,-10807.006753,3064.381992
470.662759,1998.556043,-9252.574275,3830.477490
470.663082,3552.988522,-7254.018232,306.438199
470.663404,5551.544565,-7254.018232,-3217.601092
470.663727,5921.647536,-7476.080014,-459.657299
470.664049,4663.297435,-5995.668130,2834.553343
470.664372,3404.947333,-5847.626942,2911.162892
470.664694,3627.009116,-6957.935855,383.047749
470.665016,2146.597232,-7476.080014,-1991.848295
470.665339,-1628.453072,-9030.512492,-4366.744339
470.665661,-5477.523971,-12287.418637,-4903.011187
470.665984,-7846.182985,-13397.727550,-3370.820191
470.666306,-7550.100608,-11917.315666,-3294.210641
470.666629,-5699.585753,-10288.862594,-6741.640382
470.666951,-3849.070898,-10584.944971,-6588.421283
470.667274,-2812.782580,-11991.336260,-4903.011187
470.667596,-1776.494261,-12509.480420,-2757.943793
470.667919,-296.082377,-11621.233289,-1302.362347
470.668241,1924.535449,-10214.842000,-2145.067394
470.668564,3701.029710,-8586.388927,-3140.991542
470.668886,2664.741391,-8956.491898,-689.485948
470.669209,74.020594,-8808.450710,3447.429741
470.669531,-592.164754,-6291.750507,4060.306139
470.669854,1258.350101,-4885.359217,-229.828649
470.670176,3775.050304,-6439.791695,-2528.115143
470.670499,4441.235652,-7772.162391,-459.657299
470.670821,3182.885551,-6291.750507,2528.115143
470.671144,2294.638420,-7476.080014,2681.334243
470.671466,2960.823768,-9696.697840,842.705048
470.671789,2516.700203,-9400.615463,-1915.238745
470.672111,-666.185348,-8586.388927,-4673.182538
470.672434,-5773.606348,-11103.089130,-4826.401637
470.672756,-9622.677246,-13915.871710,-2911.162892
470.673079,-10066.800811,-13841.851115,-3600.648841
470.673401,-8438.347739,-11473.192101,-6205.373534
470.673724,-6291.750507,-10732.986159,-7814.174080
470.674046,-4663.297435,-11843.295072,-5592.497135
470.674369,-2812.782580,-11621.233289,-1225.752797
470.674691,-1406.391290,-10066.800811,229.828649
470.675014,74.020594,-8660.409521,-1762.019645
470.675336,1776.494261,-7846.182985,-2987.772442
470.675659,1850.514855,-8364.327145,-1532.190996
470.675981,-222.061783,-8438.347739,2298.286494
470.676303,-518.144159,-7254.018232,4749.792088
470.676626,2368.659014,-5921.647536,2681.334243
470.676948,7031.956449,-5921.647536,-842.705048
470.677271,8734.430116,-7698.141797,-919.314598
470.677593,7179.997637,-7624.121203,2145.067394
470.677916,4367.215058,-6809.894666,3524.039291
470.678238,2664.741391,-7772.162391,1915.238745
470.678561,2516.700203,-9400.615463,-1532.190996
470.678883,148.041188,-9474.636058,-5056.230287
470.679205,-3849.070898,-10955.047942,-5592.497135
470.679528,-7624.121203,-12213.398043,-1838.629195
470.679850,-7994.224174,-11695.253884,-1149.143247
470.680173,-5995.668130,-10807.006753,-4826.401637
470.680495,-4145.153275,-11029.068536,-7124.688131
470.680818,-4663.297435,-9992.780217,-5898.935335
470.681140,-5403.503377,-9844.739029,-2451.505594
470.681463,-3256.906145,-10214.842000,-1302.362347
470.681785,296.082377,-10140.821405,-2834.553343
470.682107,2664.741391,-9178.553681,-5362.668486
470.682430,3034.844362,-9918.759623,-2451.505594
470.682752,2072.576638,-10510.924376,3217.601092
470.683075,1924.535449,-10362.883188,4596.572988
470.683397,3923.091493,-7550.100608,2068.457845
470.683720,6513.812290,-5625.565159,-842.705048
470.684042,7846.182985,-6069.688724,-2834.553343
470.684365,7328.038826,-8364.327145,-153.219100
470.684687,5403.503377,-8216.285956,3524.039291
470.685009,2664.741391,-6365.771101,2987.772442
470.685332,1776.494261,-6809.894666,-995.924147
470.685654,962.267725,-9622.677246,-4826.401637
470.685977,-2368.659014,-12139.377449,-5669.106685
470.686299,-6957.935855,-12435.459826,-2834.553343
470.686622,-9622.677246,-11917.315666,-612.876398
470.686944,-8290.306550,-11991.336260,-3370.820191
470.687267,-5847.626942,-10807.006753,-7277.907231
470.687589,-5847.626942,-9252.574275,-7048.078582
470.687912,-6439.791695,-9400.615463,-3677.258390
470.688234,-4293.194464,-11843.295072,-1225.752797
470.688556,-1036.288319,-11473.192101,-2451.505594
470.688879,0.000000,-9548.656652,-4443.353888
470.689201,-222.061783,-9252.574275,-1608.800546
470.689524,-962.267725,-10658.965565,2221.676944
470.689846,-592.164754,-8660.409521,3447.429741
470.690169,1332.370696,-5181.441594,766.095498
470.690491,4293.194464,-4441.235652,-2604.724693
470.690814,6661.853478,-6291.750507,-1608.800546
470.691136,6439.791695,-7031.956449,3140.991542
470.691458,3923.091493,-7105.977043,4903.011187
470.691781,3108.864956,-8142.265362,842.705048
470.692103,3182.885551,-9030.512492,-3140.991542
470.692426,1850.514855,-9918.759623,-3907.087040
470.692748,-1850.514855,-11177.109724,-2374.896044
470.693071,-5773.606348,-12287.418637,-919.314598
470.693393,-7328.038826,-12213.398043,-842.705048
470.693716,-6957.935855,-10362.883188,-3370.820191
470.694038,-5921.647536,-9252.574275,-6741.640382
470.694360,-6143.709319,-10807.006753,-7507.735880
470.694683,-6217.729913,-10732.986159,-3447.429741
470.695005,-4219.173869,-10140.821405,-995.924147
470.695328,-1332.370696,-9474.636058,-2604.724693
470.695650,1924.535449,-10066.800811,-4519.963438
470.695973,3256.906145,-10955.047942,-4060.306139
470.696295,2294.638420,-10881.027347,-153.219100
470.696618,1702.473667,-10066.800811,2911.162892
470.696940,2960.823768,-8586.388927,2528.115143
470.697262,5255.462188,-7105.977043,229.828649
470.697585,7328.038826,-6069.688724,-612.876398
470.697907,7920.203579,-6587.832884,0.000000
470.698230,7328.038826,-7550.100608,2298.286494
470.698552,6291.750507,-6513.812290,2681.334243
470.698875,4811.338623,-6809.894666,995.924147
470.699197,3034.844362,-9252.574275,-1838.629195
470.699520,0.000000,-11769.274478,-3064.381992
470.699842,-4737.318029,-11843.295072,-1991.848295
470.700165,-8142.265362,-10881.027347,-1838.629195
470.700487,-7772.162391,-10881.027347,-2987.772442
470.700809,-6069.688724,-10288.862594,-6281.983084
470.701132,-5033.400406,-9474.636058,-6281.983084
470.701454,-4959.379811,-9474.636058,-3753.867940
470.701777,-3330.926739,-11029.068536,-1838.629195
470.702099,-296.082377,-11843.295072,-3524.039291
470.702422,888.247130,-11621.233289,-4749.792088
470.702744,222.061783,-11325.150913,-2374.896044
470.703067,-962.267725,-11029.068536,1685.410096
470.703389,-1036.288319,-9474.636058,2604.724693
470.703711,74.020594,-6143.709319,1149.143247
470.704034,2516.700203,-3923.091493,-2757.943793
470.704356,4219.173869,-4441.235652,-2681.334243
470.704679,3997.112087,-6143.709319,2221.676944
470.705001,3330.926739,-7031.956449,4903.011187
470.705324,3256.906145,-7920.203579,1608.800546
470.705646,3701.029710,-9326.594869,-1991.848295
470.705969,1850.514855,-9696.697840,-2451.505594
470.706291,-2294.638420,-10362.883188,-2374.896044
470.706613,-5477.523971,-12361.439231,-1532.190996
470.706936,-6513.812290,-12879.583391,-2451.505594
470.707258,-7105.977043,-11251.130318,-4443.353888
470.707581,-7179.997637,-10214.842000,-5515.887586
470.707903,-7402.059420,-10066.800811,-5745.716235
470.708226,-6883.915261,-11029.068536,-5056.230287
470.708548,-3923.091493,-11177.109724,-3064.381992
470.708871,-1554.432478,-10214.842000,-3447.429741
470.709193,296.082377,-10288.862594,-4596.572988
470.709515,1184.329507,-11325.150913,-2987.772442
470.709838,518.144159,-11473.192101,536.266849
470.710160,444.123565,-8586.388927,1838.629195
470.710483,2368.659014,-6957.935855,766.095498
470.710805,4737.318029,-6217.729913,-766.095498
470.711128,6143.709319,-5921.647536,-536.266849
470.711450,5773.606348,-5255.462188,2451.505594
470.711773,5033.400406,-5255.462188,3294.210641
470.712095,5551.544565,-6291.750507,1225.752797
470.712417,5477.523971,-7846.182985,-1225.752797
470.712740,3182.885551,-9104.533087,-2681.334243
470.713062,-962.267725,-11991.336260,-2528.115143
470.713385,-4589.276840,-14285.974681,-536.266849
470.713707,-7031.956449,-12583.501014,-459.657299
470.714030,-7254.018232,-9622.677246,-3524.039291
470.714352,-6809.894666,-9030.512492,-6741.640382
470.714675,-5107.421000,-11029.068536,-6741.640382
470.714997,-3478.967927,-11473.192101,-3294.210641
470.715320,-1480.411884,-10288.862594,-1685.410096
470.715642,740.205942,-9622.677246,-3064.381992
470.715964,3404.947333,-11399.171507,-3294.210641
470.716287,4071.132681,-11917.315666,-2451.505594
470.716609,1998.556043,-11029.068536,383.047749
470.716932,370.102971,-9770.718434,3140.991542
470.717254,888.247130,-8142.265362,2068.457845
470.717577,3775.050304,-5847.626942,-383.047749
470.717899,5255.462188,-4145.153275,-766.095498
470.718222,5477.523971,-4515.256246,995.924147
470.718544,5181.441594,-5255.462188,3524.039291
470.718866,4959.379811,-6217.729913,3217.601092
470.719189,3701.029710,-7328.038826,536.266849
470.719511,740.205942,-9622.677246,-2834.553343
470.719834,-3108.864956,-12509.480420,-3983.696590
470.720156,-7328.038826,-13619.789333,-2068.457845
470.720479,-9474.636058,-12139.377449,-1762.019645
470.720801,-8734.430116,-11399.171507,-4903.011187
470.721124,-6883.915261,-11177.109724,-6435.202183
470.721446,-4737.318029,-11029.068536,-5209.449386
470.721768,-4293.194464,-10807.006753,-3064.381992
470.722091,-3034.844362,-11621.233289,-2528.115143
470.722413,-888.247130,-10732.986159,-2221.676944
470.722736,666.185348,-9992.780217,-3600.648841
470.723058,74.020594,-9474.636058,-2757.943793
470.723381,-1480.411884,-9622.677246,536.266849
470.723703,-1998.556043,-8290.306550,2451.505594
470.724026,-222.061783,-6365.771101,1838.629195
470.724348,2368.659014,-5403.503377,-383.047749
470.724670,4145.153275,-5699.585753,-995.924147
470.724993,4293.194464,-5625.565159,766.095498
470.725315,3923.091493,-6513.812290,2528.115143
470.725638,4515.256246,-8586.388927,1532.190996
470.725960,4441.235652,-9104.533087,-1072.533697
470.726283,1036.288319,-8290.306550,-2911.162892
470.726605,-2442.679609,-10362.883188,-3830.477490
470.726928,-5033.400406,-13767.830521,-3907.087040
470.727250,-7105.977043,-14211.954086,-3447.429741
470.727573,-8586.388927,-11251.130318,-3753.867940
470.727895,-7920.203579,-10140.821405,-5439.278036
470.728217,-5921.647536,-11325.150913,-6358.592633
470.728540,-4145.153275,-11325.150913,-4443.353888
470.728862,-1998.556043,-9770.718434,-2374.896044
470.729185,0.000000,-8142.265362,-2757.943793
470.729507,2220.617826,-9104.533087,-2987.772442
470.729830,3256.906145,-10362.883188,-1455.581446
470.730152,1924.535449,-10436.903782,842.705048
470.730475,962.267725,-9474.636058,2604.724693
470.730797,2442.679609,-8364.327145,1991.848295
470.731119,5403.503377,-6439.791695,229.828649
470.731442,7698.141797,-5921.647536,-766.095498
470.731764,7328.038826,-4959.379811,536.266849
470.732087,6365.771101,-5773.606348,3753.867940
470.732409,5181.441594,-6365.771101,3217.601092
470.732732,3997.112087,-7031.956449,-766.095498
470.733054,740.205942,-9326.594869,-4903.011187
470.733377,-3330.926739,-12139.377449,-4903.011187
470.733699,-6883.915261,-14211.954086,-3064.381992
470.734021,-8956.491898,-13397.727550,-1762.019645
470.734344,-8512.368333,-11695.253884,-2451.505594
470.734666,-7031.956449,-10658.965565,-5515.887586
470.734989,-4737.318029,-10584.944971,-6128.763984
470.735311,-3701.029710,-9992.780217,-3524.039291
470.735634,-2146.597232,-10066.800811,-1378.971896
470.735956,0.000000,-11029.068536,-1762.019645
470.736279,2664.741391,-9918.759623,-2451.505594
470.736601,2886.803174,-9548.656652,-1762.019645
470.736923,1184.329507,-9770.718434,995.924147
470.737246,148.041188,-10362.883188,3983.696590
470.737568,814.226536,-7920.203579,3140.991542
470.737891,2960.823768,-4959.379811,-766.095498
470.738213,4219.173869,-4885.359217,-2221.676944
470.738536,4515.256246,-5773.606348,459.657299
470.738858,3404.947333,-6217.729913,2528.115143
470.739181,2516.700203,-6143.709319,1685.410096
470.739503,1554.432478,-7624.121203,-1149.143247
470.739825,0.000000,-10066.800811,-3447.429741
470.740148,-2738.761985,-12805.562797,-4213.525239
470.740470,-6735.874072,-14434.015869,-4136.915689
470.740793,-9104.533087,-14211.954086,-2298.286494
470.741115,-8956.491898,-11621.233289,-2834.553343
470.741438,-7105.977043,-9696.697840,-5439.278036
470.741760,-5551.544565,-9844.739029,-6665.030833
470.742083,-5033.400406,-9622.677246,-4136.915689
470.742405,-3404.947333,-9252.574275,-2068.457845
470.742728,-1332.370696,-8290.306550,-2451.505594
470.743050,592.164754,-9178.553681,-3140.991542
470.743372,1184.329507,-10584.944971,-2681.334243
470.743695,-222.061783,-10214.842000,536.266849
470.744017,-814.226536,-9178.553681,2604.724693
470.744340,1110.308913,-8364.327145,1455.581446
470.744662,4071.132681,-7105.977043,-1072.533697
470.744985,6069.688724,-5181.441594,-766.095498
470.745307,5995.668130,-5255.462188,459.657299
470.745630,5773.606348,-6217.729913,2298.286494
470.745952,6069.688724,-7698.141797,1302.362347
470.746274,5329.482782,-8216.285956,-1225.752797
470.746597,2442.679609,-9178.553681,-3064.381992
470.746919,-1406.391290,-11843.295072,-3447.429741
470.747242,-5477.523971,-14137.933492,-2374.896044
470.747564,-8364.327145,-12435.459826,-1685.410096
470.747887,-9400.615463,-9770.718434,-3983.696590
470.748209,-7994.224174,-8956.491898,-7201.297681
470.748532,-5181.441594,-10732.986159,-7201.297681
470.748854,-3256.906145,-10732.986159,-3753.867940
470.749176,-1480.411884,-10362.883188,-2145.067394
470.749499,962.267725,-10658.965565,-2451.505594
470.749821,3552.988522,-11029.068536,-2451.505594
470.750144,3701.029710,-11177.109724,-1149.143247
470.750466,1702.473667,-10066.800811,306.438199
470.750789,148.041188,-9474.636058,1838.629195
470.751111,1036.288319,-8660.409521,2068.457845
470.751434,3182.885551,-7031.956449,153.219100
470.751756,5551.544565,-5107.421000,0.000000
470.752078,5699.585753,-4145.153275,766.095498
470.752401,5847.626942,-5477.523971,2528.115143
470.752723,5921.647536,-7031.956449,2604.724693
470.753046,4441.235652,-6883.915261,153.219100
470.753368,1184.329507,-8290.306550,-2681.334243
470.753691,-2442.679609,-11399.171507,-3447.429741
470.754013,-5699.585753,-13841.851115,-3217.601092
470.754336,-8438.347739,-13101.645173,-2451.505594
470.754658,-9696.697840,-11695.253884,-3600.648841
470.754981,-9326.594869,-11029.068536,-5592.497135
470.755303,-7402.059420,-11769.274478,-5975.544884
470.755625,-6291.750507,-11029.068536,-3830.477490
470.755948,-5033.400406,-9548.656652,-2374.896044
470.756270,-2220.617826,-9622.677246,-3524.039291
470.756593,888.247130,-10436.903782,-3677.258390
470.756915,2146.597232,-10881.027347,-1608.800546
470.757238,592.164754,-9844.739029,1532.190996
470.757560,148.041188,-8586.388927,3600.648841
470.757883,1258.350101,-7179.997637,2451.505594
470.758205,3627.009116,-6365.771101,-229.828649
470.758527,5255.462188,-5847.626942,-383.047749
470.758850,5551.544565,-4959.379811,689.485948
470.759172,5403.503377,-5551.544565,2451.505594
470.759495,6217.729913,-6883.915261,1838.629195
470.759817,6809.894666,-7772.162391,-459.657299
470.760140,4071.132681,-9474.636058,-2757.943793
470.760462,0.000000,-12065.356855,-2757.943793
470.760785,-4219.173869,-14508.036463,-1915.238745
470.761107,-6661.853478,-14211.954086,-3217.601092
470.761429,-7624.121203,-11547.212695,-4290.134789
470.761752,-8660.409521,-8956.491898,-5515.887586
470.762074,-8660.409521,-9178.553681,-4979.620737
470.762397,-7105.977043,-10214.842000,-3524.039291
470.762719,-5329.482782,-9474.636058,-3217.601092
470.763042,-3034.844362,-8512.368333,-4443.353888
470.763364,-148.041188,-9622.677246,-4443.353888
470.763687,1554.432478,-12139.377449,-2374.896044
470.764009,1554.432478,-12509.480420,766.095498
470.764331,1110.308913,-9178.553681,2757.943793
470.764654,1702.473667,-7550.100608,2145.067394
470.764976,3552.988522,-6217.729913,-536.266849
470.765299,5773.606348,-5551.544565,-2451.505594
470.765621,5995.668130,-5625.565159,-1378.971896
470.765944,5625.565159,-6069.688724,2757.943793
470.766266,6661.853478,-7105.977043,2604.724693
470.766589,7105.977043,-8364.327145,0.000000
470.766911,5033.400406,-9252.574275,-1838.629195
470.767233,1406.391290,-11547.212695,-1991.848295
470.767556,-2812.782580,-13471.748144,-2068.457845
470.767878,-5995.668130,-13915.871710,-2374.896044
470.768201,-8142.265362,-9622.677246,-2221.676944
470.768523,-8734.430116,-7105.977043,-5669.106685
470.768846,-6809.894666,-9696.697840,-7507.735880
470.769168,-4885.359217,-12065.356855,-4519.963438
470.769491,-3478.967927,-11325.150913,-2374.896044
470.769813,-2072.576638,-9770.718434,-3064.381992
470.770136,518.144159,-11029.068536,-3907.087040
470.770458,2220.617826,-12879.583391,-3064.381992
470.770780,740.205942,-11621.233289,-995.924147
470.771103,-2368.659014,-8660.409521,995.924147
470.771425,-2368.659014,-6883.915261,1455.581446
470.771748,1036.288319,-6217.729913,-766.095498
470.772070,3997.112087,-5699.585753,-2221.676944
470.772393,4515.256246,-4959.379811,153.219100
470.772715,4589.276840,-6439.791695,3140.991542
470.773038,5551.544565,-7698.141797,3677.258390
470.773360,6143.709319,-8068.244768,1072.533697
470.773682,3330.926739,-7846.182985,-1532.190996
470.774005,-814.226536,-9474.636058,-1991.848295
470.774327,-3849.070898,-10881.027347,-2374.896044
470.774650,-5847.626942,-11695.253884,-2757.943793
470.774972,-6439.791695,-10510.924376,-3600.648841
470.775295,-6587.832884,-10436.903782,-5515.887586
470.775616,-5699.585753,-12139.377449,-5209.449386
470.775938,-5255.462188,-12361.439231,-2068.457845
470.776260,-5255.462188,-11325.150913,-306.438199
470.776583,-4737.318029,-8882.471304,-3524.039291
470.776905,-2442.679609,-8956.491898,-5975.544884
470.777227,-814.226536,-9992.780217,-4979.620737
470.777550,-962.267725,-10807.006753,-1072.533697
470.777872,-1184.329507,-9918.759623,2757.943793
470.778194,0.000000,-9104.533087,2987.772442
470.778517,3701.029710,-7476.080014,306.438199
470.778839,6735.874072,-7105.977043,-383.047749
470.779161,7328.038826,-6439.791695,766.095498
470.779484,6957.935855,-6291.750507,1302.362347
470.779806,6735.874072,-6735.874072,2221.676944
470.780128,5995.668130,-6365.771101,1455.581446
470.780451,3404.947333,-7402.059420,-2068.457845
470.780773,-444.123565,-10732.986159,-3677.258390
470.781095,-3923.091493,-13693.809927,-2145.067394
470.781418,-5773.606348,-13989.892304,-2451.505594
470.781740,-5551.544565,-12435.459826,-3064.381992
470.782062,-5995.668130,-10881.027347,-5056.230287
470.782385,-5033.400406,-10732.986159,-4749.792088
470.782707,-4663.297435,-9400.615463,-2681.334243
470.783030,-3775.050304,-7698.141797,-2604.724693
470.783352,-2886.803174,-7550.100608,-4213.525239
470.783674,-592.164754,-8808.450710,-5056.230287
470.783997,222.061783,-11843.295072,-4290.134789
470.784319,-296.082377,-13767.830521,-536.266849
470.784641,-592.164754,-12731.542202,3524.039291
470.784964,1332.370696,-10288.862594,2681.334243
470.785286,4219.173869,-6439.791695,-1455.581446
470.785608,5847.626942,-4441.235652,-1225.752797
470.785931,5551.544565,-3775.050304,76.609550
470.786253,4663.297435,-4885.359217,2221.676944
470.786575,5477.523971,-7031.956449,2987.772442
470.786898,4959.379811,-7328.038826,0.000000
470.787220,2664.741391,-8956.491898,-3447.429741
470.787542,148.041188,-12361.439231,-2451.505594
470.787865,-2812.782580,-14285.974681,-306.438199
470.788187,-4737.318029,-12139.377449,-229.828649
470.788509,-5625.565159,-8660.409521,-1915.238745
470.788832,-5033.400406,-7476.080014,-5515.887586
470.789154,-4219.173869,-9252.574275,-5822.325785
470.789476,-4219.173869,-10214.842000,-2374.896044
470.789799,-4811.338623,-8956.491898,-1532.190996
470.790121,-4219.173869,-9252.574275,-1838.629195
470.790443,-2294.638420,-10807.006753,-3600.648841
470.790766,-1480.411884,-11917.315666,-4596.572988
470.791088,-2812.782580,-12953.603985,-2757.943793
470.791411,-2738.761985,-12065.356855,766.095498
470.791733,-666.185348,-8956.491898,1072.533697
470.792055,2664.741391,-6587.832884,-1455.581446
470.792378,4959.379811,-6143.709319,-1762.019645
470.792700,4959.379811,-6883.915261,459.657299
470.793022,3923.091493,-7402.059420,1838.629195
470.793345,4589.276840,-7846.182985,1838.629195
470.793667,4441.235652,-7624.121203,-612.876398
470.793989,3256.906145,-8290.306550,-3217.601092
470.794312,592.164754,-9992.780217,-2221.676944
470.794634,-1776.494261,-11547.212695,-842.705048
470.794956,-2886.803174,-11547.212695,-995.924147
470.795279,-2368.659014,-9474.636058,-2834.553343
470.795601,-2442.679609,-8364.327145,-4903.011187
470.795923,-3182.885551,-9400.615463,-4749.792088
470.796246,-4515.256246,-11473.192101,-2681.334243
470.796568,-4441.235652,-11103.089130,-1838.629195
470.796890,-3478.967927,-8586.388927,-3677.258390
470.797213,-1332.370696,-9400.615463,-6665.030833
470.797535,-370.102971,-11695.253884,-4826.401637
470.797857,-1480.411884,-12731.542202,-766.095498
470.798180,-2294.638420,-11917.315666,2221.676944
470.798502,-740.205942,-9548.656652,1225.752797
470.798824,2590.720797,-7550.100608,-842.705048
470.799147,4515.256246,-5995.668130,-2451.505594
470.799469,4515.256246,-5255.462188,0.000000
470.799792,3997.112087,-5329.482782,2987.772442
470.800114,3923.091493,-5847.626942,3677.258390
470.800436,3775.050304,-5995.668130,1225.752797
470.800759,2368.659014,-7920.203579,-2221.676944
470.801081,-222.061783,-10288.862594,-3524.039291
470.801403,-2368.659014,-12879.583391,-2451.505594
470.801726,-3701.029710,-13101.645173,-536.266849
470.802048,-3775.050304,-10584.944971,-1455.581446
470.802370,-3256.906145,-9992.780217,-3983.696590
470.802693,-3627.009116,-9770.718434,-4903.011187
470.803015,-4737.318029,-10510.924376,-3830.477490
470.803337,-4737.318029,-9770.718434,-2451.505594
470.803660,-3034.844362,-9178.553681,-4060.306139
470.803982,-148.041188,-10288.862594,-5132.839837
470.804304,888.247130,-12065.356855,-3294.210641
470.804627,-148.041188,-13175.665768,536.266849
470.804949,-1110.308913,-11695.253884,3447.429741
470.805271,0.000000,-9252.574275,2145.067394
470.805594,2442.679609,-5921.647536,-1149.143247
470.805916,3701.029710,-4959.379811,-2528.115143
470.806238,3627.009116,-5329.482782,459.657299
470.806561,2960.823768,-6069.688724,2681.334243
470.806883,2368.659014,-6661.853478,2834.553343
470.807205,2516.700203,-7179.997637,383.047749
470.807528,2072.576638,-8142.265362,-3370.820191
470.807850,-666.185348,-10436.903782,-4060.306139
470.808173,-3849.070898,-12065.356855,-1991.848295
470.808495,-5551.544565,-12805.562797,-995.924147
470.808817,-5255.462188,-11325.150913,-2451.505594
470.809140,-3997.112087,-9696.697840,-4903.011187
470.809462,-4145.153275,-9918.759623,-5286.058936
470.809784,-4737.318029,-11399.171507,-3447.429741
470.810107,-4367.215058,-11103.089130,-1149.143247
470.810429,-3404.947333,-9030.512492,-1685.410096
470.810751,-1258.350101,-8142.265362,-4136.915689
470.811074,444.123565,-9030.512492,-4213.525239
470.811396,-222.061783,-10436.903782,-1838.629195
470.811718,-1776.494261,-10658.965565,1838.629195
470.812041,-888.247130,-9474.636058,2451.505594
470.812363,1406.391290,-7328.038826,-612.876398
470.812685,3701.029710,-7476.080014,-2681.334243
470.813008,4367.215058,-7402.059420,-459.657299
470.813330,5255.462188,-8438.347739,1608.800546
470.813652,6217.729913,-8142.265362,1762.019645
470.813975,6957.935855,-7328.038826,0.000000
470.814297,6661.853478,-7476.080014,-2451.505594
470.814619,3849.070898,-10066.800811,-2911.162892
470.814942,-814.226536,-12583.501014,-1838.629195
470.815264,-4589.276840,-13471.748144,-1378.971896
470.815587,-5847.626942,-11769.274478,-2911.162892
470.815909,-4959.379811,-9326.594869,-5286.058936
470.816231,-4145.153275,-8068.244768,-4903.011187
470.816554,-3923.091493,-8882.471304,-3677.258390
470.816876,-3849.070898,-8808.450710,-1225.752797
470.817198,-2368.659014,-7994.224174,-995.924147
470.817521,-518.144159,-7328.038826,-3447.429741
470.817843,0.000000,-9622.677246,-5056.230287
470.818165,-1258.350101,-11917.315666,-3217.601092
470.818488,-2886.803174,-12583.501014,153.219100
470.818810,-2146.597232,-11843.295072,1302.362347
470.819132,518.144159,-9548.656652,-459.657299
470.819455,3552.988522,-7031.956449,-2068.457845
470.819777,4367.215058,-5477.523971,-1302.362347
470.820099,4811.338623,-6143.709319,689.485948
470.820422,4959.379811,-7476.080014,2221.676944
470.820744,5107.421000,-7698.141797,766.095498
470.821066,3849.070898,-6661.853478,-2604.724693
470.821389,592.164754,-8364.327145,-2911.162892
470.821711,-2442.679609,-10955.047942,-1072.533697
470.822033,-4885.359217,-11991.336260,-1225.752797
470.822356,-5181.441594,-11029.068536,-3217.601092
470.822678,-4219.173869,-10214.842000,-4903.011187
470.823000,-2738.761985,-9622.677246,-3677.258390
470.823323,-3108.864956,-10436.903782,-1149.143247
470.823645,-3997.112087,-9548.656652,-612.876398
470.823968,-3182.885551,-9696.697840,-2221.676944
470.824290,-1258.350101,-9474.636058,-4366.744339
470.824612,-1110.308913,-9696.697840,-4749.792088
470.824935,-2516.700203,-11251.130318,-2374.896044
470.825257,-3404.947333,-11991.336260,1685.410096
470.825579,-1776.494261,-10362.883188,1915.238745
470.825902,962.267725,-8512.368333,-459.657299
470.826224,3330.926739,-7402.059420,-1378.971896
470.826546,3775.050304,-7031.956449,-306.438199
470.826869,3552.988522,-6883.915261,995.924147
470.827191,3997.112087,-6587.832884,2374.896044
470.827513,4441.235652,-6439.791695,536.266849
470.827836,3701.029710,-7624.121203,-2528.115143
470.828158,1258.350101,-8734.430116,-2604.724693
470.828480,-2072.576638,-10955.047942,-1378.971896
470.828803,-4219.173869,-13027.624579,-612.876398
470.829125,-3923.091493,-12731.542202,-1838.629195
470.829447,-2960.823768,-11251.130318,-4519.963438
470.829770,-1776.494261,-10362.883188,-5439.278036
470.830092,-1406.391290,-9770.718434,-2451.505594
470.830414,-2368.659014,-7994.224174,-153.219100
470.830737,-1924.535449,-6439.791695,-1532.190996
470.831059,-518.144159,-7624.121203,-4443.353888
470.831381,0.000000,-9844.739029,-4673.182538
470.831704,-1332.370696,-11917.315666,-2911.162892
470.832026,-2442.679609,-12953.603985,995.924147
470.832349,-1480.411884,-11917.315666,2221.676944
470.832671,1924.535449,-9030.512492,-536.266849
470.832993,4293.194464,-5995.668130,-2374.896044
470.833316,3997.112087,-4737.318029,-153.219100
470.833638,3182.885551,-5255.462188,1225.752797
470.833960,2664.741391,-5477.523971,612.876398
470.834283,2664.741391,-6735.874072,-1378.971896
470.834605,1776.494261,-8438.347739,-3370.820191
470.834927,-148.041188,-11325.150913,-3907.087040
470.835250,-3330.926739,-13841.851115,-1608.800546
470.835572,-5329.482782,-13619.789333,612.876398
470.835894,-4811.338623,-11325.150913,-1762.019645
470.836217,-3034.844362,-9474.636058,-5515.887586
470.836539,-2664.741391,-8882.471304,-5515.887586
470.836861,-3404.947333,-8956.491898,-2068.457845
470.837184,-4071.132681,-7846.182985,-995.924147
470.837506,-2664.741391,-7698.141797,-1838.629195
470.837828,-740.205942,-9030.512492,-4136.915689
470.838151,-740.205942,-10881.027347,-4749.792088
470.838473,-2886.803174,-12509.480420,-1762.019645
470.838795,-4293.194464,-12805.562797,1302.362347
470.839118,-2812.782580,-11177.109724,612.876398
470.839440,518.144159,-8364.327145,-2145.067394
470.839763,2442.679609,-6291.750507,-2987.772442
470.840085,2664.741391,-5699.585753,-1149.143247
470.840407,1924.535449,-7031.956449,306.438199
470.840730,2220.617826,-8808.450710,1225.752797
470.841052,2590.720797,-8808.450710,-153.219100
470.841374,2368.659014,-8512.368333,-3677.258390
470.841697,518.144159,-9918.759623,-4443.353888
470.842019,-1184.329507,-12213.398043,-1838.629195
470.842341,-3108.864956,-11917.315666,766.095498
470.842664,-3108.864956,-10362.883188,0.000000
470.842986,-1924.535449,-8290.306550,-2681.334243
470.843308,-666.185348,-8290.306550,-4519.963438
470.843631,-592.164754,-8290.306550,-2757.943793
470.843953,-1110.308913,-9252.574275,0.000000
470.844275,-444.123565,-9104.533087,153.219100
470.844598,1110.308913,-9030.512492,-1455.581446
470.844920,1480.411884,-9696.697840,-2528.115143
470.845242,-296.082377,-10881.027347,-1762.019645
470.845565,-2516.700203,-11029.068536,1532.190996
470.845887,-1628.453072,-10288.862594,1072.533697
470.846209,814.226536,-8512.368333,-689.485948
470.846532,3108.864956,-7031.956449,-2068.457845
470.846854,4293.194464,-6661.853478,-536.266849
470.847176,4145.153275,-7105.977043,1915.238745
470.847499,4367.215058,-7772.162391,1838.629195
470.847821,3849.070898,-8438.347739,-306.438199
470.848144,3034.844362,-8586.388927,-2834.553343
470.848466,888.247130,-10066.800811,-3524.039291
470.848788,-2146.597232,-12731.542202,-2374.896044
470.849111,-4811.338623,-12731.542202,459.657299
470.849433,-4811.338623,-10732.986159,-842.705048
470.849755,-2886.803174,-8734.430116,-4290.134789
470.850078,-1036.288319,-8808.450710,-5209.449386
470.850400,-888.247130,-9400.615463,-3294.210641
470.850722,-1924.535449,-9400.615463,-383.047749
470.851045,-2146.597232,-8660.409521,-229.828649
470.851367,-814.226536,-9696.697840,-2911.162892
470.851689,-148.041188,-11029.068536,-4519.963438
470.852012,-2368.659014,-11621.233289,-2757.943793
470.852334,-4589.276840,-11251.130318,612.876398
470.852656,-3849.070898,-9844.739029,2681.334243
470.852979,-444.123565,-7254.018232,-766.095498
470.853301,2664.741391,-6439.791695,-4290.134789
470.853623,3256.906145,-6809.894666,-2911.162892
470.853946,1998.556043,-7105.977043,383.047749
470.854268,666.185348,-7328.038826,1838.629195
470.854590,592.164754,-8438.347739,-306.438199
470.854913,0.000000,-9030.512492,-3294.210641
470.855235,-2146.597232,-9548.656652,-5132.839837
470.855557,-4811.338623,-10584.944971,-4136.915689
470.855880,-6883.915261,-10955.047942,-1762.019645
470.856202,-5625.565159,-11621.233289,-2604.724693
470.856525,-3627.009116,-11029.068536,-4596.572988
470.856847,-2368.659014,-10658.965565,-4903.011187
470.857169,-3034.844362,-10436.903782,-1915.238745
470.857492,-3404.947333,-9326.594869,-383.047749
470.857814,-2072.576638,-8882.471304,-1378.971896
470.858136,0.000000,-8512.368333,-3677.258390
470.858459,888.247130,-7920.203579,-4290.134789
470.858781,592.164754,-9474.636058,-1762.019645
470.859103,-444.123565,-11473.192101,1915.238745
470.859426,0.000000,-10214.842000,3294.210641
470.859748,1184.329507,-7846.182985,459.657299
470.860070,2960.823768,-6661.853478,-2757.943793
470.860393,4145.153275,-7624.121203,-2298.286494
470.860715,4145.153275,-8512.368333,-536.266849
470.861037,3256.906145,-7476.080014,919.314598
470.861360,3701.029710,-6809.894666,-229.828649
470.861682,3404.947333,-7476.080014,-2451.505594
470.862004,1924.535449,-9548.656652,-3830.477490
470.862327,-1480.411884,-11843.295072,-3217.601092
470.862649,-4663.297435,-12879.583391,-1455.581446
470.862971,-4737.318029,-11695.253884,-1225.752797
470.863294,-3108.864956,-10658.965565,-3677.258390
470.863616,-1850.514855,-9844.739029,-4596.572988
470.863939,-1554.432478,-8734.430116,-1762.019645
470.864261,-2516.700203,-6587.832884,-229.828649
470.864583,-814.226536,-7031.956449,-995.924147
470.864906,1110.308913,-8882.471304,-3140.991542
470.865228,2072.576638,-10214.842000,-4060.306139
470.865550,888.247130,-11991.336260,-2528.115143
470.865873,74.020594,-13323.706956,1455.581446
470.866195,592.164754,-12583.501014,3600.648841
470.866517,2738.761985,-8586.388927,0.000000
470.866840,4737.318029,-6291.750507,-2221.676944
470.867162,5107.421000,-6291.750507,-766.095498
470.867484,4293.194464,-6883.915261,1225.752797
470.867807,3478.967927,-7179.997637,1378.971896
470.868129,3182.885551,-8586.388927,-383.047749
470.868451,2960.823768,-9548.656652,-2528.115143
470.868774,888.247130,-10584.944971,-2757.943793
470.869096,-2886.803174,-11843.295072,-1072.533697
470.869418,-6439.791695,-12509.480420,766.095498
470.869741,-6883.915261,-10436.903782,76.609550
470.870063,-5625.565159,-7550.100608,-4366.744339
470.870385,-4515.256246,-7328.038826,-6665.030833
470.870708,-4885.359217,-8734.430116,-4979.620737
470.871030,-5699.585753,-9104.533087,-919.314598
470.871352,-5403.503377,-8734.430116,459.657299
470.871675,-3404.947333,-9548.656652,-2451.505594
470.871997,-2072.576638,-11399.171507,-4749.792088
470.872320,-2516.700203,-11991.336260,-3830.477490
470.872642,-4367.215058,-11325.150913,-919.314598
470.872964,-4071.132681,-10510.924376,1072.533697
470.873287,-444.123565,-8882.471304,153.219100
470.873609,3182.885551,-5921.647536,-1455.581446
470.873931,5255.462188,-4885.359217,-2451.505594
470.874254,5181.441594,-7031.956449,-1225.752797
470.874576,4885.359217,-9548.656652,1685.410096
470.874898,4589.276840,-9326.594869,842.705048
470.875221,3552.988522,-8512.368333,-1991.848295
470.875543,1406.391290,-9548.656652,-3830.477490
470.875865,-1702.473667,-10584.944971,-2681.334243
470.876188,-4663.297435,-10510.924376,-1762.019645
470.876510,-6365.771101,-9992.780217,-2068.457845
470.876833,-5699.585753,-9696.697840,-4519.963438
470.877155,-4737.318029,-10140.821405,-5592.497135
470.877477,-4071.132681,-10214.842000,-3830.477490
470.877800,-4441.235652,-8660.409521,-229.828649
470.878122,-3923.091493,-7550.100608,-2451.505594
470.878444,-1036.288319,-9178.553681,-4596.572988
470.878767,1554.432478,-11177.109724,-4136.915689
470.879089,1258.350101,-11621.233289,-3140.991542
470.879412,0.000000,-11251.130318,-842.705048
470.879734,740.205942,-11843.295072,2145.067394
470.880056,3701.029710,-9474.636058,1149.143247
470.880379,5995.668130,-6661.853478,-2221.676944
470.880701,6143.709319,-5995.668130,-2145.067394
470.881024,5699.585753,-6661.853478,842.705048
470.881346,5329.482782,-7031.956449,1532.190996
470.881668,5107.421000,-7179.997637,842.705048
470.881991,4737.318029,-7624.121203,-612.876398
470.882313,3330.926739,-9474.636058,-3983.696590
470.882636,444.123565,-11991.336260,-2834.553343
470.882958,-2886.803174,-13101.645173,612.876398
470.883280,-4811.338623,-11399.171507,689.485948
470.883603,-4589.276840,-9844.739029,-2834.553343
470.883925,-3404.947333,-9474.636058,-5515.887586
470.884247,-3034.844362,-9030.512492,-4979.620737
470.884570,-2590.720797,-9252.574275,-3140.991542
470.884892,-1776.494261,-9104.533087,-1915.238745
470.885215,444.123565,-9992.780217,-1149.143247
470.885537,1332.370696,-11177.109724,-1608.800546
470.885859,-518.144159,-11843.295072,-1685.410096
470.886182,-3330.926739,-11695.253884,383.047749
470.886504,-3627.009116,-10140.821405,919.314598
470.886827,-1184.329507,-7179.997637,-612.876398
470.887149,1480.411884,-3923.091493,-1608.800546
470.887471,2812.782580,-3552.988522,-1455.581446
470.887794,2738.761985,-5921.647536,1149.143247
470.888116,2812.782580,-9030.512492,2834.553343
470.888438,2738.761985,-10288.862594,1532.190996
470.888761,1480.411884,-9770.718434,-1915.238745
470.889083,-222.061783,-10658.965565,-3677.258390
470.889406,-3034.844362,-11473.192101,-2451.505594
470.889728,-5403.503377,-11547.212695,-919.314598
470.890050,-6661.853478,-10362.883188,-842.705048
470.890373,-5625.565159,-9918.759623,-3524.039291
470.890695,-2960.823768,-10066.800811,-5362.668486
470.891018,-2442.679609,-10214.842000,-4060.306139
470.891340,-3256.906145,-10214.842000,-1225.752797
470.891662,-2886.803174,-10584.944971,0.000000
470.891985,-592.164754,-10288.862594,-1838.629195
470.892307,666.185348,-9178.553681,-3447.429741
470.892629,-222.061783,-9474.636058,-2298.286494
470.892952,-2072.576638,-9992.780217,536.266849
470.893274,-1776.494261,-9474.636058,1455.581446
470.893597,666.185348,-8068.244768,76.609550
470.893919,3478.967927,-7179.997637,-1455.581446
470.894241,4663.297435,-7179.997637,-1302.362347
470.894564,4145.153275,-7402.059420,536.266849
470.894886,3034.844362,-7105.977043,1991.848295
470.895209,2442.679609,-7402.059420,153.219100
470.895531,1776.494261,-7402.059420,-2298.286494
470.895853,370.102971,-8660.409521,-4060.306139
470.896176,-1924.535449,-10881.027347,-4136.915689
470.896498,-4737.318029,-12139.377449,-2221.676944
470.896820,-5699.585753,-12213.398043,-1072.533697
470.897143,-5181.441594,-10510.924376,-2757.943793
470.897465,-3330.926739,-9326.594869,-5669.106685
470.897788,-2294.638420,-9696.697840,-5822.325785
470.898110,-2294.638420,-9326.594869,-2681.334243
470.898432,-1258.350101,-8956.491898,-1532.190996
470.898755,1554.432478,-9326.594869,-2604.724693
470.899077,3701.029710,-10658.965565,-3370.820191
470.899400,3997.112087,-11917.315666,-1608.800546
470.899722,1702.473667,-11177.109724,1455.581446
470.900044,592.164754,-9770.718434,2834.553343
470.900367,2146.597232,-8068.244768,1225.752797
470.900689,4515.256246,-6217.729913,-2451.505594
470.901012,5477.523971,-4959.379811,-2145.067394
470.901334,4293.194464,-4737.318029,995.924147
470.901656,4071.132681,-6291.750507,2604.724693
470.901979,3997.112087,-7994.224174,1532.190996
470.902301,2960.823768,-8882.471304,-1762.019645
470.902623,740.205942,-10955.047942,-4519.963438
470.902946,-3701.029710,-12879.583391,-4366.744339
470.903268,-7624.121203,-13619.789333,-2451.505594
470.903591,-9918.759623,-12139.377449,-1302.362347
470.903913,-8808.450710,-10214.842000,-4596.572988
470.904235,-6217.729913,-10214.842000,-7431.126331
470.904558,-4663.297435,-9844.739029,-5745.716235
470.904880,-3701.029710,-9992.780217,-2221.676944
470.905203,-1850.514855,-10066.800811,-612.876398
470.905525,888.247130,-10510.924376,-1608.800546
470.905847,2590.720797,-10214.842000,-2834.553343
470.906170,1628.453072,-9992.780217,-1455.581446
470.906492,-1406.391290,-9622.677246,1991.848295
470.906814,-1776.494261,-8660.409521,3600.648841
470.907137,296.082377,-6809.894666,689.485948
470.907459,3108.864956,-5477.523971,-1915.238745
470.907782,4441.235652,-5625.565159,-383.047749
470.908104,4441.235652,-6069.688724,1991.848295
470.908426,4145.153275,-7402.059420,2221.676944
470.908749,3849.070898,-8438.347739,842.705048
470.909071,2738.761985,-8808.450710,-1302.362347
470.909394,148.041188,-9030.512492,-3064.381992
470.909716,-3034.844362,-10807.006753,-3217.601092
470.910038,-5847.626942,-12805.562797,-3370.820191
470.910361,-7846.182985,-12805.562797,-2374.896044
470.910683,-7846.182985,-11177.109724,-3753.867940
470.911005,-6365.771101,-10288.862594,-5515.887586
470.911328,-4885.359217,-10066.800811,-3907.087040
470.911650,-3627.009116,-10510.924376,-2068.457845
470.911973,-2590.720797,-9474.636058,-995.924147
470.912295,-666.185348,-8660.409521,-2451.505594
470.912617,1480.411884,-8808.450710,-3753.867940
470.912940,1924.535449,-9844.739029,-2911.162892
470.913262,814.226536,-10584.944971,76.609550
470.913585,444.123565,-10214.842000,2068.457845
470.913907,1702.473667,-8216.285956,1072.533697
470.914229,4737.318029,-7920.203579,-1149.143247
470.914552,6735.874072,-8512.368333,-1072.533697
470.914874,6587.832884,-7031.956449,612.876398
470.915196,5181.441594,-5847.626942,1762.019645
470.915519,4885.359217,-6883.915261,1455.581446
470.915841,5181.441594,-8586.388927,-766.095498
470.916164,2738.761985,-9474.636058,-2834.553343
470.916486,-1258.350101,-11547.212695,-3830.477490
470.916808,-4959.379811,-13989.892304,-2068.457845
470.917131,-6809.894666,-13619.789333,-919.314598
470.917453,-6883.915261,-10362.883188,-2604.724693
470.917776,-5255.462188,-8734.430116,-5975.544884
470.918098,-4293.194464,-8956.491898,-6358.592633
470.918420,-2664.741391,-9400.615463,-2911.162892
470.918743,-1998.556043,-8438.347739,-1532.190996
470.919065,-592.164754,-9474.636058,-2757.943793
470.919388,814.226536,-11695.253884,-3753.867940
470.919710,444.123565,-12805.562797,-2528.115143
470.920032,-2220.617826,-11251.130318,0.000000
470.920355,-2886.803174,-8956.491898,2681.334243
470.920677,-962.267725,-7402.059420,1378.971896
470.920999,2590.720797,-4811.338623,-2145.067394
470.921322,4737.318029,-3627.009116,-2221.676944
470.921644,4811.338623,-4737.318029,995.924147
470.921967,4737.318029,-6587.832884,2604.724693
470.922289,4959.379811,-7328.038826,1378.971896
470.922611,4663.297435,-8882.471304,-1302.362347
470.922934,2812.782580,-10807.006753,-2298.286494
470.923256,-666.185348,-12139.377449,-2451.505594
470.923579,-3849.070898,-12731.542202,-1762.019645
470.923901,-5699.585753,-11917.315666,-1532.190996
470.924223,-5847.626942,-11103.089130,-3294.210641
470.924546,-5403.503377,-9400.615463,-5362.668486
470.924868,-5033.400406,-8660.409521,-5056.230287
470.925190,-5107.421000,-9400.615463,-3907.087040
470.925513,-3923.091493,-10955.047942,-2145.067394
470.925835,-1998.556043,-11251.130318,-2604.724693
470.926158,-1110.308913,-10881.027347,-3753.867940
470.926480,-1036.288319,-11029.068536,-2834.553343
470.926802,-1036.288319,-11029.068536,0.000000
470.927125,-370.102971,-9474.636058,995.924147
470.927447,1258.350101,-7402.059420,153.219100
470.927770,3404.947333,-6587.832884,-842.705048
470.928092,5773.606348,-6735.874072,-842.705048
470.928414,6513.812290,-6661.853478,919.314598
470.928737,5255.462188,-6143.709319,1762.019645
470.929059,4441.235652,-6365.771101,689.485948
470.929381,4071.132681,-7624.121203,-1072.533697
470.929704,2516.700203,-9326.594869,-2604.724693
470.930026,-1702.473667,-10955.047942,-2757.943793
470.930349,-5551.544565,-12509.480420,-1149.143247
470.930671,-6957.935855,-12953.603985,-689.485948
470.930993,-5921.647536,-11473.192101,-3677.258390
470.931316,-5329.482782,-10288.862594,-5745.716235
470.931638,-4811.338623,-10066.800811,-4366.744339
470.931961,-4441.235652,-9104.533087,-1608.800546
470.932283,-2368.659014,-8586.388927,-1608.800546
470.932605,74.020594,-9326.594869,-3830.477490
470.932928,592.164754,-10066.800811,-4979.620737
470.933250,296.082377,-11917.315666,-3830.477490
470.933572,-814.226536,-12361.439231,-306.438199
470.933895,-592.164754,-11547.212695,2374.896044
470.934217,1258.350101,-8808.450710,1302.362347
470.934540,3478.967927,-6291.750507,-766.095498
470.934862,5255.462188,-5551.544565,-1149.143247
470.935184,5107.421000,-5329.482782,306.438199
470.935507,4737.318029,-5847.626942,2298.286494
470.935829,4737.318029,-5773.606348,2145.067394
470.936152,4737.318029,-6735.874072,-919.314598
470.936474,2812.782580,-9474.636058,-2757.943793
470.936796,-296.082377,-12509.480420,-1838.629195
470.937119,-3997.112087,-13915.871710,306.438199
470.937441,-5403.503377,-12213.398043,536.266849
470.937764,-5329.482782,-10214.842000,-2681.334243
470.938086,-5107.421000,-8956.491898,-4749.792088
470.938408,-5921.647536,-7550.100608,-4060.306139
470.938731,-5625.565159,-8364.327145,-2911.162892
470.939053,-3552.988522,-9400.615463,-3140.991542
470.939375,-1332.370696,-10362.883188,-3140.991542
470.939698,-1184.329507,-10584.944971,-3447.429741
470.940020,-2368.659014,-11769.274478,-3140.991542
470.940343,-3997.112087,-12583.501014,-995.924147
470.940665,-3478.967927,-11695.253884,306.438199
470.940987,-1332.370696,-9104.533087,-1072.533697
470.941310,1332.370696,-5995.668130,-1915.238745
470.941632,3478.967927,-4515.256246,-1302.362347
470.941955,4737.318029,-5403.503377,689.485948
470.942277,5403.503377,-7105.977043,2528.115143
470.942599,5625.565159,-7476.080014,1838.629195
470.942922,4737.318029,-7254.018232,-766.095498
470.943244,3330.926739,-8882.471304,-3294.210641
470.943566,74.020594,-11695.253884,-2374.896044
470.943889,-3404.947333,-13323.706956,-306.438199
470.944211,-5625.565159,-12953.603985,-459.657299
470.944534,-5847.626942,-10658.965565,-3140.991542
470.944856,-4811.338623,-8734.430116,-5975.544884
470.945178,-4071.132681,-8364.327145,-5362.668486
470.945501,-4071.132681,-9252.574275,-2451.505594
470.945823,-3182.885551,-10140.821405,-1378.971896
470.946146,-1258.350101,-10658.965565,-2528.115143
470.946468,444.123565,-10807.006753,-4519.963438
470.946790,0.000000,-11547.212695,-4519.963438
470.947113,-888.247130,-11917.315666,-2451.505594
470.947435,-888.247130,-11325.150913,919.314598
470.947757,1258.350101,-8956.491898,1608.800546
470.948080,4293.194464,-6291.750507,-383.047749
470.948402,5921.647536,-5255.462188,-1149.143247
470.948725,5033.400406,-4811.338623,383.047749
470.949047,4145.153275,-5033.400406,1685.410096
470.949369,4293.194464,-6217.729913,689.485948
470.949692,5403.503377,-6883.915261,-1685.410096
470.950014,4145.153275,-8734.430116,-3907.087040
470.950337,666.185348,-11621.233289,-2528.115143
470.950659,-3552.988522,-13619.789333,612.876398
470.950981,-5773.606348,-13101.645173,229.828649
470.951304,-5181.441594,-10732.986159,-4213.525239
470.951626,-3478.967927,-9918.759623,-7354.516781
470.951949,-2442.679609,-10288.862594,-6052.154434
470.952271,-2220.617826,-10140.821405,-2451.505594
470.952593,-1184.329507,-10140.821405,-306.438199
470.952916,592.164754,-10658.965565,-919.314598
470.953238,2072.576638,-10584.944971,-2451.505594
470.953560,814.226536,-10658.965565,-2834.553343
470.953883,-2294.638420,-11177.109724,-612.876398
470.954205,-3775.050304,-10510.924376,2528.115143
470.954528,-2368.659014,-7846.182985,2145.067394
470.954850,296.082377,-3997.112087,0.000000
470.955172,1702.473667,-2886.803174,-1838.629195
470.955495,2294.638420,-4367.215058,0.000000
470.955817,1998.556043,-6365.771101,1302.362347
470.956140,2072.576638,-8142.265362,536.266849
470.956462,1628.453072,-9992.780217,-1455.581446
470.956784,0.000000,-12509.480420,-3830.477490
470.957107,-3034.844362,-14137.933492,-3294.210641
470.957429,-6069.688724,-14359.995275,-2145.067394
470.957751,-7402.059420,-12953.603985,-2221.676944
470.958074,-5921.647536,-10955.047942,-4519.963438
470.958396,-3997.112087,-9104.533087,-5515.887586
470.958719,-3330.926739,-8068.244768,-3677.258390
470.959041,-3330.926739,-7624.121203,-689.485948
470.959363,-1924.535449,-8734.430116,153.219100
470.959686,74.020594,-9030.512492,-1225.752797
470.960008,962.267725,-8882.471304,-2451.505594
470.960331,0.000000,-9548.656652,-1762.019645
470.960653,-2220.617826,-9770.718434,2068.457845
470.960975,-2146.597232,-9474.636058,3064.381992
470.961298,0.000000,-8068.244768,459.657299
470.961620,2664.741391,-6661.853478,-2221.676944
470.961942,3552.988522,-6143.709319,-1455.581446
470.962265,3478.967927,-6365.771101,153.219100
470.962587,3330.926739,-7698.141797,919.314598
470.962910,3775.050304,-9252.574275,-612.876398
470.963232,3330.926739,-9844.739029,-2987.772442
470.963554,666.185348,-10288.862594,-3830.477490
470.963877,-2960.823768,-11991.336260,-2528.115143
470.964199,-5329.482782,-13027.624579,-1532.190996
470.964522,-6069.688724,-11547.212695,-2604.724693
470.964844,-5107.421000,-8956.491898,-4366.744339
470.965166,-3627.009116,-7698.141797,-4136.915689
470.965489,-2590.720797,-7254.018232,-3983.696590
470.965811,-1702.473667,-8142.265362,-2604.724693
470.966133,0.000000,-8808.450710,-1532.190996
470.966456,1850.514855,-9252.574275,-2757.943793
470.966778,3034.844362,-10214.842000,-4596.572988
470.967101,2294.638420,-12139.377449,-3447.429741
470.967423,888.247130,-13545.768739,-229.828649
470.967745,666.185348,-12213.398043,536.266849
470.968068,2220.617826,-9474.636058,-306.438199
470.968390,4737.318029,-7402.059420,-1608.800546
470.968713,5995.668130,-7031.956449,-1532.190996
470.969035,5403.503377,-6957.935855,-306.438199
470.969357,4441.235652,-7179.997637,2681.334243
470.969680,4737.318029,-6809.894666,2374.896044
470.970002,5551.544565,-6957.935855,-1762.019645
470.970325,3775.050304,-8438.347739,-3830.477490
470.970647,0.000000,-10807.006753,-995.924147
470.970969,-4737.318029,-12805.562797,0.000000
470.971292,-6809.894666,-12139.377449,-306.438199
470.971614,-6143.709319,-10658.965565,-3140.991542
470.971936,-5551.544565,-8734.430116,-6741.640382
470.972259,-5625.565159,-8586.388927,-7354.516781
470.972581,-5847.626942,-10510.924376,-2911.162892
470.972904,-5181.441594,-10510.924376,-1455.581446
470.973226,-3034.844362,-11029.068536,-3447.429741
470.973548,-1480.411884,-11325.150913,-4366.744339
470.973871,-1332.370696,-11695.253884,-3294.210641
470.974193,-3108.864956,-11029.068536,-995.924147
470.974516,-3552.988522,-10510.924376,1455.581446
470.974838,-1480.411884,-9474.636058,2298.286494
470.975160,1628.453072,-6439.791695,229.828649
470.975483,3034.844362,-3330.926739,-229.828649
470.975805,3997.112087,-3775.050304,1072.533697
470.976128,4219.173869,-6069.688724,1455.581446
470.976450,4959.379811,-7920.203579,1149.143247
470.976772,4959.379811,-7846.182985,-842.705048
470.977095,3182.885551,-9400.615463,-1762.019645
470.977417,814.226536,-11843.295072,-1378.971896
470.977740,-3108.864956,-13101.645173,0.000000
470.978062,-5699.585753,-12435.459826,-842.705048
470.978384,-5181.441594,-10436.903782,-3447.429741
470.978707,-3849.070898,-9844.739029,-6128.763984
470.979029,-3552.988522,-9252.574275,-4826.401637
470.979352,-4441.235652,-8364.327145,-995.924147
470.979674,-4811.338623,-8216.285956,459.657299
470.979996,-3701.029710,-9326.594869,-2145.067394
470.980319,-1998.556043,-10214.842000,-4519.963438
470.980641,-2664.741391,-10140.821405,-5132.839837
470.980964,-4145.153275,-10584.944971,-1991.848295
470.981286,-3923.091493,-10436.903782,2298.286494
470.981608,-592.164754,-9770.718434,1532.190996
470.981931,3182.885551,-6957.935855,-2221.676944
470.982253,5181.441594,-6291.750507,-3524.039291
470.982576,5255.462188,-7328.038826,-1225.752797
470.982898,5181.441594,-8068.244768,1225.752797
470.983220,4959.379811,-7476.080014,1302.362347
470.983543,4885.359217,-7476.080014,-1225.752797
470.983865,4589.276840,-9326.594869,-4290.134789
470.984188,2738.761985,-11769.274478,-3830.477490
470.984510,-444.123565,-13397.727550,-459.657299
470.984832,-1850.514855,-13101.645173,1378.971896
470.985155,-1628.453072,-10658.965565,-536.266849
470.985477,-592.164754,-8068.244768,-3524.039291
470.985800,-296.082377,-7476.080014,-4213.525239
470.986122,-1332.370696,-8142.265362,-2528.115143
470.986444,-1480.411884,-8808.450710,-1378.971896
470.986767,-296.082377,-9178.553681,-2757.943793
470.987089,1036.288319,-10066.800811,-4443.353888
470.987412,814.226536,-11991.336260,-3447.429741
470.987734,-888.247130,-13323.706956,-919.314598
470.988056,-2738.761985,-12287.418637,306.438199
470.988379,-2368.659014,-10214.842000,-383.047749
470.988701,-888.247130,-7772.162391,-1915.238745
470.989024,592.164754,-6439.791695,-2528.115143
470.989346,444.123565,-6291.750507,-689.485948
470.989669,148.041188,-5181.441594,1532.190996
470.989991,2072.576638,-5403.503377,229.828649
470.990313,3552.988522,-7105.977043,-1991.848295
470.990636,3034.844362,-8660.409521,-2757.943793
470.990958,74.020594,-10881.027347,-1455.581446
470.991281,-3108.864956,-12583.501014,383.047749
470.991603,-4367.215058,-13027.624579,76.609550
470.991925,-3849.070898,-10955.047942,-2068.457845
470.992248,-2812.782580,-9104.533087,-5209.449386
470.992570,-2442.679609,-8438.347739,-4596.572988
470.992893,-2516.700203,-8586.388927,-766.095498
470.993215,-3034.844362,-7994.224174,995.924147
470.993537,-1850.514855,-8586.388927,-1225.752797
470.993860,-740.205942,-10066.800811,-4366.744339
470.994182,-1702.473667,-11473.192101,-4673.182538
470.994505,-3997.112087,-11621.233289,-1991.848295
470.994827,-5033.400406,-11325.150913,2221.676944
470.995149,-3478.967927,-9992.780217,1838.629195
470.995472,-1258.350101,-7402.059420,-1991.848295
470.995794,740.205942,-5921.647536,-2757.943793
470.996117,1480.411884,-6439.791695,-306.438199
470.996439,2146.597232,-6957.935855,0.000000
470.996761,3404.947333,-8290.306550,-612.876398
470.997084,4737.318029,-8882.471304,-2374.896044
470.997406,3627.009116,-9918.759623,-2911.162892
470.997729,444.123565,-11325.150913,-2145.067394
470.998051,-2960.823768,-12065.356855,-919.314598
470.998373,-4737.318029,-11769.274478,-2221.676944
470.998696,-2960.823768,-11621.233289,-4903.011187
470.999018,-2368.659014,-10584.944971,-5132.839837
470.999341,-2516.700203,-9844.739029,-1915.238745
470.999663,-2960.823768,-8290.306550,459.657299
470.999985,-1332.370696,-6365.771101,-536.266849
471.000308,1036.288319,-7254.018232,-2451.505594
471.000630,2590.720797,-8512.368333,-3830.477490
471.000953,1480.411884,-9770.718434,-3064.381992
471.001275,-814.226536,-11473.192101,-459.657299
471.001598,-1184.329507,-12139.377449,2145.067394
471.001920,592.164754,-10658.965565,1225.752797
471.002242,3182.885551,-8586.388927,-2298.286494
471.002565,4145.153275,-7328.038826,-2757.943793
471.002887,3627.009116,-7105.977043,-612.876398
471.003210,2812.782580,-7105.977043,1608.800546
471.003532,2886.803174,-6957.935855,1225.752797
471.003854,2886.803174,-7105.977043,-1455.581446
471.004177,2516.700203,-8956.491898,-5286.058936
471.004499,0.000000,-11177.109724,-4443.353888
471.004822,-3478.967927,-13175.665768,-1149.143247
471.005144,-5329.482782,-12657.521608,1072.533697
471.005466,-4959.379811,-9770.718434,-1378.971896
471.005789,-3108.864956,-8364.327145,-4749.792088
471.006111,-1332.370696,-8068.244768,-5056.230287
471.006434,-1184.329507,-8364.327145,-2604.724693
471.006756,-740.205942,-8586.388927,-536.266849
471.007078,1258.350101,-9104.533087,689.485948
471.007401,2886.803174,-9030.512492,-1455.581446
471.007723,1628.453072,-10066.800811,-2604.724693
471.008046,-1406.391290,-11991.336260,-1302.362347
471.008368,-3627.009116,-12435.459826,919.314598
471.008690,-3552.988522,-10584.944971,766.095498
471.009013,-592.164754,-7698.141797,-1225.752797
471.009335,1776.494261,-6217.729913,-2221.676944
471.009658,2146.597232,-6661.853478,-1225.752797
471.009980,2516.700203,-7846.182985,306.438199
471.010302,2812.782580,-8882.471304,842.705048
471.010625,3108.864956,-9844.739029,-1072.533697
471.010947,2368.659014,-10140.821405,-3140.991542
471.011270,-444.123565,-11621.233289,-2298.286494
471.011592,-3701.029710,-12213.398043,-612.876398
471.011914,-5107.421000,-12139.377449,-919.314598
471.012237,-4367.215058,-10510.924376,-2911.162892
471.012559,-2220.617826,-8956.491898,-5439.278036
471.012882,-1702.473667,-8438.347739,-4290.134789
471.013204,-2368.659014,-8216.285956,-229.828649
471.013527,-3256.906145,-8216.285956,1762.019645
471.013849,-3034.844362,-7846.182985,-306.438199
471.014171,-2442.679609,-8438.347739,-4443.353888
471.014494,-2960.823768,-10658.965565,-5132.839837
471.014816,-4737.318029,-11621.233289,-2911.162892
471.015139,-5033.400406,-11769.274478,536.266849
471.015461,-2812.782580,-10955.047942,1838.629195
471.015783,888.247130,-9548.656652,-842.705048
471.016106,3404.947333,-7994.224174,-2298.286494
471.016428,3701.029710,-6809.894666,-1225.752797
471.016751,3182.885551,-6809.894666,459.657299
471.017073,3849.070898,-7328.038826,153.219100
471.017395,5181.441594,-7254.018232,-995.924147
471.017718,4589.276840,-7698.141797,-2298.286494
471.018040,1776.494261,-8956.491898,-2451.505594
471.018363,-740.205942,-11251.130318,-995.924147
471.018685,-2146.597232,-12213.398043,0.000000
471.019007,-2072.576638,-11029.068536,-1762.019645
471.019330,-1850.514855,-10066.800811,-3064.381992
471.019652,-2072.576638,-9696.697840,-2604.724693
471.019975,-2368.659014,-8364.327145,-995.924147
471.020297,-2516.700203,-7105.977043,-1225.752797
471.020619,-666.185348,-7698.141797,-2681.334243
471.020942,1628.453072,-8882.471304,-4290.134789
471.021264,2146.597232,-9474.636058,-5132.839837
471.021587,-444.123565,-11991.336260,-2221.676944
471.021909,-2146.597232,-14359.995275,2068.457845
471.022231,-1702.473667,-12879.583391,612.876398
471.022554,148.041188,-9178.553681,-3140.991542
471.022876,2072.576638,-6883.915261,-3600.648841
471.023199,2886.803174,-7550.100608,-2528.115143
471.023521,3034.844362,-7031.956449,459.657299
471.023843,3701.029710,-5995.668130,2068.457845
471.024166,4737.318029,-5995.668130,0.000000
471.024488,4885.359217,-7550.100608,-3524.039291
471.024811,2368.659014,-11029.068536,-3677.258390
471.025133,-2294.638420,-13397.727550,-995.924147
471.025456,-5477.523971,-13767.830521,919.314598
471.025778,-5773.606348,-11547.212695,-766.095498
471.026100,-3923.091493,-8586.388927,-3140.991542
471.026423,-2664.741391,-7031.956449,-4673.182538
471.026745,-2294.638420,-8142.265362,-3064.381992
471.027068,-962.267725,-9770.718434,0.000000
471.027390,296.082377,-9474.636058,766.095498
471.027712,592.164754,-9474.636058,-1532.190996
471.028035,-518.144159,-10362.883188,-2145.067394
471.028357,-3034.844362,-11991.336260,-1685.410096
471.028680,-5181.441594,-11325.150913,-229.828649
471.029002,-4959.379811,-8882.471304,0.000000
471.029324,-2368.659014,-6883.915261,-459.657299
471.029647,444.123565,-6143.709319,-1532.190996
471.029969,2220.617826,-5773.606348,-612.876398
471.030292,2368.659014,-7550.100608,1072.533697
471.030614,3775.050304,-9252.574275,612.876398
471.030936,5403.503377,-9918.759623,-1991.848295
471.031259,4515.256246,-9622.677246,-2604.724693
471.031581,370.102971,-9474.636058,-995.924147
471.031904,-3701.029710,-10066.800811,229.828649
471.032226,-6217.729913,-10214.842000,-1378.971896
471.032548,-6513.812290,-9548.656652,-4060.306139
471.032871,-4589.276840,-9400.615463,-6205.373534
471.033193,-3034.844362,-9992.780217,-4903.011187
471.033516,-1998.556043,-11177.109724,-1149.143247
471.033838,-962.267725,-10732.986159,2604.724693
471.034160,-814.226536,-8734.430116,919.314598
471.034483,-814.226536,-7476.080014,-3217.601092
471.034805,-1776.494261,-8290.306550,-5132.839837
471.035128,-3330.926739,-9844.739029,-4519.963438
471.035450,-5477.523971,-10955.047942,-766.095498
471.035772,-4441.235652,-10807.006753,1915.238745
471.036095,-740.205942,-10214.842000,995.924147
471.036417,2812.782580,-8438.347739,-919.314598
471.036740,4737.318029,-7179.997637,-1532.190996
471.037062,5181.441594,-7698.141797,-1302.362347
471.037384,4885.359217,-8216.285956,-229.828649
471.037707,4145.153275,-7846.182985,536.266849
471.038029,2072.576638,-7031.956449,-995.924147
471.038352,-1184.329507,-8290.306550,-3753.867940
471.038674,-5255.462188,-11547.212695,-4979.620737
471.038997,-8808.450710,-12509.480420,-2834.553343
471.039319,-9622.677246,-10955.047942,-2987.772442
471.039641,-7476.080014,-10436.903782,-4673.182538
471.039964,-4071.132681,-11103.089130,-5209.449386
471.040286,-3404.947333,-11769.274478,-2681.334243
471.040609,-4219.173869,-9696.697840,229.828649
471.040931,-4145.153275,-6661.853478,-153.219100
471.041253,-2072.576638,-5255.462188,-3370.820191
471.041576,-518.144159,-7031.956449,-5362.668486
471.041898,-1258.350101,-9252.574275,-3677.258390
471.042221,-4219.173869,-11251.130318,-383.047749
471.042543,-4885.359217,-12509.480420,2681.334243
471.042865,-3330.926739,-11843.295072,2681.334243
471.043188,-666.185348,-8660.409521,-766.095498
471.043510,1924.535449,-6217.729913,-4366.744339
471.043833,2368.659014,-5773.606348,-2374.896044
471.044155,2886.803174,-8068.244768,1225.752797
471.044477,2886.803174,-7920.203579,2451.505594
471.044800,1924.535449,-6809.894666,-229.828649
471.045122,74.020594,-8068.244768,-3677.258390
471.045445,-1480.411884,-10658.965565,-4366.744339
471.045767,-4737.318029,-12213.398043,-3524.039291
471.046089,-6957.935855,-12583.501014,-2834.553343
471.046412,-7994.224174,-11843.295072,-2374.896044
471.046734,-7550.100608,-10658.965565,-2451.505594
471.047057,-7920.203579,-8364.327145,-3294.210641
471.047379,-7105.977043,-8808.450710,-5056.230287
471.047701,-5625.565159,-9474.636058,-4366.744339
471.048024,-4959.379811,-8734.430116,-2145.067394
471.048346,-4219.173869,-7994.224174,-536.266849
471.048669,-2590.720797,-8956.491898,-1685.410096
471.048991,-1258.350101,-9104.533087,-2145.067394
471.049313,-296.082377,-9622.677246,-2987.772442
471.049636,-1036.288319,-10140.821405,-1838.629195
471.049958,-2146.597232,-10288.862594,842.705048
471.050281,-1480.411884,-10214.842000,842.705048
471.050603,148.041188,-10436.903782,-1225.752797
471.050926,1036.288319,-11029.068536,-842.705048
471.051248,444.123565,-10881.027347,612.876398
471.051570,-740.205942,-8660.409521,689.485948
471.051893,-962.267725,-6439.791695,-153.219100
471.052215,-592.164754,-5847.626942,-842.705048
471.052538,-222.061783,-6069.688724,-2068.457845
471.052860,-1036.288319,-7254.018232,-3217.601092
471.053182,-1850.514855,-9178.553681,-2451.505594
471.053505,-1850.514855,-11103.089130,-995.924147
471.053827,-2146.597232,-11177.109724,-612.876398
471.054150,-2960.823768,-9474.636058,-1685.410096
471.054472,-3552.988522,-9326.594869,-4213.525239
471.054794,-3330.926739,-11325.150913,-5209.449386
471.055117,-4145.153275,-13027.624579,-2451.505594
471.055439,-6217.729913,-10658.965565,306.438199
471.055762,-8438.347739,-8142.265362,842.705048
471.056084,-7550.100608,-7179.997637,-1915.238745
471.056406,-4737.318029,-8290.306550,-3064.381992
471.056729,-2146.597232,-8364.327145,-2987.772442
471.057051,-666.185348,-8586.388927,-1991.848295
471.057374,370.102971,-8660.409521,766.095498
471.057696,2812.782580,-9030.512492,4443.353888
471.058018,5773.606348,-6513.812290,2987.772442
471.058341,6735.874072,-6291.750507,-2604.724693
471.058663,5477.523971,-9622.677246,-4673.182538
471.058986,3182.885551,-12509.480420,-842.705048
471.059308,-888.247130,-10510.924376,229.828649
471.059630,-5033.400406,-10436.903782,-459.657299
471.059953,-7920.203579,-12953.603985,-1302.362347
471.060275,-10362.883188,-12213.398043,-2068.457845
471.060598,-12361.439231,-9474.636058,-4366.744339
471.060920,-14359.995275,-7476.080014,-4213.525239
471.061242,-12065.356855,-8734.430116,-1915.238745
471.061565,-8142.265362,-7179.997637,-1915.238745
471.061887,-3997.112087,-5181.441594,-2528.115143
471.062210,-1258.350101,-3849.070898,-1991.848295
471.062532,1554.432478,-5551.544565,-1838.629195
471.062855,2738.761985,-8216.285956,-2451.505594
471.063177,2664.741391,-10658.965565,-2604.724693
471.063499,1776.494261,-12509.480420,-3753.867940
471.063822,1554.432478,-13841.851115,-3677.258390
471.064144,1036.288319,-13989.892304,-2374.896044
471.064467,-370.102971,-12139.377449,-1762.019645
471.064789,-2886.803174,-9474.636058,-1915.238745
471.065111,-4737.318029,-8512.368333,-1378.971896
471.065434,-7031.956449,-7920.203579,-536.266849
471.065756,-8290.306550,-8068.244768,-919.314598
471.066079,-9178.553681,-7994.224174,-2757.943793
471.066401,-7105.977043,-9400.615463,-2298.286494
471.066723,-4367.215058,-10436.903782,-459.657299
471.067046,-1480.411884,-9252.574275,1378.971896
471.067368,592.164754,-7698.141797,1838.629195
471.067691,2368.659014,-6513.812290,1072.533697
471.068013,4811.338623,-6809.894666,-2068.457845
471.068335,6069.688724,-6957.935855,-3370.820191
471.068658,5921.647536,-7772.162391,-4673.182538
471.068980,4441.235652,-9178.553681,-4443.353888
471.069303,2812.782580,-11029.068536,-2757.943793
471.069625,74.020594,-12213.398043,-2145.067394
471.069947,-3182.885551,-14285.974681,-1762.019645
471.070270,-6661.853478,-14878.139434,-2451.505594
471.070592,-8956.491898,-13915.871710,-3294.210641
471.070915,-10066.800811,-11251.130318,-3600.648841
471.071237,-8438.347739,-8956.491898,-3064.381992
471.071559,-6735.874072,-6291.750507,-1455.581446
471.071882,-4737.318029,-5847.626942,-842.705048
471.072204,-2590.720797,-4367.215058,229.828649
471.072527,-962.267725,-3849.070898,-306.438199
471.072849,-888.247130,-5699.585753,-1762.019645
471.073171,-1702.473667,-8438.347739,-2068.457845
471.073494,-2516.700203,-11399.171507,-1991.848295
471.073816,-2886.803174,-12361.439231,-2681.334243
471.074139,-2516.700203,-13175.665768,-2757.943793
471.074461,-1924.535449,-12287.418637,-2221.676944
471.074784,-370.102971,-10807.006753,-2221.676944
471.075106,148.041188,-9548.656652,-1838.629195
471.075428,0.000000,-9622.677246,-842.705048
471.075751,-814.226536,-10214.842000,0.000000
471.076073,-1702.473667,-8956.491898,-459.657299
471.076396,-2590.720797,-7105.977043,-1149.143247
471.076718,-3108.864956,-6217.729913,-766.095498
471.077040,-3182.885551,-5773.606348,-383.047749
471.077363,-3404.947333,-5403.503377,0.000000
471.077685,-4219.173869,-5181.441594,-1072.533697
471.078008,-4219.173869,-6661.853478,-1991.848295
471.078330,-4293.194464,-8734.430116,-2451.505594
471.078652,-4737.318029,-10362.883188,-3753.867940
471.078975,-5181.441594,-11621.233289,-4136.915689
471.079297,-5625.565159,-13101.645173,-4136.915689
471.079620,-5625.565159,-14063.912898,-3677.258390
471.079942,-5477.523971,-13767.830521,-3370.820191
471.080265,-5107.421000,-12657.521608,-4060.306139
471.080587,-4145.153275,-11843.295072,-3830.477490
471.080910,-2368.659014,-11103.089130,-2298.286494
471.081232,-1554.432478,-9104.533087,-842.705048
471.081555,-814.226536,-7624.121203,153.219100
471.081877,148.041188,-6883.915261,842.705048
471.082199,1258.350101,-6217.729913,383.047749
471.082522,1332.370696,-5181.441594,-459.657299
471.082844,1110.308913,-5773.606348,-383.047749
471.083167,814.226536,-7550.100608,76.609550
471.083489,740.205942,-9104.533087,536.266849
471.083812,1110.308913,-9992.780217,-612.876398
471.084134,814.226536,-11473.192101,-1072.533697
471.084457,74.020594,-12657.521608,-1149.143247
471.084779,-740.205942,-12213.398043,-689.485948
471.085102,-1702.473667,-11251.130318,-995.924147
471.085424,-2442.679609,-10436.903782,-1455.581446
471.085746,-2812.782580,-9622.677246,-1532.190996
471.086069,-2960.823768,-9252.574275,-1838.629195
471.086391,-3627.009116,-8586.388927,-1149.143247
471.086714,-3478.967927,-8734.430116,0.000000
471.087036,-3256.906145,-8586.388927,-383.047749
471.087359,-3404.947333,-7550.100608,-536.266849
471.087681,-4071.132681,-6291.750507,-1072.533697
471.088004,-4441.235652,-5995.668130,-2681.334243
471.088326,-4589.276840,-6883.915261,-3140.991542
471.088649,-4737.318029,-7772.162391,-2451.505594
471.088971,-5107.421000,-8216.285956,-2528.115143
471.089293,-4885.359217,-10362.883188,-3830.477490
471.089616,-3997.112087,-12953.603985,-3753.867940
471.089938,-3478.967927,-13767.830521,-2604.724693
471.090261,-3256.906145,-12509.480420,-842.705048
471.090583,-2072.576638,-11251.130318,-1149.143247
471.090906,-1110.308913,-9992.780217,-1685.410096
471.091228,-888.247130,-8142.265362,-536.266849
471.091551,-1110.308913,-7402.059420,229.828649
471.091873,-1406.391290,-7846.182985,-306.438199
471.092196,-1332.370696,-8438.347739,-229.828649
471.092518,-1480.411884,-8216.285956,0.000000
471.092840,-2072.576638,-7994.224174,229.828649
471.093163,-1702.473667,-9400.615463,0.000000
471.093485,-1850.514855,-9474.636058,-383.047749
471.093808,-1850.514855,-8660.409521,-1685.410096
471.094130,-1924.535449,-8438.347739,-2681.334243
471.094453,-1554.432478,-10658.965565,-3447.429741
471.094775,-1554.432478,-12139.377449,-2834.553343
471.095098,-2072.576638,-12509.480420,-2757.943793
471.095420,-2146.597232,-13175.665768,-2834.553343
471.095743,-1628.453072,-13841.851115,-2374.896044
471.096065,-1480.411884,-13841.851115,-1991.848295
471.096387,-2220.617826,-11769.274478,-766.095498
471.096710,-2294.638420,-9474.636058,-766.095498
471.097032,-1036.288319,-8364.327145,-1072.533697
471.097355,-148.041188,-6809.894666,0.000000
471.097677,1184.329507,-5773.606348,1149.143247
471.098000,1702.473667,-7105.977043,1532.190996
471.098322,2146.597232,-7994.224174,1608.800546
471.098645,2442.679609,-8512.368333,1915.238745
471.098967,2516.700203,-9178.553681,1455.581446
471.099290,2368.659014,-10214.842000,1225.752797
471.099612,2072.576638,-10214.842000,919.314598
471.099934,2146.597232,-9548.656652,1072.533697
471.100257,1998.556043,-9474.636058,1149.143247
471.100579,2294.638420,-9770.718434,1532.190996
471.100902,1628.453072,-9770.718434,1838.629195
471.101224,666.185348,-8956.491898,2528.115143
471.101547,0.000000,-9104.533087,1685.410096
471.101869,-592.164754,-9104.533087,1532.190996
471.102192,-1480.411884,-8512.368333,1991.848295
471.102514,-2368.659014,-7698.141797,2451.505594
471.102837,-2294.638420,-7179.997637,2987.772442
471.103159,-2442.679609,-7254.018232,2604.724693
471.103481,-2516.700203,-7624.121203,2068.457845
471.103804,-2516.700203,-8290.306550,2757.943793
471.104126,-2072.576638,-9104.533087,2451.505594
471.104449,-1776.494261,-9474.636058,2911.162892
471.104771,-2146.597232,-10584.944971,2834.553343
471.105094,-2368.659014,-11251.130318,3294.210641
471.105416,-2960.823768,-11473.192101,3064.381992
471.105739,-3256.906145,-11029.068536,2374.896044
471.106061,-3034.844362,-10955.047942,2604.724693
471.106384,-2294.638420,-10510.924376,2451.505594
471.106706,-1850.514855,-9770.718434,2604.724693
471.107028,-814.226536,-9474.636058,2987.772442
471.107351,-296.082377,-9770.718434,2911.162892
471.107673,0.000000,-9474.636058,3064.381992
471.107996,-370.102971,-9400.615463,1991.848295
471.108318,-1776.494261,-9548.656652,1225.752797
471.108641,-2590.720797,-9696.697840,1225.752797
471.108963,-3330.926739,-9548.656652,612.876398
471.109286,-3923.091493,-9696.697840,-306.438199
471.109608,-3849.070898,-9770.718434,-383.047749
471.109931,-3330.926739,-10510.924376,-766.095498
471.110253,-2590.720797,-10510.924376,-766.095498
471.110575,-2072.576638,-10436.903782,-612.876398
471.110898,-1554.432478,-10510.924376,0.000000
471.111220,-592.164754,-10066.800811,-383.047749
471.111543,444.123565,-9474.636058,0.000000
471.111865,1702.473667,-9548.656652,306.438199
471.112188,3108.864956,-8586.388927,919.314598
471.112510,4885.359217,-6883.915261,612.876398
471.112833,6439.791695,-5699.585753,0.000000
471.113155,7846.182985,-5107.421000,-1302.362347
471.113478,7994.224174,-5995.668130,-995.924147
471.113800,6217.729913,-7772.162391,-2451.505594
471.114123,2664.741391,-9844.739029,-2604.724693
471.114445,-1998.556043,-11621.233289,-919.314598
471.114767,-6291.750507,-10436.903782,-2221.676944
471.115090,-8068.244768,-10881.027347,-5286.058936
471.115412,-7772.162391,-12065.356855,-7277.907231
471.115735,-6143.709319,-11843.295072,-6665.030833
471.116057,-2960.823768,-11621.233289,-5132.839837
471.116380,518.144159,-12065.356855,-1915.238745
471.116702,3478.967927,-13323.706956,995.924147
471.117025,5699.585753,-13101.645173,229.828649
471.117347,5995.668130,-11029.068536,-612.876398
471.117670,5403.503377,-9104.533087,1991.848295
471.117992,5625.565159,-6735.874072,2221.676944
471.118314,5847.626942,-4441.235652,0.000000
471.118637,3775.050304,-3997.112087,689.485948
471.118959,-296.082377,-3701.029710,2374.896044
471.119282,-3923.091493,-5107.421000,612.876398
471.119604,-6365.771101,-8512.368333,-3064.381992
471.119927,-7179.997637,-12657.521608,-3447.429741
471.120249,-8438.347739,-13101.645173,-3753.867940
471.120572,-8068.244768,-14656.077652,-4290.134789
471.120894,-5551.544565,-15470.304188,-3600.648841
471.121217,-2516.700203,-15766.386565,-612.876398
471.121539,-1850.514855,-12065.356855,-689.485948
471.121861,-2368.659014,-9178.553681,-2221.676944
471.122184,-1998.556043,-8438.347739,-2681.334243
471.122506,-2146.597232,-8660.409521,-2221.676944
471.122829,-2812.782580,-9030.512492,-689.485948
471.123151,-3923.091493,-9326.594869,1762.019645
471.123474,-3997.112087,-9400.615463,4060.306139
471.123796,-2886.803174,-9030.512492,4060.306139
471.124119,-1776.494261,-8512.368333,4826.401637
471.124441,-2220.617826,-7179.997637,5286.058936
471.124764,-2220.617826,-7031.956449,4903.011187
471.125086,-1776.494261,-6439.791695,3830.477490
471.125408,296.082377,-5551.544565,2374.896044
471.125731,1110.308913,-5847.626942,1149.143247
471.126053,2294.638420,-6587.832884,995.924147
471.126376,3775.050304,-7624.121203,1838.629195
471.126698,5255.462188,-9326.594869,2298.286494
471.127021,6143.709319,-11251.130318,1378.971896
471.127343,5921.647536,-12805.562797,1608.800546
471.127666,4219.173869,-12361.439231,2374.896044
471.127988,2738.761985,-11251.130318,2451.505594
471.128311,296.082377,-11473.192101,766.095498
471.128633,-2146.597232,-10510.924376,1991.848295
471.128955,-4959.379811,-7994.224174,5056.230287
471.129278,-7698.141797,-5921.647536,3907.087040
471.129600,-7772.162391,-8364.327145,1455.581446
471.129923,-4219.173869,-11473.192101,1225.752797
471.130245,-592.164754,-11177.109724,1149.143247
471.130568,2368.659014,-11621.233289,1072.533697
471.130890,5033.400406,-11325.150913,3524.039291
471.131213,8586.388927,-11251.130318,4443.353888
471.131535,9844.739029,-9696.697840,1685.410096
471.131858,7920.203579,-9252.574275,1685.410096
471.132180,6439.791695,-7772.162391,5056.230287
471.132502,5403.503377,-7402.059420,1072.533697
471.132825,4441.235652,-10584.944971,-3294.210641
471.133147,2516.700203,-15248.242405,-459.657299
471.133470,-518.144159,-12879.583391,3064.381992
471.133792,-5477.523971,-9326.594869,2987.772442
471.134115,-7994.224174,-11621.233289,2604.724693
471.134437,-10510.924376,-12731.542202,-536.266849
471.134760,-14434.015869,-11177.109724,-3600.648841
471.135082,-19097.313304,-8586.388927,536.266849
471.135405,-19023.292709,-4737.318029,3217.601092
471.135727,-12657.521608,-5625.565159,-2221.676944
471.136049,-2960.823768,-7328.038826,-4443.353888
471.136372,4737.318029,-6513.812290,-1225.752797
471.136694,8364.327145,-7994.224174,-1225.752797
471.137017,11547.212695,-10362.883188,2987.772442
471.137339,12361.439231,-10288.862594,8120.612279
471.137662,9770.718434,-4515.256246,1838.629195
471.137984,6883.915261,-3849.070898,-6588.421283
471.138307,6661.853478,-9548.656652,-5745.716235
471.138629,4737.318029,-12213.398043,-612.876398
471.138952,-1628.453072,-10807.006753,4060.306139
471.139274,-8438.347739,-11695.253884,7660.954980
471.139596,-10510.924376,-13545.768739,6281.983084
471.139919,-9622.677246,-12213.398043,-1915.238745
471.140241,-8734.430116,-9548.656652,-7890.783629
471.140564,-7550.100608,-6587.832884,-3830.477490
471.140886,-4367.215058,-2516.700203,1378.971896
471.141209,370.102971,-1036.288319,153.219100
471.141531,4071.132681,-4293.194464,-1149.143247
471.141854,4293.194464,-8882.471304,-2221.676944
471.142176,2590.720797,-13397.727550,-5362.668486
471.142499,814.226536,-16802.674883,-4826.401637
471.142821,0.000000,-18135.045579,-2145.067394
471.143143,-148.041188,-15618.345376,-1762.019645
471.143466,1036.288319,-11473.192101,-3677.258390
471.143788,1776.494261,-10955.047942,-3217.601092
471.144111,0.000000,-9326.594869,-2145.067394
471.144433,-1332.370696,-9548.656652,-1149.143247
471.144756,-2738.761985,-7772.162391,-689.485948
471.145078,-370.102971,-7698.141797,0.000000
471.145401,2442.679609,-9178.553681,-612.876398
471.145723,4811.338623,-10732.986159,0.000000
471.146046,5995.668130,-9104.533087,1072.533697
471.146368,6143.709319,-6217.729913,1838.629195
471.146691,4515.256246,-5699.585753,1225.752797
471.147013,1036.288319,-7254.018232,306.438199
471.147335,-2516.700203,-9030.512492,-1072.533697
471.147658,-3849.070898,-11251.130318,-3830.477490
471.147980,-2368.659014,-13175.665768,-4596.572988
471.148303,1110.308913,-14730.098246,-2911.162892
471.148625,518.144159,-11695.253884,1149.143247
471.148948,-2368.659014,-10066.800811,3907.087040
471.149270,-3701.029710,-9252.574275,2374.896044
471.149593,-3330.926739,-8882.471304,-1378.971896
471.149915,-3627.009116,-7846.182985,-4290.134789
471.150238,-4293.194464,-6439.791695,-2068.457845
471.150560,-4515.256246,-7105.977043,2374.896044
471.150882,-4367.215058,-8882.471304,5898.935335
471.151205,-3627.009116,-10066.800811,7201.297681
471.151527,-444.123565,-9770.718434,3830.477490
471.151850,1554.432478,-6587.832884,-612.876398
471.152172,3627.009116,-4367.215058,-1685.410096
471.152495,4293.194464,-2442.679609,306.438199
471.152817,3923.091493,-3478.967927,1991.848295
471.153140,4515.256246,-7476.080014,1378.971896
471.153462,3034.844362,-11103.089130,76.609550
471.153785,-1258.350101,-13619.789333,-536.266849
471.154107,-5921.647536,-15248.242405,-536.266849
471.154429,-8216.285956,-16358.551318,-1225.752797
471.154752,-6661.853478,-15766.386565,-2145.067394
471.155074,-4515.256246,-12805.562797,-1608.800546
471.155397,-1998.556043,-9770.718434,383.047749
471.155719,-1036.288319,-5181.441594,1302.362347
471.156042,-148.041188,-4145.153275,229.828649
471.156364,-148.041188,-5847.626942,-612.876398
471.156687,444.123565,-9474.636058,-536.266849
471.157009,518.144159,-11991.336260,-612.876398
471.157332,74.020594,-10807.006753,536.266849
471.157654,0.000000,-9474.636058,1532.190996
471.157976,1406.391290,-9474.636058,919.314598
471.158299,3034.844362,-9030.512492,-689.485948
471.158621,4145.153275,-9400.615463,-2374.896044
471.158944,4145.153275,-9178.553681,-2757.943793
471.159266,2738.761985,-9326.594869,-2451.505594
471.159589,2072.576638,-10732.986159,-2451.505594
471.159911,1406.391290,-13027.624579,-3753.867940
471.160234,222.061783,-14063.912898,-2987.772442
471.160556,-1850.514855,-13397.727550,-1915.238745
471.160879,-3923.091493,-9770.718434,-842.705048
471.161201,-5033.400406,-7105.977043,-1532.190996
471.161523,-4145.153275,-6217.729913,-3064.381992
471.161846,-2960.823768,-7031.956449,-2451.505594
471.162168,-1628.453072,-7846.182985,-612.876398
471.162491,-1480.411884,-6143.709319,995.924147
471.162813,-962.267725,-4885.359217,0.000000
471.163136,370.102971,-6513.812290,-1915.238745
471.163458,2146.597232,-8438.347739,-2451.505594
471.163781,2368.659014,-10140.821405,-3217.601092
471.164103,1184.329507,-10066.800811,-2681.334243
471.164426,0.000000,-9918.759623,-1685.410096
471.164748,-444.123565,-10214.842000,-1838.629195
471.165070,444.123565,-10140.821405,-3447.429741
471.165393,2146.597232,-10362.883188,-4136.915689
471.165715,3256.906145,-8882.471304,-4136.915689
471.166038,4737.318029,-7179.997637,-3983.696590
471.166360,4367.215058,-6439.791695,-2834.553343
471.166683,2442.679609,-8882.471304,-1378.971896
471.167005,296.082377,-11473.192101,-1455.581446
471.167328,-2960.823768,-11621.233289,-1838.629195
471.167650,-5477.523971,-10214.842000,-3447.429741
471.167973,-6587.832884,-7624.121203,-4903.011187
471.168295,-5255.462188,-6883.915261,-3983.696590
471.168617,-2664.741391,-7920.203579,-1608.800546
471.168940,-740.205942,-9918.759623,229.828649
471.169262,-740.205942,-10214.842000,383.047749
471.169585,-1258.350101,-10436.903782,-1685.410096
471.169907,-1480.411884,-10955.047942,-4060.306139
471.170230,-1110.308913,-11399.171507,-5286.058936
471.170552,-222.061783,-11103.089130,-5592.497135
471.170875,-518.144159,-11103.089130,-3983.696590
471.171197,-1110.308913,-10881.027347,-1838.629195
471.171520,-2146.597232,-10584.944971,-689.485948
471.171842,-2294.638420,-11621.233289,-1378.971896
471.172164,-962.267725,-12139.377449,-1838.629195
471.172487,-1850.514855,-9178.553681,-1532.190996
471.172809,-666.185348,-5699.585753,-1072.533697
471.173132,962.267725,-3923.091493,0.000000
471.173454,2664.741391,-5477.523971,-306.438199
471.173777,2442.679609,-7920.203579,-995.924147
471.174099,0.000000,-10658.965565,919.314598
471.174422,-3108.864956,-11769.274478,995.924147
471.174744,-4885.359217,-11843.295072,-842.705048
471.175067,-3478.967927,-13027.624579,-2298.286494
471.175389,-666.185348,-12139.377449,-383.047749
471.175711,1850.514855,-8660.409521,2145.067394
471.176034,3108.864956,-5107.421000,2681.334243
471.176356,4071.132681,-3923.091493,1685.410096
471.176679,3552.988522,-5699.585753,-306.438199
471.177001,1850.514855,-8660.409521,-1225.752797
471.177324,-592.164754,-10510.924376,-766.095498
471.177646,-2368.659014,-10955.047942,-459.657299
471.177969,-2368.659014,-10881.027347,-383.047749
471.178291,-962.267725,-9992.780217,-766.095498
471.178614,-370.102971,-9696.697840,-766.095498
471.178936,1036.288319,-9548.656652,229.828649
471.179258,1036.288319,-7846.182985,306.438199
471.179581,1036.288319,-5699.585753,-1225.752797
471.179903,814.226536,-6217.729913,-3600.648841
471.180225,666.185348,-9104.533087,-3370.820191
471.180548,222.061783,-11695.253884,-1838.629195
471.180870,-1110.308913,-12509.480420,-842.705048
471.181192,-3627.009116,-11843.295072,-995.924147
471.181515,-4737.318029,-11251.130318,-2681.334243
471.181837,-3923.091493,-10584.944971,-3907.087040
471.182160,-1406.391290,-10140.821405,-2681.334243
471.182482,518.144159,-8956.491898,-1378.971896
471.182804,2516.700203,-7105.977043,-229.828649
471.183127,3478.967927,-5551.544565,-306.438199
471.183449,3256.906145,-7179.997637,-383.047749
471.183771,1406.391290,-10140.821405,-766.095498
471.184094,-444.123565,-11917.315666,-1149.143247
471.184416,-3034.844362,-11547.212695,-1838.629195
471.184739,-4071.132681,-10066.800811,-2757.943793
471.185061,-3627.009116,-9474.636058,-3524.039291
471.185383,-1258.350101,-9622.677246,-3294.210641
471.185706,1332.370696,-9770.718434,-2604.724693
471.186028,2590.720797,-7402.059420,-2911.162892
471.186350,1998.556043,-6587.832884,-2911.162892
471.186673,444.123565,-8142.265362,-3217.601092
471.186995,-1628.453072,-10955.047942,-3524.039291
471.187318,-2960.823768,-13841.851115,-3677.258390
471.187640,-3627.009116,-14137.933492,-3600.648841
471.187962,-3701.029710,-11473.192101,-2757.943793
471.188285,-2886.803174,-8438.347739,-2221.676944
471.188607,-888.247130,-7624.121203,-1685.410096
471.188929,1702.473667,-9252.574275,-689.485948
471.189252,2220.617826,-9548.656652,612.876398
471.189574,1998.556043,-8290.306550,2298.286494
471.189897,1036.288319,-6661.853478,1149.143247
471.190219,1554.432478,-5921.647536,-536.266849
471.190541,2294.638420,-6069.688724,-1149.143247
471.190864,2368.659014,-7476.080014,-766.095498
471.191186,740.205942,-9622.677246,-766.095498
471.191508,-1184.329507,-12065.356855,-612.876398
471.191831,-3034.844362,-13101.645173,0.000000
471.192153,-3256.906145,-12287.418637,-919.314598
471.192475,-1776.494261,-9918.759623,-3447.429741
471.192798,-222.061783,-6217.729913,-4749.792088
471.193120,888.247130,-2368.659014,-4443.353888
471.193443,444.123565,-2368.659014,-3677.258390
471.193765,-740.205942,-7254.018232,-3294.210641
471.194087,-2960.823768,-13767.830521,-2834.553343
471.194410,-6143.709319,-16580.613101,-2374.896044
471.194732,-7994.224174,-14952.160028,-2221.676944
471.195054,-6957.935855,-12213.398043,-3753.867940
471.195377,-2812.782580,-9474.636058,-4903.011187
471.195699,962.267725,-7624.121203,-2987.772442
471.196022,3256.906145,-5921.647536,229.828649
471.196344,3627.009116,-5699.585753,2374.896044
471.196666,3849.070898,-7105.977043,-229.828649
471.196989,3478.967927,-9844.739029,-3064.381992
471.197311,3478.967927,-11251.130318,-3294.210641
471.197633,3627.009116,-11843.295072,-2221.676944
471.197956,3775.050304,-10584.944971,-383.047749
471.198278,4441.235652,-10214.842000,612.876398
471.198601,3923.091493,-8808.450710,0.000000
471.198923,2738.761985,-9030.512492,-1608.800546
471.199245,1628.453072,-9844.739029,-2757.943793
471.199568,0.000000,-9326.594869,-3677.258390
471.199890,-962.267725,-7698.141797,-3140.991542
471.200212,-1554.432478,-6735.874072,-3140.991542
471.200535,-2220.617826,-8586.388927,-2911.162892
471.200857,-3775.050304,-11103.089130,-2221.676944
471.201180,-6735.874072,-11843.295072,-2528.115143
471.201502,-9548.656652,-10881.027347,-2987.772442
471.201824,-10362.883188,-9474.636058,-3830.477490
471.202147,-8438.347739,-9326.594869,-4673.182538
471.202469,-5403.503377,-10066.800811,-3064.381992
471.202791,-2072.576638,-9252.574275,459.657299
471.203114,-74.020594,-7031.956449,2528.115143
471.203436,1406.391290,-5773.606348,1072.533697
471.203759,2886.803174,-7105.977043,-1838.629195
471.204081,3404.947333,-9622.677246,-2834.553343
471.204403,2442.679609,-10658.965565,-1991.848295
471.204726,1998.556043,-10584.944971,-612.876398
471.205048,2664.741391,-10066.800811,229.828649
471.205370,3478.967927,-10510.924376,-612.876398
471.205693,4145.153275,-11325.150913,-689.485948
471.206015,4145.153275,-11251.130318,-306.438199
471.206337,3256.906145,-8956.491898,-383.047749
471.206660,2220.617826,-6439.791695,-536.266849
471.206982,1776.494261,-5181.441594,-1225.752797
471.207305,1628.453072,-6291.750507,-2298.286494
471.207627,296.082377,-9030.512492,-2604.724693
471.207949,-2368.659014,-11621.233289,-766.095498
471.208272,-5403.503377,-11991.336260,536.266849
471.208594,-6809.894666,-11029.068536,-919.314598
471.208916,-6439.791695,-10510.924376,-2987.772442
471.209239,-4515.256246,-10658.965565,-2604.724693
471.209561,-2664.741391,-9178.553681,-689.485948
471.209884,-666.185348,-6069.688724,306.438199
471.210206,518.144159,-5107.421000,-766.095498
471.210528,518.144159,-6735.874072,-2374.896044
471.210851,962.267725,-10584.944971,-2987.772442
471.211173,-740.205942,-12287.418637,-1838.629195
471.211495,-2294.638420,-11769.274478,-919.314598
471.211818,-2368.659014,-10436.903782,-1302.362347
471.212140,-444.123565,-9104.533087,-1685.410096
471.212463,1406.391290,-8660.409521,-1915.238745
471.212785,1924.535449,-8216.285956,-995.924147
471.213107,2294.638420,-7105.977043,0.000000
471.213430,2442.679609,-5921.647536,-612.876398
471.213752,2368.659014,-6143.709319,-1915.238745
471.214074,2664.741391,-8512.368333,-2911.162892
471.214397,1406.391290,-10362.883188,-2528.115143
471.214719,-222.061783,-11843.295072,-1455.581446
471.215042,-1702.473667,-12139.377449,-1149.143247
471.215364,-3034.844362,-10955.047942,-2451.505594
471.215686,-3330.926739,-10140.821405,-3907.087040
471.216009,-1776.494261,-10658.965565,-3677.258390
471.216331,-666.185348,-9844.739029,-1915.238745
471.216653,370.102971,-8364.327145,-459.657299
471.216976,1184.329507,-6883.915261,-995.924147
471.217298,2072.576638,-7105.977043,-2145.067394
471.217620,1924.535449,-9622.677246,-3064.381992
471.217943,444.123565,-12213.398043,-2681.334243
471.218265,-1850.514855,-11917.315666,-1991.848295
471.218588,-3775.050304,-10362.883188,-2145.067394
471.218910,-3552.988522,-9548.656652,-2145.067394
471.219232,-1776.494261,-9696.697840,-3217.601092
471.219555,-296.082377,-9548.656652,-2911.162892
471.219877,-1406.391290,-8364.327145,-2298.286494
471.220199,-2146.597232,-7624.121203,-1302.362347
471.220522,-2812.782580,-7624.121203,-2681.334243
471.220844,-1702.473667,-9770.718434,-4903.011187
471.221167,-1406.391290,-11843.295072,-5362.668486
471.221489,-2442.679609,-12361.439231,-3217.601092
471.221811,-3478.967927,-10955.047942,-1302.362347
471.222134,-4219.173869,-10288.862594,-1072.533697
471.222456,-3923.091493,-9622.677246,-1762.019645
471.222778,-2812.782580,-10066.800811,-1838.629195
471.223101,-1184.329507,-8956.491898,-689.485948
471.223423,518.144159,-6291.750507,-229.828649
471.223746,2664.741391,-4589.276840,0.000000
471.224068,3849.070898,-4367.215058,-153.219100
471.224390,4737.318029,-6143.709319,306.438199
471.224713,3330.926739,-8290.306550,1532.190996
471.225035,1258.350101,-9400.615463,919.314598
471.225357,74.020594,-9474.636058,-1608.800546
471.225680,0.000000,-9770.718434,-3830.477490
471.226002,1184.329507,-10658.965565,-3600.648841
471.226325,2664.741391,-10214.842000,-1991.848295
471.226647,3182.885551,-8142.265362,-229.828649
471.226969,2960.823768,-5995.668130,-766.095498
471.227292,888.247130,-5699.585753,-2451.505594
471.227614,-1036.288319,-8734.430116,-4443.353888
471.227936,-3108.864956,-11991.336260,-4673.182538
471.228259,-4515.256246,-14063.912898,-3753.867940
471.228581,-5625.565159,-13323.706956,-2145.067394
471.228904,-5329.482782,-11695.253884,-919.314598
471.229226,-3552.988522,-10362.883188,-1225.752797
471.229548,-1480.411884,-9474.636058,-995.924147
471.229871,666.185348,-9474.636058,-1225.752797
471.230193,1332.370696,-7550.100608,-1072.533697
471.230515,1628.453072,-7031.956449,-1072.533697
471.230838,2590.720797,-8512.368333,-1225.752797
471.231160,3627.009116,-10362.883188,-1915.238745
471.231482,2516.700203,-11769.274478,-995.924147
471.231805,296.082377,-11917.315666,-459.657299
471.232127,-962.267725,-11473.192101,-612.876398
471.232450,-1110.308913,-10881.027347,-1991.848295
471.232772,0.000000,-11103.089130,-3524.039291
471.233094,1480.411884,-11769.274478,-1762.019645
471.233417,1258.350101,-9474.636058,-842.705048
471.233739,814.226536,-6513.812290,153.219100
471.234061,-592.164754,-4737.318029,-306.438199
471.234384,-1776.494261,-5847.626942,-2451.505594
471.234706,-3404.947333,-8364.327145,-2681.334243
471.235029,-4959.379811,-9844.739029,-2145.067394
471.235351,-7031.956449,-10362.883188,-842.705048
471.235673,-7179.997637,-10436.903782,-459.657299
471.235996,-5477.523971,-10584.944971,-995.924147
471.236318,-3182.885551,-9770.718434,-612.876398
471.236640,-1036.288319,-7920.203579,-612.876398
471.236963,74.020594,-5477.523971,229.828649
471.237285,1110.308913,-3775.050304,-842.705048
471.237608,2886.803174,-4885.359217,-1915.238745
471.237930,3627.009116,-7402.059420,-2451.505594
471.238252,2516.700203,-11325.150913,-1532.190996
471.238575,1258.350101,-13323.706956,-153.219100
471.238897,666.185348,-12509.480420,76.609550
471.239219,1036.288319,-10214.842000,-995.924147
471.239542,2146.597232,-9474.636058,-1838.629195
471.239864,3997.112087,-9770.718434,-1532.190996
471.240187,3552.988522,-7624.121203,-612.876398
471.240509,2442.679609,-5995.668130,-919.314598
471.240831,1480.411884,-6587.832884,-1915.238745
471.241154,1036.288319,-9696.697840,-4060.306139
471.241476,-444.123565,-12657.521608,-4903.011187
471.241798,-2368.659014,-14137.933492,-3677.258390
471.242121,-4367.215058,-13397.727550,-1455.581446
471.242443,-6217.729913,-12583.501014,-1991.848295
471.242766,-6217.729913,-11917.315666,-3294.210641
471.243088,-6291.750507,-10584.944971,-2987.772442
471.243410,-4219.173869,-9696.697840,-3907.087040
471.243733,-1480.411884,-8882.471304,-3600.648841
471.244055,814.226536,-7920.203579,-2681.334243
471.244377,2590.720797,-7476.080014,-1991.848295
471.244700,2960.823768,-8364.327145,-842.705048
471.245022,2590.720797,-10732.986159,612.876398
471.245344,370.102971,-10214.842000,842.705048
471.245667,-1776.494261,-8882.471304,-1762.019645
471.245989,-1480.411884,-8290.306550,-3140.991542
471.246312,1628.453072,-9252.574275,-3294.210641
471.246634,5107.421000,-8956.491898,-2298.286494
471.246956,5995.668130,-6735.874072,1532.190996
471.247279,5403.503377,-4663.297435,2911.162892
471.247601,3849.070898,-4219.173869,919.314598
471.247923,1480.411884,-6365.771101,-2604.724693
471.248246,-1850.514855,-9400.615463,-4060.306139
471.248568,-5403.503377,-11103.089130,-3600.648841
471.248891,-6661.853478,-11769.274478,-2681.334243
471.249213,-6143.709319,-10732.986159,-995.924147
471.249535,-3552.988522,-10288.862594,0.000000
471.249858,-1628.453072,-9474.636058,-383.047749
471.250180,-444.123565,-8882.471304,0.000000
471.250502,-740.205942,-7698.141797,-383.047749
471.250825,-592.164754,-7031.956449,-766.095498
471.251147,-592.164754,-6735.874072,-2221.676944
471.251470,296.082377,-7624.121203,-2834.553343
471.251792,740.205942,-9178.553681,-2068.457845
471.252114,-370.102971,-10510.924376,-842.705048
471.252437,-1332.370696,-11399.171507,-995.924147
471.252759,-1480.411884,-12509.480420,-1685.410096
471.253081,-370.102971,-13693.809927,-2528.115143
471.253404,518.144159,-13027.624579,-2451.505594
471.253726,1184.329507,-11029.068536,-1608.800546
471.254049,-148.041188,-7476.080014,-1532.190996
471.254371,-1554.432478,-4737.318029,-2145.067394
471.254693,-2442.679609,-5995.668130,-3447.429741
471.255016,-2516.700203,-9474.636058,-3907.087040
471.255338,-3108.864956,-12139.377449,-3524.039291
471.255660,-4293.194464,-13989.892304,-3140.991542
471.255983,-4737.318029,-14285.974681,-766.095498
471.256305,-3775.050304,-13027.624579,-536.266849
471.256627,-1998.556043,-11325.150913,-1149.143247
471.256950,-592.164754,-9400.615463,-459.657299
471.257272,666.185348,-7031.956449,383.047749
471.257595,1554.432478,-4515.256246,-306.438199
471.257917,2368.659014,-4589.276840,-1915.238745
471.258239,4293.194464,-7624.121203,-1532.190996
471.258562,5255.462188,-10955.047942,229.828649
471.258884,4145.153275,-11621.233289,1302.362347
471.259206,2072.576638,-11473.192101,1838.629195
471.259529,296.082377,-10807.006753,459.657299
471.259851,666.185348,-9770.718434,-1149.143247
471.260174,2146.597232,-7846.182985,-2451.505594
471.260496,2664.741391,-5921.647536,-1685.410096
471.260818,3330.926739,-5033.400406,153.219100
471.261141,3182.885551,-4811.338623,919.314598
471.261463,2442.679609,-7846.182985,0.000000
471.261785,666.185348,-11769.274478,-1608.800546
471.262108,-1702.473667,-13693.809927,-2298.286494
471.262430,-4811.338623,-12435.459826,-1302.362347
471.262753,-7031.956449,-9474.636058,-689.485948
471.263075,-6735.874072,-7698.141797,-1149.143247
471.263397,-4515.256246,-8068.244768,-2451.505594
471.263720,-2368.659014,-9326.594869,-1838.629195
471.264042,-444.123565,-8808.450710,1149.143247
471.264364,814.226536,-8068.244768,153.219100
471.264687,1036.288319,-8660.409521,-1608.800546
471.265009,1776.494261,-10658.965565,-1685.410096
471.265332,1110.308913,-11177.109724,-306.438199
471.265654,-1110.308913,-8068.244768,-229.828649
471.265976,-2738.761985,-7105.977043,-1915.238745
471.266299,-1554.432478,-9918.759623,-3370.820191
471.266621,814.226536,-13249.686362,-4213.525239
471.266943,2442.679609,-13915.871710,-2911.162892
471.267266,2812.782580,-11103.089130,0.000000
471.267588,2664.741391,-7105.977043,1455.581446
471.267911,2812.782580,-4441.235652,-842.705048
471.268233,2146.597232,-4811.338623,-3447.429741
471.268555,-592.164754,-7550.100608,-4673.182538
471.268878,-4663.297435,-11399.171507,-4749.792088
471.269200,-6735.874072,-13915.871710,-3447.429741
471.269522,-7105.977043,-14656.077652,-2145.067394
471.269845,-5033.400406,-14211.954086,-3064.381992
471.270167,-1924.535449,-13249.686362,-1991.848295
471.270489,518.144159,-10362.883188,689.485948
471.270812,2294.638420,-6957.935855,1455.581446
471.271134,1998.556043,-3627.009116,-842.705048
471.271457,1036.288319,-3552.988522,-2145.067394
471.271779,0.000000,-6217.729913,-2374.896044
471.272101,-888.247130,-8808.450710,-1915.238745
471.272424,-740.205942,-11177.109724,-919.314598
471.272746,222.061783,-12139.377449,-766.095498
471.273068,1036.288319,-12139.377449,-153.219100
471.273391,1776.494261,-11029.068536,229.828649
471.273713,2220.617826,-9474.636058,0.000000
471.274036,1036.288319,-7105.977043,-1915.238745
471.274358,-444.123565,-3701.029710,-2604.724693
471.274680,-2442.679609,-3478.967927,-3217.601092
471.275003,-4071.132681,-6217.729913,-3677.258390
471.275325,-3701.029710,-11029.068536,-4060.306139
471.275647,-3404.947333,-14730.098246,-2681.334243
471.275970,-3552.988522,-15396.283594,-536.266849
471.276292,-3997.112087,-13175.665768,306.438199
471.276615,-3256.906145,-11029.068536,-689.485948
471.276937,-2368.659014,-8290.306550,-1532.190996
471.277259,-296.082377,-5921.647536,-2298.286494
471.277582,1850.514855,-5033.400406,-2451.505594
471.277904,4959.379811,-5847.626942,-1915.238745
471.278226,7328.038826,-6661.853478,-1608.800546
471.278549,8290.306550,-11029.068536,153.219100
471.278871,7402.059420,-14434.015869,2987.772442
471.279194,4737.318029,-14434.015869,3370.820191
471.279516,1554.432478,-11177.109724,383.047749
471.279838,296.082377,-8882.471304,-2068.457845
471.280161,888.247130,-7772.162391,-3753.867940
471.280483,1924.535449,-6365.771101,-4060.306139
471.280806,2294.638420,-5773.606348,-1685.410096
471.281128,1332.370696,-6291.750507,536.266849
471.281451,222.061783,-8068.244768,766.095498
471.281773,-2442.679609,-10214.842000,-2145.067394
471.282095,-5551.544565,-13101.645173,-3753.867940
471.282418,-8068.244768,-14730.098246,-3753.867940
471.282740,-9326.594869,-12953.603985,-3983.696590
471.283063,-9252.574275,-9104.533087,-3677.258390
471.283385,-7550.100608,-7105.977043,-2604.724693
471.283708,-5329.482782,-7550.100608,-2221.676944
471.284030,-2442.679609,-8586.388927,-1072.533697
471.284352,-592.164754,-8438.347739,0.000000
471.284675,592.164754,-7772.162391,-383.047749
471.284997,1776.494261,-7772.162391,-536.266849
471.285320,2886.803174,-8734.430116,-1302.362347
471.285642,2960.823768,-9770.718434,0.000000
471.285964,1628.453072,-9770.718434,1225.752797
471.286287,370.102971,-9104.533087,842.705048
471.286609,814.226536,-9178.553681,-459.657299
471.286932,3034.844362,-9770.718434,-1762.019645
471.287254,6143.709319,-10807.006753,-2221.676944
471.287577,7179.997637,-9030.512492,0.000000
471.287899,5477.523971,-5847.626942,1685.410096
471.288221,2738.761985,-4737.318029,1072.533697
471.288544,-370.102971,-5995.668130,-1685.410096
471.288866,-3923.091493,-8290.306550,-4519.963438
471.289189,-7254.018232,-10362.883188,-5822.325785
471.289511,-8290.306550,-11621.233289,-4596.572988
471.289833,-7105.977043,-11917.315666,-3140.991542
471.290156,-4589.276840,-12435.459826,-2451.505594
471.290478,-2664.741391,-12953.603985,-1149.143247
471.290801,-1998.556043,-12805.562797,-306.438199
471.291123,-2960.823768,-11029.068536,-919.314598
471.291446,-2812.782580,-8586.388927,-2298.286494
471.291768,-1480.411884,-6365.771101,-4596.572988
471.292090,1628.453072,-6883.915261,-4979.620737
471.292413,3701.029710,-9030.512492,-2451.505594
471.292735,3923.091493,-11177.109724,1685.410096
471.293058,2812.782580,-11917.315666,2987.772442
471.293380,2072.576638,-12435.459826,459.657299
471.293702,1776.494261,-12287.418637,-1991.848295
471.294025,2812.782580,-10807.006753,-2604.724693
471.294347,3997.112087,-6809.894666,-1532.190996
471.294670,4959.379811,-2812.782580,-1225.752797
471.294992,5477.523971,-2220.617826,-1685.410096
471.295315,4441.235652,-5329.482782,-1532.190996
471.295637,1110.308913,-10807.006753,-1762.019645
471.295959,-3034.844362,-16580.613101,-1838.629195
471.296282,-6513.812290,-17838.963202,-2451.505594
471.296604,-7698.141797,-14656.077652,-3140.991542
471.296927,-6291.750507,-9770.718434,-3217.601092
471.297249,-3256.906145,-5403.503377,-2757.943793
471.297571,-148.041188,-4145.153275,-1225.752797
