#time,accel_x,accel_y,accel_z
384.999757,-518.144159,-9696.697840,-1608.800546
385.000079,-592.164754,-9474.636058,-1532.190996
385.000401,-444.123565,-9104.533087,-1685.410096
385.000724,0.000000,-9104.533087,-1532.190996
385.001046,-370.102971,-9252.574275,-1838.629195
385.001369,-370.102971,-9326.594869,-1685.410096
385.001691,-444.123565,-9474.636058,-1608.800546
385.002013,-444.123565,-9252.574275,-2374.896044
385.002336,-444.123565,-9474.636058,-1378.971896
385.002658,-444.123565,-9474.636058,-1838.629195
385.002980,-444.123565,-9622.677246,-1532.190996
385.003303,-518.144159,-9326.594869,-1685.410096
385.003625,-296.082377,-9474.636058,-1608.800546
385.003948,0.000000,-9622.677246,-1608.800546
385.004270,-370.102971,-9030.512492,-1455.581446
385.004592,-370.102971,-9474.636058,-1838.629195
385.004915,-518.144159,-9252.574275,-1532.190996
385.005237,-518.144159,-9400.615463,-1532.190996
385.005560,-296.082377,-9474.636058,-1838.629195
385.005882,0.000000,-9696.697840,-1532.190996
385.006204,-296.082377,-9474.636058,-1302.362347
385.006527,-370.102971,-9474.636058,-1685.410096
385.006849,-444.123565,-9474.636058,-1608.800546
385.007171,-370.102971,-9844.739029,-1302.362347
385.007494,0.000000,-9252.574275,-1685.410096
385.007816,-444.123565,-9326.594869,-1302.362347
385.008139,-518.144159,-9326.594869,-1378.971896
385.008461,-518.144159,-9326.594869,-1455.581446
385.008783,-518.144159,-9400.615463,-1532.190996
385.009106,-296.082377,-9252.574275,-1762.019645
385.009428,-592.164754,-9104.533087,-1455.581446
385.009751,-370.102971,-9104.533087,-1302.362347
385.010073,-518.144159,-9252.574275,-1302.362347
385.010395,-444.123565,-9252.574275,-1532.190996
385.010718,0.000000,-9252.574275,-1149.143247
385.011040,-222.061783,-9326.594869,-1072.533697
385.011362,-370.102971,-9400.615463,-1608.800546
385.011685,-518.144159,-9400.615463,-1455.581446
385.012007,-296.082377,-9474.636058,-1455.581446
385.012330,-444.123565,-9400.615463,-1532.190996
385.012652,-370.102971,-9252.574275,-1532.190996
385.012974,-296.082377,-9474.636058,-1608.800546
385.013297,-444.123565,-9400.615463,-1532.190996
385.013619,-444.123565,-9400.615463,-1685.410096
385.013942,-222.061783,-9474.636058,-1532.190996
385.014264,-296.082377,-9178.553681,-1532.190996
385.014586,-296.082377,-8734.430116,-1532.190996
385.014909,-444.123565,-9326.594869,-1532.190996
385.015231,-296.082377,-9326.594869,-1608.800546
385.015553,-444.123565,-9400.615463,-1762.019645
385.015876,-222.061783,-9030.512492,-1608.800546
385.016198,-296.082377,-8808.450710,-1225.752797
385.016521,-370.102971,-9474.636058,-1455.581446
385.016843,-444.123565,-9326.594869,-1455.581446
385.017165,-518.144159,-9474.636058,-1685.410096
385.017488,-444.123565,-9474.636058,-1838.629195
385.017810,-592.164754,-9030.512492,-1608.800546
385.018132,-296.082377,-9474.636058,-1991.848295
385.018455,-444.123565,-9474.636058,-1685.410096
385.018777,-444.123565,-9474.636058,-1685.410096
385.019100,-444.123565,-9400.615463,-1685.410096
385.019422,0.000000,-8734.430116,-1532.190996
385.019744,1036.288319,-9178.553681,-2604.724693
385.020067,2368.659014,-9918.759623,-2068.457845
385.020389,2590.720797,-9622.677246,-1149.143247
385.020712,2072.576638,-8734.430116,-306.438199
385.021034,814.226536,-8364.327145,-995.924147
385.021356,0.000000,-8734.430116,-2451.505594
385.021679,-1554.432478,-9548.656652,-2834.553343
385.022001,-2886.803174,-9844.739029,-1915.238745
385.022323,-4071.132681,-9918.759623,-2145.067394
385.022646,-3552.988522,-9474.636058,-2834.553343
385.022968,-1258.350101,-9474.636058,-3294.210641
385.023291,1332.370696,-10881.027347,-1915.238745
385.023613,2738.761985,-10732.986159,-612.876398
385.023935,2442.679609,-9400.615463,306.438199
385.024258,2146.597232,-8734.430116,-306.438199
385.024580,2886.803174,-9474.636058,-1455.581446
385.024903,2738.761985,-9622.677246,-2604.724693
385.025225,1702.473667,-9400.615463,-1378.971896
385.025547,0.000000,-7772.162391,0.000000
385.025870,148.041188,-7105.977043,-383.047749
385.026192,1776.494261,-8808.450710,-2068.457845
385.026514,2072.576638,-10066.800811,-2068.457845
385.026837,-222.061783,-9622.677246,-459.657299
385.027159,-1554.432478,-9178.553681,-842.705048
385.027482,-814.226536,-9474.636058,-3064.381992
385.027804,222.061783,-9548.656652,-3447.429741
385.028126,814.226536,-10288.862594,-1991.848295
385.028449,740.205942,-10881.027347,-459.657299
385.028771,1480.411884,-9844.739029,-1685.410096
385.029094,3034.844362,-9326.594869,-1915.238745
385.029416,4145.153275,-10732.986159,-842.705048
385.029738,4367.215058,-11103.089130,0.000000
385.030061,3108.864956,-9474.636058,-306.438199
385.030383,2146.597232,-7772.162391,-842.705048
385.030705,2368.659014,-8068.244768,-995.924147
385.031028,2590.720797,-8364.327145,-1608.800546
385.031350,1924.535449,-7550.100608,-1608.800546
385.031673,1480.411884,-7624.121203,-612.876398
385.031995,1924.535449,-8956.491898,-612.876398
385.032317,2738.761985,-10955.047942,-842.705048
385.032640,2590.720797,-9770.718434,-1149.143247
385.032962,1776.494261,-9622.677246,-1838.629195
385.033285,2368.659014,-10214.842000,-1149.143247
385.033607,3108.864956,-9918.759623,-1608.800546
385.033929,2886.803174,-9178.553681,-2298.286494
385.034252,2294.638420,-9104.533087,-2145.067394
385.034574,2590.720797,-10066.800811,-1225.752797
385.034896,3034.844362,-9326.594869,-612.876398
385.035219,2960.823768,-8882.471304,-1915.238745
385.035541,2442.679609,-9770.718434,-1532.190996
385.035864,2072.576638,-9104.533087,-766.095498
385.036186,1480.411884,-7846.182985,-766.095498
385.036508,444.123565,-7624.121203,-1762.019645
385.036831,-222.061783,-8364.327145,-2068.457845
385.037153,-222.061783,-9326.594869,-2528.115143
385.037476,-518.144159,-10288.862594,-1455.581446
385.037798,-296.082377,-11399.171507,-1225.752797
385.038120,0.000000,-12287.418637,-1225.752797
385.038443,740.205942,-11769.274478,-766.095498
385.038765,1480.411884,-10807.006753,-229.828649
385.039087,1554.432478,-9918.759623,-1149.143247
385.039410,1924.535449,-8956.491898,-1225.752797
385.039732,1776.494261,-8068.244768,-1532.190996
385.040055,1480.411884,-7846.182985,-766.095498
385.040377,1702.473667,-7920.203579,-689.485948
385.040699,1332.370696,-8068.244768,-1149.143247
385.041022,1480.411884,-8734.430116,-1762.019645
385.041344,1480.411884,-8586.388927,-1455.581446
385.041666,1776.494261,-8068.244768,-1915.238745
385.041989,2368.659014,-7624.121203,-2757.943793
385.042311,1850.514855,-8438.347739,-1915.238745
385.042634,1702.473667,-9326.594869,-1762.019645
385.042956,1776.494261,-9696.697840,-2451.505594
385.043278,1702.473667,-10658.965565,-2681.334243
385.043601,1480.411884,-11843.295072,-2451.505594
385.043923,1480.411884,-12287.418637,-612.876398
385.044246,1184.329507,-11843.295072,-536.266849
385.044568,1332.370696,-10732.986159,-689.485948
385.044890,1110.308913,-9400.615463,-995.924147
385.045213,1702.473667,-8956.491898,-995.924147
385.045535,2442.679609,-8290.306550,-306.438199
385.045857,3256.906145,-7846.182985,-919.314598
385.046180,4367.215058,-7772.162391,-1532.190996
385.046502,5699.585753,-8364.327145,-1378.971896
385.046825,6439.791695,-8438.347739,-1072.533697
385.047147,6217.729913,-8808.450710,-1072.533697
385.047469,5329.482782,-9104.533087,-1608.800546
385.047792,4293.194464,-10510.924376,-2528.115143
385.048114,3256.906145,-11843.295072,-2757.943793
385.048437,1628.453072,-12213.398043,-2068.457845
385.048759,296.082377,-11843.295072,-995.924147
385.049081,148.041188,-11029.068536,0.000000
385.049404,222.061783,-9696.697840,-383.047749
385.049726,0.000000,-8142.265362,0.000000
385.050048,-666.185348,-6883.915261,76.609550
385.050371,-814.226536,-6143.709319,383.047749
385.050693,-296.082377,-5403.503377,689.485948
385.051016,518.144159,-5551.544565,-995.924147
385.051338,814.226536,-6439.791695,-1685.410096
385.051660,888.247130,-7772.162391,-1455.581446
385.051983,814.226536,-8882.471304,-1149.143247
385.052305,1110.308913,-10362.883188,-1762.019645
385.052628,1110.308913,-11399.171507,-2757.943793
385.052950,444.123565,-11695.253884,-3447.429741
385.053272,-1110.308913,-11251.130318,-3064.381992
385.053595,-2294.638420,-11473.192101,-2604.724693
385.053917,-3478.967927,-11917.315666,-2757.943793
385.054239,-4663.297435,-11399.171507,-2681.334243
385.054562,-5033.400406,-11029.068536,-1991.848295
385.054884,-4737.318029,-11399.171507,-1149.143247
385.055207,-3478.967927,-10881.027347,-689.485948
385.055529,-2072.576638,-9770.718434,0.000000
385.055851,-814.226536,-8512.368333,536.266849
385.056174,444.123565,-7254.018232,766.095498
385.056496,2294.638420,-5847.626942,-306.438199
385.056819,3404.947333,-5255.462188,-995.924147
385.057141,4737.318029,-4959.379811,-995.924147
385.057463,6291.750507,-5995.668130,-2757.943793
385.057786,7105.977043,-8512.368333,-3983.696590
385.058108,7402.059420,-11177.109724,-3600.648841
385.058430,6513.812290,-12213.398043,-1915.238745
385.058753,4367.215058,-13323.706956,-1915.238745
385.059075,740.205942,-12953.603985,-1991.848295
385.059398,-2294.638420,-11251.130318,-1455.581446
385.059720,-4885.359217,-10214.842000,-3600.648841
385.060042,-7920.203579,-9992.780217,-3830.477490
385.060365,-9400.615463,-9030.512492,-1455.581446
385.060687,-8586.388927,-7179.997637,-2681.334243
385.061010,-6365.771101,-6217.729913,-2681.334243
385.061332,-1998.556043,-8956.491898,-1685.410096
385.061654,1184.329507,-9918.759623,-1762.019645
385.061977,3256.906145,-10584.944971,-2604.724693
385.062299,5255.462188,-10658.965565,-2298.286494
385.062621,7772.162391,-10288.862594,-1225.752797
385.062944,10658.965565,-9252.574275,-1915.238745
385.063266,11103.089130,-7624.121203,-2221.676944
385.063589,9474.636058,-5551.544565,-612.876398
385.063911,8808.450710,-7254.018232,-1378.971896
385.064233,7920.203579,-11177.109724,-2451.505594
385.064556,5551.544565,-14211.954086,0.000000
385.064878,1406.391290,-12583.501014,1225.752797
385.065200,-3627.009116,-9770.718434,1302.362347
385.065523,-5921.647536,-9622.677246,1378.971896
385.065845,-6957.935855,-7698.141797,1378.971896
385.066168,-8808.450710,-5477.523971,-995.924147
385.066490,-9844.739029,-5255.462188,-995.924147
385.066812,-11029.068536,-6291.750507,383.047749
385.067135,-9992.780217,-7031.956449,-919.314598
385.067457,-7402.059420,-10584.944971,-3830.477490
385.067780,-3256.906145,-12731.542202,-4519.963438
385.068103,444.123565,-12435.459826,-6205.373534
385.068425,3034.844362,-12953.603985,-5132.839837
385.068748,4737.318029,-12509.480420,-1532.190996
385.069071,5995.668130,-9474.636058,-689.485948
385.069393,6661.853478,-6661.853478,-4979.620737
385.069716,7105.977043,-7031.956449,-7048.078582
385.070038,6365.771101,-10214.842000,-2757.943793
385.070361,3627.009116,-10732.986159,995.924147
385.070684,-888.247130,-10436.903782,4060.306139
385.071006,-4293.194464,-10584.944971,5286.058936
385.071329,-5699.585753,-9178.553681,3064.381992
385.071651,-6439.791695,-7105.977043,-306.438199
385.071974,-7846.182985,-7105.977043,-2221.676944
385.072297,-8216.285956,-8068.244768,612.876398
385.072619,-7031.956449,-5773.606348,2681.334243
385.072942,-4367.215058,-5477.523971,919.314598
385.073265,-740.205942,-8068.244768,-3064.381992
385.073587,4293.194464,-11991.336260,-6435.202183
385.073910,6513.812290,-13249.686362,-6818.249932
385.074232,7254.018232,-13841.851115,-4136.915689
385.074555,6513.812290,-11843.295072,-1455.581446
385.074878,6439.791695,-9918.759623,-2757.943793
385.075200,6439.791695,-9252.574275,-6971.469032
385.075523,4293.194464,-11251.130318,-5822.325785
385.075845,148.041188,-11325.150913,-2451.505594
385.076168,-5033.400406,-9844.739029,-306.438199
385.076491,-8660.409521,-9030.512492,2681.334243
385.076813,-8808.450710,-8068.244768,3447.429741
385.077136,-9992.780217,-7698.141797,0.000000
385.077459,-10955.047942,-7254.018232,153.219100
385.077781,-10807.006753,-5477.523971,2451.505594
385.078104,-9104.533087,-4219.173869,1685.410096
385.078426,-4367.215058,-6883.915261,-459.657299
385.078749,1036.288319,-8512.368333,-1838.629195
385.079072,5255.462188,-8438.347739,-3677.258390
385.079394,8438.347739,-11177.109724,-4673.182538
385.079717,11991.336260,-12065.356855,-1991.848295
385.080040,14285.974681,-10066.800811,-4366.744339
385.080362,13471.748144,-9030.512492,-6435.202183
385.080685,10510.924376,-10732.986159,-4903.011187
385.081007,6069.688724,-12287.418637,-3064.381992
385.081330,222.061783,-11991.336260,-3677.258390
385.081653,-5477.523971,-11547.212695,-2757.943793
385.081975,-7994.224174,-9918.759623,-1149.143247
385.082298,-8290.306550,-10214.842000,-1991.848295
385.082620,-10584.944971,-9622.677246,-995.924147
385.082943,-11991.336260,-9696.697840,4596.572988
385.083266,-11177.109724,-5551.544565,2911.162892
385.083588,-8142.265362,-4737.318029,-383.047749
385.083911,-1998.556043,-7031.956449,-2298.286494
385.084234,2442.679609,-6587.832884,-3830.477490
385.084556,5551.544565,-9400.615463,-5132.839837
385.084879,9326.594869,-12435.459826,-2068.457845
385.085201,12657.521608,-12953.603985,2221.676944
385.085524,14878.139434,-9104.533087,-229.828649
385.085847,13249.686362,-6217.729913,-7048.078582
385.086169,10066.800811,-11547.212695,-7048.078582
385.086492,6735.874072,-15396.283594,-4060.306139
385.086815,222.061783,-12805.562797,76.609550
385.087137,-7254.018232,-11621.233289,2451.505594
385.087460,-11325.150913,-9844.739029,2068.457845
385.087782,-12879.583391,-7105.977043,-612.876398
385.088105,-11843.295072,-5921.647536,-1915.238745
385.088428,-13397.727550,-9770.718434,-229.828649
385.088750,-13915.871710,-10066.800811,2911.162892
385.089073,-11103.089130,-6587.832884,4826.401637
385.089395,-7179.997637,-1850.514855,2451.505594
385.089718,-3627.009116,-5255.462188,-2451.505594
385.090041,1702.473667,-9770.718434,-6281.983084
385.090363,6587.832884,-9770.718434,-6665.030833
385.090686,8364.327145,-10955.047942,-3677.258390
385.091009,9178.553681,-11029.068536,995.924147
385.091331,11251.130318,-9178.553681,-842.705048
385.091654,12065.356855,-8660.409521,-7354.516781
385.091976,11177.109724,-12805.562797,-6511.811733
385.092299,7402.059420,-12953.603985,-2911.162892
385.092622,0.000000,-11547.212695,689.485948
385.092944,-5403.503377,-9918.759623,6052.154434
385.093267,-8882.471304,-7698.141797,5669.106685
385.093589,-9252.574275,-6587.832884,-766.095498
385.093912,-7846.182985,-7476.080014,-2987.772442
385.094235,-9104.533087,-8364.327145,229.828649
385.094557,-8808.450710,-8142.265362,6205.373534
385.094880,-6143.709319,-4367.215058,5209.449386
385.095203,-2516.700203,-3552.988522,153.219100
385.095525,2368.659014,-8216.285956,-5056.230287
385.095848,6291.750507,-10288.862594,-8427.050478
385.096170,8142.265362,-10732.986159,-9193.145976
385.096493,7994.224174,-12731.542202,-5439.278036
385.096816,8068.244768,-12361.439231,-1378.971896
385.097138,8216.285956,-12139.377449,-3907.087040
385.097461,6513.812290,-12361.439231,-8733.488677
385.097784,3701.029710,-14211.954086,-7967.393179
385.098106,-1406.391290,-14508.036463,-4979.620737
385.098429,-5625.565159,-12435.459826,-229.828649
385.098751,-9030.512492,-8586.388927,3140.991542
385.099074,-9992.780217,-7031.956449,2451.505594
385.099397,-8808.450710,-8586.388927,459.657299
385.099719,-7772.162391,-9030.512492,2145.067394
385.100042,-7550.100608,-6143.709319,4060.306139
385.100364,-6143.709319,-3108.864956,3524.039291
385.100687,-2220.617826,-3849.070898,2451.505594
385.101010,3182.885551,-6069.688724,919.314598
385.101332,6809.894666,-6365.771101,-3524.039291
385.101655,7624.121203,-8882.471304,-5898.935335
385.101978,9992.780217,-10288.862594,-4596.572988
385.102300,12065.356855,-9696.697840,-4903.011187
385.102623,11029.068536,-10732.986159,-7431.126331
385.102945,7846.182985,-13545.768739,-6588.421283
385.103268,3034.844362,-15100.201217,-4060.306139
385.103591,-2368.659014,-14730.098246,-4673.182538
385.103913,-7846.182985,-13397.727550,-4213.525239
385.104236,-11917.315666,-9992.780217,-2451.505594
385.104558,-12953.603985,-7179.997637,-1762.019645
385.104881,-11843.295072,-8808.450710,-1072.533697
385.105204,-11843.295072,-10732.986159,2834.553343
385.105526,-10807.006753,-8734.430116,5898.935335
385.105849,-7402.059420,-3256.906145,2451.505594
385.106172,-2590.720797,-2442.679609,153.219100
385.106494,3256.906145,-5773.606348,0.000000
385.106817,6957.935855,-5107.421000,-2451.505594
385.107139,8734.430116,-8660.409521,-3753.867940
385.107462,11473.192101,-10436.903782,1302.362347
385.107785,13101.645173,-9400.615463,76.609550
385.108107,12583.501014,-8512.368333,-8044.002729
385.108430,10362.883188,-14211.954086,-8350.440928
385.108753,5773.606348,-17320.819043,-3447.429741
385.109075,-1554.432478,-16284.530724,-1608.800546
385.109398,-7402.059420,-15988.448347,-306.438199
385.109720,-10955.047942,-11399.171507,0.000000
385.110043,-13397.727550,-6365.771101,-3983.696590
385.110366,-13545.768739,-6587.832884,-2681.334243
385.110688,-13767.830521,-9400.615463,1991.848295
385.111011,-13545.768739,-10510.924376,2911.162892
385.111333,-9918.759623,-8586.388927,4749.792088
385.111656,-5477.523971,-3330.926739,4443.353888
385.111979,-2442.679609,-2368.659014,689.485948
385.112301,1998.556043,-6069.688724,-3064.381992
385.112624,6365.771101,-6513.812290,-4136.915689
385.112947,8142.265362,-6587.832884,-3140.991542
385.113269,9992.780217,-6735.874072,-1532.190996
385.113592,10881.027347,-8956.491898,-4060.306139
385.113914,11251.130318,-13249.686362,-7431.126331
385.114237,10510.924376,-16876.695478,-5362.668486
385.114560,5403.503377,-16580.613101,-1455.581446
385.114882,-1554.432478,-15026.180623,-76.609550
385.115205,-4959.379811,-12805.562797,2221.676944
385.115528,-8956.491898,-6291.750507,1762.019645
385.115850,-9400.615463,-4219.173869,-1915.238745
385.116173,-10807.006753,-6735.874072,-3064.381992
385.116495,-8660.409521,-9770.718434,536.266849
385.116818,-6883.915261,-8882.471304,5362.668486
385.117141,-3849.070898,-4145.153275,5132.839837
385.117463,0.000000,-5181.441594,1838.629195
385.117786,5329.482782,-7994.224174,-2681.334243
385.118108,9474.636058,-7105.977043,-6052.154434
385.118431,9622.677246,-7328.038826,-7354.516781
385.118754,8808.450710,-10066.800811,-4060.306139
385.119076,9696.697840,-9252.574275,-689.485948
385.119399,9326.594869,-10288.862594,-5209.449386
385.119722,7105.977043,-14804.118840,-8120.612279
385.120044,3108.864956,-18653.189738,-5362.668486
385.120367,-2442.679609,-17912.983796,-2681.334243
385.120689,-7772.162391,-13989.892304,842.705048
385.121012,-11325.150913,-9252.574275,1838.629195
385.121335,-13027.624579,-5255.462188,-766.095498
385.121657,-11399.171507,-4293.194464,-2298.286494
385.121980,-10362.883188,-6735.874072,306.438199
385.122302,-9548.656652,-7920.203579,3907.087040
385.122625,-6439.791695,-5699.585753,3830.477490
385.122948,-1850.514855,-5477.523971,1762.019645
385.123270,2590.720797,-7772.162391,689.485948
385.123593,6217.729913,-7846.182985,-2834.553343
385.123916,7476.080014,-6809.894666,-6358.592633
385.124238,10140.821405,-7254.018232,-5745.716235
385.124561,11473.192101,-8216.285956,-6435.202183
385.124883,10658.965565,-10881.027347,-7354.516781
385.125206,8364.327145,-14582.057057,-5745.716235
385.125529,4071.132681,-16580.613101,-3140.991542
385.125851,-1258.350101,-16950.716072,-2834.553343
385.126174,-5847.626942,-15692.365970,-2451.505594
385.126497,-9696.697840,-10436.903782,-689.485948
385.126819,-11103.089130,-5329.482782,-766.095498
385.127142,-11843.295072,-6217.729913,-1532.190996
385.127464,-10955.047942,-9104.533087,1838.629195
385.127787,-8882.471304,-7846.182985,4136.915689
385.128110,-5995.668130,-2664.741391,2145.067394
385.128432,-2368.659014,-3849.070898,1455.581446
385.128755,3627.009116,-7846.182985,-229.828649
385.129077,7624.121203,-7550.100608,-2757.943793
385.129400,7846.182985,-8660.409521,-4366.744339
385.129723,9252.574275,-9548.656652,-689.485948
385.130045,11621.233289,-8882.471304,-2987.772442
385.130368,11251.130318,-9030.512492,-8886.707777
385.130691,8882.471304,-12879.583391,-6971.469032
385.131013,4145.153275,-15692.365970,-2068.457845
385.131336,-1776.494261,-17246.798449,-1532.190996
385.131658,-6513.812290,-17098.757260,229.828649
385.131981,-10807.006753,-11695.253884,306.438199
385.132304,-13841.851115,-5921.647536,-2757.943793
385.132626,-12953.603985,-5625.565159,-2451.505594
385.132949,-13175.665768,-8068.244768,1762.019645
385.133272,-12139.377449,-7846.182985,4366.744339
385.133594,-8438.347739,-5773.606348,4136.915689
385.133917,-4293.194464,-2294.638420,1838.629195
385.134239,-370.102971,-5403.503377,0.000000
385.134562,3775.050304,-8068.244768,-1838.629195
385.134885,6365.771101,-7772.162391,-4903.011187
385.135207,8364.327145,-8216.285956,-3600.648841
385.135530,10510.924376,-7698.141797,-1685.410096
385.135852,12139.377449,-8586.388927,-5209.449386
385.136175,10955.047942,-12583.501014,-7277.907231
385.136498,8808.450710,-15988.448347,-3447.429741
385.136820,3330.926739,-15766.386565,-995.924147
385.137143,-2368.659014,-16062.468941,76.609550
385.137466,-5995.668130,-11103.089130,2604.724693
385.137788,-8956.491898,-5995.668130,-459.657299
385.138111,-10658.965565,-3627.009116,-2987.772442
385.138433,-9696.697840,-8956.491898,-1378.971896
385.138756,-8586.388927,-8290.306550,3140.991542
385.139079,-6735.874072,-6587.832884,3907.087040
385.139401,-4071.132681,-4071.132681,2834.553343
385.139724,0.000000,-7254.018232,0.000000
385.140046,5551.544565,-9474.636058,-3600.648841
385.140369,7920.203579,-9178.553681,-6435.202183
385.140692,7920.203579,-9992.780217,-5898.935335
385.141014,9030.512492,-9400.615463,-1685.410096
385.141337,10288.862594,-7994.224174,-3217.601092
385.141660,9400.615463,-9992.780217,-8427.050478
385.141982,6365.771101,-16062.468941,-7124.688131
385.142305,2442.679609,-18283.086767,-4060.306139
385.142627,-2812.782580,-17246.798449,-995.924147
385.142950,-7476.080014,-13693.809927,2451.505594
385.143273,-10732.986159,-8142.265362,1762.019645
385.143595,-11103.089130,-4367.215058,-1762.019645
385.143918,-10214.842000,-4515.256246,-1608.800546
385.144241,-10732.986159,-5477.523971,2528.115143
385.144563,-9474.636058,-5625.565159,4290.134789
385.144886,-5699.585753,-4737.318029,1762.019645
385.145208,-1406.391290,-6291.750507,766.095498
385.145531,2590.720797,-9400.615463,-459.657299
385.145854,5403.503377,-9622.677246,-4366.744339
385.146176,7328.038826,-9622.677246,-5286.058936
385.146499,9696.697840,-8438.347739,-3217.601092
385.146821,11029.068536,-8438.347739,-4903.011187
385.147144,10066.800811,-10658.965565,-7201.297681
385.147467,7920.203579,-14063.912898,-5669.106685
385.147789,4071.132681,-15470.304188,-2681.334243
385.148112,-814.226536,-15544.324782,-1378.971896
385.148435,-5403.503377,-14063.912898,153.219100
385.148757,-8808.450710,-8734.430116,1455.581446
385.149080,-10881.027347,-4663.297435,76.609550
385.149402,-11695.253884,-4071.132681,-229.828649
385.149725,-10881.027347,-6217.729913,229.828649
385.150048,-8438.347739,-6365.771101,1762.019645
385.150370,-6143.709319,-4145.153275,2834.553343
385.150693,-2812.782580,-4515.256246,1991.848295
385.151016,1480.411884,-8660.409521,-766.095498
385.151338,6217.729913,-9696.697840,-3830.477490
385.151661,7550.100608,-10214.842000,-5515.887586
385.151983,9030.512492,-9696.697840,-3830.477490
385.152306,10510.924376,-9030.512492,-4903.011187
385.152629,10732.986159,-10584.944971,-7660.954980
385.152951,9104.533087,-14285.974681,-6511.811733
385.153274,5033.400406,-16210.510130,-2604.724693
385.153596,-518.144159,-16506.592507,-1762.019645
385.153919,-5181.441594,-15618.345376,-689.485948
385.154242,-8512.368333,-10214.842000,459.657299
385.154564,-11325.150913,-6143.709319,-842.705048
385.154887,-12287.418637,-4515.256246,-383.047749
385.155210,-12361.439231,-7550.100608,1838.629195
385.155532,-9918.759623,-7698.141797,2834.553343
385.155855,-7105.977043,-5551.544565,3830.477490
385.156177,-3849.070898,-3034.844362,1762.019645
385.156500,-888.247130,-6513.812290,76.609550
385.156823,4071.132681,-8882.471304,-1762.019645
385.157145,6587.832884,-8808.450710,-4443.353888
385.157468,7772.162391,-9030.512492,-5132.839837
385.157790,9622.677246,-8660.409521,-2987.772442
385.158113,10807.006753,-8808.450710,-5745.716235
385.158436,10214.842000,-12435.459826,-7124.688131
385.158758,8290.306550,-15914.427753,-4673.182538
385.159081,3182.885551,-15692.365970,-1455.581446
385.159404,-2368.659014,-15470.304188,-306.438199
385.159726,-5847.626942,-11473.192101,2757.943793
385.160049,-9178.553681,-5477.523971,612.876398
385.160371,-10066.800811,-2738.761985,-1608.800546
385.160694,-10214.842000,-6957.935855,-1378.971896
385.161017,-9622.677246,-7402.059420,2987.772442
385.161339,-7920.203579,-6069.688724,5056.230287
385.161662,-4737.318029,-2516.700203,3294.210641
385.161985,-222.061783,-6587.832884,-766.095498
385.162307,5329.482782,-9474.636058,-3677.258390
385.162630,8586.388927,-9770.718434,-5515.887586
385.162952,8956.491898,-11325.150913,-5822.325785
385.163275,9326.594869,-11695.253884,-2145.067394
385.163598,10362.883188,-9252.574275,-2145.067394
385.163920,9252.574275,-8808.450710,-7048.078582
385.164243,6957.935855,-14285.974681,-8350.440928
385.164565,3775.050304,-18949.272115,-5132.839837
385.164888,-666.185348,-18357.107362,-1608.800546
385.165211,-5329.482782,-13249.686362,2757.943793
385.165533,-9474.636058,-9104.533087,2528.115143
385.165856,-10881.027347,-5551.544565,76.609550
385.166179,-9474.636058,-5107.421000,-612.876398
385.166501,-10066.800811,-6587.832884,1302.362347
385.166824,-10436.903782,-6069.688724,3524.039291
385.167146,-7328.038826,-5181.441594,3983.696590
385.167469,-2812.782580,-4663.297435,1915.238745
385.167791,1776.494261,-7105.977043,76.609550
385.168114,5033.400406,-8882.471304,-3370.820191
385.168436,7328.038826,-8660.409521,-6205.373534
385.168759,9548.656652,-8438.347739,-4366.744339
385.169081,9326.594869,-8216.285956,-4749.792088
385.169404,8808.450710,-10881.027347,-7354.516781
385.169726,7772.162391,-15026.180623,-7737.564530
385.170049,5329.482782,-17098.757260,-4673.182538
385.170371,148.041188,-16358.551318,-2221.676944
385.170694,-4885.359217,-15026.180623,0.000000
385.171017,-8290.306550,-10214.842000,1915.238745
385.171339,-10140.821405,-5329.482782,919.314598
385.171662,-11399.171507,-4145.153275,-536.266849
385.171984,-11325.150913,-7179.997637,0.000000
385.172307,-9474.636058,-6365.771101,2757.943793
385.172629,-6069.688724,-3182.885551,4290.134789
385.172952,-2960.823768,-1998.556043,3983.696590
385.173274,2072.576638,-6661.853478,0.000000
385.173597,6735.874072,-7698.141797,-2681.334243
385.173919,8216.285956,-8882.471304,-3753.867940
385.174242,8808.450710,-9326.594869,-3524.039291
385.174564,10214.842000,-9992.780217,-4596.572988
385.174887,10140.821405,-10436.903782,-7890.783629
385.175209,8512.368333,-13989.892304,-7507.735880
385.175532,4367.215058,-16062.468941,-4060.306139
385.175854,-1258.350101,-16950.716072,-3064.381992
385.176177,-5921.647536,-16506.592507,-2987.772442
385.176499,-9622.677246,-12065.356855,-919.314598
385.176822,-12435.459826,-7550.100608,-1915.238745
385.177144,-13175.665768,-7105.977043,-2374.896044
385.177467,-12657.521608,-8660.409521,612.876398
385.177789,-10288.862594,-7698.141797,4213.525239
385.178112,-7105.977043,-4811.338623,3677.258390
385.178434,-2738.761985,-1702.473667,1225.752797
385.178757,1480.411884,-5773.606348,0.000000
385.179079,7105.977043,-7179.997637,-306.438199
385.179402,9844.739029,-8142.265362,-4826.401637
385.179724,11843.295072,-9326.594869,-4060.306139
385.180047,14137.933492,-8734.430116,-1838.629195
385.180369,14952.160028,-8438.347739,-5439.278036
385.180692,13027.624579,-11843.295072,-6971.469032
385.181014,9104.533087,-16136.489536,-3830.477490
385.181337,3552.988522,-16136.489536,-1991.848295
385.181659,-2516.700203,-15914.427753,-1149.143247
385.181982,-7550.100608,-11843.295072,1225.752797
385.182304,-10807.006753,-6735.874072,-536.266849
385.182627,-10658.965565,-5551.544565,-3294.210641
385.182949,-10510.924376,-8660.409521,-2221.676944
385.183272,-10140.821405,-9104.533087,5975.544884
385.183594,-9178.553681,-4293.194464,5209.449386
385.183917,-6217.729913,-1702.473667,1302.362347
385.184239,-296.082377,-5995.668130,-766.095498
385.184562,5255.462188,-8142.265362,-3830.477490
385.184884,6809.894666,-9622.677246,-6052.154434
385.185207,6957.935855,-11695.253884,-2451.505594
385.185529,8882.471304,-8956.491898,1685.410096
385.185852,11103.089130,-8216.285956,-4443.353888
385.186174,10584.944971,-10807.006753,-9806.022374
385.186497,7624.121203,-16210.510130,-6511.811733
385.186819,2368.659014,-16580.613101,-2068.457845
385.187142,-3701.029710,-15840.407159,306.438199
385.187464,-7846.182985,-13915.871710,3447.429741
385.187787,-11177.109724,-9030.512492,1149.143247
385.188109,-14063.912898,-4589.276840,-2681.334243
385.188432,-13693.809927,-6439.791695,-153.219100
385.188754,-13693.809927,-7846.182985,3370.820191
385.189077,-11103.089130,-5921.647536,2298.286494
385.189399,-6217.729913,-5625.565159,2221.676944
385.189722,-2368.659014,-4219.173869,2681.334243
385.190045,814.226536,-6809.894666,-383.047749
385.190367,3923.091493,-8882.471304,-3830.477490
385.190690,6809.894666,-8512.368333,-5286.058936
385.191012,8660.409521,-7994.224174,-5975.544884
385.191335,9400.615463,-8882.471304,-7354.516781
385.191657,9474.636058,-13027.624579,-6588.421283
385.191980,8512.368333,-15248.242405,-4596.572988
385.192302,5181.441594,-15396.283594,-2451.505594
385.192625,-740.205942,-15988.448347,-1378.971896
385.192947,-5181.441594,-13397.727550,612.876398
385.193270,-8512.368333,-7254.018232,842.705048
385.193592,-9474.636058,-4071.132681,-459.657299
385.193915,-10807.006753,-5995.668130,-1225.752797
385.194237,-8956.491898,-7254.018232,1532.190996
385.194560,-6661.853478,-5625.565159,3907.087040
385.194882,-3849.070898,-2960.823768,3753.867940
385.195205,-296.082377,-4589.276840,1838.629195
385.195527,5181.441594,-8660.409521,-1915.238745
385.195850,9178.553681,-8882.471304,-4290.134789
385.196172,10658.965565,-9474.636058,-6205.373534
385.196495,11251.130318,-10584.944971,-4826.401637
385.196817,12879.583391,-10288.862594,-2451.505594
385.197140,11843.295072,-8956.491898,-6205.373534
385.197462,8512.368333,-13619.789333,-7737.564530
385.197785,4737.318029,-18061.024985,-5362.668486
385.198107,-296.082377,-17912.983796,-2681.334243
385.198430,-5551.544565,-15100.201217,229.828649
385.198752,-10140.821405,-10436.903782,1762.019645
385.199075,-13175.665768,-5699.585753,0.000000
385.199397,-11621.233289,-4441.235652,-1608.800546
385.199720,-11843.295072,-5181.441594,612.876398
385.200042,-12065.356855,-6217.729913,4903.011187
385.200365,-9770.718434,-5329.482782,2604.724693
385.200687,-4811.338623,-4293.194464,-612.876398
385.201010,148.041188,-8068.244768,-766.095498
385.201332,4737.318029,-9030.512492,-2834.553343
385.201655,6957.935855,-9918.759623,-6205.373534
385.201977,9770.718434,-9844.739029,-3677.258390
385.202300,11325.150913,-9178.553681,-2451.505594
385.202622,12065.356855,-10066.800811,-7737.564530
385.202945,10732.986159,-14434.015869,-8733.488677
385.203267,8068.244768,-16876.695478,-3677.258390
385.203590,2294.638420,-15322.262999,-689.485948
385.203912,-3478.967927,-15100.201217,76.609550
385.204235,-6735.874072,-11103.089130,2987.772442
385.204557,-9844.739029,-5847.626942,919.314598
385.204880,-12139.377449,-3923.091493,-612.876398
385.205202,-11547.212695,-7550.100608,1225.752797
385.205525,-11103.089130,-5995.668130,2604.724693
385.205847,-8290.306550,-4663.297435,4136.915689
385.206170,-5033.400406,-2516.700203,3830.477490
385.206492,-1702.473667,-4219.173869,1072.533697
385.206815,3182.885551,-8438.347739,-3524.039291
385.207137,6735.874072,-10214.842000,-5056.230287
385.207460,7031.956449,-10584.944971,-4443.353888
385.207782,7550.100608,-9548.656652,-3370.820191
385.208105,8512.368333,-9326.594869,-7048.078582
385.208428,9030.512492,-13545.768739,-9652.803275
385.208750,7624.121203,-17764.942608,-6971.469032
385.209073,3182.885551,-17172.777854,-2451.505594
385.209395,-3923.091493,-16506.592507,0.000000
385.209718,-7772.162391,-13989.892304,2528.115143
385.210040,-9770.718434,-8068.244768,1608.800546
385.210363,-11991.336260,-4441.235652,-1302.362347
385.210685,-11991.336260,-4515.256246,612.876398
385.211008,-11843.295072,-5699.585753,3370.820191
385.211330,-8734.430116,-5255.462188,4826.401637
385.211653,-4589.276840,-4367.215058,4903.011187
385.211975,-740.205942,-2812.782580,2374.896044
385.212298,3256.906145,-7920.203579,-1532.190996
385.212620,8364.327145,-9030.512492,-3600.648841
385.212943,10288.862594,-8882.471304,-5439.278036
385.213265,11325.150913,-8586.388927,-4903.011187
385.213588,11843.295072,-9400.615463,-4979.620737
385.213910,11621.233289,-12953.603985,-6818.249932
385.214233,9622.677246,-16728.654289,-7354.516781
385.214555,5403.503377,-17394.839637,-4213.525239
385.214878,-1406.391290,-16506.592507,-2604.724693
385.215200,-5995.668130,-14804.118840,0.000000
385.215523,-9474.636058,-9030.512492,2374.896044
385.215845,-11177.109724,-3775.050304,-459.657299
385.216168,-11547.212695,-6143.709319,-2987.772442
385.216490,-10881.027347,-6883.915261,3140.991542
385.216813,-9474.636058,-3997.112087,5209.449386
385.217135,-6291.750507,-814.226536,2681.334243
385.217458,-1332.370696,-3627.009116,919.314598
385.217780,5033.400406,-7624.121203,-1915.238745
385.218103,9400.615463,-8290.306550,-4903.011187
385.218425,10066.800811,-11399.171507,-4673.182538
385.218748,11399.171507,-10658.965565,-995.924147
385.219070,13471.748144,-9622.677246,-3753.867940
385.219393,13027.624579,-9474.636058,-9652.803275
385.219715,9104.533087,-15692.365970,-7967.393179
385.220038,3627.009116,-17764.942608,-4060.306139
385.220360,-2516.700203,-17690.922014,-2451.505594
385.220683,-7772.162391,-15544.324782,689.485948
385.221005,-11843.295072,-10955.047942,1072.533697
385.221328,-14434.015869,-6217.729913,-1149.143247
385.221650,-13915.871710,-3627.009116,-995.924147
385.221973,-14730.098246,-5625.565159,1532.190996
385.222295,-12731.542202,-6069.688724,4060.306139
385.222618,-8956.491898,-3849.070898,3294.210641
385.222940,-4811.338623,-1850.514855,1532.190996
385.223263,-1184.329507,-6217.729913,0.000000
385.223585,3552.988522,-9252.574275,-3294.210641
385.223908,6735.874072,-10436.903782,-5362.668486
385.224230,9104.533087,-8068.244768,-3830.477490
385.224553,10288.862594,-7624.121203,-5362.668486
385.224875,11251.130318,-11325.150913,-8656.879127
385.225198,11399.171507,-15988.448347,-7431.126331
385.225520,7624.121203,-16580.613101,-3140.991542
385.225843,370.102971,-16580.613101,-1378.971896
385.226165,-4071.132681,-16876.695478,383.047749
385.226488,-7105.977043,-11843.295072,1838.629195
385.226810,-10732.986159,-5995.668130,-766.095498
385.227133,-13027.624579,-4441.235652,0.000000
385.227456,-12879.583391,-7698.141797,1455.581446
385.227778,-9252.574275,-5625.565159,2451.505594
385.228101,-6365.771101,-3701.029710,4749.792088
385.228423,-3701.029710,-740.205942,4290.134789
385.228746,-518.144159,-4219.173869,383.047749
385.229068,5477.523971,-8956.491898,-2757.943793
385.229391,9400.615463,-9030.512492,-5515.887586
385.229713,10658.965565,-10658.965565,-6818.249932
385.230036,10881.027347,-11917.315666,-5209.449386
385.230358,10881.027347,-10881.027347,-3064.381992
385.230681,9400.615463,-11843.295072,-5362.668486
385.231003,5847.626942,-15396.283594,-7124.688131
385.231326,1628.453072,-19023.292709,-5362.668486
385.231648,-2590.720797,-18431.127956,-1685.410096
385.231971,-8068.244768,-13027.624579,2068.457845
385.232293,-11843.295072,-8290.306550,2451.505594
385.232616,-11843.295072,-5921.647536,1072.533697
385.232938,-10288.862594,-4515.256246,1225.752797
385.233261,-9474.636058,-2886.803174,4596.572988
385.233583,-8882.471304,-1480.411884,4903.011187
385.233906,-6217.729913,-2442.679609,2451.505594
385.234228,-666.185348,-5847.626942,459.657299
385.234551,4589.276840,-7476.080014,-612.876398
385.234873,7772.162391,-8364.327145,-3830.477490
385.235196,10732.986159,-10140.821405,-6281.983084
385.235518,13027.624579,-10288.862594,-4749.792088
385.235841,12953.603985,-10510.924376,-4519.963438
385.236163,9474.636058,-12213.398043,-6665.030833
385.236486,5255.462188,-15618.345376,-7431.126331
385.236808,2072.576638,-18505.148550,-6741.640382
385.237131,-1998.556043,-16580.613101,-3294.210641
385.237453,-6143.709319,-13323.706956,-1149.143247
385.237776,-8882.471304,-10140.821405,459.657299
385.238098,-10510.924376,-7179.997637,1838.629195
385.238421,-10362.883188,-5773.606348,3140.991542
385.238743,-9770.718434,-3997.112087,3217.601092
385.239066,-9030.512492,-1628.453072,2068.457845
385.239388,-4811.338623,-2516.700203,689.485948
385.239711,888.247130,-4441.235652,459.657299
385.240033,4811.338623,-6883.915261,-1378.971896
385.240356,8438.347739,-9474.636058,-2451.505594
385.240678,11251.130318,-11177.109724,-2528.115143
385.241001,13545.768739,-10732.986159,-3600.648841
385.241323,12953.603985,-10288.862594,-6205.373534
385.241646,8586.388927,-11103.089130,-8120.612279
385.241968,3552.988522,-14804.118840,-6741.640382
385.242291,-1036.288319,-17394.839637,-3753.867940
385.242613,-5921.647536,-16358.551318,-1532.190996
385.242936,-11103.089130,-13915.871710,-2374.896044
385.243258,-14211.954086,-10362.883188,-1915.238745
385.243581,-14656.077652,-7920.203579,459.657299
385.243903,-14656.077652,-6217.729913,2681.334243
385.244226,-15100.201217,-5181.441594,3907.087040
385.244548,-12287.418637,-3034.844362,2451.505594
385.244871,-7254.018232,-1998.556043,612.876398
385.245193,-1776.494261,-3627.009116,-459.657299
385.245516,2442.679609,-5773.606348,-1991.848295
385.245838,6365.771101,-8586.388927,-3064.381992
385.246161,11251.130318,-10288.862594,-3600.648841
385.246484,14656.077652,-10881.027347,-3983.696590
385.246806,14508.036463,-10807.006753,-4979.620737
385.247129,11769.274478,-10955.047942,-6435.202183
385.247451,6957.935855,-13989.892304,-5286.058936
385.247774,2812.782580,-16358.551318,-3217.601092
385.248096,-1702.473667,-15618.345376,-1991.848295
385.248419,-6143.709319,-12879.583391,-1455.581446
385.248741,-9548.656652,-9474.636058,-536.266849
385.249064,-10288.862594,-8512.368333,1915.238745
385.249386,-10807.006753,-6883.915261,2987.772442
385.249709,-10362.883188,-5107.421000,2757.943793
385.250031,-8142.265362,-3478.967927,2374.896044
385.250354,-4293.194464,-3552.988522,1378.971896
385.250676,296.082377,-4515.256246,-689.485948
385.250999,3923.091493,-6661.853478,-2374.896044
385.251321,7328.038826,-9252.574275,-3370.820191
385.251644,10584.944971,-11473.192101,-3140.991542
385.251966,12361.439231,-11621.233289,-4213.525239
385.252289,12065.356855,-11325.150913,-5898.935335
385.252611,8734.430116,-11843.295072,-5898.935335
385.252934,5107.421000,-14359.995275,-6128.763984
385.253256,1332.370696,-15766.386565,-4366.744339
385.253579,-2516.700203,-14582.057057,-1991.848295
385.253901,-6587.832884,-12213.398043,-766.095498
385.254224,-9252.574275,-9548.656652,612.876398
385.254546,-11177.109724,-7846.182985,1302.362347
385.254869,-11621.233289,-7328.038826,3294.210641
385.255191,-11029.068536,-5773.606348,3370.820191
385.255514,-9622.677246,-3849.070898,2298.286494
385.255836,-5995.668130,-3552.988522,995.924147
385.256159,-1332.370696,-4293.194464,-306.438199
385.256481,1850.514855,-6587.832884,-1685.410096
385.256804,5107.421000,-9474.636058,-3064.381992
385.257126,8586.388927,-11399.171507,-3983.696590
385.257449,11325.150913,-11621.233289,-4749.792088
385.257771,12879.583391,-11769.274478,-5975.544884
385.258094,11029.068536,-12509.480420,-5515.887586
385.258416,7772.162391,-13101.645173,-5132.839837
385.258739,4145.153275,-13915.871710,-3447.429741
385.259061,0.000000,-12805.562797,-1455.581446
385.259384,-4219.173869,-10584.944971,0.000000
385.259706,-7624.121203,-8660.409521,0.000000
385.260029,-9770.718434,-7402.059420,995.924147
385.260351,-10658.965565,-7179.997637,2757.943793
385.260674,-10732.986159,-6143.709319,3447.429741
385.260996,-9696.697840,-4737.318029,3140.991542
385.261319,-7179.997637,-3478.967927,1072.533697
385.261641,-3256.906145,-4367.215058,-306.438199
385.261964,814.226536,-5995.668130,-2681.334243
385.262286,4145.153275,-9030.512492,-4673.182538
385.262609,7550.100608,-11547.212695,-5056.230287
385.262931,10140.821405,-12953.603985,-4443.353888
385.263254,11177.109724,-12805.562797,-5056.230287
385.263576,10510.924376,-12805.562797,-6205.373534
385.263899,7994.224174,-13545.768739,-6665.030833
385.264221,4737.318029,-15100.201217,-5515.887586
385.264544,962.267725,-14359.995275,-2451.505594
385.264867,-3701.029710,-11473.192101,0.000000
385.265189,-7624.121203,-9178.553681,766.095498
385.265512,-9696.697840,-7476.080014,1302.362347
385.265834,-11103.089130,-6735.874072,1225.752797
385.266157,-11991.336260,-6217.729913,2834.553343
385.266479,-11177.109724,-5995.668130,3983.696590
385.266802,-9400.615463,-3478.967927,2374.896044
385.267124,-5699.585753,-3627.009116,0.000000
385.267447,-1258.350101,-5477.523971,-1762.019645
385.267769,2146.597232,-7476.080014,-4596.572988
385.268091,5107.421000,-10362.883188,-5362.668486
385.268414,8068.244768,-12065.356855,-5209.449386
385.268736,9992.780217,-12435.459826,-4903.011187
385.269059,10214.842000,-12879.583391,-5822.325785
385.269381,8808.450710,-13175.665768,-6741.640382
385.269704,6439.791695,-14952.160028,-4903.011187
385.270026,3552.988522,-14804.118840,-2987.772442
385.270349,-814.226536,-12287.418637,-383.047749
385.270671,-4663.297435,-9622.677246,1915.238745
385.270994,-6957.935855,-7402.059420,2374.896044
385.271316,-7920.203579,-6143.709319,2068.457845
385.271638,-9104.533087,-5625.565159,2221.676944
385.271961,-9770.718434,-4737.318029,4673.182538
385.272283,-8660.409521,-2738.761985,3753.867940
385.272606,-5181.441594,-2886.803174,76.609550
385.272928,0.000000,-5773.606348,-1915.238745
385.273251,4663.297435,-8512.368333,-3983.696590
385.273573,7105.977043,-11325.150913,-4903.011187
385.273896,9770.718434,-13693.809927,-3600.648841
385.274218,11473.192101,-14434.015869,-3370.820191
385.274541,11547.212695,-13249.686362,-4673.182538
385.274863,9474.636058,-12805.562797,-5898.935335
385.275185,5477.523971,-13397.727550,-6205.373534
385.275508,1998.556043,-14952.160028,-4366.744339
385.275830,-1480.411884,-13323.706956,-536.266849
385.276153,-5551.544565,-9770.718434,1838.629195
385.276475,-8956.491898,-7328.038826,2298.286494
385.276798,-11103.089130,-5921.647536,2911.162892
385.277120,-10881.027347,-5847.626942,3217.601092
385.277443,-11843.295072,-3552.988522,4366.744339
385.277765,-11621.233289,-2590.720797,3370.820191
385.278088,-9178.553681,-2812.782580,766.095498
385.278410,-5181.441594,-4515.256246,-995.924147
385.278733,-666.185348,-7105.977043,-2681.334243
385.279055,2590.720797,-9696.697840,-4979.620737
385.279377,6439.791695,-12361.439231,-6281.983084
385.279700,9844.739029,-13397.727550,-6052.154434
385.280022,10881.027347,-13397.727550,-5898.935335
385.280345,9770.718434,-14063.912898,-6281.983084
385.280667,7031.956449,-14359.995275,-6205.373534
385.280990,4811.338623,-14804.118840,-5286.058936
385.281312,1850.514855,-13545.768739,-2834.553343
385.281635,-2146.597232,-11103.089130,0.000000
385.281957,-5255.462188,-7846.182985,2298.286494
385.282280,-7031.956449,-7179.997637,2451.505594
385.282602,-8216.285956,-6513.812290,3524.039291
385.282924,-7994.224174,-5773.606348,3830.477490
385.283247,-7920.203579,-2664.741391,2757.943793
385.283569,-5921.647536,-2294.638420,995.924147
385.283892,-1628.453072,-4219.173869,-383.047749
385.284214,2220.617826,-6217.729913,-2451.505594
385.284537,4885.359217,-9696.697840,-4366.744339
385.284859,7994.224174,-12509.480420,-4596.572988
385.285182,9918.759623,-14211.954086,-4979.620737
385.285504,10510.924376,-13693.809927,-6128.763984
385.285827,8882.471304,-13619.789333,-6665.030833
385.286149,5033.400406,-14137.933492,-7124.688131
385.286471,1406.391290,-15026.180623,-6435.202183
385.286794,-1554.432478,-14508.036463,-3370.820191
385.287116,-4589.276840,-11621.233289,-1225.752797
385.287439,-8142.265362,-8586.388927,-459.657299
385.287761,-9548.656652,-7772.162391,1225.752797
385.288084,-10584.944971,-7105.977043,3064.381992
385.288406,-11103.089130,-5477.523971,4903.011187
385.288729,-10658.965565,-3330.926739,3600.648841
385.289051,-8438.347739,-1554.432478,2298.286494
385.289374,-4737.318029,-3034.844362,0.000000
385.289696,-518.144159,-5255.462188,-1302.362347
385.290018,2590.720797,-7772.162391,-2604.724693
385.290341,6439.791695,-10584.944971,-4060.306139
385.290663,9844.739029,-12953.603985,-4596.572988
385.290986,12213.398043,-13397.727550,-4903.011187
385.291308,12065.356855,-13175.665768,-5362.668486
385.291631,10066.800811,-13989.892304,-6052.154434
385.291953,7328.038826,-15174.221811,-4903.011187
385.292276,3997.112087,-14434.015869,-2451.505594
385.292598,-518.144159,-11547.212695,-229.828649
385.292921,-5033.400406,-8586.388927,919.314598
385.293243,-7624.121203,-7920.203579,1455.581446
385.293566,-7846.182985,-8068.244768,1455.581446
385.293888,-9474.636058,-7402.059420,3064.381992
385.294210,-9400.615463,-5847.626942,4979.620737
385.294533,-8956.491898,-2368.659014,3370.820191
385.294855,-5699.585753,-2516.700203,536.266849
385.295178,-1258.350101,-4145.153275,-1532.190996
385.295500,2886.803174,-7031.956449,-4443.353888
385.295823,5329.482782,-10807.006753,-5286.058936
385.296145,7920.203579,-13767.830521,-3753.867940
385.296468,9474.636058,-14730.098246,-2298.286494
385.296790,10288.862594,-13471.748144,-4366.744339
385.297113,9252.574275,-13841.851115,-7201.297681
385.297435,6365.771101,-14730.098246,-6511.811733
385.297757,3108.864956,-14656.077652,-3830.477490
385.298080,-962.267725,-11917.315666,-536.266849
385.298402,-5625.565159,-8882.471304,1455.581446
385.298725,-8882.471304,-7476.080014,1762.019645
385.299047,-9844.739029,-6809.894666,1991.848295
385.299370,-11177.109724,-5255.462188,2068.457845
385.299692,-12139.377449,-4885.359217,3524.039291
385.300015,-11991.336260,-3849.070898,4749.792088
385.300337,-8956.491898,-2664.741391,2604.724693
385.300660,-5033.400406,-3330.926739,-689.485948
385.300982,-1406.391290,-6291.750507,-2911.162892
385.301304,2516.700203,-8956.491898,-5286.058936
385.301627,6291.750507,-11621.233289,-6205.373534
385.301949,9622.677246,-13027.624579,-5515.887586
385.302272,10658.965565,-14063.912898,-4903.011187
385.302594,10066.800811,-13915.871710,-5822.325785
385.302917,7994.224174,-14285.974681,-6665.030833
385.303239,4663.297435,-15396.283594,-5286.058936
385.303562,518.144159,-13767.830521,-3524.039291
385.303884,-4071.132681,-11399.171507,-1762.019645
385.304207,-6883.915261,-9326.594869,919.314598
385.304529,-7920.203579,-8142.265362,2068.457845
385.304851,-9030.512492,-7624.121203,2681.334243
385.305174,-9178.553681,-5477.523971,3524.039291
385.305496,-8660.409521,-2664.741391,3600.648841
385.305819,-7105.977043,-2146.597232,1838.629195
385.306141,-2738.761985,-3552.988522,0.000000
385.306464,1628.453072,-5181.441594,-1838.629195
385.306786,4959.379811,-8068.244768,-4443.353888
385.307109,7920.203579,-11103.089130,-4826.401637
385.307431,10658.965565,-13989.892304,-3983.696590
385.307754,11325.150913,-14211.954086,-4673.182538
385.308076,9770.718434,-14359.995275,-5745.716235
385.308399,6587.832884,-14434.015869,-5898.935335
385.308721,3108.864956,-15914.427753,-6281.983084
385.309043,592.164754,-15988.448347,-4213.525239
385.309366,-2812.782580,-12805.562797,-766.095498
385.309688,-6957.935855,-8660.409521,1225.752797
385.310011,-9844.739029,-6957.935855,1762.019645
385.310333,-10362.883188,-5773.606348,2987.772442
385.310656,-10214.842000,-4515.256246,3370.820191
385.310978,-9252.574275,-3404.947333,2604.724693
385.311301,-6291.750507,-2812.782580,1685.410096
385.311623,-2664.741391,-3256.906145,1072.533697
385.311946,444.123565,-5773.606348,383.047749
385.312268,3404.947333,-8068.244768,-766.095498
385.312590,6291.750507,-10362.883188,-3370.820191
385.312913,9178.553681,-11325.150913,-5669.106685
385.313235,9992.780217,-11103.089130,-6281.983084
385.313558,8808.450710,-12213.398043,-5745.716235
385.313880,6069.688724,-13397.727550,-4903.011187
385.314203,3478.967927,-14582.057057,-4903.011187
385.314525,1332.370696,-14656.077652,-3677.258390
385.314848,-1184.329507,-12361.439231,-1991.848295
385.315170,-4811.338623,-9622.677246,-612.876398
385.315493,-8216.285956,-9178.553681,689.485948
385.315815,-10436.903782,-7846.182985,4443.353888
385.316137,-11325.150913,-5255.462188,4060.306139
385.316460,-10732.986159,-3478.967927,1302.362347
385.316782,-8068.244768,-3923.091493,0.000000
385.317105,-3627.009116,-4737.318029,-766.095498
385.317427,222.061783,-6809.894666,-995.924147
385.317750,4737.318029,-9474.636058,-612.876398
385.318072,9252.574275,-11621.233289,-1532.190996
385.318395,12435.459826,-12361.439231,-3447.429741
385.318717,12879.583391,-11843.295072,-4443.353888
385.319040,10584.944971,-11547.212695,-3830.477490
385.319362,6513.812290,-11843.295072,-5822.325785
385.319684,3108.864956,-14137.933492,-6128.763984
385.320007,0.000000,-14285.974681,-2834.553343
385.320329,-3701.029710,-12139.377449,-842.705048
385.320652,-7772.162391,-10066.800811,0.000000
385.320974,-9844.739029,-8586.388927,1685.410096
385.321297,-11029.068536,-8512.368333,1991.848295
385.321619,-12435.459826,-7105.977043,2987.772442
385.321942,-13767.830521,-4367.215058,3294.210641
385.322264,-13989.892304,-1480.411884,1991.848295
385.322587,-9474.636058,-2886.803174,-1532.190996
385.322909,-3923.091493,-5255.462188,-3217.601092
385.323232,222.061783,-7476.080014,-3524.039291
385.323554,3849.070898,-9844.739029,-4443.353888
385.323876,8734.430116,-12731.542202,-3753.867940
385.324199,12731.542202,-14137.933492,-4213.525239
385.324521,13545.768739,-13027.624579,-5209.449386
385.324844,11473.192101,-11399.171507,-5592.497135
385.325166,7846.182985,-12065.356855,-4979.620737
385.325489,4367.215058,-13101.645173,-3140.991542
385.325811,1258.350101,-12731.542202,-842.705048
385.326134,-2960.823768,-9992.780217,612.876398
385.326456,-6069.688724,-9252.574275,919.314598
385.326779,-7624.121203,-8956.491898,1378.971896
385.327101,-7920.203579,-8068.244768,3524.039291
385.327423,-9104.533087,-4885.359217,3907.087040
385.327746,-8734.430116,-2812.782580,2221.676944
385.328068,-7031.956449,-2960.823768,306.438199
385.328391,-2442.679609,-4071.132681,-2374.896044
385.328713,1036.288319,-6883.915261,-4519.963438
385.329036,4589.276840,-11621.233289,-6052.154434
385.329358,8216.285956,-14359.995275,-4366.744339
385.329681,11473.192101,-15174.221811,-4443.353888
385.330003,11917.315666,-14582.057057,-5515.887586
385.330326,9770.718434,-13619.789333,-4979.620737
385.330648,6291.750507,-12879.583391,-5439.278036
385.330970,2220.617826,-13175.665768,-5822.325785
385.331293,-1332.370696,-12361.439231,-2987.772442
385.331615,-5403.503377,-9548.656652,-306.438199
385.331938,-8438.347739,-8512.368333,919.314598
385.332260,-9844.739029,-8438.347739,3064.381992
385.332583,-10510.924376,-8438.347739,4826.401637
385.332905,-10584.944971,-5403.503377,4749.792088
385.333228,-9992.780217,-2590.720797,3217.601092
385.333550,-7402.059420,-1998.556043,1915.238745
385.333873,-4071.132681,-2738.761985,229.828649
385.334195,-666.185348,-4737.318029,-1532.190996
385.334518,2220.617826,-8512.368333,-3447.429741
385.334840,5699.585753,-11325.150913,-4366.744339
385.335162,9400.615463,-12657.521608,-5362.668486
385.335485,10955.047942,-12805.562797,-5975.544884
385.335807,9696.697840,-12287.418637,-5669.106685
385.336130,7254.018232,-13545.768739,-5669.106685
385.336452,4441.235652,-14434.015869,-4903.011187
385.336775,666.185348,-13989.892304,-3217.601092
385.337097,-4293.194464,-11251.130318,-1225.752797
385.337420,-8068.244768,-9030.512492,153.219100
385.337742,-10140.821405,-7846.182985,1685.410096
385.338065,-9548.656652,-8290.306550,2681.334243
385.338387,-10362.883188,-5625.565159,4290.134789
385.338709,-9992.780217,-3330.926739,4060.306139
385.339032,-7920.203579,-2146.597232,1762.019645
385.339354,-3849.070898,-2960.823768,0.000000
385.339677,222.061783,-5181.441594,-2451.505594
385.339999,3256.906145,-8586.388927,-4213.525239
385.340322,7105.977043,-11991.336260,-4290.134789
385.340644,10807.006753,-14137.933492,-4213.525239
385.340967,12509.480420,-14211.954086,-4519.963438
385.341289,11843.295072,-13915.871710,-5515.887586
385.341612,8660.409521,-14137.933492,-6052.154434
385.341934,4885.359217,-15396.283594,-5745.716235
385.342256,1258.350101,-14582.057057,-4213.525239
385.342579,-3330.926739,-11621.233289,-1762.019645
385.342901,-7328.038826,-9696.697840,0.000000
385.343224,-9548.656652,-8660.409521,995.924147
385.343546,-10732.986159,-7994.224174,2987.772442
385.343869,-12361.439231,-6143.709319,4519.963438
385.344191,-12435.459826,-4145.153275,3830.477490
385.344514,-10140.821405,-1702.473667,612.876398
385.344836,-5551.544565,-2368.659014,-612.876398
385.345159,-1406.391290,-3849.070898,-1225.752797
385.345481,1998.556043,-7105.977043,-2528.115143
385.345803,5847.626942,-10140.821405,-3907.087040
385.346126,10584.944971,-12435.459826,-5056.230287
385.346448,12435.459826,-12879.583391,-5439.278036
385.346771,11991.336260,-12805.562797,-5515.887586
385.347093,9918.759623,-13027.624579,-5822.325785
385.347416,6883.915261,-14063.912898,-5515.887586
385.347738,4663.297435,-14952.160028,-3830.477490
385.348061,888.247130,-12657.521608,-612.876398
385.348383,-3627.009116,-9992.780217,536.266849
385.348706,-7031.956449,-8290.306550,2068.457845
385.349028,-8660.409521,-8364.327145,2604.724693
385.349351,-9992.780217,-7254.018232,2911.162892
385.349673,-10214.842000,-4737.318029,4519.963438
385.349995,-9252.574275,-2146.597232,2451.505594
385.350318,-7105.977043,-1628.453072,153.219100
385.350640,-2368.659014,-3478.967927,-1608.800546
385.350963,1924.535449,-6809.894666,-3677.258390
385.351285,4737.318029,-11029.068536,-5592.497135
385.351608,8364.327145,-14211.954086,-4903.011187
385.351930,11103.089130,-15692.365970,-4673.182538
385.352253,11843.295072,-14359.995275,-4673.182538
385.352575,9844.739029,-13767.830521,-5056.230287
385.352898,6291.750507,-14211.954086,-5898.935335
385.353220,2664.741391,-14434.015869,-5209.449386
385.353542,-1110.308913,-12731.542202,-3064.381992
385.353865,-5699.585753,-10214.842000,-229.828649
385.354187,-9918.759623,-8808.450710,2221.676944
385.354510,-11103.089130,-7846.182985,4060.306139
385.354832,-11991.336260,-7105.977043,3983.696590
385.355155,-12139.377449,-5699.585753,3907.087040
385.355477,-11325.150913,-3330.926739,4749.792088
385.355800,-9474.636058,-370.102971,2681.334243
385.356122,-5995.668130,-888.247130,-153.219100
385.356445,-1628.453072,-4589.276840,-2451.505594
385.356767,2590.720797,-7846.182985,-4979.620737
385.357089,5921.647536,-11399.171507,-5745.716235
385.357412,9400.615463,-13619.789333,-4826.401637
385.357734,10881.027347,-13767.830521,-4903.011187
385.358057,10658.965565,-13693.809927,-6511.811733
385.358379,8290.306550,-14582.057057,-6281.983084
385.358702,5403.503377,-15766.386565,-4443.353888
385.359024,1406.391290,-13989.892304,-3600.648841
385.359347,-3404.947333,-11325.150913,-1225.752797
385.359669,-6957.935855,-8586.388927,1685.410096
385.359992,-8660.409521,-7402.059420,2068.457845
385.360314,-9548.656652,-7031.956449,2298.286494
385.360636,-9770.718434,-6143.709319,4673.182538
385.360959,-9918.759623,-3108.864956,4903.011187
385.361281,-7846.182985,-962.267725,2221.676944
385.361604,-3849.070898,-2146.597232,0.000000
385.361926,962.267725,-4293.194464,-2145.067394
385.362249,4885.359217,-7550.100608,-4903.011187
385.362571,8808.450710,-11473.192101,-5056.230287
385.362894,12065.356855,-14952.160028,-4060.306139
385.363216,14211.954086,-15248.242405,-4290.134789
385.363539,13027.624579,-14434.015869,-5439.278036
385.363861,8882.471304,-14878.139434,-6358.592633
385.364184,4589.276840,-16432.571912,-6205.373534
385.364506,888.247130,-15544.324782,-4979.620737
385.364828,-3775.050304,-11991.336260,-2757.943793
385.365151,-8290.306550,-9326.594869,-306.438199
385.365473,-10807.006753,-8512.368333,1762.019645
385.365796,-11473.192101,-8438.347739,2451.505594
385.366118,-11177.109724,-6365.771101,4213.525239
385.366441,-10955.047942,-3849.070898,3140.991542
385.366763,-8882.471304,-1924.535449,1685.410096
385.367086,-4589.276840,-1776.494261,306.438199
385.367408,-296.082377,-2960.823768,-689.485948
385.367731,2516.700203,-6217.729913,-3600.648841
385.368053,5847.626942,-10436.903782,-4903.011187
385.368375,10288.862594,-13545.768739,-4903.011187
385.368698,13397.727550,-13397.727550,-5822.325785
385.369020,13027.624579,-13101.645173,-6052.154434
385.369343,9844.739029,-13175.665768,-5286.058936
385.369665,6661.853478,-14508.036463,-4596.572988
385.369988,3701.029710,-15100.201217,-3447.429741
385.370310,-518.144159,-12139.377449,-1455.581446
385.370633,-5107.421000,-9548.656652,-229.828649
385.370955,-8068.244768,-8438.347739,766.095498
385.371278,-9104.533087,-8142.265362,2834.553343
385.371600,-10362.883188,-6217.729913,4519.963438
385.371922,-10658.965565,-3775.050304,4749.792088
385.372245,-9696.697840,-2072.576638,3217.601092
385.372567,-7402.059420,-2294.638420,306.438199
385.372890,-3404.947333,-3849.070898,-2068.457845
385.373212,444.123565,-7328.038826,-4366.744339
385.373535,3775.050304,-11399.171507,-4979.620737
385.373857,7772.162391,-14359.995275,-4213.525239
385.374180,10732.986159,-14211.954086,-3983.696590
385.374502,11473.192101,-13471.748144,-5132.839837
385.374825,9622.677246,-13693.809927,-6281.983084
385.375147,6069.688724,-15322.262999,-6128.763984
385.375469,2442.679609,-15988.448347,-4903.011187
385.375792,-1776.494261,-13471.748144,-2145.067394
385.376114,-6439.791695,-10658.965565,76.609550
385.376437,-9252.574275,-9474.636058,2451.505594
385.376759,-8808.450710,-8734.430116,3217.601092
385.377082,-10140.821405,-7031.956449,2757.943793
385.377404,-10955.047942,-4811.338623,4749.792088
385.377727,-10214.842000,-2368.659014,5592.497135
385.378049,-8142.265362,0.000000,2911.162892
385.378372,-5033.400406,-962.267725,-689.485948
385.378694,-1258.350101,-4737.318029,-2757.943793
385.379017,1924.535449,-7550.100608,-4903.011187
385.379339,6217.729913,-10510.924376,-5822.325785
385.379661,10066.800811,-13989.892304,-5822.325785
385.379984,12731.542202,-15248.242405,-5132.839837
385.380306,12657.521608,-14359.995275,-5209.449386
385.380629,9622.677246,-13471.748144,-5132.839837
385.380951,5847.626942,-14508.036463,-4749.792088
385.381274,2442.679609,-15174.221811,-3677.258390
385.381596,-2146.597232,-11843.295072,-1302.362347
385.381919,-6513.812290,-8882.471304,766.095498
385.382241,-9474.636058,-7846.182985,2145.067394
385.382564,-9474.636058,-6957.935855,4443.353888
385.382886,-9252.574275,-4293.194464,4290.134789
385.383208,-9178.553681,-1702.473667,2987.772442
385.383531,-6883.915261,-2072.576638,1762.019645
385.383853,-2664.741391,-2812.782580,-383.047749
385.384176,1628.453072,-4737.318029,-3217.601092
385.384498,4959.379811,-9104.533087,-5056.230287
385.384821,8142.265362,-12435.459826,-4290.134789
385.385143,11917.315666,-14434.015869,-4979.620737
385.385466,13323.706956,-15618.345376,-6205.373534
385.385788,11325.150913,-15988.448347,-5515.887586
385.386111,7328.038826,-16580.613101,-5975.544884
385.386433,3404.947333,-15618.345376,-6128.763984
385.386755,-148.041188,-14656.077652,-4290.134789
385.387078,-4071.132681,-12213.398043,-2681.334243
385.387400,-7994.224174,-9474.636058,-1225.752797
385.387723,-11177.109724,-8068.244768,1225.752797
385.388045,-13027.624579,-7624.121203,5286.058936
385.388368,-13027.624579,-5255.462188,4903.011187
385.388690,-10881.027347,-2590.720797,2451.505594
385.389013,-7994.224174,-1776.494261,995.924147
385.389335,-4737.318029,-2442.679609,1149.143247
385.389658,-814.226536,-4219.173869,383.047749
385.389980,2812.782580,-7994.224174,-2298.286494
385.390302,6735.874072,-10288.862594,-2987.772442
385.390625,9622.677246,-11251.130318,-4979.620737
385.390947,11029.068536,-11547.212695,-6052.154434
385.391270,9918.759623,-11843.295072,-5898.935335
385.391592,7846.182985,-13915.871710,-5209.449386
385.391915,5477.523971,-15766.386565,-4673.182538
385.392237,2590.720797,-15248.242405,-3140.991542
385.392560,-1554.432478,-11991.336260,-612.876398
385.392882,-5625.565159,-9844.739029,1838.629195
385.393205,-7550.100608,-8660.409521,2068.457845
385.393527,-8734.430116,-8586.388927,2681.334243
385.393850,-10362.883188,-5551.544565,4519.963438
385.394172,-11103.089130,-2664.741391,5515.887586
385.394494,-9992.780217,-962.267725,2451.505594
385.394817,-5995.668130,-2368.659014,-229.828649
385.395139,-962.267725,-4441.235652,-2681.334243
385.395462,2516.700203,-7698.141797,-4136.915689
385.395784,6365.771101,-11769.274478,-3907.087040
385.396107,10288.862594,-14211.954086,-2987.772442
385.396429,12657.521608,-14952.160028,-3907.087040
385.396752,12435.459826,-13989.892304,-5439.278036
385.397074,9252.574275,-14211.954086,-5975.544884
385.397397,5181.441594,-15248.242405,-5898.935335
385.397719,1702.473667,-15766.386565,-5209.449386
385.398041,-2368.659014,-12805.562797,-1991.848295
385.398364,-6809.894666,-10140.821405,-306.438199
385.398686,-9622.677246,-9030.512492,1302.362347
385.399009,-10584.944971,-8882.471304,2451.505594
385.399331,-10732.986159,-6809.894666,2911.162892
385.399654,-11547.212695,-3627.009116,3830.477490
385.399976,-11325.150913,-666.185348,3370.820191
385.400299,-7994.224174,-518.144159,1302.362347
385.400621,-4071.132681,-2368.659014,-1838.629195
385.400944,-296.082377,-5033.400406,-4596.572988
385.401266,2886.803174,-9326.594869,-5898.935335
385.401588,7476.080014,-12731.542202,-5439.278036
385.401911,11325.150913,-14434.015869,-4903.011187
385.402233,12731.542202,-14434.015869,-5669.106685
385.402556,11251.130318,-14508.036463,-5132.839837
385.402878,8068.244768,-13989.892304,-4596.572988
385.403201,4737.318029,-13915.871710,-4749.792088
385.403523,1406.391290,-12213.398043,-3217.601092
385.403846,-2738.761985,-9696.697840,-919.314598
385.404168,-6439.791695,-8586.388927,689.485948
385.404491,-8808.450710,-8808.450710,3830.477490
385.404813,-9918.759623,-6957.935855,5745.716235
385.405135,-9252.574275,-4145.153275,3447.429741
385.405458,-8364.327145,-1702.473667,1149.143247
385.405780,-5477.523971,-1850.514855,689.485948
385.406103,-1998.556043,-2294.638420,-689.485948
385.406425,1036.288319,-5477.523971,-3447.429741
385.406748,4367.215058,-9770.718434,-4596.572988
385.407070,7476.080014,-13027.624579,-4443.353888
385.407393,11473.192101,-15544.324782,-5592.497135
385.407715,12657.521608,-16432.571912,-5975.544884
385.408038,11103.089130,-16136.489536,-4596.572988
385.408360,7624.121203,-14804.118840,-4596.572988
385.408683,3849.070898,-14508.036463,-4749.792088
385.409005,814.226536,-13841.851115,-3370.820191
385.409327,-3552.988522,-10288.862594,-1991.848295
385.409650,-7550.100608,-8438.347739,-612.876398
385.409972,-9474.636058,-9178.553681,2834.553343
385.410295,-11251.130318,-8512.368333,5132.839837
385.410617,-11547.212695,-5255.462188,5132.839837
385.410940,-10658.965565,-2146.597232,3677.258390
385.411262,-8956.491898,-1184.329507,1762.019645
385.411585,-5921.647536,-2368.659014,-689.485948
385.411907,-2368.659014,-4441.235652,-2145.067394
385.412230,296.082377,-7328.038826,-3294.210641
385.412552,3997.112087,-11251.130318,-5209.449386
385.412874,7105.977043,-14508.036463,-5592.497135
385.413197,9474.636058,-14285.974681,-5132.839837
385.413519,9474.636058,-13619.789333,-5822.325785
385.413842,7994.224174,-14137.933492,-6052.154434
385.414164,6365.771101,-15470.304188,-5209.449386
385.414487,3552.988522,-14211.954086,-2757.943793
385.414809,-962.267725,-11177.109724,0.000000
385.415132,-5033.400406,-8364.327145,2298.286494
385.415454,-7105.977043,-7031.956449,2681.334243
385.415777,-7105.977043,-6957.935855,1915.238745
385.416099,-8586.388927,-5699.585753,3447.429741
385.416421,-10362.883188,-3849.070898,6128.763984
385.416744,-9548.656652,-2368.659014,5209.449386
385.417066,-6587.832884,-1554.432478,536.266849
385.417389,-2442.679609,-3256.906145,-2451.505594
385.417711,518.144159,-6439.791695,-4443.353888
385.418034,3701.029710,-9548.656652,-5515.887586
385.418356,6957.935855,-13101.645173,-4979.620737
385.418679,9178.553681,-15470.304188,-3753.867940
385.419001,9400.615463,-15988.448347,-4903.011187
385.419324,7105.977043,-14878.139434,-6894.859482
385.419646,3923.091493,-16654.633695,-7354.516781
385.419968,1332.370696,-16876.695478,-5132.839837
385.420291,-1628.453072,-13767.830521,-3140.991542
385.420613,-4737.318029,-9918.759623,-153.219100
385.420936,-7105.977043,-7772.162391,2221.676944
385.421258,-7698.141797,-6735.874072,3294.210641
385.421581,-7994.224174,-6587.832884,2757.943793
385.421903,-9252.574275,-4441.235652,4136.915689
385.422226,-9400.615463,-2294.638420,4519.963438
385.422548,-7402.059420,-296.082377,1225.752797
385.422871,-3256.906145,-2368.659014,-1225.752797
385.423193,592.164754,-5255.462188,-2221.676944
385.423515,3627.009116,-7550.100608,-4979.620737
385.423838,7550.100608,-11621.233289,-6205.373534
385.424160,11695.253884,-14359.995275,-5362.668486
385.424483,13175.665768,-15396.283594,-4826.401637
385.424805,12287.418637,-14878.139434,-5286.058936
385.425128,9400.615463,-14211.954086,-5209.449386
385.425450,6291.750507,-14804.118840,-4213.525239
385.425773,2886.803174,-14211.954086,-3677.258390
385.426095,-1628.453072,-10732.986159,-1915.238745
385.426418,-5995.668130,-8364.327145,-153.219100
385.426740,-9252.574275,-7994.224174,1455.581446
385.427063,-10066.800811,-7328.038826,4060.306139
385.427385,-8808.450710,-5477.523971,3524.039291
385.427707,-7476.080014,-2738.761985,2145.067394
385.428030,-5107.421000,-2960.823768,1455.581446
385.428352,-1776.494261,-2368.659014,0.000000
385.428675,2220.617826,-3923.091493,-1685.410096
385.428997,4959.379811,-8290.306550,-3447.429741
385.429320,7624.121203,-11029.068536,-3524.039291
385.429642,9104.533087,-13841.851115,-4366.744339
385.429965,9326.594869,-13841.851115,-4903.011187
385.430287,7550.100608,-14285.974681,-5592.497135
385.430610,4811.338623,-15766.386565,-6818.249932
385.430932,2812.782580,-17098.757260,-5898.935335
385.431254,0.000000,-14359.995275,-3370.820191
385.431577,-4515.256246,-10732.986159,-1532.190996
385.431899,-8290.306550,-9474.636058,306.438199
385.432222,-9696.697840,-9400.615463,1991.848295
385.432544,-11325.150913,-7994.224174,2298.286494
385.432867,-12805.562797,-7328.038826,2757.943793
385.433189,-13175.665768,-4589.276840,4749.792088
385.433512,-10436.903782,-2664.741391,2528.115143
385.433834,-6513.812290,-1332.370696,229.828649
385.434157,-1924.535449,-2960.823768,-1225.752797
385.434479,1850.514855,-6217.729913,-2757.943793
385.434801,5255.462188,-9400.615463,-4290.134789
385.435124,8290.306550,-11769.274478,-3753.867940
385.435446,9326.594869,-12805.562797,-3217.601092
385.435769,9326.594869,-12361.439231,-5515.887586
385.436091,7994.224174,-14211.954086,-6741.640382
385.436414,6069.688724,-15396.283594,-4826.401637
385.436736,3108.864956,-15174.221811,-3600.648841
385.437059,-1554.432478,-13027.624579,-1225.752797
385.437381,-4515.256246,-9918.759623,1991.848295
385.437704,-6809.894666,-7846.182985,1838.629195
385.438026,-7476.080014,-7031.956449,383.047749
385.438348,-8882.471304,-8216.285956,689.485948
385.438671,-11029.068536,-5107.421000,4673.182538
385.438993,-10288.862594,-3108.864956,4596.572988
385.439316,-7179.997637,-888.247130,689.485948
385.439638,-2368.659014,-2812.782580,-2528.115143
385.439961,2368.659014,-5773.606348,-4903.011187
385.440283,5625.565159,-8660.409521,-5822.325785
385.440606,8364.327145,-12657.521608,-4443.353888
385.440928,10436.903782,-15766.386565,-3370.820191
385.441251,11103.089130,-14952.160028,-4366.744339
385.441573,9178.553681,-14804.118840,-6665.030833
385.441896,5699.585753,-15026.180623,-6205.373534
385.442218,2738.761985,-16284.530724,-5439.278036
385.442540,0.000000,-14211.954086,-3140.991542
385.442863,-3182.885551,-10066.800811,76.609550
385.443185,-6143.709319,-8216.285956,1762.019645
385.443508,-7476.080014,-7179.997637,2681.334243
385.443830,-8734.430116,-6883.915261,2757.943793
385.444153,-9548.656652,-5403.503377,3370.820191
385.444475,-9548.656652,-3701.029710,3370.820191
385.444798,-7476.080014,-1850.514855,1838.629195
385.445120,-3552.988522,-1850.514855,0.000000
385.445443,1184.329507,-4441.235652,-1915.238745
385.445765,4145.153275,-6883.915261,-4213.525239
385.446087,6661.853478,-10436.903782,-5745.716235
385.446410,9104.533087,-12509.480420,-4673.182538
385.446732,9622.677246,-13619.789333,-4366.744339
385.447055,7698.141797,-14211.954086,-6205.373534
385.447377,5625.565159,-15914.427753,-6665.030833
385.447700,3849.070898,-16358.551318,-5898.935335
385.448022,1110.308913,-14434.015869,-4213.525239
385.448345,-2368.659014,-11399.171507,-1225.752797
385.448667,-5181.441594,-8882.471304,1915.238745
385.448990,-6365.771101,-7254.018232,2068.457845
385.449312,-7772.162391,-7179.997637,1991.848295
385.449634,-8956.491898,-6661.853478,4366.744339
385.449957,-9104.533087,-4219.173869,3983.696590
385.450279,-7328.038826,-1036.288319,1455.581446
385.450602,-3330.926739,-2294.638420,-153.219100
385.450924,1628.453072,-4145.153275,-1072.533697
385.451247,4885.359217,-6513.812290,-3753.867940
385.451569,7698.141797,-10732.986159,-4290.134789
385.451892,9178.553681,-13249.686362,-2298.286494
385.452214,9030.512492,-14285.974681,-3753.867940
385.452537,6883.915261,-13767.830521,-5439.278036
385.452859,3256.906145,-14285.974681,-6052.154434
385.453181,296.082377,-16136.489536,-6435.202183
385.453504,-1924.535449,-16210.510130,-4903.011187
385.453826,-4219.173869,-12657.521608,-1072.533697
385.454149,-7105.977043,-9030.512492,459.657299
385.454471,-7846.182985,-8216.285956,1072.533697
385.454794,-8586.388927,-9030.512492,2604.724693
385.455116,-9770.718434,-8068.244768,3907.087040
385.455439,-10807.006753,-4737.318029,4366.744339
385.455761,-10214.842000,-1258.350101,2987.772442
385.456084,-6957.935855,-1628.453072,459.657299
385.456406,-1924.535449,-3478.967927,-1915.238745
385.456729,2294.638420,-5699.585753,-3600.648841
385.457051,5921.647536,-9178.553681,-4290.134789
385.457373,9252.574275,-11843.295072,-3370.820191
385.457696,11103.089130,-13027.624579,-3830.477490
385.458018,10362.883188,-13471.748144,-4903.011187
385.458341,7994.224174,-14211.954086,-5822.325785
385.458663,5107.421000,-14878.139434,-5592.497135
385.458986,2368.659014,-14434.015869,-4136.915689
385.459308,-296.082377,-12657.521608,-1762.019645
385.459631,-2886.803174,-9474.636058,536.266849
385.459953,-4589.276840,-8808.450710,1072.533697
385.460276,-5329.482782,-9252.574275,3064.381992
385.460598,-7698.141797,-7402.059420,5132.839837
385.460920,-8068.244768,-4293.194464,3524.039291
385.461243,-7846.182985,-2220.617826,1072.533697
385.461565,-4589.276840,-3404.947333,-229.828649
385.461888,-592.164754,-3627.009116,-2068.457845
385.462210,2960.823768,-5403.503377,-4060.306139
385.462533,6143.709319,-8734.430116,-3907.087040
385.462855,9474.636058,-12139.377449,-3370.820191
385.463178,10881.027347,-13841.851115,-4366.744339
385.463500,9474.636058,-14211.954086,-5515.887586
385.463823,5625.565159,-14582.057057,-5669.106685
385.464145,2960.823768,-15026.180623,-7354.516781
385.464467,0.000000,-15174.221811,-6205.373534
385.464790,-2368.659014,-13101.645173,-2834.553343
385.465112,-5329.482782,-9400.615463,-459.657299
385.465435,-6883.915261,-8142.265362,306.438199
385.465757,-7624.121203,-9622.677246,2604.724693
385.466080,-9104.533087,-8586.388927,4213.525239
385.466402,-10881.027347,-5403.503377,3447.429741
385.466725,-10955.047942,-2368.659014,1838.629195
385.467047,-8142.265362,-2664.741391,459.657299
385.467370,-3330.926739,-3701.029710,-1149.143247
385.467692,888.247130,-4663.297435,-3064.381992
385.468014,4885.359217,-7920.203579,-4060.306139
385.468337,9474.636058,-11325.150913,-2604.724693
385.468659,12435.459826,-12731.542202,-3447.429741
385.468982,12213.398043,-11991.336260,-4290.134789
385.469304,9178.553681,-11917.315666,-5669.106685
385.469627,5403.503377,-14211.954086,-6435.202183
385.469949,2590.720797,-16802.674883,-5515.887586
385.470272,-1628.453072,-14211.954086,-2451.505594
385.470594,-6809.894666,-9474.636058,-766.095498
385.470917,-9104.533087,-7994.224174,612.876398
385.471239,-7846.182985,-8142.265362,1149.143247
385.471562,-7698.141797,-9696.697840,459.657299
385.471884,-9844.739029,-7624.121203,2834.553343
385.472207,-11325.150913,-4737.318029,5209.449386
385.472529,-10658.965565,-1628.453072,2298.286494
385.472852,-6217.729913,-3182.885551,-2374.896044
385.473174,-1184.329507,-4737.318029,-5209.449386
385.473497,2886.803174,-7179.997637,-6741.640382
385.473819,7179.997637,-11251.130318,-5132.839837
385.474142,10658.965565,-14434.015869,-1838.629195
385.474464,11843.295072,-14211.954086,-2145.067394
385.474787,10732.986159,-13323.706956,-4749.792088
385.475109,7402.059420,-13249.686362,-6281.983084
385.475432,3923.091493,-16062.468941,-6128.763984
385.475754,888.247130,-15766.386565,-4903.011187
385.476077,-2960.823768,-11547.212695,-536.266849
385.476399,-5995.668130,-8808.450710,3140.991542
385.476722,-6513.812290,-7772.162391,4596.572988
385.477044,-5699.585753,-7328.038826,3064.381992
385.477367,-6439.791695,-7328.038826,1915.238745
385.477689,-8438.347739,-4737.318029,4290.134789
385.478012,-9178.553681,-1776.494261,5132.839837
385.478334,-7105.977043,-666.185348,1762.019645
385.478657,-3034.844362,-3923.091493,-1838.629195
385.478979,962.267725,-6069.688724,-4749.792088
385.479302,4885.359217,-8216.285956,-7124.688131
385.479624,8734.430116,-12435.459826,-5745.716235
385.479947,10584.944971,-14063.912898,-2757.943793
385.480269,10362.883188,-14211.954086,-2757.943793
385.480592,8216.285956,-12805.562797,-6052.154434
385.480915,5107.421000,-14211.954086,-7354.516781
385.481237,2294.638420,-15174.221811,-6052.154434
385.481560,-962.267725,-12953.603985,-3140.991542
385.481882,-4515.256246,-9548.656652,383.047749
385.482205,-5921.647536,-8216.285956,2987.772442
385.482527,-5107.421000,-9104.533087,3217.601092
385.482850,-5477.523971,-7550.100608,4136.915689
385.483172,-6735.874072,-5107.421000,4443.353888
385.483495,-7105.977043,-2220.617826,2911.162892
385.483817,-5477.523971,-2072.576638,153.219100
385.484140,-1036.288319,-3552.988522,-919.314598
385.484462,2368.659014,-4663.297435,-3753.867940
385.484785,5625.565159,-8956.491898,-6052.154434
385.485107,9326.594869,-13619.789333,-4826.401637
385.485430,12435.459826,-14878.139434,-3600.648841
385.485752,11843.295072,-14730.098246,-3524.039291
385.486075,7994.224174,-14211.954086,-5439.278036
385.486397,3552.988522,-16284.530724,-7354.516781
385.486720,370.102971,-17542.880825,-7277.907231
385.487042,-3330.926739,-13841.851115,-4749.792088
385.487365,-8512.368333,-9622.677246,-1532.190996
385.487687,-10510.924376,-7105.977043,1072.533697
385.488010,-9252.574275,-7402.059420,1762.019645
385.488332,-9326.594869,-8660.409521,2451.505594
385.488655,-10510.924376,-7179.997637,4903.011187
385.488977,-11177.109724,-3923.091493,5209.449386
385.489300,-9622.677246,-888.247130,1915.238745
385.489622,-5773.606348,-962.267725,-612.876398
385.489945,-1554.432478,-3108.864956,-2911.162892
385.490267,2146.597232,-5847.626942,-5132.839837
385.490590,5921.647536,-10066.800811,-4749.792088
385.490912,9326.594869,-11991.336260,-2911.162892
385.491235,11547.212695,-13101.645173,-4136.915689
385.491557,11399.171507,-13915.871710,-6665.030833
385.491880,9474.636058,-16136.489536,-6358.592633
385.492202,6365.771101,-17098.757260,-3983.696590
385.492525,1258.350101,-15396.283594,-2068.457845
385.492847,-4293.194464,-11769.274478,153.219100
385.493170,-7698.141797,-8290.306550,1455.581446
385.493492,-7920.203579,-7328.038826,383.047749
385.493815,-7920.203579,-7698.141797,0.000000
385.494137,-7476.080014,-9030.512492,2681.334243
385.494460,-9178.553681,-4441.235652,6741.640382
385.494782,-7920.203579,-1702.473667,5439.278036
385.495105,-4737.318029,-444.123565,689.485948
385.495427,-444.123565,-2960.823768,-3447.429741
385.495750,3182.885551,-5329.482782,-6511.811733
385.496072,5773.606348,-8660.409521,-6971.469032
385.496395,8142.265362,-13471.748144,-3677.258390
385.496718,9400.615463,-15100.201217,-1532.190996
385.497040,8882.471304,-14285.974681,-4290.134789
385.497363,6735.874072,-15026.180623,-8427.050478
385.497685,3627.009116,-17987.004391,-8273.831378
385.498008,74.020594,-18209.066173,-5592.497135
385.498330,-4663.297435,-13693.809927,-1685.410096
385.498653,-7476.080014,-9326.594869,1685.410096
385.498975,-7846.182985,-7031.956449,2374.896044
385.499298,-7105.977043,-7105.977043,1378.971896
385.499620,-7402.059420,-6883.915261,3140.991542
385.499943,-8290.306550,-5551.544565,5209.449386
385.500265,-7402.059420,-2960.823768,5439.278036
385.500588,-4441.235652,-1110.308913,2681.334243
385.500910,-148.041188,-2072.576638,153.219100
385.501233,3923.091493,-4219.173869,-2911.162892
385.501555,6735.874072,-7254.018232,-5592.497135
385.501878,9696.697840,-10658.965565,-4749.792088
385.502200,11251.130318,-11769.274478,-2528.115143
385.502523,11103.089130,-12213.398043,-3983.696590
385.502845,9326.594869,-14359.995275,-6971.469032
385.503168,6809.894666,-17542.880825,-7201.297681
385.503490,3108.864956,-17542.880825,-5592.497135
385.503813,-1998.556043,-14656.077652,-2911.162892
385.504135,-6365.771101,-11251.130318,842.705048
385.504458,-8142.265362,-8216.285956,1532.190996
385.504780,-9178.553681,-7846.182985,76.609550
385.505103,-8808.450710,-7772.162391,2298.286494
385.505425,-9474.636058,-5477.523971,4903.011187
385.505748,-8290.306550,-2294.638420,2987.772442
385.506070,-5181.441594,-1628.453072,766.095498
385.506393,0.000000,-2368.659014,229.828649
385.506715,3775.050304,-4071.132681,-2528.115143
385.507038,7105.977043,-7846.182985,-4673.182538
385.507360,9548.656652,-11695.253884,-3064.381992
385.507683,10881.027347,-11547.212695,-1991.848295
385.508005,10658.965565,-10807.006753,-4290.134789
385.508328,8068.244768,-13915.871710,-7814.174080
385.508650,5847.626942,-18801.230927,-8427.050478
385.508973,2294.638420,-19467.416275,-5898.935335
385.509295,-3478.967927,-15544.324782,-2221.676944
385.509618,-8438.347739,-12065.356855,383.047749
385.509940,-10510.924376,-9474.636058,1225.752797
385.510263,-10881.027347,-7254.018232,-1378.971896
385.510585,-11251.130318,-6883.915261,-1378.971896
385.510908,-12213.398043,-7846.182985,2757.943793
385.511230,-10955.047942,-4663.297435,5745.716235
385.511553,-8142.265362,-1258.350101,3753.867940
385.511875,-4219.173869,-444.123565,919.314598
385.512198,-222.061783,-3330.926739,-2604.724693
385.512521,3627.009116,-6365.771101,-5669.106685
385.512843,6809.894666,-9252.574275,-4979.620737
385.513166,8660.409521,-11103.089130,-2451.505594
385.513488,9252.574275,-11547.212695,-3524.039291
385.513811,9844.739029,-13249.686362,-7431.126331
385.514133,9178.553681,-16136.489536,-8044.002729
385.514456,6217.729913,-17468.860231,-5439.278036
385.514778,814.226536,-15766.386565,-2298.286494
385.515101,-4145.153275,-13545.768739,842.705048
385.515423,-7179.997637,-9770.718434,2451.505594
385.515746,-7846.182985,-7328.038826,0.000000
385.516068,-8586.388927,-7624.121203,-1302.362347
385.516391,-8364.327145,-7476.080014,2451.505594
385.516713,-7772.162391,-4589.276840,6588.421283
385.517036,-5995.668130,-666.185348,4596.572988
385.517358,-2146.597232,0.000000,1991.848295
385.517681,2960.823768,-3108.864956,-1455.581446
385.518003,6809.894666,-6513.812290,-4979.620737
385.518326,8216.285956,-9178.553681,-6052.154434
385.518648,8734.430116,-13027.624579,-3140.991542
385.518971,9400.615463,-13397.727550,-2068.457845
385.519293,8882.471304,-12953.603985,-5439.278036
385.519616,6217.729913,-15100.201217,-8044.002729
385.519938,2738.761985,-17616.901420,-6358.592633
385.520261,-370.102971,-17912.983796,-4903.011187
385.520583,-4441.235652,-14582.057057,-1608.800546
385.520906,-7994.224174,-10955.047942,1225.752797
385.521228,-9252.574275,-8438.347739,1302.362347
385.521551,-9178.553681,-7698.141797,1838.629195
385.521873,-9918.759623,-5551.544565,3370.820191
385.522196,-10288.862594,-3775.050304,4596.572988
385.522518,-8660.409521,-1036.288319,2911.162892
385.522841,-4885.359217,-1480.411884,1225.752797
385.523163,222.061783,-2960.823768,1149.143247
385.523486,3775.050304,-5255.462188,-2068.457845
385.523808,6809.894666,-8882.471304,-4366.744339
385.524131,9548.656652,-11769.274478,-3830.477490
385.524453,10658.965565,-12583.501014,-3677.258390
385.524776,9252.574275,-11991.336260,-5362.668486
385.525098,6957.935855,-13471.748144,-6511.811733
385.525421,3552.988522,-15914.427753,-6281.983084
385.525743,592.164754,-16950.716072,-5515.887586
385.526066,-3108.864956,-15100.201217,-2528.115143
385.526388,-5921.647536,-11843.295072,536.266849
385.526711,-7328.038826,-9548.656652,1072.533697
385.527033,-7698.141797,-8068.244768,1378.971896
385.527356,-9104.533087,-6661.853478,3524.039291
385.527678,-10066.800811,-3478.967927,3677.258390
385.528001,-8882.471304,-1406.391290,1838.629195
385.528324,-4145.153275,-2738.761985,153.219100
385.528646,888.247130,-3182.885551,-1225.752797
385.528969,5033.400406,-5477.523971,-2911.162892
385.529291,7994.224174,-9770.718434,-2068.457845
385.529614,10807.006753,-12435.459826,-919.314598
385.529936,11843.295072,-12509.480420,-3217.601092
385.530259,10214.842000,-11547.212695,-5439.278036
385.530581,6735.874072,-12731.542202,-6205.373534
385.530904,2442.679609,-15248.242405,-6511.811733
385.531226,-666.185348,-17246.798449,-4826.401637
385.531549,-3923.091493,-15692.365970,-2145.067394
385.531871,-7402.059420,-11843.295072,0.000000
385.532194,-9252.574275,-8808.450710,612.876398
385.532516,-8882.471304,-7920.203579,1302.362347
385.532839,-9622.677246,-7402.059420,1685.410096
385.533161,-10807.006753,-4885.359217,3217.601092
385.533484,-11103.089130,-2072.576638,3217.601092
385.533806,-8364.327145,-1554.432478,1608.800546
385.534129,-4145.153275,-3997.112087,-1685.410096
385.534451,592.164754,-5921.647536,-3370.820191
385.534774,4885.359217,-8586.388927,-4673.182538
385.535096,8808.450710,-11473.192101,-3983.696590
385.535419,11251.130318,-13101.645173,-2451.505594
385.535741,11843.295072,-11991.336260,-2757.943793
385.536064,9770.718434,-10955.047942,-6588.421283
385.536386,7179.997637,-13397.727550,-7277.907231
385.536709,4367.215058,-15988.448347,-5515.887586
385.537031,0.000000,-14582.057057,-1608.800546
385.537354,-4959.379811,-11029.068536,689.485948
385.537676,-7328.038826,-9178.553681,1838.629195
385.537999,-7179.997637,-9030.512492,842.705048
385.538321,-6661.853478,-8438.347739,536.266849
385.538644,-8142.265362,-6735.874072,2987.772442
385.538966,-8290.306550,-3034.844362,3907.087040
385.539289,-6513.812290,-1776.494261,1455.581446
385.539611,-1110.308913,-3404.947333,0.000000
385.539934,2960.823768,-4441.235652,-2604.724693
385.540256,5477.523971,-7772.162391,-5592.497135
385.540579,8364.327145,-11769.274478,-3983.696590
385.540901,10584.944971,-13693.809927,-1685.410096
385.541224,10881.027347,-13101.645173,-2681.334243
385.541546,8512.368333,-11843.295072,-4673.182538
385.541869,5551.544565,-13397.727550,-6511.811733
385.542191,2294.638420,-16136.489536,-6741.640382
385.542514,-1406.391290,-15322.262999,-3064.381992
385.542836,-6217.729913,-11103.089130,76.609550
385.543159,-9622.677246,-8808.450710,842.705048
385.543481,-9178.553681,-8586.388927,1685.410096
385.543804,-9178.553681,-8660.409521,1455.581446
385.544127,-10214.842000,-6661.853478,2451.505594
385.544449,-10510.924376,-3923.091493,3370.820191
385.544772,-8142.265362,-1850.514855,2451.505594
385.545094,-4145.153275,-2516.700203,76.609550
385.545417,74.020594,-4367.215058,-1762.019645
385.545739,3182.885551,-6809.894666,-4366.744339
385.546062,6291.750507,-10214.842000,-5362.668486
385.546384,9104.533087,-12657.521608,-3064.381992
385.546707,10807.006753,-12361.439231,-2604.724693
385.547029,9918.759623,-11843.295072,-5822.325785
385.547352,7920.203579,-13989.892304,-6818.249932
385.547674,4885.359217,-16284.530724,-4903.011187
385.547997,592.164754,-14804.118840,-2451.505594
385.548319,-5033.400406,-11621.233289,-459.657299
385.548642,-8660.409521,-9326.594869,995.924147
385.548964,-9178.553681,-7698.141797,383.047749
385.549287,-8142.265362,-7920.203579,-919.314598
385.549609,-9474.636058,-7624.121203,842.705048
385.549932,-9548.656652,-6883.915261,5515.887586
385.550254,-7994.224174,-3034.844362,4213.525239
385.550577,-4515.256246,-1332.370696,383.047749
385.550899,0.000000,-3997.112087,-2451.505594
385.551222,3627.009116,-6365.771101,-4826.401637
385.551544,6513.812290,-9474.636058,-5898.935335
385.551867,8586.388927,-12805.562797,-3907.087040
385.552189,9474.636058,-14211.954086,-1455.581446
385.552512,9622.677246,-12805.562797,-3677.258390
385.552834,8364.327145,-13101.645173,-7431.126331
385.553157,6069.688724,-16284.530724,-7048.078582
385.553479,1998.556043,-17246.798449,-4060.306139
385.553802,-3108.864956,-13693.809927,-766.095498
385.554124,-7550.100608,-10066.800811,1991.848295
385.554447,-9548.656652,-7846.182985,2298.286494
385.554769,-9252.574275,-7105.977043,0.000000
385.555092,-8734.430116,-7105.977043,-766.095498
385.555414,-8808.450710,-5403.503377,3370.820191
385.555737,-8216.285956,-3552.988522,4979.620737
385.556059,-4959.379811,-1702.473667,2681.334243
385.556382,-1332.370696,-2146.597232,383.047749
385.556704,2072.576638,-5181.441594,-2834.553343
385.557027,4663.297435,-7328.038826,-6511.811733
385.557349,6365.771101,-11325.150913,-6128.763984
385.557672,7994.224174,-12435.459826,-3294.210641
385.557994,8808.450710,-11991.336260,-3294.210641
385.558317,8660.409521,-12139.377449,-6358.592633
385.558639,7105.977043,-15174.221811,-7277.907231
385.558962,4663.297435,-16580.613101,-5056.230287
385.559284,74.020594,-15026.180623,-2451.505594
385.559607,-4515.256246,-11843.295072,689.485948
385.559930,-7105.977043,-9178.553681,2145.067394
385.560252,-7624.121203,-6883.915261,0.000000
385.560575,-7920.203579,-7328.038826,-306.438199
385.560897,-8734.430116,-6809.894666,2911.162892
385.561220,-8216.285956,-3701.029710,4443.353888
385.561542,-5477.523971,-1554.432478,1991.848295
385.561865,-1406.391290,-3182.885551,-306.438199
385.562187,3552.988522,-5181.441594,-1991.848295
385.562510,6143.709319,-7994.224174,-4903.011187
385.562832,8142.265362,-11695.253884,-4749.792088
385.563155,9474.636058,-13841.851115,-2681.334243
385.563477,9474.636058,-13101.645173,-2221.676944
385.563800,7920.203579,-11843.295072,-5515.887586
385.564122,5107.421000,-13101.645173,-7660.954980
385.564445,2220.617826,-16210.510130,-7048.078582
385.564767,-1258.350101,-16432.571912,-4213.525239
385.565090,-5625.565159,-13101.645173,-612.876398
385.565412,-9474.636058,-10881.027347,1532.190996
385.565735,-10807.006753,-9030.512492,2068.457845
385.566057,-9400.615463,-7328.038826,1608.800546
385.566380,-9844.739029,-5329.482782,1302.362347
385.566702,-10066.800811,-3775.050304,3064.381992
385.567025,-8290.306550,-2220.617826,3447.429741
385.567347,-4441.235652,-592.164754,1762.019645
385.567670,-370.102971,-2590.720797,-1072.533697
385.567992,3256.906145,-6143.709319,-2834.553343
385.568315,5773.606348,-9548.656652,-4903.011187
385.568637,8438.347739,-12287.418637,-4136.915689
385.568960,8956.491898,-12583.501014,-2451.505594
385.569282,9400.615463,-12805.562797,-4213.525239
385.569605,8956.491898,-13101.645173,-7277.907231
385.569927,7105.977043,-15174.221811,-6665.030833
385.570250,3108.864956,-14656.077652,-3524.039291
385.570572,-2368.659014,-13619.789333,-919.314598
385.570895,-5995.668130,-11695.253884,689.485948
385.571217,-7105.977043,-9474.636058,689.485948
385.571540,-7624.121203,-8882.471304,-766.095498
385.571862,-8808.450710,-7846.182985,1455.581446
385.572185,-8660.409521,-5699.585753,5439.278036
385.572507,-7994.224174,-1332.370696,3140.991542
385.572830,-3330.926739,-2294.638420,153.219100
385.573152,1850.514855,-4145.153275,-1762.019645
385.573474,5403.503377,-5699.585753,-3600.648841
385.573797,7254.018232,-9030.512492,-4136.915689
385.574119,8734.430116,-12731.542202,-2451.505594
385.574442,9548.656652,-14063.912898,-1838.629195
385.574764,8956.491898,-12953.603985,-4519.963438
385.575087,6513.812290,-12879.583391,-7354.516781
385.575409,3330.926739,-15470.304188,-7507.735880
385.575732,888.247130,-17024.736666,-4903.011187
385.576054,-2886.803174,-13989.892304,-1532.190996
385.576377,-7031.956449,-10214.842000,0.000000
385.576699,-8882.471304,-8808.450710,612.876398
385.577021,-8956.491898,-7772.162391,919.314598
385.577344,-10510.924376,-7031.956449,766.095498
385.577666,-11991.336260,-5699.585753,2604.724693
385.577989,-11325.150913,-3923.091493,3447.429741
385.578311,-7254.018232,-2516.700203,995.924147
385.578634,-1702.473667,-3552.988522,-842.705048
385.578956,2812.782580,-5551.544565,-1532.190996
385.579279,6291.750507,-7105.977043,-3064.381992
385.579601,9474.636058,-10066.800811,-2987.772442
385.579924,11547.212695,-11177.109724,-2221.676944
385.580246,11547.212695,-11621.233289,-4366.744339
385.580569,9622.677246,-11769.274478,-6665.030833
385.580891,6069.688724,-13767.830521,-5592.497135
385.581213,2220.617826,-14582.057057,-3753.867940
385.581536,-2368.659014,-14063.912898,-2451.505594
385.581858,-5773.606348,-12361.439231,-842.705048
385.582181,-8068.244768,-10140.821405,459.657299
385.582503,-9252.574275,-8290.306550,0.000000
385.582826,-9178.553681,-8068.244768,0.000000
385.583148,-9696.697840,-7328.038826,3217.601092
385.583471,-9030.512492,-4441.235652,3064.381992
385.583793,-6735.874072,-2220.617826,766.095498
385.584116,-2368.659014,-3330.926739,-1455.581446
385.584438,3108.864956,-5329.482782,-3217.601092
385.584760,6143.709319,-8216.285956,-4903.011187
385.585083,8808.450710,-11843.295072,-4060.306139
385.585405,10436.903782,-14285.974681,-1378.971896
385.585728,11325.150913,-13175.665768,-1532.190996
385.586050,10214.842000,-11399.171507,-5439.278036
385.586373,6809.894666,-13249.686362,-7277.907231
385.586695,3108.864956,-15544.324782,-4903.011187
385.587018,-1406.391290,-14508.036463,-1991.848295
385.587340,-5995.668130,-11547.212695,-383.047749
385.587663,-8808.450710,-9918.759623,612.876398
385.587985,-9474.636058,-8438.347739,842.705048
385.588308,-9696.697840,-7254.018232,1072.533697
385.588630,-10584.944971,-6661.853478,2374.896044
385.588952,-10955.047942,-5699.585753,3064.381992
385.589275,-8364.327145,-4145.153275,2911.162892
385.589597,-4515.256246,-2294.638420,459.657299
385.589920,-1110.308913,-3034.844362,-1991.848295
385.590242,2886.803174,-6809.894666,-4213.525239
385.590565,6809.894666,-9918.759623,-4903.011187
385.590887,10140.821405,-11325.150913,-4519.963438
385.591210,11695.253884,-12065.356855,-2451.505594
385.591532,11621.233289,-12805.562797,-4290.134789
385.591855,9992.780217,-13693.809927,-6205.373534
385.592177,6291.750507,-14211.954086,-5515.887586
385.592500,1110.308913,-13323.706956,-3524.039291
385.592822,-3923.091493,-12879.583391,-1685.410096
385.593144,-7105.977043,-11695.253884,229.828649
385.593467,-8882.471304,-9030.512492,995.924147
385.593789,-10214.842000,-8216.285956,-153.219100
385.594112,-10140.821405,-8660.409521,2451.505594
385.594434,-8734.430116,-5699.585753,4213.525239
385.594757,-7179.997637,-2368.659014,1225.752797
385.595079,-3478.967927,-2294.638420,-1149.143247
385.595402,1332.370696,-4219.173869,-1608.800546
385.595724,4959.379811,-6217.729913,-4060.306139
385.596047,8290.306550,-9622.677246,-4826.401637
385.596369,10436.903782,-13619.789333,-2528.115143
385.596691,11769.274478,-14359.995275,-2834.553343
385.597014,11251.130318,-13027.624579,-4673.182538
385.597336,7994.224174,-12583.501014,-5669.106685
385.597659,3627.009116,-14285.974681,-5439.278036
385.597981,74.020594,-16136.489536,-4673.182538
385.598304,-3775.050304,-13471.748144,-1532.190996
385.598626,-8068.244768,-10288.862594,0.000000
385.598949,-10140.821405,-8660.409521,153.219100
385.599271,-10436.903782,-8068.244768,612.876398
385.599594,-10214.842000,-7254.018232,3677.258390
385.599916,-10955.047942,-4515.256246,3600.648841
385.600239,-9400.615463,-3256.906145,2451.505594
385.600561,-5699.585753,-3627.009116,842.705048
385.600883,-962.267725,-3552.988522,-842.705048
385.601206,2146.597232,-5699.585753,-3140.991542
385.601528,5773.606348,-9326.594869,-4060.306139
385.601851,9178.553681,-12509.480420,-2528.115143
385.602173,11695.253884,-11399.171507,-2528.115143
385.602496,11843.295072,-10436.903782,-4749.792088
385.602818,9474.636058,-11695.253884,-5439.278036
385.603141,5773.606348,-14137.933492,-4903.011187
385.603463,2442.679609,-14656.077652,-3983.696590
385.603786,-2368.659014,-13027.624579,-1915.238745
385.604108,-6587.832884,-11029.068536,0.000000
385.604431,-9104.533087,-9400.615463,919.314598
385.604753,-10140.821405,-7550.100608,383.047749
385.605075,-9844.739029,-7994.224174,612.876398
385.605398,-10214.842000,-6809.894666,3294.210641
385.605720,-8808.450710,-4663.297435,2604.724693
385.606043,-5995.668130,-2960.823768,229.828649
385.606365,-962.267725,-3478.967927,-1455.581446
385.606688,3404.947333,-5773.606348,-3447.429741
385.607010,7402.059420,-9548.656652,-4903.011187
385.607333,9770.718434,-12583.501014,-3830.477490
385.607655,11251.130318,-14063.912898,-2451.505594
385.607978,11769.274478,-13027.624579,-3140.991542
385.608300,10510.924376,-12435.459826,-5209.449386
385.608622,6587.832884,-13767.830521,-5898.935335
385.608945,2368.659014,-15248.242405,-4366.744339
385.609267,-2072.576638,-14434.015869,-1608.800546
385.609590,-6143.709319,-10955.047942,76.609550
385.609912,-9918.759623,-9030.512492,536.266849
385.610235,-11399.171507,-8512.368333,1762.019645
385.610557,-11547.212695,-8068.244768,2298.286494
385.610880,-11473.192101,-5699.585753,1915.238745
385.611202,-10732.986159,-4219.173869,2757.943793
385.611525,-8290.306550,-2590.720797,2451.505594
385.611847,-4737.318029,-2812.782580,76.609550
385.612170,-666.185348,-4663.297435,-2298.286494
385.612492,2368.659014,-6809.894666,-4749.792088
385.612814,5699.585753,-10510.924376,-5975.544884
385.613137,9178.553681,-12213.398043,-4903.011187
385.613459,11695.253884,-13175.665768,-4136.915689
385.613782,11177.109724,-12953.603985,-5515.887586
385.614104,8586.388927,-14582.057057,-5362.668486
385.614427,5181.441594,-15914.427753,-3447.429741
385.614749,666.185348,-14508.036463,-2757.943793
385.615072,-4145.153275,-11695.253884,-1838.629195
385.615394,-7698.141797,-9474.636058,383.047749
385.615717,-9474.636058,-7550.100608,689.485948
385.616039,-10214.842000,-7179.997637,919.314598
385.616362,-9400.615463,-6735.874072,2757.943793
385.616684,-8216.285956,-4737.318029,3447.429741
385.617006,-5551.544565,-2886.803174,1838.629195
385.617329,-814.226536,-3478.967927,-612.876398
385.617651,3552.988522,-5255.462188,-1915.238745
385.617974,6957.935855,-7846.182985,-4443.353888
385.618296,10066.800811,-10510.924376,-4519.963438
385.618619,11917.315666,-13249.686362,-3064.381992
385.618941,13471.748144,-13471.748144,-3140.991542
385.619264,12435.459826,-12731.542202,-4903.011187
385.619586,9474.636058,-13249.686362,-6588.421283
385.619909,4737.318029,-14878.139434,-5132.839837
385.620231,74.020594,-15914.427753,-2757.943793
385.620553,-4663.297435,-13249.686362,-1149.143247
385.620876,-9474.636058,-10214.842000,-612.876398
385.621198,-12435.459826,-9474.636058,153.219100
385.621521,-12435.459826,-7846.182985,1685.410096
385.621843,-12065.356855,-5625.565159,3294.210641
385.622166,-11399.171507,-3330.926739,2757.943793
385.622488,-8068.244768,-2294.638420,1838.629195
385.622811,-3256.906145,-3182.885551,919.314598
385.623133,1036.288319,-3701.029710,-536.266849
385.623456,4071.132681,-6069.688724,-2681.334243
385.623778,6365.771101,-9696.697840,-3064.381992
385.624101,9696.697840,-12139.377449,-2528.115143
385.624423,11843.295072,-11325.150913,-3983.696590
385.624745,11177.109724,-10732.986159,-5975.544884
385.625068,9326.594869,-13027.624579,-5592.497135
385.625390,7105.977043,-15544.324782,-3830.477490
385.625713,3108.864956,-14359.995275,-1915.238745
385.626035,-1998.556043,-12213.398043,-842.705048
385.626358,-7328.038826,-10658.965565,766.095498
385.626680,-9992.780217,-8882.471304,842.705048
385.627003,-12435.459826,-6883.915261,229.828649
385.627325,-13693.809927,-6217.729913,1532.190996
385.627648,-14063.912898,-4737.318029,3830.477490
385.627970,-11917.315666,-3478.967927,1608.800546
385.628292,-7105.977043,-2886.803174,-842.705048
385.628615,-1776.494261,-4885.359217,-1991.848295
385.628937,2516.700203,-7994.224174,-4060.306139
385.629260,6661.853478,-11029.068536,-4366.744339
385.629582,9474.636058,-13175.665768,-2987.772442
385.629905,11843.295072,-13693.809927,-3447.429741
385.630227,11177.109724,-12213.398043,-4596.572988
385.630550,7994.224174,-12361.439231,-5975.544884
385.630872,3775.050304,-13915.871710,-5439.278036
385.631195,296.082377,-15988.448347,-3983.696590
385.631517,-3404.947333,-15174.221811,-1915.238745
385.631840,-7254.018232,-12509.480420,76.609550
385.632162,-9474.636058,-9400.615463,2068.457845
385.632484,-11325.150913,-7994.224174,2145.067394
385.632807,-11547.212695,-6587.832884,2604.724693
385.633129,-11695.253884,-4219.173869,3524.039291
385.633452,-10955.047942,-1480.411884,2834.553343
385.633774,-7846.182985,-1702.473667,229.828649
385.634097,-1850.514855,-3849.070898,-1532.190996
385.634419,2886.803174,-6217.729913,-3447.429741
385.634742,6439.791695,-9474.636058,-3983.696590
385.635064,11103.089130,-12657.521608,-2987.772442
385.635387,14434.015869,-12953.603985,-2834.553343
385.635709,15100.201217,-11917.315666,-4749.792088
385.636032,11917.315666,-11917.315666,-5132.839837
385.636354,7698.141797,-12435.459826,-4290.134789
385.636676,3256.906145,-13989.892304,-4443.353888
385.636999,-444.123565,-13175.665768,-2451.505594
385.637321,-4589.276840,-11103.089130,-612.876398
385.637644,-8068.244768,-8734.430116,76.609550
385.637966,-9992.780217,-6957.935855,2451.505594
385.638289,-9770.718434,-6957.935855,2834.553343
385.638611,-9252.574275,-4959.379811,2068.457845
385.638934,-7476.080014,-4145.153275,459.657299
385.639256,-4293.194464,-3404.947333,-612.876398
385.639579,-370.102971,-4663.297435,-2068.457845
385.639901,3923.091493,-7772.162391,-2298.286494
385.640223,7920.203579,-10510.924376,-2451.505594
385.640546,11473.192101,-12583.501014,-3370.820191
385.640868,13693.809927,-13545.768739,-4366.744339
385.641191,13249.686362,-13619.789333,-4213.525239
385.641513,10881.027347,-13767.830521,-4596.572988
385.641836,5921.647536,-12509.480420,-4903.011187
385.642158,1776.494261,-12879.583391,-4366.744339
385.642481,-2072.576638,-12731.542202,-2911.162892
385.642803,-5551.544565,-11325.150913,-1915.238745
385.643126,-9622.677246,-10140.821405,0.000000
385.643448,-12953.603985,-9622.677246,1915.238745
385.643771,-14508.036463,-7846.182985,4673.182538
385.644093,-13989.892304,-5847.626942,2451.505594
385.644415,-12287.418637,-4145.153275,-153.219100
385.644738,-8438.347739,-3775.050304,-1225.752797
385.645060,-4663.297435,-4663.297435,-1302.362347
385.645383,-814.226536,-6809.894666,-2298.286494
385.645705,3256.906145,-9326.594869,-1685.410096
385.646028,7920.203579,-11695.253884,-3447.429741
385.646350,10881.027347,-12657.521608,-5592.497135
385.646673,11103.089130,-12361.439231,-4366.744339
385.646995,8882.471304,-11325.150913,-3064.381992
385.647318,5921.647536,-11547.212695,-4060.306139
385.647640,3404.947333,-12657.521608,-3677.258390
385.647963,148.041188,-11621.233289,-1455.581446
385.648285,-4071.132681,-9400.615463,459.657299
385.648607,-7402.059420,-8216.285956,1302.362347
385.648930,-9474.636058,-8364.327145,2145.067394
385.649252,-10140.821405,-8586.388927,1378.971896
385.649575,-11621.233289,-6883.915261,2374.896044
385.649897,-12879.583391,-4589.276840,3677.258390
385.650220,-11325.150913,-2072.576638,1072.533697
385.650542,-7624.121203,-3701.029710,-3140.991542
385.650865,-2072.576638,-6661.853478,-4979.620737
385.651187,3404.947333,-8882.471304,-5898.935335
385.651510,8512.368333,-11991.336260,-5515.887586
385.651832,13249.686362,-14582.057057,-1991.848295
385.652154,15840.407159,-16358.551318,-2604.724693
385.652477,15026.180623,-14434.015869,-4519.963438
385.652799,11843.295072,-12583.501014,-4903.011187
385.653122,7254.018232,-12139.377449,-4443.353888
385.653444,2590.720797,-12287.418637,-3677.258390
385.653767,-1332.370696,-10881.027347,-536.266849
385.654089,-6365.771101,-9474.636058,1685.410096
385.654412,-9252.574275,-9104.533087,2374.896044
385.654734,-11029.068536,-8734.430116,3677.258390
385.655057,-9844.739029,-6587.832884,2681.334243
385.655379,-9474.636058,-3923.091493,919.314598
385.655702,-7328.038826,-3404.947333,689.485948
385.656024,-3552.988522,-3108.864956,536.266849
385.656346,444.123565,-4737.318029,-1608.800546
385.656669,3701.029710,-7550.100608,-3600.648841
385.656991,6587.832884,-10807.006753,-4519.963438
385.657314,9992.780217,-13545.768739,-5132.839837
385.657636,11399.171507,-13767.830521,-5209.449386
385.657959,10584.944971,-13101.645173,-4366.744339
385.658281,7920.203579,-13027.624579,-4519.963438
385.658604,4811.338623,-13545.768739,-4596.572988
385.658926,1406.391290,-12805.562797,-4136.915689
385.659249,-3034.844362,-9918.759623,-1838.629195
385.659571,-6661.853478,-8142.265362,0.000000
385.659894,-10362.883188,-7550.100608,689.485948
385.660216,-12213.398043,-7846.182985,2298.286494
385.660538,-13101.645173,-6661.853478,3294.210641
385.660861,-12361.439231,-5107.421000,2604.724693
385.661183,-10288.862594,-4293.194464,306.438199
385.661506,-5625.565159,-4367.215058,-995.924147
385.661828,-444.123565,-4885.359217,-2221.676944
385.662151,4293.194464,-8068.244768,-3217.601092
385.662473,8660.409521,-11695.253884,-1991.848295
385.662796,12435.459826,-13915.871710,-2834.553343
385.663118,14211.954086,-13767.830521,-3907.087040
385.663441,13175.665768,-13323.706956,-3294.210641
385.663763,10066.800811,-12657.521608,-3447.429741
385.664085,5403.503377,-12953.603985,-4903.011187
385.664408,962.267725,-13027.624579,-3753.867940
385.664730,-3330.926739,-11399.171507,-1455.581446
385.665053,-8364.327145,-9770.718434,-306.438199
385.665375,-11695.253884,-9252.574275,1225.752797
385.665698,-12657.521608,-8808.450710,1838.629195
385.666020,-13471.748144,-8882.471304,1302.362347
385.666343,-13175.665768,-6365.771101,2528.115143
385.666665,-12583.501014,-3108.864956,2834.553343
385.666988,-11029.068536,-1258.350101,0.000000
385.667310,-7624.121203,-2812.782580,-2374.896044
385.667633,-2442.679609,-5255.462188,-4443.353888
385.667955,1702.473667,-8068.244768,-6741.640382
385.668277,6587.832884,-12065.356855,-6818.249932
385.668600,10807.006753,-15174.221811,-3830.477490
385.668922,12583.501014,-14952.160028,-3140.991542
385.669245,12361.439231,-13471.748144,-4366.744339
385.669567,9548.656652,-12287.418637,-3677.258390
385.669890,6439.791695,-12361.439231,-3907.087040
385.670212,2442.679609,-11917.315666,-3217.601092
385.670535,-1480.411884,-9918.759623,229.828649
385.670857,-4811.338623,-7698.141797,1455.581446
385.671180,-6365.771101,-8068.244768,1762.019645
385.671502,-5995.668130,-8068.244768,4213.525239
385.671825,-7105.977043,-4885.359217,3677.258390
385.672147,-7031.956449,-2886.803174,2374.896044
385.672470,-5255.462188,-3256.906145,1072.533697
385.672792,-1628.453072,-4663.297435,229.828649
385.673115,1702.473667,-6143.709319,-3983.696590
385.673438,5033.400406,-9030.512492,-5515.887586
385.673760,8364.327145,-13397.727550,-4366.744339
385.674083,11695.253884,-15026.180623,-4366.744339
385.674405,13175.665768,-14730.098246,-5515.887586
385.674728,11029.068536,-14582.057057,-4443.353888
385.675050,6513.812290,-14285.974681,-4519.963438
385.675373,2072.576638,-13915.871710,-5515.887586
385.675695,-1702.473667,-12731.542202,-4749.792088
385.676018,-4885.359217,-10436.903782,-2911.162892
385.676340,-8364.327145,-8290.306550,-1149.143247
385.676663,-10510.924376,-8438.347739,1915.238745
385.676985,-11991.336260,-8808.450710,5362.668486
385.677308,-11473.192101,-6809.894666,4903.011187
385.677631,-9178.553681,-4737.318029,1455.581446
385.677953,-6735.874072,-3330.926739,-153.219100
385.678276,-3034.844362,-3256.906145,-459.657299
385.678598,148.041188,-4589.276840,-1378.971896
385.678921,4145.153275,-7624.121203,-1608.800546
385.679243,8512.368333,-10214.842000,-2145.067394
385.679566,11991.336260,-11547.212695,-4673.182538
385.679888,13175.665768,-12583.501014,-5286.058936
385.680211,11843.295072,-12657.521608,-3447.429741
385.680533,8882.471304,-12583.501014,-2834.553343
385.680856,5255.462188,-13249.686362,-3370.820191
385.681178,1184.329507,-12435.459826,-2451.505594
385.681501,-3478.967927,-10288.862594,-1302.362347
385.681823,-7994.224174,-8586.388927,-612.876398
385.682146,-11177.109724,-8290.306550,459.657299
385.682469,-12139.377449,-8512.368333,1532.190996
385.682791,-13027.624579,-6735.874072,2374.896044
385.683114,-12731.542202,-4737.318029,2451.505594
385.683436,-11991.336260,-2960.823768,1302.362347
385.683759,-8290.306550,-4441.235652,-1302.362347
385.684081,-3478.967927,-4885.359217,-3983.696590
385.684404,666.185348,-7920.203579,-5515.887586
385.684726,5181.441594,-11621.233289,-4213.525239
385.685049,9474.636058,-13841.851115,-2987.772442
385.685371,12287.418637,-14804.118840,-3983.696590
385.685694,12361.439231,-13619.789333,-4826.401637
385.686016,9918.759623,-13249.686362,-4673.182538
385.686339,6439.791695,-13989.892304,-4979.620737
385.686662,2294.638420,-13471.748144,-3753.867940
385.686984,-1184.329507,-12287.418637,-1149.143247
385.687307,-5107.421000,-9252.574275,0.000000
385.687629,-7550.100608,-8068.244768,689.485948
385.687952,-8734.430116,-8586.388927,2298.286494
385.688274,-10066.800811,-7698.141797,2834.553343
385.688597,-10732.986159,-6069.688724,3907.087040
385.688919,-10658.965565,-3182.885551,1991.848295
385.689242,-8734.430116,-2368.659014,229.828649
385.689564,-3849.070898,-4219.173869,-2528.115143
385.689887,518.144159,-6069.688724,-4749.792088
385.690209,4293.194464,-8734.430116,-6052.154434
385.690532,8290.306550,-12139.377449,-4290.134789
385.690854,11917.315666,-14359.995275,-3217.601092
385.691177,12953.603985,-14211.954086,-4136.915689
385.691500,10732.986159,-13175.665768,-4213.525239
385.691822,7031.956449,-12583.501014,-4749.792088
385.692145,3256.906145,-12805.562797,-4749.792088
385.692467,-148.041188,-11843.295072,-2681.334243
385.692790,-3701.029710,-8956.491898,-153.219100
385.693112,-6735.874072,-7105.977043,536.266849
385.693435,-7624.121203,-8068.244768,2221.676944
385.693757,-8586.388927,-7254.018232,4290.134789
385.694080,-9104.533087,-5699.585753,3600.648841
385.694402,-8068.244768,-3775.050304,1072.533697
385.694725,-5625.565159,-3849.070898,612.876398
385.695047,-1406.391290,-3849.070898,-1225.752797
385.695370,2146.597232,-5033.400406,-3140.991542
385.695693,5551.544565,-9030.512492,-3830.477490
385.696015,9030.512492,-12287.418637,-3064.381992
385.696338,12287.418637,-14434.015869,-3677.258390
385.696660,13027.624579,-14730.098246,-4213.525239
385.696983,11251.130318,-14508.036463,-2987.772442
385.697305,7402.059420,-14285.974681,-4213.525239
385.697628,3552.988522,-14434.015869,-4596.572988
385.697950,-148.041188,-13471.748144,-2145.067394
385.698273,-4959.379811,-9548.656652,-153.219100
385.698595,-8808.450710,-7698.141797,-153.219100
385.698918,-11251.130318,-7846.182985,995.924147
385.699240,-12213.398043,-9104.533087,2757.943793
385.699563,-12287.418637,-7328.038826,4366.744339
385.699885,-11843.295072,-4515.256246,2298.286494
385.700208,-9622.677246,-3627.009116,689.485948
385.700531,-5921.647536,-4071.132681,-689.485948
385.700853,-2516.700203,-4737.318029,-2681.334243
385.701176,222.061783,-7105.977043,-4060.306139
385.701498,4293.194464,-10510.924376,-4903.011187
385.701821,8290.306550,-12583.501014,-4903.011187
385.702143,9992.780217,-13397.727550,-4826.401637
385.702466,10066.800811,-14137.933492,-3983.696590
385.702788,7476.080014,-13175.665768,-3064.381992
385.703111,4663.297435,-13545.768739,-4060.306139
385.703433,1776.494261,-13323.706956,-3370.820191
385.703756,-1924.535449,-10955.047942,-689.485948
385.704078,-5995.668130,-7254.018232,306.438199
385.704401,-8142.265362,-6291.750507,1378.971896
385.704724,-7994.224174,-8068.244768,2068.457845
385.705046,-8290.306550,-7476.080014,2681.334243
385.705369,-8882.471304,-4811.338623,3677.258390
385.705691,-8734.430116,-1924.535449,2374.896044
385.706014,-5699.585753,-3256.906145,-536.266849
385.706336,-1036.288319,-5107.421000,-2911.162892
385.706659,2516.700203,-6439.791695,-4903.011187
385.706981,5329.482782,-9844.739029,-6052.154434
385.707304,9030.512492,-13323.706956,-4366.744339
385.707626,12139.377449,-15766.386565,-3140.991542
385.707949,12361.439231,-14878.139434,-5362.668486
385.708271,9474.636058,-14508.036463,-5592.497135
385.708594,5477.523971,-14878.139434,-5286.058936
385.708916,1998.556043,-13989.892304,-4903.011187
385.709239,-1628.453072,-11473.192101,-2757.943793
385.709562,-5255.462188,-9474.636058,-1455.581446
385.709884,-8512.368333,-8364.327145,-306.438199
385.710207,-10066.800811,-8216.285956,2528.115143
385.710529,-10288.862594,-7105.977043,3983.696590
385.710852,-9548.656652,-5847.626942,2221.676944
385.711174,-7402.059420,-4219.173869,459.657299
385.711497,-3108.864956,-3775.050304,-689.485948
385.711819,444.123565,-4663.297435,-919.314598
385.712142,3627.009116,-7031.956449,-1302.362347
385.712464,7105.977043,-9104.533087,-2221.676944
385.712787,9770.718434,-10732.986159,-3753.867940
385.713109,11251.130318,-11843.295072,-4673.182538
385.713432,10140.821405,-12065.356855,-3907.087040
385.713754,7254.018232,-12657.521608,-4060.306139
385.714077,4737.318029,-13693.809927,-4519.963438
385.714400,2812.782580,-14211.954086,-3447.429741
385.714722,0.000000,-11695.253884,-1915.238745
385.715045,-4441.235652,-9030.512492,0.000000
385.715367,-6957.935855,-7476.080014,1455.581446
385.715690,-9474.636058,-7846.182985,1302.362347
385.716012,-11103.089130,-7031.956449,1302.362347
385.716335,-13027.624579,-5625.565159,2604.724693
385.716657,-12361.439231,-3849.070898,1838.629195
385.716980,-9474.636058,-4071.132681,-1225.752797
385.717302,-3775.050304,-6365.771101,-2757.943793
385.717625,1332.370696,-7254.018232,-3677.258390
385.717947,5403.503377,-9918.759623,-3907.087040
385.718270,9474.636058,-13175.665768,-2298.286494
385.718593,12065.356855,-14730.098246,-1762.019645
385.718915,12065.356855,-12953.603985,-2834.553343
385.719238,9844.739029,-11325.150913,-3677.258390
385.719560,6291.750507,-11547.212695,-4366.744339
385.719883,2442.679609,-13471.748144,-4366.744339
385.720205,-888.247130,-13619.789333,-1225.752797
385.720528,-4737.318029,-10362.883188,995.924147
385.720850,-7624.121203,-8660.409521,1302.362347
385.721173,-8142.265362,-8808.450710,2987.772442
385.721495,-8882.471304,-8290.306550,2834.553343
385.721818,-9548.656652,-7698.141797,1302.362347
385.722140,-10288.862594,-5699.585753,2834.553343
385.722463,-8956.491898,-3478.967927,3140.991542
385.722785,-7179.997637,-1332.370696,-919.314598
385.723108,-3552.988522,-3997.112087,-4060.306139
385.723431,-370.102971,-7105.977043,-5209.449386
385.723753,2812.782580,-10362.883188,-6281.983084
385.724076,7105.977043,-14211.954086,-5822.325785
385.724398,9474.636058,-15840.407159,-3447.429741
385.724721,9622.677246,-14656.077652,-2834.553343
385.725043,8142.265362,-13249.686362,-5286.058936
385.725366,5329.482782,-12435.459826,-5056.230287
385.725688,2664.741391,-12065.356855,-3524.039291
385.726011,-666.185348,-9992.780217,-2221.676944
385.726333,-3775.050304,-7402.059420,0.000000
385.726656,-6587.832884,-7328.038826,1838.629195
385.726978,-7550.100608,-8142.265362,3677.258390
385.727301,-7254.018232,-7105.977043,3524.039291
385.727624,-6735.874072,-5181.441594,919.314598
385.727946,-5477.523971,-3775.050304,229.828649
385.728269,-2442.679609,-3997.112087,-306.438199
385.728591,518.144159,-4589.276840,-1762.019645
385.728914,3775.050304,-6809.894666,-2757.943793
385.729236,6365.771101,-10510.924376,-3753.867940
385.729559,9104.533087,-13101.645173,-4826.401637
385.729881,10214.842000,-14508.036463,-4903.011187
385.730204,9252.574275,-13915.871710,-3830.477490
385.730526,6365.771101,-13693.809927,-4903.011187
385.730849,3330.926739,-14285.974681,-6052.154434
385.731171,592.164754,-14285.974681,-4903.011187
385.731494,-2886.803174,-11695.253884,-2681.334243
385.731816,-6957.935855,-9400.615463,-1762.019645
385.732139,-9178.553681,-8734.430116,-612.876398
385.732462,-10362.883188,-9622.677246,536.266849
385.732784,-11325.150913,-8882.471304,3524.039291
385.733107,-11843.295072,-6291.750507,3524.039291
385.733429,-10288.862594,-3182.885551,995.924147
385.733752,-5847.626942,-3627.009116,-1608.800546
385.734074,-592.164754,-4441.235652,-2221.676944
385.734397,3034.844362,-5403.503377,-2528.115143
385.734719,6439.791695,-8660.409521,-2374.896044
385.735042,10362.883188,-11769.274478,-1838.629195
385.735364,12657.521608,-13175.665768,-2911.162892
385.735687,12435.459826,-13027.624579,-4060.306139
385.736009,9844.739029,-11917.315666,-2451.505594
385.736332,6069.688724,-11843.295072,-3064.381992
385.736655,3330.926739,-13101.645173,-2834.553343
385.736977,888.247130,-11991.336260,-612.876398
385.737300,-2812.782580,-9400.615463,306.438199
385.737622,-5995.668130,-8068.244768,1378.971896
385.737945,-7550.100608,-8808.450710,2451.505594
385.738267,-9178.553681,-8142.265362,2528.115143
385.738590,-10436.903782,-5699.585753,3447.429741
385.738912,-11177.109724,-3034.844362,2451.505594
385.739235,-10288.862594,-2812.782580,229.828649
385.739557,-5403.503377,-4293.194464,-2911.162892
385.739880,-1480.411884,-5625.565159,-4903.011187
385.740202,2220.617826,-8660.409521,-5515.887586
385.740525,5847.626942,-13101.645173,-2681.334243
385.740847,9992.780217,-15692.365970,-1838.629195
385.741170,11769.274478,-14730.098246,-3983.696590
385.741493,10362.883188,-13619.789333,-5745.716235
385.741815,7402.059420,-13323.706956,-4443.353888
385.742138,3923.091493,-12805.562797,-4443.353888
385.742460,444.123565,-11177.109724,-2451.505594
385.742783,-3330.926739,-9178.553681,0.000000
385.743105,-6217.729913,-8438.347739,153.219100
385.743428,-7772.162391,-9474.636058,919.314598
385.743750,-9400.615463,-9696.697840,4060.306139
385.744073,-9770.718434,-8734.430116,5286.058936
385.744395,-9178.553681,-4737.318029,2911.162892
385.744718,-7179.997637,-2886.803174,612.876398
385.745040,-4293.194464,-2590.720797,-689.485948
385.745363,-1036.288319,-3997.112087,-2834.553343
385.745686,1480.411884,-7105.977043,-4749.792088
385.746008,4885.359217,-10510.924376,-4519.963438
385.746331,7994.224174,-13471.748144,-4596.572988
385.746653,9326.594869,-13545.768739,-4519.963438
385.746976,8882.471304,-13471.748144,-4213.525239
385.747298,6587.832884,-14211.954086,-6052.154434
385.747621,4293.194464,-15026.180623,-6511.811733
385.747943,1036.288319,-13841.851115,-3983.696590
385.748266,-3627.009116,-9326.594869,-919.314598
385.748588,-7105.977043,-6957.935855,0.000000
385.748911,-7846.182985,-7698.141797,0.000000
385.749233,-8586.388927,-9178.553681,689.485948
385.749556,-10066.800811,-8364.327145,1991.848295
385.749878,-11251.130318,-6217.729913,4136.915689
385.750201,-10214.842000,-2886.803174,2451.505594
385.750524,-5625.565159,-2886.803174,-1225.752797
385.750846,-148.041188,-2960.823768,-3217.601092
385.751169,4589.276840,-4219.173869,-5669.106685
385.751491,7846.182985,-8882.471304,-4979.620737
385.751814,11399.171507,-13767.830521,-1991.848295
385.752136,13323.706956,-15988.448347,-1302.362347
385.752459,13175.665768,-14730.098246,-3140.991542
385.752781,10955.047942,-14063.912898,-4443.353888
385.753104,6587.832884,-14063.912898,-4979.620737
385.753426,2442.679609,-14211.954086,-4519.963438
385.753749,-1702.473667,-12657.521608,-1532.190996
385.754071,-5329.482782,-9030.512492,0.000000
385.754394,-7105.977043,-7698.141797,0.000000
385.754717,-8808.450710,-9030.512492,1149.143247
385.755039,-9696.697840,-8734.430116,2834.553343
385.755362,-11029.068536,-6439.791695,4136.915689
385.755684,-11473.192101,-3330.926739,1991.848295
385.756007,-8956.491898,-3108.864956,0.000000
385.756329,-4737.318029,-3923.091493,-1991.848295
385.756652,-888.247130,-5033.400406,-4519.963438
385.756974,2294.638420,-7772.162391,-5515.887586
385.757297,6513.812290,-12361.439231,-3830.477490
385.757619,10140.821405,-14434.015869,-3217.601092
385.757942,11399.171507,-13693.809927,-3064.381992
385.758264,8956.491898,-12879.583391,-3294.210641
385.758587,5699.585753,-12953.603985,-4136.915689
385.758909,3552.988522,-14211.954086,-4903.011187
385.759232,1036.288319,-12731.542202,-2451.505594
385.759555,-2738.761985,-8808.450710,0.000000
385.759877,-6513.812290,-7105.977043,1532.190996
385.760200,-7105.977043,-8290.306550,3294.210641
385.760522,-7105.977043,-9400.615463,2987.772442
385.760845,-7328.038826,-8586.388927,2911.162892
385.761167,-8438.347739,-3923.091493,3753.867940
385.761490,-6809.894666,-2664.741391,1991.848295
385.761812,-3034.844362,-2812.782580,-842.705048
385.762135,1850.514855,-3849.070898,-2681.334243
385.762457,4589.276840,-6291.750507,-5286.058936
385.762780,7624.121203,-10955.047942,-4596.572988
385.763102,10510.924376,-14508.036463,-2298.286494
385.763425,11177.109724,-15544.324782,-2834.553343
385.763748,9326.594869,-14656.077652,-4596.572988
385.764070,5551.544565,-14359.995275,-5362.668486
385.764393,1554.432478,-14211.954086,-5439.278036
385.764715,-2442.679609,-13249.686362,-4213.525239
385.765038,-6217.729913,-10881.027347,-1838.629195
385.765360,-9696.697840,-8660.409521,-1072.533697
385.765683,-10881.027347,-8808.450710,0.000000
385.766005,-11103.089130,-9548.656652,2374.896044
385.766328,-11325.150913,-8956.491898,3600.648841
385.766650,-10881.027347,-5033.400406,2834.553343
385.766973,-8512.368333,-2146.597232,1149.143247
385.767295,-4811.338623,-2072.576638,-306.438199
385.767618,-296.082377,-2516.700203,-1838.629195
385.767940,3182.885551,-4367.215058,-3830.477490
385.768263,6735.874072,-8512.368333,-4903.011187
385.768586,9696.697840,-11991.336260,-3447.429741
385.768908,11843.295072,-13619.789333,-3370.820191
385.769231,12213.398043,-13767.830521,-4903.011187
385.769553,10436.903782,-15322.262999,-5822.325785
385.769876,7920.203579,-17394.839637,-5209.449386
385.770198,2960.823768,-16136.489536,-2987.772442
385.770522,-2368.659014,-11251.130318,-383.047749
385.770844,-6439.791695,-7846.182985,-536.266849
385.771167,-8216.285956,-8512.368333,-2528.115143
385.771489,-9030.512492,-9252.574275,-1149.143247
385.771812,-10510.924376,-7920.203579,3217.601092
385.772134,-11399.171507,-4663.297435,4443.353888
385.772457,-9326.594869,-4219.173869,2604.724693
385.772779,-3997.112087,-3775.050304,-153.219100
385.773102,888.247130,-2146.597232,-3983.696590
385.773424,4293.194464,-4293.194464,-5975.544884
385.773747,7994.224174,-8882.471304,-3294.210641
385.774069,11251.130318,-13249.686362,-689.485948
385.774392,12435.459826,-13323.706956,-2528.115143
385.774714,11103.089130,-12953.603985,-3983.696590
385.775037,8438.347739,-14211.954086,-4213.525239
385.775359,4663.297435,-15470.304188,-5975.544884
385.775682,518.144159,-15988.448347,-5209.449386
385.776004,-3182.885551,-13767.830521,-1532.190996
385.776327,-6661.853478,-9992.780217,306.438199
385.776649,-9252.574275,-7254.018232,1838.629195
385.776972,-9104.533087,-7624.121203,2298.286494
385.777294,-9696.697840,-8808.450710,919.314598
385.777617,-10140.821405,-7328.038826,1762.019645
385.777939,-10066.800811,-3478.967927,4673.182538
385.778262,-7920.203579,-1110.308913,3217.601092
385.778585,-3923.091493,-2072.576638,-459.657299
385.778907,444.123565,-4441.235652,-2987.772442
385.779230,4219.173869,-6587.832884,-5439.278036
385.779552,7031.956449,-10288.862594,-5592.497135
385.779875,9400.615463,-14137.933492,-2604.724693
385.780197,9992.780217,-14211.954086,-1455.581446
385.780520,8586.388927,-12583.501014,-4213.525239
385.780842,5921.647536,-13915.871710,-6588.421283
385.781165,2590.720797,-15988.448347,-4903.011187
385.781487,-962.267725,-15248.242405,-3064.381992
385.781810,-5033.400406,-11547.212695,-919.314598
