#time,accel_x,accel_y,accel_z
335.963855,-592.164754,-9474.636058,-1378.971896
335.964177,-592.164754,-9474.636058,-1302.362347
335.964499,-592.164754,-9696.697840,-1072.533697
335.964821,-518.144159,-9326.594869,-1225.752797
335.965143,-518.144159,-9400.615463,-1225.752797
335.965465,-296.082377,-9252.574275,-1455.581446
335.965787,-444.123565,-9252.574275,-1455.581446
335.966109,0.000000,-9474.636058,-1302.362347
335.966431,-148.041188,-8956.491898,-1608.800546
335.966753,-370.102971,-9252.574275,-1378.971896
335.967075,-518.144159,-9252.574275,-1149.143247
335.967396,-222.061783,-9474.636058,-1225.752797
335.967718,-444.123565,-9400.615463,-1685.410096
335.968040,74.020594,-9696.697840,-1608.800546
335.968362,-444.123565,-9622.677246,-1072.533697
335.968684,-148.041188,-9326.594869,-1532.190996
335.969006,-148.041188,-9326.594869,-1378.971896
335.969328,0.000000,-9400.615463,-1455.581446
335.969650,-222.061783,-9104.533087,-1608.800546
335.969972,0.000000,-9474.636058,-1072.533697
335.970294,-296.082377,-9474.636058,-1378.971896
335.970616,74.020594,-9696.697840,-1455.581446
335.970938,0.000000,-9474.636058,-1532.190996
335.971260,-148.041188,-9326.594869,-1378.971896
335.971582,222.061783,-9622.677246,-1608.800546
335.971904,-370.102971,-9030.512492,-1302.362347
335.972225,-222.061783,-9252.574275,-1455.581446
335.972547,0.000000,-9326.594869,-1455.581446
335.972869,0.000000,-9474.636058,-1378.971896
335.973191,-370.102971,-8956.491898,-1455.581446
335.973513,0.000000,-9104.533087,-1762.019645
335.973835,0.000000,-9400.615463,-1685.410096
335.974157,0.000000,-9474.636058,-1532.190996
335.974479,-370.102971,-9400.615463,-1762.019645
335.974801,-370.102971,-9622.677246,-1608.800546
335.975123,-370.102971,-9326.594869,-1685.410096
335.975445,-444.123565,-9474.636058,-1378.971896
335.975767,-370.102971,-9474.636058,-1532.190996
335.976089,-370.102971,-9400.615463,-1455.581446
335.976411,-370.102971,-9104.533087,-1532.190996
335.976732,-666.185348,-9400.615463,-1378.971896
335.977054,-592.164754,-9178.553681,-1532.190996
335.977376,-888.247130,-9474.636058,-1455.581446
335.977698,-592.164754,-9770.718434,-1685.410096
335.978020,-1036.288319,-9474.636058,-1378.971896
335.978342,-888.247130,-9696.697840,-919.314598
335.978664,-666.185348,-9474.636058,-1455.581446
335.978986,-444.123565,-9326.594869,-1378.971896
335.979308,-518.144159,-9326.594869,-1455.581446
335.979630,-666.185348,-9474.636058,-1378.971896
335.979952,-666.185348,-9548.656652,-1302.362347
335.980274,-740.205942,-9030.512492,-1149.143247
335.980596,-444.123565,-9770.718434,-1225.752797
335.980918,-518.144159,-9474.636058,-1455.581446
335.981240,-296.082377,-9178.553681,-1608.800546
335.981561,-444.123565,-8882.471304,-1302.362347
335.981883,-222.061783,-9030.512492,-919.314598
335.982205,-370.102971,-9178.553681,-1532.190996
335.982527,-444.123565,-9474.636058,-1149.143247
335.982849,-518.144159,-9548.656652,-1302.362347
335.983171,-444.123565,-9696.697840,-1225.752797
335.983493,-370.102971,-9474.636058,-1532.190996
335.983815,296.082377,-8882.471304,-1225.752797
335.984137,1184.329507,-9474.636058,-1532.190996
335.984459,1628.453072,-9622.677246,-1378.971896
335.984781,1406.391290,-9548.656652,-612.876398
335.985103,592.164754,-9474.636058,-383.047749
335.985425,296.082377,-8660.409521,-842.705048
335.985747,0.000000,-9178.553681,-1685.410096
335.986068,-814.226536,-9178.553681,-1838.629195
335.986390,-1110.308913,-8660.409521,-1532.190996
335.986712,-518.144159,-8956.491898,-1915.238745
335.987034,814.226536,-9770.718434,-1685.410096
335.987356,1036.288319,-10288.862594,-766.095498
335.987678,222.061783,-10066.800811,-536.266849
335.988000,370.102971,-9252.574275,-1225.752797
335.988322,1628.453072,-9844.739029,-1991.848295
335.988644,2220.617826,-10436.903782,-1838.629195
335.988966,1554.432478,-9548.656652,-229.828649
335.989288,1850.514855,-8512.368333,-459.657299
335.989610,2812.782580,-9104.533087,-1149.143247
335.989932,3775.050304,-9918.759623,-1149.143247
335.990254,3404.947333,-9474.636058,-229.828649
335.990575,2294.638420,-8660.409521,459.657299
335.990897,2368.659014,-8290.306550,-536.266849
335.991219,3552.988522,-9104.533087,-1072.533697
335.991541,2886.803174,-9252.574275,-1302.362347
335.991863,2886.803174,-8438.347739,-1072.533697
335.992185,3182.885551,-8438.347739,-2145.067394
335.992507,4293.194464,-9326.594869,-1991.848295
335.992829,4663.297435,-10732.986159,-1532.190996
335.993151,4145.153275,-10732.986159,-1378.971896
335.993473,4145.153275,-10214.842000,-1762.019645
335.993795,4219.173869,-10510.924376,-1762.019645
335.994117,4737.318029,-10362.883188,-1762.019645
335.994439,3478.967927,-9474.636058,-2298.286494
335.994761,2812.782580,-9030.512492,-2145.067394
335.995083,2442.679609,-8956.491898,-1685.410096
335.995404,2886.803174,-8956.491898,-1532.190996
335.995726,4071.132681,-8882.471304,-2298.286494
335.996048,4071.132681,-8882.471304,-1762.019645
335.996370,5403.503377,-9548.656652,-1532.190996
335.996692,5625.565159,-8956.491898,-1378.971896
335.997014,5773.606348,-9104.533087,-1455.581446
335.997336,4885.359217,-9326.594869,-2068.457845
335.997658,3849.070898,-10066.800811,-2374.896044
335.997980,2072.576638,-10584.944971,-2528.115143
335.998302,1110.308913,-11843.295072,-2298.286494
335.998624,666.185348,-12879.583391,-995.924147
335.998946,740.205942,-13323.706956,0.000000
335.999268,962.267725,-12361.439231,306.438199
335.999590,962.267725,-11473.192101,1378.971896
335.999911,1406.391290,-10214.842000,1685.410096
336.000233,1036.288319,-8512.368333,2145.067394
336.000555,-222.061783,-6587.832884,1915.238745
336.000877,-1554.432478,-4367.215058,612.876398
336.001199,-814.226536,-4515.256246,-1532.190996
336.001521,0.000000,-4737.318029,-2528.115143
336.001843,1702.473667,-5255.462188,-3217.601092
336.002165,3330.926739,-5403.503377,-3140.991542
336.002487,5551.544565,-6735.874072,-3217.601092
336.002809,6809.894666,-9400.615463,-3983.696590
336.003131,6217.729913,-12213.398043,-4519.963438
336.003453,4737.318029,-13989.892304,-3830.477490
336.003775,3627.009116,-14508.036463,-2757.943793
336.004097,3330.926739,-14434.015869,-2451.505594
336.004418,2590.720797,-13175.665768,-459.657299
336.004740,1480.411884,-11103.089130,1915.238745
336.005062,518.144159,-9326.594869,2987.772442
336.005384,814.226536,-7402.059420,3370.820191
336.005706,1406.391290,-5403.503377,2834.553343
336.006028,1332.370696,-4293.194464,2374.896044
336.006350,962.267725,-3923.091493,1838.629195
336.006672,1036.288319,-5477.523971,995.924147
336.006994,1628.453072,-7254.018232,229.828649
336.007316,1554.432478,-7550.100608,-842.705048
336.007638,1554.432478,-8586.388927,-3983.696590
336.007960,2072.576638,-11695.253884,-5822.325785
336.008282,3034.844362,-15100.201217,-5515.887586
336.008604,2294.638420,-17024.736666,-5132.839837
336.008926,1110.308913,-17468.860231,-4749.792088
336.009247,1110.308913,-15618.345376,-2528.115143
336.009569,1850.514855,-11325.150913,-2987.772442
336.009891,2442.679609,-8660.409521,-4596.572988
336.010213,3256.906145,-7920.203579,-2911.162892
336.010535,4293.194464,-7772.162391,766.095498
336.010857,5107.421000,-7550.100608,2757.943793
336.011179,6513.812290,-7031.956449,4060.306139
336.011501,7772.162391,-5551.544565,3830.477490
336.011823,8068.244768,-4145.153275,2068.457845
336.012145,7402.059420,-4219.173869,612.876398
336.012467,4811.338623,-5033.400406,2068.457845
336.012789,2516.700203,-5255.462188,2068.457845
336.013111,1036.288319,-8068.244768,-2451.505594
336.013433,592.164754,-11399.171507,-4826.401637
336.013754,-222.061783,-11769.274478,-4366.744339
336.014076,-1258.350101,-12361.439231,-5132.839837
336.014398,-1628.453072,-16136.489536,-4903.011187
336.014720,-1998.556043,-16580.613101,-2451.505594
336.015042,-2960.823768,-12139.377449,-2911.162892
336.015364,-1702.473667,-8956.491898,-5362.668486
336.015686,1480.411884,-9918.759623,-5439.278036
336.016008,3701.029710,-9548.656652,-4366.744339
336.016330,4959.379811,-7994.224174,-2681.334243
336.016652,7328.038826,-7698.141797,689.485948
336.016974,9326.594869,-9622.677246,3370.820191
336.017296,8734.430116,-9696.697840,2451.505594
336.017618,5921.647536,-8660.409521,1378.971896
336.017940,3478.967927,-7994.224174,536.266849
336.018262,2738.761985,-7772.162391,-536.266849
336.018583,1628.453072,-8142.265362,-842.705048
336.018905,-1184.329507,-8290.306550,306.438199
336.019227,-3478.967927,-8586.388927,1685.410096
336.019549,-4441.235652,-9622.677246,766.095498
336.019871,-4589.276840,-10658.965565,-1991.848295
336.020193,-4219.173869,-10066.800811,-3677.258390
336.020515,-3997.112087,-9326.594869,-4060.306139
336.020837,-2516.700203,-9104.533087,-3294.210641
336.021159,-666.185348,-9252.574275,-2528.115143
336.021481,1480.411884,-8882.471304,-2604.724693
336.021803,2812.782580,-8068.244768,-3217.601092
336.022125,3330.926739,-9252.574275,-2681.334243
336.022447,3108.864956,-10288.862594,-2528.115143
336.022769,1850.514855,-9918.759623,-1378.971896
336.023090,0.000000,-7994.224174,-383.047749
336.023412,-1554.432478,-6439.791695,-536.266849
336.023734,-2294.638420,-5995.668130,-2221.676944
336.024056,-2664.741391,-8808.450710,-3447.429741
336.024378,-3108.864956,-11029.068536,-2604.724693
336.024700,-2738.761985,-11917.315666,0.000000
336.025022,-1554.432478,-11251.130318,1915.238745
336.025344,518.144159,-10584.944971,1225.752797
336.025666,2442.679609,-9474.636058,-766.095498
336.025988,3034.844362,-9474.636058,-1991.848295
336.026310,2368.659014,-10436.903782,-1225.752797
336.026632,1998.556043,-10881.027347,-306.438199
336.026954,2886.803174,-11769.274478,-1915.238745
336.027276,4293.194464,-13471.748144,-2221.676944
336.027597,3923.091493,-12435.459826,-1072.533697
336.027919,2368.659014,-10510.924376,153.219100
336.028241,370.102971,-7772.162391,-229.828649
336.028563,-296.082377,-6957.935855,-536.266849
336.028885,-1628.453072,-4663.297435,-1455.581446
336.029207,-2146.597232,-3923.091493,-4213.525239
336.029529,-3330.926739,-5033.400406,-2374.896044
336.029851,-3627.009116,-7328.038826,0.000000
336.030173,-3330.926739,-7550.100608,0.000000
336.030495,-2590.720797,-8438.347739,-1302.362347
336.030817,-2812.782580,-9474.636058,-2145.067394
336.031139,-4663.297435,-10955.047942,-2911.162892
336.031461,-6291.750507,-10436.903782,-3524.039291
336.031783,-4811.338623,-10288.862594,-4903.011187
336.032105,-1332.370696,-11473.192101,-5362.668486
336.032426,1924.535449,-12509.480420,-4596.572988
336.032748,2738.761985,-13767.830521,-842.705048
336.033070,3552.988522,-12361.439231,1455.581446
336.033392,6069.688724,-9474.636058,-153.219100
336.033713,8216.285956,-8734.430116,-2911.162892
336.034035,8438.347739,-9696.697840,-3140.991542
336.034356,5181.441594,-9770.718434,689.485948
336.034678,2294.638420,-9104.533087,2221.676944
336.035000,1110.308913,-9104.533087,1915.238745
336.035321,1110.308913,-9178.553681,229.828649
336.035643,74.020594,-8660.409521,-1532.190996
336.035964,-2072.576638,-8438.347739,-842.705048
336.036286,-3256.906145,-8068.244768,459.657299
336.036608,-2960.823768,-7994.224174,459.657299
336.036929,-2590.720797,-8512.368333,-1378.971896
336.037251,-2664.741391,-8660.409521,-2987.772442
336.037573,-3182.885551,-7920.203579,-3447.429741
336.037894,-3552.988522,-8808.450710,-3753.867940
336.038216,-3552.988522,-9474.636058,-3753.867940
336.038537,-3404.947333,-10584.944971,-3217.601092
336.038859,-4589.276840,-10955.047942,-2451.505594
336.039181,-6217.729913,-10955.047942,-1915.238745
336.039502,-6661.853478,-9474.636058,-2911.162892
336.039824,-6217.729913,-7105.977043,-4443.353888
336.040145,-4441.235652,-6809.894666,-3983.696590
336.040467,-3034.844362,-8068.244768,-2374.896044
336.040789,-1258.350101,-8956.491898,-1302.362347
336.041110,444.123565,-9326.594869,0.000000
336.041432,2294.638420,-10584.944971,1378.971896
336.041753,4515.256246,-10807.006753,229.828649
336.042075,6365.771101,-10362.883188,-995.924147
336.042397,7254.018232,-10955.047942,-459.657299
336.042718,6735.874072,-12213.398043,1608.800546
336.043040,3701.029710,-11103.089130,2604.724693
336.043361,1480.411884,-9030.512492,2221.676944
336.043683,222.061783,-7846.182985,0.000000
336.044005,-370.102971,-8808.450710,-3064.381992
336.044326,-1480.411884,-8290.306550,-3524.039291
336.044648,-2516.700203,-7624.121203,-1225.752797
336.044970,-2812.782580,-8216.285956,995.924147
336.045291,-2664.741391,-7402.059420,766.095498
336.045613,-2738.761985,-6143.709319,-1762.019645
336.045934,-3182.885551,-7476.080014,-3907.087040
336.046256,-3256.906145,-9326.594869,-3447.429741
336.046578,-3849.070898,-10066.800811,-3600.648841
336.046899,-4663.297435,-10436.903782,-2374.896044
336.047221,-5033.400406,-9474.636058,-995.924147
336.047542,-4515.256246,-8586.388927,-2757.943793
336.047864,-2886.803174,-9844.739029,-5515.887586
336.048186,-740.205942,-12435.459826,-5669.106685
336.048507,740.205942,-11399.171507,-3447.429741
336.048829,2738.761985,-10584.944971,-1302.362347
336.049150,5625.565159,-10214.842000,1455.581446
336.049472,7846.182985,-9474.636058,2221.676944
336.049794,8586.388927,-7402.059420,0.000000
336.050115,8438.347739,-8068.244768,-1072.533697
336.050437,6883.915261,-10955.047942,1149.143247
336.050758,4589.276840,-11103.089130,2911.162892
336.051080,3182.885551,-10140.821405,2068.457845
336.051402,3552.988522,-9918.759623,612.876398
336.051723,4219.173869,-10288.862594,-1838.629195
336.052045,1998.556043,-9030.512492,-2145.067394
336.052367,-518.144159,-7772.162391,-536.266849
336.052688,-2368.659014,-7179.997637,76.609550
336.053010,-2442.679609,-7772.162391,-2298.286494
336.053331,-3108.864956,-8882.471304,-4903.011187
336.053653,-3775.050304,-9178.553681,-4136.915689
336.053975,-4219.173869,-8808.450710,-2834.553343
336.054296,-3627.009116,-8660.409521,-2757.943793
336.054618,-3701.029710,-9474.636058,-2681.334243
336.054939,-5699.585753,-10066.800811,-1991.848295
336.055261,-7624.121203,-9178.553681,-2528.115143
336.055583,-8808.450710,-8142.265362,-4903.011187
336.055904,-6883.915261,-8216.285956,-6665.030833
336.056226,-3182.885551,-9178.553681,-5975.544884
336.056547,-1184.329507,-9992.780217,-3294.210641
336.056869,962.267725,-11251.130318,76.609550
336.057191,3256.906145,-10658.965565,2298.286494
336.057512,6069.688724,-9474.636058,459.657299
336.057834,7402.059420,-9622.677246,-2834.553343
336.058155,7402.059420,-11103.089130,-2604.724693
336.058477,5107.421000,-11991.336260,919.314598
336.058799,3108.864956,-12065.356855,2145.067394
336.059120,1184.329507,-10955.047942,3064.381992
336.059442,444.123565,-10066.800811,1302.362347
336.059764,-666.185348,-8956.491898,-1532.190996
336.060085,-1850.514855,-7994.224174,-2834.553343
336.060407,-3627.009116,-7698.141797,-1149.143247
336.060728,-4663.297435,-7105.977043,0.000000
336.061050,-5107.421000,-6217.729913,-306.438199
336.061372,-5699.585753,-6217.729913,-2068.457845
336.061693,-5921.647536,-8290.306550,-4213.525239
336.062015,-6587.832884,-9844.739029,-4673.182538
336.062336,-6883.915261,-10732.986159,-3447.429741
336.062658,-7031.956449,-10362.883188,-2068.457845
336.062980,-6587.832884,-10955.047942,-1915.238745
336.063301,-5995.668130,-9770.718434,-2911.162892
336.063623,-5847.626942,-7846.182985,-3753.867940
336.063944,-4737.318029,-7994.224174,-4290.134789
336.064266,-2738.761985,-8586.388927,-2987.772442
336.064588,-888.247130,-8956.491898,-1838.629195
336.064909,1110.308913,-9474.636058,0.000000
336.065231,4071.132681,-9622.677246,2221.676944
336.065552,7476.080014,-9030.512492,2068.457845
336.065874,9622.677246,-9104.533087,766.095498
336.066196,10288.862594,-9548.656652,919.314598
336.066517,9030.512492,-10288.862594,3217.601092
336.066839,6439.791695,-10436.903782,4060.306139
336.067161,4145.153275,-9474.636058,2604.724693
336.067482,3034.844362,-9030.512492,306.438199
336.067804,1480.411884,-9178.553681,-1762.019645
336.068125,0.000000,-9474.636058,-2145.067394
336.068447,-1628.453072,-9252.574275,-383.047749
336.068769,-1924.535449,-8438.347739,0.000000
336.069090,-1332.370696,-7920.203579,-689.485948
336.069412,-1332.370696,-8068.244768,-3447.429741
336.069733,-1924.535449,-8290.306550,-4903.011187
336.070055,-2812.782580,-8956.491898,-4903.011187
336.070377,-3256.906145,-10214.842000,-4213.525239
336.070698,-3552.988522,-11029.068536,-3447.429741
336.071020,-3404.947333,-11547.212695,-3140.991542
336.071341,-3256.906145,-10658.965565,-3753.867940
336.071663,-2220.617826,-9844.739029,-5056.230287
336.071985,-148.041188,-9696.697840,-4903.011187
336.072306,1776.494261,-9178.553681,-2987.772442
336.072628,2368.659014,-8660.409521,-1225.752797
336.072949,3108.864956,-9474.636058,536.266849
336.073271,3923.091493,-9474.636058,995.924147
336.073593,5181.441594,-9622.677246,153.219100
336.073914,6735.874072,-9918.759623,-995.924147
336.074236,7031.956449,-10510.924376,-1072.533697
336.074558,6809.894666,-11399.171507,1149.143247
336.074879,5181.441594,-11029.068536,2681.334243
336.075201,2664.741391,-9622.677246,2374.896044
336.075522,148.041188,-8882.471304,-383.047749
336.075844,-1850.514855,-8512.368333,-3370.820191
336.076166,-3701.029710,-8734.430116,-4519.963438
336.076487,-4811.338623,-8660.409521,-3294.210641
336.076809,-4959.379811,-8882.471304,-1532.190996
336.077130,-4515.256246,-8808.450710,-995.924147
336.077452,-3627.009116,-8438.347739,-2221.676944
336.077774,-3997.112087,-8438.347739,-3677.258390
336.078095,-4737.318029,-8660.409521,-3983.696590
336.078417,-6291.750507,-9104.533087,-3447.429741
336.078738,-7698.141797,-9400.615463,-2451.505594
336.079060,-8882.471304,-8956.491898,-1685.410096
336.079382,-8734.430116,-7994.224174,-2221.676944
336.079703,-7846.182985,-8068.244768,-4213.525239
336.080025,-6217.729913,-8512.368333,-4060.306139
336.080346,-4219.173869,-8660.409521,-2757.943793
336.080668,-2220.617826,-8808.450710,-1302.362347
336.080990,814.226536,-9400.615463,153.219100
336.081311,3182.885551,-10362.883188,612.876398
336.081633,4885.359217,-10510.924376,-459.657299
336.081955,5625.565159,-10584.944971,-1072.533697
336.082276,5255.462188,-10510.924376,0.000000
336.082598,3997.112087,-11029.068536,995.924147
336.082919,2886.803174,-10881.027347,1762.019645
336.083241,1480.411884,-9918.759623,766.095498
336.083563,814.226536,-9252.574275,-383.047749
336.083884,444.123565,-9326.594869,-995.924147
336.084206,-74.020594,-8660.409521,-842.705048
336.084527,-888.247130,-7994.224174,919.314598
336.084849,-1924.535449,-7031.956449,612.876398
336.085171,-2146.597232,-7254.018232,-689.485948
336.085492,-2442.679609,-7254.018232,-2298.286494
336.085814,-2146.597232,-7994.224174,-3600.648841
336.086135,-2146.597232,-9918.759623,-3064.381992
336.086457,-2442.679609,-11325.150913,-1378.971896
336.086779,-2664.741391,-11547.212695,0.000000
336.087100,-3404.947333,-10436.903782,-612.876398
336.087422,-3108.864956,-8956.491898,-3064.381992
336.087743,-2442.679609,-8734.430116,-4826.401637
336.088065,-1702.473667,-8364.327145,-4443.353888
336.088387,-148.041188,-8512.368333,-2528.115143
336.088708,1776.494261,-8808.450710,-919.314598
336.089030,3775.050304,-10066.800811,383.047749
336.089352,5255.462188,-10732.986159,1072.533697
336.089673,6365.771101,-9918.759623,689.485948
336.089995,7179.997637,-9770.718434,-229.828649
336.090316,6735.874072,-10066.800811,612.876398
336.090638,5255.462188,-10066.800811,1455.581446
336.090960,3923.091493,-9622.677246,1302.362347
336.091281,3034.844362,-9400.615463,536.266849
336.091603,3256.906145,-10066.800811,-766.095498
336.091924,2886.803174,-10732.986159,-1762.019645
336.092246,1702.473667,-9918.759623,-1225.752797
336.092568,74.020594,-8734.430116,0.000000
336.092889,-740.205942,-7920.203579,153.219100
336.093211,-1554.432478,-7179.997637,-1762.019645
336.093532,-1628.453072,-7994.224174,-3983.696590
336.093854,-2590.720797,-9178.553681,-4443.353888
336.094176,-3552.988522,-9696.697840,-3064.381992
336.094497,-3478.967927,-9474.636058,-1302.362347
336.094819,-2960.823768,-9844.739029,-1532.190996
336.095140,-3478.967927,-9622.677246,-2757.943793
336.095462,-5255.462188,-8808.450710,-3907.087040
336.095784,-6439.791695,-8216.285956,-4826.401637
336.096105,-6439.791695,-8734.430116,-4979.620737
336.096427,-4811.338623,-9622.677246,-4673.182538
336.096749,-2812.782580,-10214.842000,-4213.525239
336.097070,-888.247130,-10881.027347,-2068.457845
336.097392,1332.370696,-11177.109724,-1072.533697
336.097713,3701.029710,-10955.047942,-995.924147
336.098035,4959.379811,-10658.965565,-1762.019645
336.098357,4885.359217,-10510.924376,-995.924147
336.098678,2664.741391,-11621.233289,459.657299
336.099000,148.041188,-11621.233289,459.657299
336.099321,-2146.597232,-9252.574275,229.828649
336.099643,-2442.679609,-6883.915261,-459.657299
336.099965,-1184.329507,-7476.080014,-1838.629195
336.100286,-518.144159,-8808.450710,-2221.676944
336.100608,-888.247130,-8216.285956,0.000000
336.100929,-1924.535449,-6957.935855,1685.410096
336.101251,-1702.473667,-6735.874072,0.000000
336.101573,-1258.350101,-7105.977043,-2757.943793
336.101894,-3108.864956,-7476.080014,-4749.792088
336.102216,-5847.626942,-8956.491898,-4673.182538
336.102537,-7105.977043,-10362.883188,-1991.848295
336.102859,-6291.750507,-11473.192101,-1072.533697
336.103181,-5329.482782,-10658.965565,-2298.286494
336.103502,-4885.359217,-9474.636058,-3064.381992
336.103824,-4737.318029,-7846.182985,-2911.162892
336.104146,-4367.215058,-7105.977043,-2987.772442
336.104467,-2960.823768,-7994.224174,-2298.286494
336.104789,-1110.308913,-8438.347739,-1378.971896
336.105110,370.102971,-9030.512492,-1378.971896
336.105432,2590.720797,-10510.924376,-766.095498
336.105754,5107.421000,-11843.295072,1225.752797
336.106075,7402.059420,-9992.780217,1762.019645
336.106397,8882.471304,-9474.636058,459.657299
336.106718,8956.491898,-10732.986159,1072.533697
336.107040,6735.874072,-11695.253884,2528.115143
336.107362,3923.091493,-9474.636058,1915.238745
336.107683,2590.720797,-7920.203579,229.828649
336.108005,2368.659014,-8142.265362,-1762.019645
336.108326,888.247130,-8956.491898,-2451.505594
336.108648,-1554.432478,-9622.677246,383.047749
336.108970,-2442.679609,-9030.512492,1225.752797
336.109291,-1184.329507,-8364.327145,-766.095498
336.109613,0.000000,-8438.347739,-3677.258390
336.109934,-740.205942,-9104.533087,-4136.915689
336.110256,-3034.844362,-8734.430116,-2987.772442
336.110578,-3997.112087,-9474.636058,-2757.943793
336.110899,-4145.153275,-10881.027347,-3983.696590
336.111221,-3552.988522,-12139.377449,-4979.620737
336.111543,-2886.803174,-11843.295072,-4903.011187
336.111864,-1924.535449,-11621.233289,-3907.087040
336.112186,74.020594,-10732.986159,-3600.648841
336.112507,2516.700203,-9474.636058,-2298.286494
336.112829,3923.091493,-8512.368333,-1455.581446
336.113151,4071.132681,-7920.203579,-1072.533697
336.113472,4293.194464,-8512.368333,0.000000
336.113794,4071.132681,-9474.636058,76.609550
336.114115,4293.194464,-10214.842000,459.657299
336.114437,4737.318029,-10658.965565,612.876398
336.114759,4071.132681,-10955.047942,1149.143247
336.115080,2590.720797,-9844.739029,1608.800546
336.115402,666.185348,-7920.203579,995.924147
336.115723,-1184.329507,-7328.038826,-766.095498
336.116045,-1554.432478,-8068.244768,-3370.820191
336.116367,-2886.803174,-8734.430116,-3677.258390
336.116688,-3997.112087,-9474.636058,-2451.505594
336.117010,-4441.235652,-9030.512492,-995.924147
336.117331,-3701.029710,-8290.306550,-1915.238745
336.117653,-3552.988522,-7772.162391,-3294.210641
336.117975,-4145.153275,-8512.368333,-4213.525239
336.118296,-4959.379811,-9252.574275,-3753.867940
336.118618,-6069.688724,-10214.842000,-3677.258390
336.118940,-7105.977043,-9992.780217,-2987.772442
336.119261,-7254.018232,-8068.244768,-2681.334243
336.119583,-6883.915261,-7698.141797,-3983.696590
336.119904,-5551.544565,-8512.368333,-4290.134789
336.120226,-3923.091493,-9696.697840,-3217.601092
336.120548,-2294.638420,-9474.636058,-1915.238745
336.120869,370.102971,-9326.594869,-766.095498
336.121191,3182.885551,-9474.636058,229.828649
336.121512,5625.565159,-9622.677246,0.000000
336.121834,6587.832884,-9326.594869,-536.266849
336.122156,6957.935855,-9992.780217,0.000000
336.122477,6143.709319,-11547.212695,612.876398
336.122799,4367.215058,-11991.336260,1762.019645
336.123120,1406.391290,-10584.944971,1302.362347
336.123442,-222.061783,-9474.636058,229.828649
336.123764,-740.205942,-8956.491898,-2068.457845
336.124085,-1184.329507,-8586.388927,-3064.381992
336.124407,-2368.659014,-7550.100608,-1685.410096
336.124728,-3108.864956,-7328.038826,-995.924147
336.125050,-2738.761985,-7920.203579,-766.095498
336.125372,-2664.741391,-8142.265362,-2374.896044
336.125693,-3182.885551,-8734.430116,-3830.477490
336.126015,-3923.091493,-9474.636058,-4213.525239
336.126337,-4071.132681,-10881.027347,-3600.648841
336.126658,-3849.070898,-11769.274478,-2987.772442
336.126980,-3552.988522,-11399.171507,-2528.115143
336.127301,-2368.659014,-10436.903782,-2298.286494
336.127623,-962.267725,-10140.821405,-2834.553343
336.127945,1036.288319,-9844.739029,-2911.162892
336.128266,2516.700203,-9030.512492,-1915.238745
336.128588,3404.947333,-7994.224174,153.219100
336.128909,4663.297435,-7772.162391,1455.581446
336.129231,5921.647536,-8142.265362,1915.238745
336.129553,6809.894666,-8438.347739,1838.629195
336.129874,7550.100608,-8660.409521,842.705048
336.130196,7920.203579,-9844.739029,919.314598
336.130517,7031.956449,-10658.965565,1608.800546
336.130839,4737.318029,-10658.965565,2451.505594
336.131161,2220.617826,-9622.677246,2451.505594
336.131482,-222.061783,-8734.430116,0.000000
336.131804,-1554.432478,-8512.368333,-2604.724693
336.132125,-2886.803174,-8364.327145,-3677.258390
336.132447,-4145.153275,-8512.368333,-2604.724693
336.132769,-4293.194464,-8586.388927,-1532.190996
336.133091,-3997.112087,-8438.347739,-1608.800546
336.133413,-3404.947333,-8142.265362,-2604.724693
336.133734,-3330.926739,-8882.471304,-4213.525239
336.134056,-2886.803174,-9474.636058,-4366.744339
336.134378,-3108.864956,-10214.842000,-3983.696590
336.134700,-3923.091493,-10362.883188,-3294.210641
336.135022,-4071.132681,-10066.800811,-1378.971896
336.135343,-3775.050304,-9252.574275,-2221.676944
336.135665,-2516.700203,-9030.512492,-3753.867940
336.135987,-1554.432478,-9474.636058,-4366.744339
336.136309,-888.247130,-9474.636058,-3140.991542
336.136631,0.000000,-9548.656652,-1302.362347
336.136953,888.247130,-10140.821405,0.000000
336.137274,2072.576638,-10436.903782,0.000000
336.137596,3108.864956,-10584.944971,-1302.362347
336.137918,3182.885551,-11029.068536,-1455.581446
336.138240,2516.700203,-11251.130318,-842.705048
336.138562,1998.556043,-11251.130318,0.000000
336.138884,1036.288319,-11251.130318,76.609550
336.139205,-148.041188,-10584.944971,-383.047749
336.139527,-1332.370696,-9326.594869,-1225.752797
336.139849,-1850.514855,-9104.533087,-2528.115143
336.140171,-2516.700203,-8734.430116,-3064.381992
336.140493,-3330.926739,-7772.162391,-2145.067394
336.140814,-3701.029710,-7550.100608,-1302.362347
336.141136,-3108.864956,-7624.121203,-2298.286494
336.141458,-2442.679609,-7624.121203,-3217.601092
336.141780,-2516.700203,-7994.224174,-3217.601092
336.142102,-2516.700203,-8660.409521,-2681.334243
336.142424,-3034.844362,-9400.615463,-1915.238745
336.142745,-3108.864956,-9696.697840,-1378.971896
336.143067,-3923.091493,-9548.656652,-995.924147
336.143389,-4589.276840,-8290.306550,-1685.410096
336.143711,-4663.297435,-7772.162391,-2757.943793
336.144033,-3478.967927,-8290.306550,-3140.991542
336.144355,-2220.617826,-8364.327145,-2298.286494
336.144676,0.000000,-8808.450710,-689.485948
336.144998,1924.535449,-9252.574275,229.828649
336.145320,4219.173869,-9178.553681,842.705048
336.145642,6291.750507,-9770.718434,0.000000
336.145964,7105.977043,-10140.821405,-536.266849
336.146285,7105.977043,-9770.718434,153.219100
336.146607,6513.812290,-10732.986159,612.876398
336.146929,4589.276840,-11251.130318,1302.362347
336.147251,3034.844362,-10288.862594,459.657299
336.147573,2072.576638,-9696.697840,-229.828649
336.147895,1998.556043,-9548.656652,-1762.019645
336.148216,1110.308913,-8660.409521,-1302.362347
336.148538,0.000000,-7328.038826,-153.219100
336.148860,-962.267725,-6883.915261,153.219100
336.149182,-666.185348,-7105.977043,-1149.143247
336.149504,-1110.308913,-7698.141797,-2757.943793
336.149826,-1998.556043,-8734.430116,-3677.258390
336.150147,-2442.679609,-9770.718434,-2757.943793
336.150469,-2738.761985,-10732.986159,-2145.067394
336.150791,-2886.803174,-11991.336260,-2221.676944
336.151113,-3478.967927,-11769.274478,-2221.676944
336.151435,-3997.112087,-9696.697840,-3064.381992
336.151756,-3108.864956,-9326.594869,-4366.744339
336.152078,-1628.453072,-10214.842000,-4290.134789
336.152400,74.020594,-9474.636058,-3294.210641
336.152722,666.185348,-9252.574275,-1608.800546
336.153044,1850.514855,-9696.697840,-536.266849
336.153366,3182.885551,-10362.883188,0.000000
336.153687,4293.194464,-10881.027347,-689.485948
336.154009,4589.276840,-11029.068536,-459.657299
336.154331,4219.173869,-11103.089130,0.000000
336.154653,3478.967927,-10881.027347,689.485948
336.154975,2516.700203,-10732.986159,1149.143247
336.155297,1480.411884,-9696.697840,995.924147
336.155618,592.164754,-8660.409521,0.000000
336.155940,-148.041188,-8734.430116,-1532.190996
336.156262,-1776.494261,-8734.430116,-1608.800546
336.156584,-3330.926739,-7772.162391,-842.705048
336.156906,-3627.009116,-7550.100608,-919.314598
336.157227,-3256.906145,-7624.121203,-1915.238745
336.157549,-3478.967927,-8068.244768,-3140.991542
336.157871,-4071.132681,-8512.368333,-3294.210641
336.158193,-4959.379811,-8586.388927,-2451.505594
336.158515,-5625.565159,-9030.512492,-2145.067394
336.158837,-5921.647536,-9474.636058,-2451.505594
336.159158,-6365.771101,-9474.636058,-2604.724693
336.159480,-7328.038826,-8438.347739,-2604.724693
336.159802,-6661.853478,-8364.327145,-3907.087040
336.160124,-4885.359217,-9104.533087,-4213.525239
336.160446,-2886.803174,-9844.739029,-2451.505594
336.160767,-1258.350101,-9474.636058,-383.047749
336.161089,0.000000,-8586.388927,76.609550
336.161411,2442.679609,-8882.471304,-612.876398
336.161733,4293.194464,-9548.656652,-1149.143247
336.162055,5181.441594,-9992.780217,-1225.752797
336.162377,5181.441594,-9770.718434,0.000000
336.162698,4737.318029,-10436.903782,1455.581446
336.163020,3552.988522,-11029.068536,1915.238745
336.163342,1850.514855,-9992.780217,689.485948
336.163664,1036.288319,-8734.430116,-995.924147
336.163986,444.123565,-8512.368333,-2451.505594
336.164308,0.000000,-8364.327145,-2451.505594
336.164629,-962.267725,-7994.224174,-1838.629195
336.164951,-1184.329507,-8364.327145,-995.924147
336.165273,-1258.350101,-8660.409521,-1685.410096
336.165595,-1702.473667,-8882.471304,-3140.991542
336.165917,-2442.679609,-9474.636058,-4596.572988
336.166238,-3182.885551,-9770.718434,-4519.963438
336.166560,-3552.988522,-10584.944971,-3600.648841
336.166882,-3256.906145,-11695.253884,-2451.505594
336.167204,-3478.967927,-11103.089130,-1838.629195
336.167526,-3108.864956,-9918.759623,-2145.067394
336.167848,-1406.391290,-9104.533087,-3064.381992
336.168169,148.041188,-9400.615463,-2987.772442
336.168491,1110.308913,-8882.471304,-1302.362347
336.168813,2442.679609,-8290.306550,76.609550
336.169135,4071.132681,-8586.388927,1072.533697
336.169457,5181.441594,-8660.409521,919.314598
336.169779,6513.812290,-9030.512492,-459.657299
336.170100,6587.832884,-9696.697840,383.047749
336.170422,6217.729913,-10584.944971,995.924147
336.170744,5033.400406,-11177.109724,1302.362347
336.171066,3552.988522,-10955.047942,1302.362347
336.171388,2442.679609,-9474.636058,766.095498
336.171709,1184.329507,-8586.388927,-459.657299
336.172031,444.123565,-8364.327145,-2068.457845
336.172353,-814.226536,-8512.368333,-1915.238745
336.172675,-2072.576638,-8142.265362,-1072.533697
336.172997,-2442.679609,-8586.388927,-995.924147
336.173319,-2738.761985,-8364.327145,-766.095498
336.173640,-2960.823768,-8290.306550,-2221.676944
336.173962,-3478.967927,-8438.347739,-3447.429741
336.174284,-4071.132681,-8364.327145,-3600.648841
336.174606,-4145.153275,-8956.491898,-3217.601092
336.174928,-4293.194464,-9548.656652,-2221.676944
336.175250,-5329.482782,-9400.615463,-2145.067394
336.175571,-5181.441594,-9548.656652,-2911.162892
336.175893,-4515.256246,-10362.883188,-3600.648841
336.176215,-3552.988522,-10658.965565,-3447.429741
336.176537,-2442.679609,-10214.842000,-2451.505594
336.176859,-740.205942,-9696.697840,-1532.190996
336.177180,888.247130,-10362.883188,-536.266849
336.177502,2146.597232,-10510.924376,-689.485948
336.177824,2590.720797,-10807.006753,-995.924147
336.178146,3182.885551,-11547.212695,-229.828649
336.178468,3034.844362,-11769.274478,153.219100
336.178790,1184.329507,-11103.089130,842.705048
336.179111,-592.164754,-9770.718434,1072.533697
336.179433,-1850.514855,-8660.409521,306.438199
336.179755,-2072.576638,-8364.327145,-1762.019645
336.180077,-2368.659014,-7994.224174,-2911.162892
336.180399,-3849.070898,-6957.935855,-1608.800546
336.180721,-3552.988522,-6957.935855,-536.266849
336.181042,-2738.761985,-7920.203579,-1685.410096
336.181364,-2146.597232,-8438.347739,-2604.724693
336.181686,-2516.700203,-8586.388927,-2451.505594
336.182008,-3256.906145,-9400.615463,-3370.820191
336.182330,-3478.967927,-9844.739029,-3753.867940
336.182651,-3034.844362,-10955.047942,-3600.648841
336.182973,-3478.967927,-10807.006753,-2298.286494
336.183295,-3997.112087,-9326.594869,-1378.971896
336.183617,-3404.947333,-7550.100608,-2451.505594
336.183939,-2368.659014,-8290.306550,-3524.039291
336.184261,-888.247130,-9030.512492,-2528.115143
336.184582,-222.061783,-8808.450710,-842.705048
336.184904,888.247130,-8808.450710,1302.362347
336.185226,3034.844362,-8438.347739,1838.629195
336.185548,5329.482782,-7772.162391,229.828649
336.185870,6291.750507,-8734.430116,-842.705048
336.186192,7031.956449,-9770.718434,612.876398
336.186513,6661.853478,-10584.944971,1302.362347
336.186835,5625.565159,-11029.068536,1072.533697
336.187157,4663.297435,-11029.068536,1608.800546
336.187479,2368.659014,-10140.821405,459.657299
336.187801,1258.350101,-9770.718434,-1685.410096
336.188122,370.102971,-9104.533087,-3140.991542
336.188444,-370.102971,-8808.450710,-2374.896044
336.188766,-1110.308913,-8512.368333,-1838.629195
336.189088,-1332.370696,-7624.121203,-995.924147
336.189410,-518.144159,-8216.285956,-2681.334243
336.189732,-296.082377,-8882.471304,-3753.867940
336.190053,-592.164754,-9992.780217,-3677.258390
336.190375,-1258.350101,-10214.842000,-2451.505594
336.190697,-1702.473667,-9770.718434,-2681.334243
336.191019,-2072.576638,-10658.965565,-2451.505594
336.191341,-2886.803174,-10436.903782,-2374.896044
336.191663,-3330.926739,-9770.718434,-2757.943793
336.191984,-2368.659014,-9474.636058,-3064.381992
336.192306,-814.226536,-9400.615463,-2834.553343
336.192628,370.102971,-9178.553681,-1225.752797
336.192950,1628.453072,-9400.615463,-306.438199
336.193272,2442.679609,-8734.430116,536.266849
336.193593,3849.070898,-8882.471304,0.000000
336.193915,4441.235652,-9918.759623,-612.876398
336.194237,3775.050304,-10288.862594,0.000000
336.194559,2072.576638,-10881.027347,536.266849
336.194881,814.226536,-11177.109724,766.095498
336.195203,148.041188,-10584.944971,383.047749
336.195524,-148.041188,-9326.594869,-766.095498
336.195846,-444.123565,-8438.347739,-2298.286494
336.196168,-962.267725,-8142.265362,-2145.067394
336.196490,-2072.576638,-8364.327145,-1302.362347
336.196812,-2590.720797,-8438.347739,-383.047749
336.197133,-2960.823768,-8068.244768,-995.924147
336.197455,-2664.741391,-7698.141797,-1991.848295
336.197777,-3034.844362,-8216.285956,-3064.381992
336.198099,-3627.009116,-8438.347739,-2221.676944
336.198421,-4589.276840,-8512.368333,-1455.581446
336.198743,-5181.441594,-9178.553681,-1762.019645
336.199064,-5329.482782,-9770.718434,-1302.362347
336.199386,-5699.585753,-9696.697840,-1762.019645
336.199708,-5699.585753,-9252.574275,-2757.943793
336.200030,-5033.400406,-9252.574275,-3600.648841
336.200352,-3849.070898,-9326.594869,-2834.553343
336.200674,-2516.700203,-9400.615463,-1608.800546
336.200995,-1258.350101,-8956.491898,-1072.533697
336.201317,296.082377,-9622.677246,-1225.752797
336.201639,2220.617826,-10584.944971,-1762.019645
336.201961,3034.844362,-11621.233289,-1378.971896
336.202283,2960.823768,-11325.150913,0.000000
336.202604,2886.803174,-10066.800811,229.828649
336.202926,1998.556043,-10362.883188,612.876398
336.203248,1332.370696,-9696.697840,0.000000
336.203570,222.061783,-8660.409521,-919.314598
336.203892,-148.041188,-8216.285956,-1762.019645
336.204214,0.000000,-8216.285956,-1608.800546
336.204535,0.000000,-7920.203579,-383.047749
336.204857,74.020594,-7772.162391,-612.876398
336.205179,296.082377,-7402.059420,-919.314598
336.205501,1036.288319,-7994.224174,-2298.286494
336.205823,296.082377,-9178.553681,-3140.991542
336.206145,-296.082377,-9696.697840,-3370.820191
336.206466,-1850.514855,-9918.759623,-3064.381992
336.206788,-2664.741391,-11325.150913,-2757.943793
336.207110,-2960.823768,-11547.212695,-2451.505594
336.207432,-2664.741391,-10807.006753,-3064.381992
336.207754,-1332.370696,-9622.677246,-3753.867940
336.208075,0.000000,-9918.759623,-2987.772442
336.208397,1184.329507,-9474.636058,-1991.848295
336.208719,2072.576638,-8734.430116,-383.047749
336.209041,2886.803174,-7920.203579,536.266849
336.209363,4145.153275,-7846.182985,306.438199
336.209685,4811.338623,-8068.244768,-1225.752797
336.210006,4663.297435,-8660.409521,-383.047749
336.210328,4367.215058,-9474.636058,995.924147
336.210650,3923.091493,-9622.677246,1532.190996
336.210972,3552.988522,-10436.903782,766.095498
336.211294,3034.844362,-10214.842000,-383.047749
336.211616,1924.535449,-9104.533087,0.000000
336.211937,296.082377,-8364.327145,-995.924147
336.212259,-222.061783,-8290.306550,-1608.800546
336.212581,-518.144159,-8068.244768,-2298.286494
336.212903,-1258.350101,-8142.265362,-1915.238745
336.213225,-1554.432478,-7994.224174,-1608.800546
336.213546,-1554.432478,-8512.368333,-2298.286494
336.213868,-1332.370696,-9548.656652,-3140.991542
336.214190,-1924.535449,-10362.883188,-2757.943793
336.214512,-2664.741391,-10140.821405,-2221.676944
336.214834,-3478.967927,-9770.718434,-1915.238745
336.215156,-4367.215058,-9326.594869,-1838.629195
336.215477,-4737.318029,-9178.553681,-3064.381992
336.215799,-4293.194464,-8956.491898,-4290.134789
336.216121,-3182.885551,-9622.677246,-3600.648841
336.216443,-2294.638420,-10510.924376,-1455.581446
336.216765,-962.267725,-10436.903782,-229.828649
336.217087,0.000000,-9844.739029,-153.219100
336.217408,1776.494261,-9770.718434,-766.095498
336.217730,2516.700203,-10658.965565,-1762.019645
336.218052,2590.720797,-11325.150913,-1225.752797
336.218374,1258.350101,-11029.068536,306.438199
336.218696,222.061783,-11325.150913,1149.143247
336.219017,-962.267725,-10658.965565,689.485948
336.219339,-1924.535449,-9474.636058,-459.657299
336.219661,-2442.679609,-8882.471304,-2068.457845
336.219983,-2072.576638,-8586.388927,-2834.553343
336.220305,-2442.679609,-8142.265362,-1532.190996
336.220627,-2442.679609,-8068.244768,-766.095498
336.220948,-2294.638420,-7994.224174,-612.876398
336.221270,-1998.556043,-7772.162391,-1455.581446
336.221592,-1850.514855,-7550.100608,-3294.210641
336.221914,-1702.473667,-8068.244768,-2987.772442
336.222236,-1924.535449,-8808.450710,-2528.115143
336.222558,-2146.597232,-9400.615463,-1915.238745
336.222879,-2516.700203,-10510.924376,-995.924147
336.223201,-2960.823768,-10436.903782,-536.266849
336.223523,-3478.967927,-9326.594869,-2068.457845
336.223845,-2738.761985,-8438.347739,-2834.553343
336.224167,-2368.659014,-7772.162391,-2298.286494
336.224488,-814.226536,-7698.141797,-1685.410096
336.224810,814.226536,-8068.244768,-842.705048
336.225132,2294.638420,-8290.306550,-229.828649
336.225454,3404.947333,-8512.368333,1072.533697
336.225776,4589.276840,-9770.718434,0.000000
336.226098,4959.379811,-10658.965565,-306.438199
336.226419,4959.379811,-11325.150913,536.266849
336.226741,4071.132681,-11029.068536,919.314598
336.227063,2590.720797,-10288.862594,919.314598
336.227385,962.267725,-9252.574275,76.609550
336.227707,444.123565,-9030.512492,-1762.019645
336.228028,444.123565,-8660.409521,-2604.724693
336.228350,592.164754,-8586.388927,-2298.286494
336.228672,518.144159,-8364.327145,-842.705048
336.228994,592.164754,-7772.162391,-153.219100
336.229316,296.082377,-7476.080014,-1685.410096
336.229638,370.102971,-8068.244768,-3447.429741
336.229959,148.041188,-9178.553681,-4673.182538
336.230281,-814.226536,-9622.677246,-4136.915689
336.230603,-1480.411884,-10510.924376,-3140.991542
336.230925,-2516.700203,-10955.047942,-2451.505594
336.231247,-2960.823768,-10732.986159,-2604.724693
336.231569,-2738.761985,-10436.903782,-3677.258390
336.231890,-2220.617826,-10362.883188,-4673.182538
336.232212,-1184.329507,-9992.780217,-4366.744339
336.232534,-592.164754,-9474.636058,-2221.676944
336.232856,-222.061783,-9474.636058,-766.095498
336.233178,666.185348,-9622.677246,-612.876398
336.233500,1850.514855,-9770.718434,-995.924147
336.233822,2960.823768,-10362.883188,-1378.971896
336.234143,3923.091493,-10732.986159,-689.485948
336.234465,3923.091493,-11103.089130,0.000000
336.234787,2590.720797,-10807.006753,1378.971896
336.235109,1258.350101,-10436.903782,1762.019645
336.235431,222.061783,-9474.636058,306.438199
336.235753,74.020594,-9326.594869,-2834.553343
336.236075,-666.185348,-8586.388927,-2451.505594
336.236397,-1110.308913,-8216.285956,-1225.752797
336.236718,-1702.473667,-7476.080014,0.000000
336.237040,-1702.473667,-7179.997637,76.609550
336.237362,-1406.391290,-7254.018232,-1838.629195
336.237684,-1702.473667,-7920.203579,-3064.381992
336.238006,-3182.885551,-8956.491898,-3830.477490
336.238328,-4145.153275,-9548.656652,-2451.505594
336.238650,-4885.359217,-9622.677246,-1455.581446
336.238972,-5699.585753,-9474.636058,-1225.752797
336.239293,-6735.874072,-8734.430116,-1072.533697
336.239615,-6735.874072,-8734.430116,-3677.258390
336.239937,-5921.647536,-9474.636058,-4366.744339
336.240259,-4589.276840,-9622.677246,-2757.943793
336.240581,-3182.885551,-9252.574275,-612.876398
336.240903,-888.247130,-8660.409521,459.657299
336.241225,1184.329507,-8808.450710,229.828649
336.241547,1998.556043,-8734.430116,-383.047749
336.241868,2516.700203,-9548.656652,-1225.752797
336.242190,2516.700203,-10214.842000,-306.438199
336.242512,2442.679609,-11251.130318,842.705048
336.242834,2294.638420,-11325.150913,1991.848295
336.243156,2146.597232,-10807.006753,1532.190996
336.243478,1554.432478,-9770.718434,76.609550
336.243800,1406.391290,-9400.615463,-1608.800546
336.244122,1628.453072,-8586.388927,-1915.238745
336.244443,1480.411884,-8290.306550,-1532.190996
336.244765,962.267725,-8068.244768,-1149.143247
336.245087,444.123565,-8586.388927,-842.705048
336.245409,296.082377,-8882.471304,-1991.848295
336.245731,74.020594,-9030.512492,-3370.820191
336.246053,-222.061783,-9252.574275,-3294.210641
336.246375,-1036.288319,-9474.636058,-2757.943793
336.246697,-1776.494261,-9696.697840,-2221.676944
336.247018,-2812.782580,-9770.718434,-1762.019645
336.247340,-3701.029710,-9178.553681,-2298.286494
336.247662,-4293.194464,-9104.533087,-3600.648841
336.247984,-3701.029710,-9326.594869,-3907.087040
336.248306,-2590.720797,-9548.656652,-3217.601092
336.248628,-666.185348,-9474.636058,-2221.676944
336.248950,962.267725,-9918.759623,-536.266849
336.249272,3404.947333,-9548.656652,229.828649
336.249593,5625.565159,-8956.491898,-1225.752797
336.249915,7031.956449,-9770.718434,-1838.629195
336.250237,7031.956449,-11029.068536,-306.438199
336.250559,5329.482782,-11621.233289,1149.143247
336.250881,3404.947333,-11325.150913,1838.629195
336.251203,1850.514855,-9992.780217,1685.410096
336.251525,888.247130,-8512.368333,766.095498
336.251847,74.020594,-7550.100608,-2298.286494
336.252168,0.000000,-6883.915261,-2451.505594
336.252490,222.061783,-7105.977043,-1225.752797
336.252812,1110.308913,-7624.121203,-229.828649
336.253134,2368.659014,-8660.409521,-306.438199
336.253456,1998.556043,-8586.388927,-1455.581446
336.253778,296.082377,-9104.533087,-2145.067394
336.254100,-1924.535449,-9474.636058,-2451.505594
336.254422,-3923.091493,-9770.718434,-3294.210641
336.254743,-5847.626942,-9844.739029,-4213.525239
336.255065,-7179.997637,-9696.697840,-3830.477490
336.255387,-7550.100608,-9992.780217,-3753.867940
336.255709,-7179.997637,-10066.800811,-4290.134789
336.256031,-6069.688724,-10288.862594,-4366.744339
336.256353,-4885.359217,-10288.862594,-3217.601092
336.256675,-3552.988522,-9400.615463,-2451.505594
336.256997,-1998.556043,-9030.512492,-1838.629195
336.257318,-592.164754,-8438.347739,-1072.533697
336.257640,444.123565,-8808.450710,-1532.190996
336.257962,962.267725,-9770.718434,-1302.362347
336.258284,1702.473667,-11177.109724,-229.828649
336.258606,1998.556043,-11843.295072,383.047749
336.258928,1998.556043,-11473.192101,536.266849
336.259250,1850.514855,-10436.903782,766.095498
336.259572,1554.432478,-9474.636058,153.219100
336.259893,1628.453072,-9104.533087,-1072.533697
336.260215,1554.432478,-8956.491898,-1378.971896
336.260537,296.082377,-8512.368333,-1302.362347
336.260859,-370.102971,-8438.347739,-229.828649
336.261181,-1258.350101,-7994.224174,-459.657299
336.261503,-1332.370696,-8290.306550,-1991.848295
336.261825,-1554.432478,-9622.677246,-2681.334243
336.262147,-2368.659014,-9474.636058,-2374.896044
336.262468,-3404.947333,-9548.656652,-1915.238745
336.262790,-4219.173869,-9844.739029,-2221.676944
336.263112,-4663.297435,-9696.697840,-2068.457845
336.263434,-5403.503377,-8438.347739,-2451.505594
336.263756,-5995.668130,-8068.244768,-3294.210641
336.264078,-5033.400406,-8364.327145,-2681.334243
336.264400,-3552.988522,-8438.347739,-2145.067394
336.264722,-1702.473667,-8882.471304,-1915.238745
336.265043,222.061783,-9400.615463,-383.047749
336.265365,2220.617826,-9474.636058,153.219100
336.265687,3627.009116,-9400.615463,229.828649
336.266009,4589.276840,-9400.615463,-153.219100
336.266331,4959.379811,-9622.677246,-306.438199
336.266653,4737.318029,-10881.027347,689.485948
336.266975,4293.194464,-11177.109724,2221.676944
336.267297,3330.926739,-10066.800811,1915.238745
336.267618,3256.906145,-9030.512492,383.047749
336.267940,3923.091493,-9252.574275,-1455.581446
336.268262,3552.988522,-8660.409521,-1378.971896
336.268584,2664.741391,-7920.203579,-919.314598
336.268906,2738.761985,-7698.141797,536.266849
336.269228,2812.782580,-7846.182985,-612.876398
336.269550,2220.617826,-8216.285956,-2221.676944
336.269872,296.082377,-9178.553681,-3294.210641
336.270193,-1480.411884,-10066.800811,-2911.162892
336.270515,-3108.864956,-10214.842000,-2374.896044
336.270837,-3923.091493,-10362.883188,-2834.553343
336.271159,-4663.297435,-10066.800811,-2987.772442
336.271481,-4885.359217,-9622.677246,-3677.258390
336.271803,-4071.132681,-9622.677246,-4596.572988
336.272125,-2960.823768,-9844.739029,-4443.353888
336.272447,-1776.494261,-10066.800811,-2298.286494
336.272768,-666.185348,-9474.636058,-995.924147
336.273090,444.123565,-8882.471304,-612.876398
336.273412,1702.473667,-9474.636058,-919.314598
336.273734,2368.659014,-9992.780217,-1455.581446
336.274056,2516.700203,-9844.739029,-1455.581446
336.274378,2590.720797,-10288.862594,-612.876398
336.274700,2442.679609,-11621.233289,76.609550
336.275022,2294.638420,-11769.274478,383.047749
336.275343,1332.370696,-10288.862594,229.828649
336.275665,444.123565,-8660.409521,-689.485948
336.275987,666.185348,-8956.491898,-1762.019645
336.276309,148.041188,-8660.409521,-2451.505594
336.276631,-518.144159,-8068.244768,-2068.457845
336.276953,-1258.350101,-7846.182985,-995.924147
336.277275,-1850.514855,-8586.388927,-995.924147
336.277597,-2368.659014,-9030.512492,-1991.848295
336.277918,-2738.761985,-9326.594869,-2451.505594
336.278240,-3923.091493,-8956.491898,-2681.334243
336.278562,-4885.359217,-9326.594869,-2528.115143
336.278884,-5329.482782,-9622.677246,-2221.676944
336.279206,-6513.812290,-8660.409521,-2221.676944
336.279528,-6809.894666,-8068.244768,-3753.867940
336.279850,-6143.709319,-8808.450710,-3983.696590
336.280172,-5107.421000,-9548.656652,-3370.820191
336.280493,-4441.235652,-9696.697840,-2451.505594
336.280815,-2886.803174,-9696.697840,-689.485948
336.281137,-222.061783,-9400.615463,0.000000
336.281459,1554.432478,-9030.512492,-842.705048
336.281781,2738.761985,-9252.574275,-1915.238745
336.282103,3256.906145,-9770.718434,-766.095498
336.282425,3182.885551,-10658.965565,766.095498
336.282747,2590.720797,-11769.274478,1991.848295
336.283068,1776.494261,-11177.109724,1532.190996
336.283390,1036.288319,-9770.718434,919.314598
336.283712,666.185348,-8808.450710,-612.876398
336.284034,592.164754,-8438.347739,-1149.143247
336.284356,666.185348,-7772.162391,-229.828649
336.284678,370.102971,-7698.141797,0.000000
336.285000,1036.288319,-7772.162391,76.609550
336.285322,888.247130,-8142.265362,-612.876398
336.285643,296.082377,-8808.450710,-1762.019645
336.285965,-666.185348,-9252.574275,-2298.286494
336.286287,-1554.432478,-9252.574275,-2374.896044
336.286609,-1776.494261,-10214.842000,-2681.334243
336.286931,-2072.576638,-10658.965565,-2298.286494
336.287253,-2664.741391,-9770.718434,-2068.457845
336.287575,-2516.700203,-9178.553681,-2757.943793
336.287897,-1480.411884,-9474.636058,-4060.306139
336.288218,-1258.350101,-10214.842000,-3600.648841
336.288540,-962.267725,-9030.512492,-1072.533697
336.288862,0.000000,-7698.141797,-383.047749
336.289184,1776.494261,-8068.244768,-842.705048
336.289506,4145.153275,-8882.471304,-1685.410096
336.289828,5477.523971,-10140.821405,-1838.629195
336.290150,5181.441594,-10732.986159,-842.705048
336.290472,4737.318029,-11769.274478,1072.533697
336.290793,4515.256246,-12139.377449,1608.800546
336.291115,3478.967927,-11399.171507,0.000000
336.291437,1702.473667,-9844.739029,-383.047749
336.291759,296.082377,-9030.512492,-1225.752797
336.292081,-370.102971,-8068.244768,-1915.238745
336.292403,-222.061783,-7328.038826,-1302.362347
336.292725,518.144159,-7179.997637,-612.876398
336.293047,1184.329507,-7772.162391,-383.047749
336.293368,740.205942,-7550.100608,-1838.629195
336.293690,888.247130,-9030.512492,-2221.676944
336.294012,-444.123565,-9622.677246,-2451.505594
336.294334,-1480.411884,-9770.718434,-1685.410096
336.294656,-2960.823768,-10584.944971,-2221.676944
336.294978,-4441.235652,-9696.697840,-3064.381992
336.295300,-5773.606348,-9104.533087,-2987.772442
336.295622,-5699.585753,-8882.471304,-3600.648841
336.295943,-5033.400406,-9474.636058,-4826.401637
336.296265,-3923.091493,-9844.739029,-4366.744339
336.296587,-2960.823768,-10066.800811,-2528.115143
336.296909,-2368.659014,-10214.842000,-1149.143247
336.297231,-1998.556043,-9770.718434,-1149.143247
336.297553,-1184.329507,-9474.636058,-2221.676944
336.297875,-666.185348,-9474.636058,-2757.943793
336.298197,-814.226536,-9622.677246,-2145.067394
336.298518,-740.205942,-10140.821405,-842.705048
336.298840,-962.267725,-10732.986159,153.219100
336.299162,-370.102971,-10807.006753,383.047749
336.299484,0.000000,-10436.903782,-536.266849
336.299806,0.000000,-10066.800811,-1149.143247
336.300128,148.041188,-9770.718434,-1072.533697
336.300450,222.061783,-9030.512492,-1455.581446
336.300772,444.123565,-8438.347739,-1455.581446
336.301093,518.144159,-7698.141797,-383.047749
336.301415,-296.082377,-7254.018232,-612.876398
336.301737,-1110.308913,-7698.141797,-1915.238745
336.302059,-1850.514855,-8512.368333,-2604.724693
336.302381,-2368.659014,-9770.718434,-2757.943793
336.302703,-3627.009116,-10288.862594,-1608.800546
336.303025,-5033.400406,-9992.780217,0.000000
336.303347,-5625.565159,-8438.347739,-459.657299
336.303668,-4959.379811,-7698.141797,-2528.115143
336.303990,-4367.215058,-8438.347739,-4213.525239
336.304312,-3552.988522,-9548.656652,-3677.258390
336.304634,-2220.617826,-9252.574275,-1378.971896
336.304956,148.041188,-8956.491898,76.609550
336.305278,2442.679609,-9474.636058,612.876398
336.305600,4219.173869,-9326.594869,383.047749
336.305922,4737.318029,-9474.636058,-459.657299
336.306243,4589.276840,-9104.533087,-1225.752797
336.306565,4441.235652,-10510.924376,-229.828649
336.306887,4219.173869,-11251.130318,612.876398
336.307209,3701.029710,-10362.883188,459.657299
336.307531,3108.864956,-9696.697840,0.000000
336.307853,3182.885551,-10066.800811,0.000000
336.308175,2664.741391,-9326.594869,-383.047749
336.308497,2146.597232,-7698.141797,-766.095498
336.308818,2072.576638,-6883.915261,-306.438199
336.309140,1628.453072,-7328.038826,-536.266849
336.309462,1184.329507,-7772.162391,-1225.752797
336.309784,148.041188,-8734.430116,-2221.676944
336.310106,74.020594,-9474.636058,-2451.505594
336.310428,0.000000,-10214.842000,-2451.505594
336.310750,-888.247130,-11251.130318,-2604.724693
336.311072,-2072.576638,-11399.171507,-1838.629195
336.311393,-2812.782580,-10436.903782,-1838.629195
336.311715,-2590.720797,-9770.718434,-3447.429741
336.312037,-2220.617826,-9474.636058,-4290.134789
336.312359,-1776.494261,-9252.574275,-3064.381992
336.312681,-1406.391290,-8734.430116,-2374.896044
336.313003,-370.102971,-9178.553681,-2068.457845
336.313325,1184.329507,-9178.553681,-1608.800546
336.313647,2072.576638,-9548.656652,-1685.410096
336.313968,1998.556043,-10066.800811,-2068.457845
336.314290,1776.494261,-10881.027347,-919.314598
336.314612,1184.329507,-11103.089130,-1072.533697
336.314934,0.000000,-11325.150913,-536.266849
336.315256,-1628.453072,-9918.759623,229.828649
336.315578,-2146.597232,-8142.265362,-1072.533697
336.315900,-1406.391290,-8068.244768,-3677.258390
336.316222,-592.164754,-9030.512492,-3140.991542
336.316543,0.000000,-9474.636058,-2221.676944
336.316865,0.000000,-9918.759623,-1302.362347
336.317187,0.000000,-9474.636058,306.438199
336.317509,-518.144159,-8364.327145,-153.219100
336.317831,-2294.638420,-7476.080014,-2757.943793
336.318153,-3478.967927,-8364.327145,-3677.258390
336.318475,-4959.379811,-9178.553681,-3064.381992
336.318797,-6809.894666,-9400.615463,-2374.896044
336.319118,-7402.059420,-9326.594869,-536.266849
336.319440,-6661.853478,-9252.574275,0.000000
336.319762,-6217.729913,-7994.224174,-2374.896044
336.320084,-4811.338623,-8068.244768,-3830.477490
336.320406,-3478.967927,-8660.409521,-3753.867940
336.320728,-1998.556043,-9326.594869,-2987.772442
336.321050,-518.144159,-9622.677246,-689.485948
336.321372,444.123565,-9252.574275,153.219100
336.321693,2220.617826,-9844.739029,-1072.533697
336.322015,3478.967927,-10658.965565,-1838.629195
336.322337,3478.967927,-10732.986159,-1532.190996
336.322659,3627.009116,-11177.109724,-689.485948
336.322981,2368.659014,-11399.171507,1149.143247
336.323303,1628.453072,-10584.944971,2145.067394
336.323625,888.247130,-8956.491898,689.485948
336.323947,666.185348,-8068.244768,-1302.362347
336.324268,666.185348,-7105.977043,-1762.019645
336.324590,296.082377,-7105.977043,-995.924147
336.324912,-518.144159,-7254.018232,383.047749
336.325234,0.000000,-7105.977043,612.876398
336.325556,888.247130,-7402.059420,-919.314598
336.325878,1258.350101,-9252.574275,-2451.505594
336.326200,666.185348,-9622.677246,-3064.381992
336.326522,-962.267725,-9770.718434,-1915.238745
336.326843,-1850.514855,-10584.944971,-2221.676944
336.327165,-2442.679609,-10955.047942,-2221.676944
336.327487,-2442.679609,-10362.883188,-3064.381992
336.327809,-2072.576638,-9918.759623,-3753.867940
336.328131,-296.082377,-10140.821405,-2987.772442
336.328453,1036.288319,-9770.718434,-1838.629195
336.328775,2368.659014,-9474.636058,-689.485948
336.329097,3108.864956,-9252.574275,76.609550
336.329418,3775.050304,-8882.471304,383.047749
336.329740,4071.132681,-8068.244768,-842.705048
336.330062,4367.215058,-9326.594869,-1608.800546
336.330384,4293.194464,-10807.006753,-842.705048
336.330706,3701.029710,-11621.233289,536.266849
336.331028,2220.617826,-11325.150913,919.314598
336.331350,1258.350101,-11177.109724,1455.581446
336.331672,444.123565,-9400.615463,383.047749
336.331993,370.102971,-8586.388927,-2604.724693
336.332315,148.041188,-7920.203579,-3753.867940
336.332637,-592.164754,-8142.265362,-1838.629195
336.332959,-814.226536,-7920.203579,-536.266849
336.333281,-1036.288319,-8068.244768,-1302.362347
336.333603,-888.247130,-8216.285956,-2451.505594
336.333925,-666.185348,-9696.697840,-3524.039291
336.334247,-1776.494261,-9992.780217,-3217.601092
336.334568,-3478.967927,-9474.636058,-2221.676944
336.334890,-4663.297435,-9474.636058,-1225.752797
336.335212,-5181.441594,-8438.347739,-1532.190996
336.335534,-5107.421000,-7550.100608,-3370.820191
336.335856,-4737.318029,-7624.121203,-4826.401637
336.336178,-3627.009116,-8512.368333,-3830.477490
336.336500,-2812.782580,-9252.574275,-1838.629195
336.336821,-1036.288319,-9326.594869,-689.485948
336.337143,296.082377,-9770.718434,0.000000
336.337465,1554.432478,-10362.883188,-766.095498
336.337787,1850.514855,-10732.986159,-2221.676944
336.338109,1850.514855,-10584.944971,-2221.676944
336.338431,1776.494261,-10658.965565,-1149.143247
336.338752,1406.391290,-11251.130318,76.609550
336.339074,0.000000,-10955.047942,383.047749
336.339396,-1184.329507,-10214.842000,229.828649
336.339718,-1480.411884,-9548.656652,-1455.581446
336.340040,-1628.453072,-8882.471304,-2374.896044
336.340362,-1554.432478,-8808.450710,-2604.724693
336.340684,-2960.823768,-8586.388927,-1302.362347
336.341005,-3404.947333,-8364.327145,0.000000
336.341327,-3330.926739,-7920.203579,-1149.143247
336.341649,-2960.823768,-8142.265362,-3064.381992
336.341971,-2812.782580,-9104.533087,-3370.820191
336.342293,-3034.844362,-9770.718434,-3064.381992
336.342615,-3923.091493,-10732.986159,-1838.629195
336.342936,-3923.091493,-11621.233289,-536.266849
336.343258,-3775.050304,-10658.965565,-536.266849
336.343580,-3182.885551,-8808.450710,-2221.676944
336.343902,-1924.535449,-8216.285956,-4060.306139
336.344224,-518.144159,-7994.224174,-3217.601092
336.344546,444.123565,-8216.285956,-1532.190996
336.344867,1628.453072,-8438.347739,612.876398
336.345189,3034.844362,-8586.388927,1838.629195
336.345511,4589.276840,-8956.491898,842.705048
336.345833,5255.462188,-9992.780217,-536.266849
336.346155,5033.400406,-9844.739029,-306.438199
336.346477,4589.276840,-9400.615463,459.657299
336.346798,3701.029710,-9992.780217,919.314598
336.347120,2368.659014,-10214.842000,1455.581446
336.347442,814.226536,-8956.491898,0.000000
336.347764,444.123565,-8734.430116,-1455.581446
336.348086,222.061783,-9252.574275,-2451.505594
336.348408,-370.102971,-9030.512492,-1378.971896
336.348730,-1258.350101,-8068.244768,-229.828649
336.349051,-888.247130,-7105.977043,76.609550
336.349373,0.000000,-7624.121203,-1608.800546
336.349695,444.123565,-8438.347739,-3600.648841
336.350017,148.041188,-9326.594869,-3907.087040
336.350339,0.000000,-9992.780217,-2374.896044
336.350661,-666.185348,-10584.944971,-1608.800546
336.350982,-222.061783,-11621.233289,-1225.752797
336.351304,-592.164754,-10362.883188,-1762.019645
336.351626,-888.247130,-9326.594869,-2757.943793
336.351948,74.020594,-9030.512492,-3830.477490
336.352270,1036.288319,-8808.450710,-3217.601092
336.352592,888.247130,-8882.471304,-1302.362347
336.352913,1258.350101,-9326.594869,0.000000
336.353235,2294.638420,-9622.677246,-153.219100
336.353557,2960.823768,-9844.739029,-1762.019645
336.353879,3256.906145,-10732.986159,-1991.848295
336.354201,2812.782580,-10807.006753,-1608.800546
336.354523,1184.329507,-10510.924376,-842.705048
336.354844,0.000000,-10955.047942,-383.047749
336.355166,-1628.453072,-10732.986159,-306.438199
336.355488,-2960.823768,-9474.636058,-1838.629195
336.355810,-3182.885551,-7920.203579,-2604.724693
336.356132,-2590.720797,-9030.512492,-3447.429741
336.356454,-2368.659014,-9326.594869,-1991.848295
336.356776,-2960.823768,-8882.471304,-919.314598
336.357097,-2812.782580,-8142.265362,-919.314598
336.357419,-1924.535449,-7624.121203,-2298.286494
336.357741,-1998.556043,-7920.203579,-4443.353888
336.358063,-2886.803174,-9326.594869,-3600.648841
336.358385,-3849.070898,-9696.697840,-2068.457845
336.358707,-4515.256246,-9844.739029,-1149.143247
336.359028,-4589.276840,-10362.883188,-766.095498
336.359350,-4737.318029,-10214.842000,-689.485948
336.359672,-3997.112087,-8660.409521,-2451.505594
336.359994,-3256.906145,-7698.141797,-3294.210641
336.360316,-2368.659014,-8512.368333,-2451.505594
336.360638,-1332.370696,-9030.512492,-1072.533697
336.360959,-592.164754,-8882.471304,0.000000
336.361281,740.205942,-9770.718434,0.000000
336.361603,1924.535449,-10140.821405,-1072.533697
336.361925,2664.741391,-10732.986159,-1532.190996
336.362247,2368.659014,-10955.047942,-689.485948
336.362569,1480.411884,-11029.068536,459.657299
336.362891,592.164754,-10881.027347,689.485948
336.363212,-814.226536,-10362.883188,0.000000
336.363534,-2146.597232,-9104.533087,-1149.143247
336.363856,-1998.556043,-7772.162391,-1991.848295
336.364178,-962.267725,-7698.141797,-2145.067394
336.364500,-888.247130,-7550.100608,-766.095498
336.364822,-518.144159,-8216.285956,995.924147
336.365143,-370.102971,-7920.203579,919.314598
336.365465,0.000000,-7698.141797,-1455.581446
336.365787,592.164754,-8290.306550,-3064.381992
336.366109,296.082377,-9178.553681,-3447.429741
336.366431,0.000000,-9252.574275,-2451.505594
336.366753,0.000000,-9622.677246,-919.314598
336.367074,222.061783,-10288.862594,-536.266849
336.367396,592.164754,-10658.965565,-1072.533697
336.367718,888.247130,-9918.759623,-2374.896044
336.368040,888.247130,-9326.594869,-3140.991542
336.368362,1110.308913,-9400.615463,-2068.457845
336.368684,1554.432478,-9178.553681,-766.095498
336.369005,2368.659014,-9030.512492,-459.657299
336.369327,3034.844362,-8734.430116,0.000000
336.369649,3701.029710,-9030.512492,-536.266849
336.369971,4071.132681,-9844.739029,-766.095498
336.370293,3627.009116,-10584.944971,229.828649
336.370615,2590.720797,-10881.027347,536.266849
336.370937,1702.473667,-11251.130318,0.000000
336.371258,148.041188,-10436.903782,0.000000
336.371580,-1480.411884,-9252.574275,-536.266849
336.371902,-1998.556043,-8882.471304,-2221.676944
336.372224,-2072.576638,-8512.368333,-2604.724693
336.372546,-2072.576638,-8660.409521,-2298.286494
336.372868,-1776.494261,-8956.491898,-1149.143247
336.373189,-666.185348,-8586.388927,-995.924147
336.373511,296.082377,-8290.306550,-2757.943793
336.373833,666.185348,-9104.533087,-3064.381992
336.374155,370.102971,-9326.594869,-2451.505594
336.374477,-666.185348,-9030.512492,-2528.115143
336.374799,-1332.370696,-9696.697840,-2068.457845
336.375120,-2664.741391,-9918.759623,-1915.238745
336.375442,-2960.823768,-9474.636058,-2374.896044
336.375764,-2886.803174,-9252.574275,-3064.381992
336.376086,-1850.514855,-9400.615463,-2528.115143
336.376408,-1110.308913,-9548.656652,-1991.848295
336.376730,-1036.288319,-8660.409521,-1225.752797
336.377051,-518.144159,-8438.347739,-689.485948
336.377373,0.000000,-8364.327145,-995.924147
336.377695,518.144159,-8734.430116,-2221.676944
336.378017,296.082377,-9770.718434,-2298.286494
336.378339,-222.061783,-11325.150913,-689.485948
336.378661,-1036.288319,-12213.398043,-383.047749
336.378983,-2146.597232,-12287.418637,-383.047749
336.379304,-2516.700203,-11029.068536,-766.095498
336.379626,-2590.720797,-9326.594869,-1608.800546
336.379948,-2442.679609,-8364.327145,-3447.429741
336.380270,-2516.700203,-7402.059420,-2604.724693
336.380592,-2738.761985,-7476.080014,-2298.286494
336.380914,-2738.761985,-8142.265362,-1225.752797
336.381235,-2812.782580,-8956.491898,-1149.143247
336.381557,-2368.659014,-8882.471304,-2068.457845
336.381879,-1702.473667,-9696.697840,-2528.115143
336.382201,-1406.391290,-9622.677246,-2451.505594
336.382523,-1258.350101,-9548.656652,-1915.238745
336.382845,-1258.350101,-9622.677246,-1302.362347
336.383166,-1776.494261,-9474.636058,-995.924147
336.383488,-1998.556043,-8660.409521,-1302.362347
336.383810,-2146.597232,-7994.224174,-2145.067394
336.384132,-1258.350101,-8956.491898,-2604.724693
336.384454,-148.041188,-9474.636058,-1991.848295
336.384776,666.185348,-9770.718434,-459.657299
336.385098,1776.494261,-9548.656652,766.095498
336.385419,2738.761985,-8882.471304,919.314598
336.385741,3775.050304,-8808.450710,-612.876398
336.386063,3849.070898,-9252.574275,-689.485948
336.386385,2960.823768,-9326.594869,0.000000
336.386707,2294.638420,-9770.718434,383.047749
336.387029,1702.473667,-10362.883188,1302.362347
336.387350,814.226536,-10288.862594,229.828649
336.387672,518.144159,-9326.594869,-536.266849
336.387994,740.205942,-8586.388927,-1378.971896
336.388316,814.226536,-8290.306550,-1915.238745
336.388638,444.123565,-8142.265362,-1838.629195
336.388960,0.000000,-7550.100608,-1302.362347
336.389281,0.000000,-7772.162391,-1302.362347
336.389603,740.205942,-8068.244768,-2451.505594
336.389925,1110.308913,-9252.574275,-3217.601092
336.390247,962.267725,-9992.780217,-2604.724693
336.390569,148.041188,-10214.842000,-2374.896044
336.390891,444.123565,-11695.253884,-1838.629195
336.391212,0.000000,-11473.192101,-1608.800546
336.391534,-1110.308913,-10510.924376,-2298.286494
336.391856,-1850.514855,-9252.574275,-2451.505594
336.392178,-2146.597232,-7846.182985,-2298.286494
336.392500,-962.267725,-7846.182985,-2834.553343
336.392822,-222.061783,-9178.553681,-1762.019645
336.393144,518.144159,-9992.780217,0.000000
336.393465,1702.473667,-10140.821405,-459.657299
336.393787,2812.782580,-10584.944971,-1378.971896
336.394109,4071.132681,-11843.295072,-459.657299
336.394431,2590.720797,-11325.150913,0.000000
336.394753,370.102971,-9992.780217,-229.828649
336.395075,-1480.411884,-9030.512492,229.828649
336.395396,-2294.638420,-8438.347739,-1072.533697
336.395718,-2738.761985,-8438.347739,-3753.867940
336.396040,-2072.576638,-9696.697840,-3830.477490
336.396362,-1480.411884,-9474.636058,-1762.019645
336.396684,-1628.453072,-9400.615463,-306.438199
336.397006,-1776.494261,-9178.553681,0.000000
336.397327,-1924.535449,-7846.182985,-1149.143247
336.397649,-2072.576638,-6957.935855,-3294.210641
336.397971,-2442.679609,-7402.059420,-5132.839837
336.398293,-2960.823768,-8660.409521,-4136.915689
336.398615,-3182.885551,-9770.718434,-2451.505594
336.398937,-4071.132681,-10510.924376,-1149.143247
336.399258,-3997.112087,-10066.800811,-689.485948
336.399580,-3997.112087,-9474.636058,-2145.067394
336.399902,-3256.906145,-9992.780217,-4290.134789
336.400224,-2960.823768,-10288.862594,-4290.134789
336.400546,-2220.617826,-9696.697840,-2145.067394
336.400868,-222.061783,-9178.553681,-229.828649
336.401190,1332.370696,-8956.491898,-383.047749
336.401511,2738.761985,-8956.491898,-153.219100
336.401833,3182.885551,-8586.388927,-842.705048
336.402155,3552.988522,-9474.636058,-306.438199
336.402477,3701.029710,-10807.006753,76.609550
336.402799,3108.864956,-11547.212695,995.924147
336.403121,1036.288319,-10807.006753,1072.533697
336.403442,0.000000,-9474.636058,919.314598
336.403764,-740.205942,-8438.347739,-995.924147
336.404086,-592.164754,-7624.121203,-3140.991542
336.404408,-1184.329507,-7846.182985,-3064.381992
336.404730,-1850.514855,-8068.244768,-1072.533697
336.405052,-1628.453072,-9030.512492,-383.047749
336.405373,-814.226536,-8956.491898,-1072.533697
336.405695,-148.041188,-9104.533087,-2451.505594
336.406017,-148.041188,-9030.512492,-3294.210641
336.406339,-370.102971,-9252.574275,-3524.039291
336.406661,-1554.432478,-9474.636058,-3064.381992
336.406983,-1702.473667,-10288.862594,-2374.896044
336.407305,-1480.411884,-9918.759623,-1838.629195
336.407626,-370.102971,-9030.512492,-3064.381992
336.407948,1332.370696,-9622.677246,-3370.820191
336.408270,1702.473667,-10066.800811,-1685.410096
336.408592,1332.370696,-9326.594869,306.438199
336.408914,1554.432478,-8142.265362,842.705048
336.409236,2886.803174,-8216.285956,-229.828649
336.409557,4737.318029,-9252.574275,-1915.238745
336.409879,4959.379811,-9474.636058,-1532.190996
336.410201,4071.132681,-10288.862594,0.000000
336.410523,3182.885551,-11029.068536,1915.238745
336.410845,2368.659014,-11621.233289,1991.848295
336.411167,962.267725,-10955.047942,612.876398
336.411488,-1258.350101,-9474.636058,-1455.581446
336.411810,-1258.350101,-9400.615463,-2528.115143
336.412132,-1480.411884,-9400.615463,-2911.162892
336.412454,-2146.597232,-9104.533087,-2068.457845
336.412776,-2960.823768,-8586.388927,-459.657299
336.413098,-2368.659014,-7698.141797,-459.657299
336.413419,-1998.556043,-7328.038826,-2681.334243
336.413741,-1258.350101,-8364.327145,-4979.620737
336.414063,-1776.494261,-9178.553681,-4060.306139
336.414385,-2516.700203,-9400.615463,-2451.505594
336.414707,-3256.906145,-9770.718434,-995.924147
336.415029,-3849.070898,-9696.697840,-1225.752797
336.415351,-4219.173869,-9326.594869,-2757.943793
336.415672,-4071.132681,-9474.636058,-4903.011187
336.415994,-3478.967927,-9844.739029,-4903.011187
336.416316,-2294.638420,-10066.800811,-2374.896044
336.416638,-740.205942,-9474.636058,0.000000
336.416960,962.267725,-8956.491898,459.657299
336.417282,1702.473667,-8068.244768,76.609550
336.417603,2516.700203,-8734.430116,-1378.971896
336.417925,2368.659014,-9844.739029,-1685.410096
336.418247,1924.535449,-9992.780217,-689.485948
336.418569,1406.391290,-10955.047942,-229.828649
336.418891,296.082377,-11695.253884,1149.143247
336.419213,-1332.370696,-9918.759623,919.314598
336.419534,-2590.720797,-8364.327145,-1149.143247
336.419856,-2664.741391,-8290.306550,-2681.334243
336.420178,-2886.803174,-7550.100608,-3064.381992
336.420500,-3552.988522,-7920.203579,-2451.505594
336.420822,-2960.823768,-9030.512492,-1149.143247
336.421144,-2072.576638,-9400.615463,-612.876398
336.421465,-1258.350101,-8808.450710,-1991.848295
336.421787,-814.226536,-8808.450710,-3907.087040
336.422109,-1110.308913,-9178.553681,-3753.867940
336.422431,-888.247130,-9548.656652,-3064.381992
336.422753,-1480.411884,-10214.842000,-2451.505594
336.423075,-1924.535449,-10584.944971,-1225.752797
336.423397,-1628.453072,-9474.636058,-995.924147
336.423718,-962.267725,-8586.388927,-2911.162892
336.424040,-148.041188,-9178.553681,-2834.553343
336.424362,444.123565,-9622.677246,-1991.848295
336.424684,888.247130,-9548.656652,-459.657299
336.425006,2072.576638,-8734.430116,1225.752797
336.425328,3997.112087,-7402.059420,842.705048
336.425649,5033.400406,-9030.512492,-689.485948
336.425971,5477.523971,-10288.862594,-536.266849
336.426293,4589.276840,-10732.986159,919.314598
336.426615,2960.823768,-10807.006753,1532.190996
336.426937,2590.720797,-11399.171507,2451.505594
336.427259,1184.329507,-9770.718434,1378.971896
336.427580,0.000000,-8956.491898,-995.924147
336.427902,-370.102971,-8660.409521,-2374.896044
336.428224,-888.247130,-8808.450710,-2221.676944
336.428546,-1998.556043,-8586.388927,-1838.629195
336.428868,-2738.761985,-7476.080014,-689.485948
336.429190,-2072.576638,-7254.018232,-459.657299
336.429512,-888.247130,-7105.977043,-2987.772442
336.429833,-370.102971,-8438.347739,-4673.182538
336.430155,-444.123565,-9696.697840,-3217.601092
336.430477,-1332.370696,-9918.759623,-2298.286494
336.430799,-1110.308913,-9992.780217,-1838.629195
336.431121,-1332.370696,-9844.739029,-2068.457845
336.431443,-962.267725,-9474.636058,-3294.210641
336.431764,-888.247130,-9400.615463,-3983.696590
336.432086,-518.144159,-9770.718434,-3064.381992
336.432408,370.102971,-9992.780217,-1455.581446
336.432730,740.205942,-9474.636058,-229.828649
336.433052,1184.329507,-9252.574275,153.219100
336.433374,1776.494261,-8882.471304,-459.657299
336.433695,2664.741391,-9252.574275,-1608.800546
336.434017,2886.803174,-9696.697840,-1608.800546
336.434339,2294.638420,-10436.903782,0.000000
336.434661,1332.370696,-10436.903782,1302.362347
336.434983,74.020594,-10955.047942,1149.143247
336.435305,-814.226536,-11029.068536,-383.047749
336.435627,-1850.514855,-9622.677246,-1455.581446
336.435948,-3034.844362,-9030.512492,-2911.162892
336.436270,-3997.112087,-8808.450710,-2451.505594
336.436592,-4663.297435,-8734.430116,-1991.848295
336.436914,-4441.235652,-8586.388927,-1991.848295
336.437236,-3330.926739,-7772.162391,-2757.943793
336.437558,-2368.659014,-7328.038826,-3140.991542
336.437880,-1924.535449,-8512.368333,-4213.525239
336.438202,-2368.659014,-9252.574275,-3140.991542
336.438523,-2664.741391,-9474.636058,-1838.629195
336.438845,-3404.947333,-9844.739029,-1762.019645
336.439167,-3404.947333,-9918.759623,-1991.848295
336.439489,-4071.132681,-9104.533087,-3294.210641
336.439811,-4293.194464,-8512.368333,-4060.306139
336.440133,-3701.029710,-9252.574275,-2757.943793
336.440455,-2072.576638,-9400.615463,-2145.067394
336.440777,148.041188,-9474.636058,-1378.971896
336.441099,2220.617826,-9918.759623,0.000000
336.441420,3330.926739,-9844.739029,383.047749
336.441742,4145.153275,-9474.636058,536.266849
336.442064,4515.256246,-9326.594869,0.000000
336.442386,3627.009116,-10066.800811,0.000000
336.442708,1850.514855,-10807.006753,536.266849
336.443030,0.000000,-10955.047942,766.095498
336.443352,-1258.350101,-10140.821405,536.266849
336.443674,-888.247130,-9622.677246,-766.095498
336.443995,0.000000,-9030.512492,-1455.581446
336.444317,148.041188,-8068.244768,-612.876398
336.444639,-740.205942,-7105.977043,-459.657299
336.444961,-1258.350101,-8142.265362,-842.705048
336.445283,-666.185348,-8216.285956,-1685.410096
336.445605,-444.123565,-8364.327145,-3217.601092
336.445927,-666.185348,-8882.471304,-3600.648841
336.446249,-666.185348,-9548.656652,-2757.943793
336.446571,-592.164754,-10362.883188,-2298.286494
336.446892,-1258.350101,-10955.047942,-1915.238745
336.447214,-1258.350101,-9918.759623,-1608.800546
336.447536,-814.226536,-8734.430116,-2451.505594
336.447858,148.041188,-8882.471304,-4136.915689
336.448180,814.226536,-9326.594869,-3140.991542
336.448502,962.267725,-9252.574275,-766.095498
336.448824,1480.411884,-8586.388927,536.266849
336.449146,2368.659014,-7994.224174,153.219100
336.449467,3923.091493,-8660.409521,-612.876398
336.449789,4811.338623,-8882.471304,-1915.238745
336.450111,5477.523971,-10066.800811,-1225.752797
336.450433,4959.379811,-11621.233289,459.657299
336.450755,4293.194464,-12509.480420,2451.505594
336.451077,2812.782580,-11547.212695,1991.848295
336.451399,1628.453072,-9696.697840,0.000000
336.451721,-370.102971,-8660.409521,-1762.019645
336.452043,-1036.288319,-8512.368333,-2757.943793
336.452364,-1702.473667,-8586.388927,-2757.943793
336.452686,-2146.597232,-8734.430116,-1072.533697
336.453008,-1776.494261,-8586.388927,0.000000
336.453330,-1184.329507,-8216.285956,-766.095498
336.453652,-888.247130,-8734.430116,-2987.772442
336.453974,-1776.494261,-9030.512492,-3370.820191
336.454296,-2664.741391,-8808.450710,-3140.991542
336.454618,-3923.091493,-8956.491898,-3064.381992
336.454939,-4737.318029,-9474.636058,-2834.553343
336.455261,-5329.482782,-9844.739029,-2757.943793
336.455583,-5255.462188,-9104.533087,-3830.477490
336.455905,-4071.132681,-9326.594869,-4903.011187
336.456227,-2664.741391,-10140.821405,-3677.258390
336.456549,-1776.494261,-10288.862594,-2298.286494
336.456871,-592.164754,-9474.636058,-689.485948
336.457193,444.123565,-9400.615463,229.828649
336.457514,1924.535449,-9622.677246,-536.266849
336.457836,2368.659014,-9770.718434,-2145.067394
336.458158,2072.576638,-9918.759623,-1149.143247
336.458480,814.226536,-10214.842000,306.438199
336.458802,-370.102971,-10732.986159,1838.629195
336.459124,-962.267725,-10658.965565,1072.533697
336.459446,-1332.370696,-10140.821405,-306.438199
336.459768,-2368.659014,-9178.553681,-1608.800546
336.460090,-3256.906145,-8438.347739,-1455.581446
336.460411,-3256.906145,-8364.327145,-1532.190996
336.460733,-2960.823768,-8364.327145,-1532.190996
336.461055,-2294.638420,-8364.327145,-2145.067394
336.461377,-1258.350101,-8586.388927,-2681.334243
336.461699,-962.267725,-9104.533087,-2834.553343
336.462021,-1480.411884,-9474.636058,-2757.943793
336.462343,-1628.453072,-9622.677246,-1915.238745
336.462665,-2294.638420,-9104.533087,-1532.190996
336.462986,-2738.761985,-9252.574275,-1838.629195
336.463308,-2738.761985,-8808.450710,-2987.772442
336.463630,-2886.803174,-8438.347739,-3983.696590
336.463952,-2294.638420,-8586.388927,-2987.772442
336.464274,-2072.576638,-7550.100608,-1302.362347
336.464596,-1184.329507,-8512.368333,-1302.362347
336.464918,296.082377,-9918.759623,-1072.533697
336.465240,1776.494261,-9400.615463,-689.485948
336.465562,2886.803174,-8364.327145,-1302.362347
336.465883,4071.132681,-9696.697840,-1455.581446
336.466205,5107.421000,-10807.006753,76.609550
336.466527,5255.462188,-10955.047942,536.266849
336.466849,4145.153275,-11325.150913,306.438199
336.467171,3701.029710,-11991.336260,1378.971896
336.467493,2738.761985,-10955.047942,842.705048
336.467815,1628.453072,-9474.636058,-689.485948
336.468137,1184.329507,-8438.347739,-919.314598
336.468458,1110.308913,-7698.141797,-306.438199
336.468780,666.185348,-6957.935855,-306.438199
336.469102,444.123565,-7105.977043,-612.876398
336.469424,888.247130,-6365.771101,-1225.752797
336.469746,1110.308913,-7031.956449,-2911.162892
336.470068,518.144159,-9400.615463,-3064.381992
336.470390,-518.144159,-11029.068536,-2374.896044
336.470712,-2146.597232,-10658.965565,-2068.457845
336.471034,-2664.741391,-11251.130318,-3294.210641
336.471355,-3034.844362,-11399.171507,-4213.525239
336.471677,-3330.926739,-10510.924376,-4519.963438
336.471999,-3330.926739,-9548.656652,-3677.258390
336.472321,-2442.679609,-9326.594869,-2911.162892
336.472643,-814.226536,-9400.615463,-2298.286494
336.472965,370.102971,-9474.636058,-2221.676944
336.473287,1702.473667,-9326.594869,-612.876398
336.473609,2664.741391,-9252.574275,0.000000
336.473930,3108.864956,-9474.636058,-153.219100
336.474252,4219.173869,-10288.862594,0.000000
336.474574,3034.844362,-9992.780217,919.314598
336.474896,1776.494261,-10140.821405,1532.190996
336.475218,518.144159,-9030.512492,1608.800546
336.475540,0.000000,-8364.327145,153.219100
336.475862,-370.102971,-8660.409521,-1915.238745
336.476184,-1628.453072,-9252.574275,-1991.848295
336.476506,-2812.782580,-8364.327145,-995.924147
336.476827,-3478.967927,-8586.388927,-1225.752797
336.477149,-3182.885551,-9252.574275,-2757.943793
336.477471,-2590.720797,-9992.780217,-3447.429741
336.477793,-2738.761985,-9696.697840,-4290.134789
336.478115,-3404.947333,-10288.862594,-2834.553343
336.478437,-3552.988522,-10066.800811,-1991.848295
336.478759,-4071.132681,-10140.821405,-2374.896044
336.479081,-4885.359217,-9178.553681,-1608.800546
336.479402,-6217.729913,-8068.244768,-1608.800546
336.479724,-5847.626942,-8364.327145,-3370.820191
336.480046,-4663.297435,-9104.533087,-3447.429741
336.480368,-3849.070898,-8512.368333,-1532.190996
336.480690,-2812.782580,-7105.977043,-612.876398
336.481012,-888.247130,-7772.162391,-689.485948
336.481334,1480.411884,-8808.450710,-1302.362347
336.481656,2664.741391,-9918.759623,-1685.410096
336.481977,2516.700203,-10140.821405,-1072.533697
336.482299,2960.823768,-11251.130318,612.876398
336.482621,3182.885551,-11547.212695,995.924147
336.482943,2738.761985,-11547.212695,612.876398
336.483265,1554.432478,-9770.718434,-383.047749
336.483587,592.164754,-9030.512492,-842.705048
336.483909,518.144159,-9400.615463,-1991.848295
336.484231,444.123565,-9252.574275,-1225.752797
336.484553,74.020594,-7920.203579,0.000000
336.484874,0.000000,-8068.244768,306.438199
336.485196,296.082377,-7772.162391,-612.876398
336.485518,370.102971,-7994.224174,-2068.457845
336.485840,0.000000,-8660.409521,-2911.162892
336.486162,-74.020594,-9400.615463,-2451.505594
336.486484,-222.061783,-9696.697840,-2145.067394
336.486806,-888.247130,-10436.903782,-2451.505594
336.487128,-1258.350101,-10584.944971,-2451.505594
336.487449,-1924.535449,-10066.800811,-2757.943793
336.487771,-1702.473667,-9104.533087,-3677.258390
336.488093,-888.247130,-9178.553681,-3753.867940
336.488415,0.000000,-9622.677246,-3140.991542
336.488737,74.020594,-9326.594869,-1685.410096
336.489059,962.267725,-8956.491898,-536.266849
336.489381,2516.700203,-9400.615463,-995.924147
336.489703,4663.297435,-9622.677246,-1532.190996
336.490025,5551.544565,-9844.739029,-1455.581446
336.490346,5551.544565,-10362.883188,383.047749
336.490668,4885.359217,-10436.903782,1608.800546
336.490990,3849.070898,-10510.924376,1532.190996
336.491312,2220.617826,-10140.821405,459.657299
336.491634,370.102971,-9178.553681,383.047749
336.491956,-370.102971,-9030.512492,-1072.533697
336.492278,-740.205942,-8216.285956,-1532.190996
336.492600,-666.185348,-8364.327145,-842.705048
336.492921,-518.144159,-7994.224174,-306.438199
336.493243,74.020594,-7920.203579,-229.828649
336.493565,148.041188,-7846.182985,-2374.896044
336.493887,0.000000,-9252.574275,-3447.429741
336.494209,-1406.391290,-9770.718434,-3294.210641
336.494531,-3034.844362,-9696.697840,-2757.943793
336.494853,-4515.256246,-10066.800811,-2604.724693
336.495175,-4737.318029,-9844.739029,-2834.553343
336.495497,-5255.462188,-9474.636058,-3753.867940
336.495818,-5255.462188,-9252.574275,-4366.744339
336.496140,-5107.421000,-9622.677246,-3294.210641
336.496462,-4737.318029,-9548.656652,-2221.676944
336.496784,-4145.153275,-9548.656652,-1072.533697
336.497106,-3478.967927,-9252.574275,-383.047749
336.497428,-1776.494261,-8364.327145,-766.095498
336.497750,-148.041188,-8364.327145,-2604.724693
336.498072,1406.391290,-9548.656652,-2298.286494
336.498393,2220.617826,-11251.130318,153.219100
336.498715,1036.288319,-11621.233289,1685.410096
336.499037,148.041188,-11325.150913,2145.067394
336.499359,148.041188,-9992.780217,1302.362347
336.499681,814.226536,-9400.615463,-1608.800546
336.500003,518.144159,-9770.718434,-2911.162892
336.500325,-296.082377,-8734.430116,-919.314598
336.500647,-666.185348,-7846.182985,0.000000
336.500968,0.000000,-8068.244768,-612.876398
336.501290,1258.350101,-9030.512492,-1685.410096
336.501612,1184.329507,-9474.636058,-2374.896044
336.501934,296.082377,-8882.471304,-2757.943793
336.502256,-1554.432478,-9474.636058,-1302.362347
336.502578,-2738.761985,-9252.574275,-536.266849
336.502900,-3849.070898,-8512.368333,-1302.362347
336.503222,-5033.400406,-7698.141797,-1991.848295
336.503544,-5181.441594,-7402.059420,-2911.162892
336.503865,-3997.112087,-8438.347739,-4443.353888
336.504187,-2886.803174,-9844.739029,-3294.210641
336.504509,-1924.535449,-9548.656652,-1378.971896
336.504831,-1702.473667,-9622.677246,0.000000
336.505153,-370.102971,-9326.594869,76.609550
336.505475,740.205942,-7920.203579,-1302.362347
336.505797,2220.617826,-8364.327145,-3677.258390
336.506119,3701.029710,-9400.615463,-3830.477490
336.506440,4663.297435,-11547.212695,-919.314598
336.506762,4811.338623,-12657.521608,1149.143247
336.507084,4885.359217,-12731.542202,2068.457845
336.507406,4737.318029,-11103.089130,1915.238745
336.507728,5033.400406,-10362.883188,-995.924147
336.508050,4293.194464,-9770.718434,-1991.848295
336.508372,2516.700203,-8290.306550,153.219100
336.508694,592.164754,-5847.626942,1532.190996
336.509016,1628.453072,-6069.688724,919.314598
336.509337,1554.432478,-6513.812290,-919.314598
336.509659,2072.576638,-7105.977043,-2681.334243
336.509981,1628.453072,-8956.491898,-2911.162892
336.510303,666.185348,-10436.903782,-1838.629195
336.510625,-148.041188,-10881.027347,-459.657299
336.510947,-1258.350101,-10807.006753,-1608.800546
336.511269,-2886.803174,-10140.821405,-4060.306139
336.511591,-3849.070898,-9622.677246,-5745.716235
336.511912,-4441.235652,-9770.718434,-6818.249932
336.512234,-3627.009116,-10436.903782,-5209.449386
336.512556,-3627.009116,-10362.883188,-2374.896044
336.512878,-2294.638420,-9548.656652,-536.266849
336.513200,-370.102971,-9474.636058,-1149.143247
336.513522,1924.535449,-9400.615463,-2451.505594
336.513844,3034.844362,-9030.512492,-2528.115143
336.514166,3552.988522,-9252.574275,-1915.238745
336.514488,2960.823768,-9400.615463,766.095498
336.514809,1924.535449,-9622.677246,2068.457845
336.515131,740.205942,-9770.718434,1225.752797
336.515453,0.000000,-9252.574275,153.219100
336.515775,-592.164754,-9326.594869,-2068.457845
336.516097,-962.267725,-9474.636058,-2145.067394
336.516419,-666.185348,-9474.636058,-995.924147
336.516741,-444.123565,-9474.636058,0.000000
336.517063,-296.082377,-8956.491898,-612.876398
336.517384,-148.041188,-8956.491898,-1915.238745
336.517706,-888.247130,-8734.430116,-2834.553343
336.518028,-2072.576638,-8956.491898,-3447.429741
336.518350,-3701.029710,-9030.512492,-2834.553343
336.518672,-5477.523971,-9770.718434,-1991.848295
336.518994,-7179.997637,-9770.718434,-1608.800546
336.519316,-8364.327145,-8956.491898,-1149.143247
336.519638,-8142.265362,-8586.388927,-3600.648841
336.519960,-6957.935855,-9326.594869,-4903.011187
336.520281,-5107.421000,-9918.759623,-3677.258390
336.520603,-4589.276840,-9696.697840,-1149.143247
336.520925,-3108.864956,-9474.636058,995.924147
336.521247,-1554.432478,-9104.533087,383.047749
336.521569,370.102971,-8808.450710,-995.924147
336.521891,1480.411884,-8734.430116,-2221.676944
336.522213,1850.514855,-9030.512492,-1378.971896
336.522535,2590.720797,-10288.862594,842.705048
336.522856,3182.885551,-11473.192101,3064.381992
336.523178,3404.947333,-10658.965565,2298.286494
336.523500,3034.844362,-9770.718434,1225.752797
336.523822,3034.844362,-9474.636058,0.000000
336.524144,1998.556043,-8290.306550,-612.876398
336.524466,1036.288319,-7550.100608,-995.924147
336.524788,518.144159,-7624.121203,76.609550
336.525110,1110.308913,-7550.100608,153.219100
336.525431,1628.453072,-7550.100608,-1149.143247
336.525753,2294.638420,-8290.306550,-2451.505594
336.526075,2072.576638,-9474.636058,-1455.581446
336.526397,444.123565,-9548.656652,-1455.581446
336.526719,-1258.350101,-10658.965565,-2068.457845
336.527041,-2590.720797,-11029.068536,-2145.067394
336.527363,-3775.050304,-10288.862594,-3600.648841
336.527685,-4219.173869,-9696.697840,-4443.353888
336.528007,-3552.988522,-8956.491898,-3447.429741
336.528328,-2072.576638,-8290.306550,-2528.115143
336.528650,-444.123565,-8586.388927,-2451.505594
336.528972,1998.556043,-9696.697840,-1378.971896
336.529294,3849.070898,-9918.759623,-536.266849
336.529616,5625.565159,-9474.636058,-1455.581446
336.529938,6587.832884,-10066.800811,-1532.190996
336.530260,6439.791695,-10510.924376,-229.828649
336.530582,5329.482782,-10362.883188,0.000000
336.530903,4293.194464,-10584.944971,229.828649
336.531225,2812.782580,-10066.800811,76.609550
336.531547,2146.597232,-9770.718434,0.000000
336.531869,1258.350101,-8956.491898,-1455.581446
336.532191,1184.329507,-8216.285956,-1225.752797
336.532513,592.164754,-8438.347739,-842.705048
336.532835,222.061783,-8660.409521,-995.924147
336.533157,-666.185348,-8142.265362,-1532.190996
336.533479,-814.226536,-7994.224174,-2451.505594
336.533800,-1110.308913,-8956.491898,-3600.648841
336.534122,-1850.514855,-9548.656652,-3753.867940
336.534444,-3034.844362,-9622.677246,-3294.210641
336.534766,-4219.173869,-9918.759623,-3447.429741
336.535088,-4885.359217,-10510.924376,-2834.553343
336.535410,-5995.668130,-10658.965565,-4213.525239
336.535732,-6661.853478,-10214.842000,-4673.182538
336.536053,-6735.874072,-10214.842000,-4290.134789
336.536375,-5699.585753,-9918.759623,-3524.039291
336.536697,-4367.215058,-9622.677246,-2145.067394
336.537019,-2960.823768,-9622.677246,-612.876398
336.537341,-1184.329507,-8734.430116,229.828649
336.537662,592.164754,-8068.244768,-689.485948
336.537984,1850.514855,-8364.327145,-1225.752797
336.538306,2220.617826,-8734.430116,229.828649
336.538628,1628.453072,-9474.636058,1302.362347
336.538950,518.144159,-10214.842000,1225.752797
336.539272,-814.226536,-9992.780217,1225.752797
336.539593,-1406.391290,-10140.821405,0.000000
336.539915,-1850.514855,-9696.697840,-1455.581446
336.540237,-444.123565,-9252.574275,-1991.848295
336.540559,0.000000,-9326.594869,-995.924147
336.540881,592.164754,-8734.430116,306.438199
336.541203,444.123565,-7402.059420,612.876398
336.541524,148.041188,-7179.997637,-1072.533697
336.541846,-296.082377,-8586.388927,-2911.162892
336.542168,-1998.556043,-8956.491898,-2911.162892
336.542490,-4071.132681,-8956.491898,-2451.505594
336.542812,-4737.318029,-9918.759623,-1532.190996
336.543134,-4737.318029,-10436.903782,-766.095498
336.543455,-4441.235652,-9326.594869,-1838.629195
336.543777,-3997.112087,-9104.533087,-2145.067394
336.544099,-2812.782580,-8586.388927,-2221.676944
336.544421,-1702.473667,-8586.388927,-1762.019645
336.544743,-1036.288319,-8512.368333,-1302.362347
336.545065,-592.164754,-8808.450710,-229.828649
336.545386,518.144159,-8068.244768,383.047749
336.545708,1702.473667,-8290.306550,-1532.190996
336.546030,2886.803174,-10362.883188,-2604.724693
336.546352,3552.988522,-11843.295072,-1225.752797
336.546674,3849.070898,-12805.562797,76.609550
336.546995,3701.029710,-12731.542202,1455.581446
336.547317,3404.947333,-10955.047942,1991.848295
336.547639,3552.988522,-10140.821405,0.000000
336.547961,3256.906145,-8734.430116,-1915.238745
336.548283,2516.700203,-7698.141797,-1838.629195
336.548605,1702.473667,-7105.977043,-306.438199
336.548926,2072.576638,-8290.306550,0.000000
336.549248,2146.597232,-8216.285956,0.000000
336.549570,2146.597232,-8512.368333,-1302.362347
336.549892,1924.535449,-9252.574275,-1762.019645
336.550214,1406.391290,-9992.780217,-2145.067394
336.550536,370.102971,-10066.800811,-2987.772442
336.550857,-1332.370696,-10214.842000,-2374.896044
336.551179,-2220.617826,-9696.697840,-1991.848295
336.551501,-3552.988522,-9400.615463,-2757.943793
336.551823,-3997.112087,-8956.491898,-3677.258390
336.552145,-3478.967927,-8808.450710,-2987.772442
336.552467,-1998.556043,-9474.636058,-3217.601092
336.552788,-888.247130,-9770.718434,-2145.067394
336.553110,814.226536,-9474.636058,-1532.190996
336.553432,2738.761985,-9178.553681,-1455.581446
336.553754,3627.009116,-9104.533087,-1302.362347
336.554076,3923.091493,-9400.615463,-1225.752797
336.554398,3478.967927,-9548.656652,-1302.362347
336.554719,2146.597232,-10066.800811,-229.828649
336.555041,518.144159,-10510.924376,1532.190996
336.555363,-592.164754,-9622.677246,1302.362347
336.555685,-1184.329507,-8438.347739,229.828649
336.556007,-1184.329507,-8438.347739,-1455.581446
336.556328,-1406.391290,-8216.285956,-1685.410096
336.556650,-1776.494261,-7994.224174,-1378.971896
336.556972,-1480.411884,-8068.244768,-1225.752797
336.557294,-962.267725,-8586.388927,-1149.143247
336.557616,-592.164754,-9252.574275,-2911.162892
336.557938,-740.205942,-10066.800811,-3677.258390
336.558259,-1480.411884,-10436.903782,-3370.820191
336.558581,-3034.844362,-11103.089130,-3064.381992
336.558903,-5181.441594,-11029.068536,-2604.724693
336.559225,-7402.059420,-10362.883188,-2451.505594
336.559547,-8290.306550,-9252.574275,-3064.381992
336.559869,-7698.141797,-9104.533087,-5439.278036
336.560190,-6217.729913,-9474.636058,-5132.839837
336.560512,-4737.318029,-9844.739029,-2451.505594
336.560834,-3552.988522,-9178.553681,0.000000
336.561156,-1480.411884,-8438.347739,689.485948
336.561478,814.226536,-8586.388927,0.000000
336.561800,1776.494261,-9326.594869,-1455.581446
336.562121,1258.350101,-9326.594869,-1762.019645
336.562443,814.226536,-9622.677246,-153.219100
336.562765,740.205942,-10732.986159,1225.752797
336.563087,1110.308913,-11177.109724,1762.019645
336.563409,1036.288319,-9844.739029,612.876398
336.563730,1406.391290,-9400.615463,-842.705048
336.564052,1850.514855,-9474.636058,-1378.971896
336.564374,1998.556043,-8882.471304,-229.828649
336.564696,1480.411884,-7772.162391,-612.876398
336.565018,1332.370696,-7402.059420,0.000000
336.565340,666.185348,-7105.977043,-536.266849
336.565661,0.000000,-7698.141797,-2451.505594
336.565983,-814.226536,-9030.512492,-2987.772442
336.566305,-1258.350101,-9030.512492,-1915.238745
336.566627,-1406.391290,-9992.780217,-2221.676944
336.566949,-592.164754,-11103.089130,-1608.800546
336.567271,-518.144159,-10955.047942,-612.876398
336.567592,-888.247130,-9474.636058,-1455.581446
336.567914,-370.102971,-8586.388927,-3064.381992
336.568236,-666.185348,-8808.450710,-2911.162892
336.568558,-962.267725,-9030.512492,-1762.019645
336.568880,-962.267725,-8142.265362,0.000000
336.569202,296.082377,-7772.162391,459.657299
336.569523,2886.803174,-8586.388927,-1685.410096
336.569845,5477.523971,-9918.759623,-2221.676944
336.570167,6217.729913,-10881.027347,-383.047749
336.570489,5847.626942,-10955.047942,76.609550
336.570811,5403.503377,-11399.171507,1455.581446
336.571133,4441.235652,-11547.212695,1149.143247
336.571454,2812.782580,-9548.656652,-536.266849
336.571776,518.144159,-8512.368333,-2145.067394
336.572098,-296.082377,-8956.491898,-2451.505594
336.572420,-370.102971,-9178.553681,-1762.019645
336.572742,-370.102971,-8438.347739,-1149.143247
336.573063,0.000000,-7624.121203,-689.485948
336.573385,1628.453072,-8216.285956,-995.924147
336.573707,1702.473667,-8586.388927,-2451.505594
336.574029,0.000000,-9104.533087,-3217.601092
336.574351,-2072.576638,-9326.594869,-2451.505594
336.574673,-3552.988522,-9918.759623,-2451.505594
336.574994,-5033.400406,-10214.842000,-3447.429741
336.575316,-5847.626942,-10288.862594,-3677.258390
336.575638,-5773.606348,-10214.842000,-3907.087040
336.575960,-5181.441594,-10140.821405,-3983.696590
336.576282,-3775.050304,-10362.883188,-3140.991542
336.576604,-2960.823768,-9474.636058,-2374.896044
336.576925,-1776.494261,-9844.739029,-1072.533697
336.577247,-1184.329507,-8808.450710,-766.095498
336.577569,-518.144159,-8438.347739,-1532.190996
336.577891,0.000000,-8808.450710,-1991.848295
336.578213,-296.082377,-9104.533087,-919.314598
336.578535,0.000000,-10510.924376,-689.485948
336.578856,-444.123565,-11325.150913,459.657299
336.579178,-444.123565,-11103.089130,842.705048
336.579500,-740.205942,-9696.697840,536.266849
336.579822,-1184.329507,-8956.491898,-689.485948
336.580144,-1406.391290,-7920.203579,-536.266849
336.580465,-1480.411884,-7402.059420,-1685.410096
336.580787,-1776.494261,-7179.997637,-2221.676944
336.581109,-1258.350101,-7402.059420,-2681.334243
336.581431,-444.123565,-8290.306550,-2681.334243
336.581753,-740.205942,-9104.533087,-2757.943793
336.582075,-1850.514855,-10214.842000,-2298.286494
336.582396,-2812.782580,-11103.089130,-2451.505594
336.582718,-3478.967927,-11399.171507,-3217.601092
336.583040,-4515.256246,-11251.130318,-3447.429741
336.583362,-4811.338623,-9622.677246,-3064.381992
336.583684,-4515.256246,-8142.265362,-3447.429741
336.584006,-3330.926739,-7772.162391,-2834.553343
336.584327,-2368.659014,-9104.533087,-1685.410096
336.584649,-2220.617826,-9548.656652,-919.314598
336.584971,-1332.370696,-9178.553681,76.609550
336.585293,222.061783,-8438.347739,995.924147
336.585615,1258.350101,-8438.347739,0.000000
336.585937,1924.535449,-8586.388927,-383.047749
336.586258,1924.535449,-8586.388927,0.000000
336.586580,1998.556043,-9770.718434,612.876398
336.586902,2146.597232,-10658.965565,1378.971896
336.587224,1924.535449,-10658.965565,766.095498
336.587546,1036.288319,-10362.883188,153.219100
336.587868,592.164754,-10066.800811,-995.924147
336.588189,666.185348,-9770.718434,-1991.848295
336.588511,518.144159,-9400.615463,-1991.848295
336.588833,0.000000,-8586.388927,-919.314598
336.589155,-1480.411884,-7994.224174,-1685.410096
336.589477,-2368.659014,-7402.059420,-2451.505594
336.589798,-2812.782580,-8438.347739,-2987.772442
336.590120,-2960.823768,-9400.615463,-3524.039291
336.590442,-2738.761985,-8956.491898,-3370.820191
336.590764,-2516.700203,-9326.594869,-2451.505594
336.591086,-2738.761985,-9992.780217,-1762.019645
336.591408,-3552.988522,-10658.965565,-1532.190996
336.591729,-4737.318029,-9918.759623,-2221.676944
336.592051,-5551.544565,-9326.594869,-2451.505594
336.592373,-5847.626942,-8882.471304,-2681.334243
336.592695,-5699.585753,-8068.244768,-2374.896044
336.593017,-4589.276840,-8142.265362,-1608.800546
336.593339,-3552.988522,-9104.533087,-536.266849
336.593660,-2368.659014,-10066.800811,-383.047749
336.593982,-1036.288319,-9548.656652,-1149.143247
336.594304,740.205942,-9770.718434,-995.924147
336.594626,2220.617826,-10436.903782,-919.314598
336.594948,2220.617826,-9696.697840,-536.266849
336.595270,592.164754,-8734.430116,-919.314598
336.595591,-518.144159,-9252.574275,-1072.533697
336.595913,-2368.659014,-10362.883188,-1991.848295
336.596235,-5107.421000,-10584.944971,-2604.724693
336.596557,-7476.080014,-10066.800811,-2834.553343
336.596879,-9696.697840,-10214.842000,-2451.505594
336.597201,-11473.192101,-10066.800811,-1762.019645
336.597522,-12583.501014,-8734.430116,-1991.848295
336.597844,-12879.583391,-6957.935855,-3830.477490
336.598166,-11843.295072,-7328.038826,-5822.325785
336.598488,-10362.883188,-9104.533087,-5132.839837
336.598810,-8586.388927,-10362.883188,-3600.648841
336.599131,-6217.729913,-11029.068536,-1302.362347
336.599453,-3256.906145,-11103.089130,-1225.752797
336.599775,-740.205942,-10436.903782,-1915.238745
336.600097,1110.308913,-9400.615463,-2374.896044
336.600419,1480.411884,-8364.327145,-1838.629195
336.600741,1036.288319,-6513.812290,-1608.800546
336.601062,148.041188,-5921.647536,-1302.362347
336.601384,-814.226536,-6439.791695,-1378.971896
336.601706,-2220.617826,-8512.368333,-995.924147
336.602028,-3775.050304,-10436.903782,-459.657299
336.602350,-5033.400406,-11251.130318,-229.828649
336.602672,-5699.585753,-10955.047942,76.609550
336.602993,-6513.812290,-10658.965565,459.657299
336.603315,-6217.729913,-9030.512492,-383.047749
336.603637,-4959.379811,-7402.059420,-2145.067394
336.603959,-3478.967927,-6957.935855,-3217.601092
336.604281,-2294.638420,-6809.894666,-2451.505594
336.604603,-2146.597232,-6439.791695,-2145.067394
336.604924,-2220.617826,-7846.182985,-2451.505594
336.605246,-1258.350101,-10288.862594,-2681.334243
336.605568,0.000000,-11769.274478,-3677.258390
336.605890,592.164754,-12213.398043,-3983.696590
336.606212,1110.308913,-12361.439231,-2757.943793
336.606533,1036.288319,-12509.480420,-306.438199
336.606855,296.082377,-11769.274478,459.657299
336.607177,-888.247130,-10658.965565,153.219100
336.607499,-2516.700203,-9770.718434,306.438199
336.607821,-4293.194464,-7846.182985,-229.828649
336.608143,-5033.400406,-6661.853478,-1455.581446
336.608464,-4737.318029,-6735.874072,-689.485948
336.608786,-3478.967927,-6439.791695,-842.705048
336.609108,-2294.638420,-6661.853478,-1915.238745
336.609430,-962.267725,-7476.080014,-2451.505594
336.609752,-1036.288319,-8882.471304,-2451.505594
336.610074,-1924.535449,-10362.883188,-2145.067394
336.610395,-3627.009116,-11621.233289,-2528.115143
336.610717,-4737.318029,-12509.480420,-2757.943793
336.611039,-4441.235652,-14137.933492,-2604.724693
336.611361,-3775.050304,-14285.974681,-2374.896044
336.611683,-3404.947333,-13027.624579,-612.876398
336.612005,-1480.411884,-10658.965565,1532.190996
336.612326,1110.308913,-9474.636058,2757.943793
336.612648,2516.700203,-9474.636058,2911.162892
336.612970,1998.556043,-9104.533087,2681.334243
336.613292,370.102971,-8142.265362,3753.867940
336.613614,-2664.741391,-6069.688724,4903.011187
336.613936,-6291.750507,-3849.070898,4596.572988
336.614257,-8734.430116,-1998.556043,2451.505594
336.614579,-9622.677246,-1924.535449,-1838.629195
336.614901,-9918.759623,-2960.823768,-4749.792088
336.615223,-9844.739029,-4589.276840,-4673.182538
336.615545,-8956.491898,-8068.244768,-4213.525239
336.615866,-7476.080014,-12361.439231,-4596.572988
336.616188,-6513.812290,-15470.304188,-4749.792088
336.616510,-6735.874072,-16284.530724,-3983.696590
336.616832,-5921.647536,-17542.880825,-4213.525239
336.617154,-4515.256246,-16358.551318,-3217.601092
336.617476,-3552.988522,-12953.603985,-2145.067394
336.617797,-3256.906145,-9400.615463,306.438199
336.618119,-2442.679609,-6661.853478,3064.381992
336.618441,-1776.494261,-4441.235652,3524.039291
336.618763,-888.247130,-4367.215058,1685.410096
336.619085,-962.267725,-6069.688724,2451.505594
336.619407,-2146.597232,-7476.080014,4903.011187
336.619728,-2442.679609,-8290.306550,4136.915689
336.620050,-888.247130,-10066.800811,306.438199
336.620372,2146.597232,-9326.594869,-842.705048
336.620694,3182.885551,-7179.997637,-995.924147
336.621016,2886.803174,-9178.553681,-1532.190996
336.621338,2220.617826,-14211.954086,-1762.019645
336.621659,1998.556043,-16358.551318,-2987.772442
336.621981,1258.350101,-16506.592507,-4213.525239
336.622303,1850.514855,-17246.798449,-2068.457845
336.622625,2368.659014,-15914.427753,229.828649
336.622947,1554.432478,-11251.130318,0.000000
336.623268,518.144159,-7550.100608,1762.019645
336.623590,1110.308913,-5921.647536,4443.353888
336.623912,740.205942,-4071.132681,3217.601092
336.624234,74.020594,-2368.659014,689.485948
336.624556,444.123565,-1554.432478,2221.676944
336.624878,2220.617826,-2072.576638,2834.553343
336.625199,3256.906145,-4515.256246,2145.067394
336.625521,2516.700203,-7698.141797,2374.896044
336.625843,1406.391290,-9326.594869,995.924147
336.626165,962.267725,-12805.562797,-3064.381992
336.626487,1850.514855,-14582.057057,-4290.134789
336.626809,888.247130,-14137.933492,-3140.991542
336.627130,-962.267725,-13915.871710,-1685.410096
336.627452,-1480.411884,-15618.345376,536.266849
336.627774,-2072.576638,-15396.283594,1685.410096
336.628096,-2368.659014,-13323.706956,1149.143247
336.628418,-2590.720797,-11843.295072,2451.505594
336.628740,-3034.844362,-10955.047942,5975.544884
336.629061,-4737.318029,-8438.347739,7277.907231
336.629383,-4737.318029,-6291.750507,6511.811733
336.629705,-3552.988522,-5699.585753,5132.839837
336.630027,-3108.864956,-6217.729913,4749.792088
336.630349,-3256.906145,-6365.771101,4596.572988
336.630671,-1036.288319,-6883.915261,4213.525239
336.630992,1406.391290,-5847.626942,2145.067394
336.631314,2812.782580,-2812.782580,919.314598
336.631636,3627.009116,-2368.659014,-995.924147
336.631958,2886.803174,-8216.285956,-5056.230287
336.632280,888.247130,-13545.768739,-5362.668486
336.632601,-3256.906145,-16506.592507,-3600.648841
336.632923,-8808.450710,-18801.230927,-536.266849
336.633245,-11843.295072,-21243.910535,1532.190996
336.633567,-12731.542202,-18283.086767,766.095498
336.633889,-12139.377449,-12065.356855,-383.047749
336.634211,-9548.656652,-8734.430116,1762.019645
336.634532,-7031.956449,-8290.306550,7048.078582
336.634854,-4219.173869,-6513.812290,8044.002729
336.635176,-1628.453072,-4145.153275,7967.393179
336.635498,1850.514855,-2960.823768,9499.584175
336.635820,4219.173869,-1998.556043,10265.679673
336.636142,6069.688724,-962.267725,5515.887586
336.636463,8290.306550,-2590.720797,76.609550
336.636785,9030.512492,-5255.462188,459.657299
336.637107,6809.894666,-9104.533087,3064.381992
336.637429,3182.885551,-15544.324782,3753.867940
336.637751,0.000000,-20947.828159,689.485948
336.638076,-2294.638420,-19763.498651,-2681.334243
336.638398,-3701.029710,-16802.674883,-4596.572988
336.638719,-3849.070898,-15544.324782,-2221.676944
336.639041,-3849.070898,-10807.006753,459.657299
336.639363,-4811.338623,-3701.029710,1072.533697
336.639685,-3701.029710,-3034.844362,1378.971896
336.640007,-2368.659014,-5773.606348,3677.258390
336.640328,-3182.885551,-6217.729913,3064.381992
336.640650,-3997.112087,-7105.977043,2298.286494
336.640972,-1036.288319,-8364.327145,5592.497135
336.641294,3627.009116,-8586.388927,7124.688131
336.641615,6513.812290,-7624.121203,5439.278036
336.641937,7328.038826,-3923.091493,4826.401637
336.642259,9992.780217,-2516.700203,1072.533697
336.642581,11399.171507,-6439.791695,-5898.935335
336.642902,8734.430116,-9030.512492,-6435.202183
336.643224,2960.823768,-9918.759623,-1455.581446
336.643546,-1554.432478,-14952.160028,-1762.019645
336.643868,-4219.173869,-22132.157666,-2987.772442
336.644190,-6365.771101,-22724.322419,-4060.306139
336.644511,-7031.956449,-17172.777854,-5745.716235
336.644833,-3701.029710,-12805.562797,-4826.401637
336.645155,-666.185348,-9992.780217,-229.828649
336.645477,-296.082377,-6587.832884,1455.581446
336.645798,518.144159,-3775.050304,2298.286494
336.646120,2072.576638,-4219.173869,1838.629195
336.646442,1924.535449,-7476.080014,766.095498
336.646764,2072.576638,-8586.388927,1685.410096
336.647085,2146.597232,-9400.615463,0.000000
336.647407,3108.864956,-11621.233289,306.438199
336.647729,4441.235652,-11399.171507,1991.848295
336.648051,1628.453072,-9474.636058,2145.067394
336.648373,-4293.194464,-8808.450710,-306.438199
336.648694,-8660.409521,-7846.182985,-1455.581446
336.649016,-11251.130318,-8438.347739,-5515.887586
336.649338,-12065.356855,-9696.697840,-9806.022374
336.649660,-12583.501014,-12139.377449,-7354.516781
336.649981,-10881.027347,-13101.645173,-2145.067394
336.650303,-8142.265362,-13027.624579,-2068.457845
336.650625,-3997.112087,-13915.871710,-2221.676944
336.650947,-1554.432478,-13915.871710,383.047749
336.651268,-1184.329507,-10732.986159,2987.772442
336.651590,1110.308913,-5329.482782,4060.306139
336.651912,5625.565159,0.000000,1685.410096
336.652234,11251.130318,1110.308913,-995.924147
336.652556,13471.748144,-1258.350101,612.876398
336.652877,10510.924376,-4663.297435,5592.497135
336.653199,5551.544565,-7624.121203,9422.974625
336.653521,962.267725,-11843.295072,8273.831378
336.653843,-2886.803174,-13619.789333,2528.115143
336.654164,-5847.626942,-11399.171507,-2604.724693
336.654486,-6513.812290,-7476.080014,-5515.887586
336.654808,-4959.379811,-6291.750507,-5515.887586
336.655130,-3034.844362,-7105.977043,-2068.457845
336.655451,-3330.926739,-8882.471304,1608.800546
336.655773,-4441.235652,-11029.068536,1149.143247
336.656095,-5255.462188,-14063.912898,-1378.971896
336.656417,-5033.400406,-15396.283594,-3064.381992
336.656739,-2886.803174,-13175.665768,-4136.915689
336.657060,148.041188,-9918.759623,-2451.505594
336.657382,3256.906145,-7994.224174,842.705048
336.657704,4441.235652,-7698.141797,3064.381992
336.658026,3552.988522,-7476.080014,3294.210641
336.658347,2516.700203,-8068.244768,1991.848295
336.658669,2072.576638,-9474.636058,-1608.800546
336.658991,1998.556043,-10658.965565,-3217.601092
336.659313,2072.576638,-11029.068536,-919.314598
336.659634,2220.617826,-11473.192101,2681.334243
336.659956,2590.720797,-11843.295072,1991.848295
336.660278,2294.638420,-11621.233289,-229.828649
336.660600,1110.308913,-11547.212695,-2911.162892
336.660922,0.000000,-11325.150913,-3983.696590
336.661243,0.000000,-10436.903782,-3830.477490
336.661565,296.082377,-9178.553681,-2298.286494
336.661887,1332.370696,-8586.388927,-1608.800546
336.662209,1480.411884,-8142.265362,-919.314598
336.662530,0.000000,-8512.368333,-1991.848295
336.662852,-2220.617826,-11177.109724,-2911.162892
336.663174,-3923.091493,-12509.480420,-1991.848295
336.663496,-3701.029710,-11695.253884,-383.047749
336.663817,-2146.597232,-9326.594869,306.438199
336.664139,222.061783,-8364.327145,-153.219100
336.664461,1480.411884,-6661.853478,-536.266849
336.664783,1184.329507,-5995.668130,-1225.752797
336.665105,0.000000,-7105.977043,-1302.362347
336.665426,-1406.391290,-8068.244768,-153.219100
336.665748,-3701.029710,-7994.224174,-1532.190996
336.666070,-4589.276840,-8586.388927,-1762.019645
336.666392,-5181.441594,-8808.450710,-1072.533697
336.666713,-4441.235652,-8734.430116,-2145.067394
336.667035,-2886.803174,-8586.388927,-3064.381992
336.667357,-1628.453072,-8956.491898,-2221.676944
336.667679,444.123565,-8882.471304,-1608.800546
336.668000,1998.556043,-8216.285956,-2221.676944
336.668322,2960.823768,-7624.121203,-2451.505594
336.668644,2886.803174,-7328.038826,-2528.115143
336.668966,1776.494261,-8586.388927,-2681.334243
336.669288,-666.185348,-9696.697840,-2911.162892
336.669609,-2442.679609,-10066.800811,-2298.286494
336.669931,-3182.885551,-10732.986159,-2451.505594
336.670253,-3404.947333,-10584.944971,-2987.772442
336.670575,-3034.844362,-10066.800811,-2681.334243
336.670896,-3256.906145,-9770.718434,-2145.067394
336.671218,-3034.844362,-9474.636058,-1455.581446
336.671540,-2294.638420,-8808.450710,-1378.971896
336.671862,-1036.288319,-9104.533087,-1915.238745
336.672184,296.082377,-9104.533087,-2145.067394
336.672505,2294.638420,-9992.780217,-2987.772442
336.672827,3627.009116,-12139.377449,-2681.334243
336.673149,3849.070898,-13397.727550,-459.657299
336.673471,3478.967927,-11991.336260,1455.581446
336.673792,2664.741391,-9770.718434,612.876398
336.674114,2220.617826,-8956.491898,-1302.362347
336.674436,1110.308913,-6883.915261,-2757.943793
336.674758,0.000000,-6957.935855,-3907.087040
336.675079,-814.226536,-9252.574275,-2757.943793
336.675401,-1258.350101,-11177.109724,-306.438199
336.675723,-1036.288319,-11843.295072,995.924147
336.676045,-814.226536,-11103.089130,76.609550
336.676367,444.123565,-9474.636058,-766.095498
336.676688,1036.288319,-8068.244768,-2757.943793
336.677010,666.185348,-7402.059420,-2911.162892
336.677332,-740.205942,-6883.915261,-612.876398
336.677654,-1998.556043,-6883.915261,0.000000
336.677975,-2220.617826,-7920.203579,-766.095498
336.678297,-2294.638420,-9104.533087,-1532.190996
336.678619,-2590.720797,-9474.636058,-1608.800546
336.678941,-2738.761985,-10584.944971,-995.924147
336.679262,-1406.391290,-12065.356855,459.657299
336.679584,296.082377,-11325.150913,1455.581446
336.679906,1702.473667,-10362.883188,919.314598
336.680228,2442.679609,-7846.182985,919.314598
336.680550,2664.741391,-5847.626942,229.828649
336.680871,3478.967927,-5033.400406,-1685.410096
336.681193,3552.988522,-6587.832884,-1685.410096
336.681515,2960.823768,-9178.553681,-1685.410096
336.681837,1110.308913,-11177.109724,-459.657299
336.682158,-814.226536,-11991.336260,995.924147
336.682480,-3182.885551,-11695.253884,383.047749
336.682802,-3997.112087,-11325.150913,-1915.238745
336.683124,-3849.070898,-10658.965565,-3524.039291
336.683445,-2960.823768,-9474.636058,-3370.820191
336.683767,-1480.411884,-8512.368333,-2451.505594
336.684089,296.082377,-7994.224174,-689.485948
336.684411,1184.329507,-6809.894666,-306.438199
336.684733,1776.494261,-7772.162391,-1455.581446
336.685054,888.247130,-10066.800811,-2221.676944
336.685376,-1332.370696,-11029.068536,-1915.238745
336.685698,-3330.926739,-11251.130318,-1838.629195
336.686020,-3923.091493,-10732.986159,-2068.457845
336.686341,-3849.070898,-9770.718434,-1455.581446
336.686663,-3404.947333,-8882.471304,-2374.896044
336.686985,-2960.823768,-9104.533087,-2604.724693
336.687307,-1998.556043,-9770.718434,-2451.505594
336.687628,-814.226536,-9844.739029,-1991.848295
336.687950,222.061783,-10214.842000,-1762.019645
336.688272,1036.288319,-10881.027347,-306.438199
336.688594,1258.350101,-10214.842000,0.000000
336.688916,1110.308913,-9474.636058,-1072.533697
336.689237,592.164754,-9104.533087,-1072.533697
336.689559,0.000000,-8512.368333,-306.438199
336.689881,-518.144159,-7624.121203,-919.314598
336.690203,-370.102971,-7031.956449,-842.705048
336.690524,-74.020594,-7105.977043,-919.314598
336.690846,444.123565,-7698.141797,-1608.800546
336.691168,888.247130,-8660.409521,-1762.019645
336.691490,1332.370696,-9104.533087,-2145.067394
336.691811,1110.308913,-10214.842000,-1455.581446
336.692133,1258.350101,-10510.924376,-1455.581446
336.692455,1406.391290,-9474.636058,-1149.143247
336.692777,1924.535449,-8956.491898,-2374.896044
336.693099,1480.411884,-8364.327145,-2834.553343
336.693420,1406.391290,-8216.285956,-2221.676944
336.693742,-222.061783,-8068.244768,-1762.019645
336.694064,-1480.411884,-8956.491898,-1915.238745
336.694386,-2812.782580,-9474.636058,-1762.019645
336.694707,-3478.967927,-9844.739029,-1685.410096
336.695029,-3256.906145,-10955.047942,-1915.238745
336.695351,-2442.679609,-9992.780217,-995.924147
336.695673,-962.267725,-8660.409521,-1149.143247
336.695994,814.226536,-8142.265362,-842.705048
336.696316,2368.659014,-8142.265362,-766.095498
336.696638,2072.576638,-8364.327145,-1838.629195
336.696960,2368.659014,-10066.800811,-2298.286494
336.697282,1110.308913,-10362.883188,-1225.752797
336.697603,-296.082377,-9474.636058,-1072.533697
336.697925,-1184.329507,-9474.636058,-2221.676944
336.698247,-1480.411884,-9844.739029,-2528.115143
336.698569,-2590.720797,-9400.615463,-3294.210641
336.698890,-2960.823768,-10584.944971,-3600.648841
336.699212,-2146.597232,-11473.192101,-2298.286494
336.699534,0.000000,-10732.986159,-1838.629195
336.699856,1998.556043,-9770.718434,-2068.457845
336.700177,3627.009116,-9178.553681,-1455.581446
336.700499,3034.844362,-7994.224174,-766.095498
336.700821,2442.679609,-8808.450710,-2068.457845
336.701143,1628.453072,-9844.739029,-2604.724693
336.701465,518.144159,-10140.821405,-1225.752797
336.701786,-962.267725,-9326.594869,-919.314598
336.702108,-1184.329507,-9474.636058,-1149.143247
336.702430,-740.205942,-8882.471304,-919.314598
336.702752,-814.226536,-8808.450710,-1991.848295
336.703073,-1184.329507,-9696.697840,-2068.457845
336.703395,-1258.350101,-10288.862594,-766.095498
336.703717,-1776.494261,-10955.047942,-612.876398
336.704039,-1628.453072,-10658.965565,-612.876398
336.704360,-1702.473667,-9474.636058,-383.047749
336.704682,-1110.308913,-7772.162391,-1532.190996
336.705004,-962.267725,-7624.121203,-2374.896044
336.705326,-1480.411884,-7698.141797,-1149.143247
336.705648,-2368.659014,-8734.430116,-1072.533697
336.705969,-3552.988522,-9474.636058,-1455.581446
336.706291,-4145.153275,-9770.718434,-995.924147
336.706613,-3997.112087,-9770.718434,-1608.800546
336.706935,-2960.823768,-9252.574275,-1991.848295
336.707256,-740.205942,-9030.512492,-1915.238745
336.707578,1332.370696,-8660.409521,-995.924147
336.707900,3182.885551,-8734.430116,-459.657299
336.708222,4441.235652,-8364.327145,459.657299
336.708543,4959.379811,-7772.162391,76.609550
336.708865,4959.379811,-7994.224174,-536.266849
336.709187,4145.153275,-9474.636058,-689.485948
336.709509,2442.679609,-9400.615463,0.000000
336.709831,888.247130,-9252.574275,-229.828649
336.710152,0.000000,-9326.594869,-306.438199
336.710474,0.000000,-9400.615463,-383.047749
336.710796,-444.123565,-9992.780217,-1532.190996
336.711118,-1554.432478,-10807.006753,-1072.533697
336.711439,-2072.576638,-10807.006753,0.000000
336.711761,-1776.494261,-10288.862594,0.000000
336.712083,-370.102971,-10140.821405,-919.314598
336.712405,-222.061783,-8808.450710,-1225.752797
336.712726,-296.082377,-9178.553681,-2451.505594
336.713048,-1258.350101,-10140.821405,-1915.238745
336.713370,-2146.597232,-10362.883188,-612.876398
336.713692,-2960.823768,-9622.677246,-1149.143247
336.714014,-2960.823768,-9178.553681,-2374.896044
336.714335,-3034.844362,-8734.430116,-2451.505594
336.714657,-2812.782580,-8882.471304,-2451.505594
336.714979,-2072.576638,-9548.656652,-2451.505594
336.715301,-740.205942,-10140.821405,-1378.971896
336.715622,1110.308913,-9918.759623,-689.485948
336.715944,2812.782580,-9474.636058,-153.219100
336.716266,3775.050304,-8438.347739,-229.828649
336.716588,4811.338623,-7476.080014,-1685.410096
336.716910,5477.523971,-8068.244768,-2604.724693
336.717231,4663.297435,-8660.409521,-1991.848295
336.717553,3108.864956,-9030.512492,0.000000
336.717875,740.205942,-9844.739029,-306.438199
336.718197,-518.144159,-10140.821405,-842.705048
336.718518,-1480.411884,-9622.677246,-1608.800546
336.718840,-1998.556043,-9770.718434,-2604.724693
336.719162,-1924.535449,-10214.842000,-2604.724693
336.719484,-1776.494261,-9844.739029,-1378.971896
336.719805,-1776.494261,-9548.656652,-689.485948
336.720127,-1036.288319,-9326.594869,-612.876398
336.720449,-1036.288319,-7624.121203,-1915.238745
336.720771,-1406.391290,-7105.977043,-3753.867940
336.721093,-2442.679609,-8142.265362,-3217.601092
336.721414,-3330.926739,-8586.388927,-2757.943793
336.721736,-4071.132681,-8808.450710,-2987.772442
336.722058,-4515.256246,-9696.697840,-3064.381992
336.722380,-4589.276840,-10140.821405,-2451.505594
336.722701,-4811.338623,-9548.656652,-3447.429741
336.723023,-2812.782580,-9696.697840,-3830.477490
336.723345,-666.185348,-9844.739029,-3447.429741
336.723667,1554.432478,-9696.697840,-2528.115143
336.723988,3182.885551,-9474.636058,-2145.067394
336.724310,4441.235652,-8586.388927,-995.924147
336.724632,4737.318029,-8586.388927,-2451.505594
336.724954,4663.297435,-9622.677246,-3140.991542
336.725276,3404.947333,-10584.944971,-2221.676944
336.725597,1850.514855,-10658.965565,-766.095498
336.725919,592.164754,-10214.842000,-766.095498
336.726241,222.061783,-9918.759623,-842.705048
336.726563,148.041188,-9474.636058,-1762.019645
336.726884,-740.205942,-9696.697840,-2145.067394
336.727206,-1258.350101,-10140.821405,-1378.971896
336.727528,-1332.370696,-10510.924376,-842.705048
336.727850,-666.185348,-10362.883188,-306.438199
336.728171,-222.061783,-10362.883188,-536.266849
336.728493,0.000000,-8734.430116,-689.485948
336.728815,-296.082377,-8660.409521,-1685.410096
336.729137,-1258.350101,-9104.533087,-1455.581446
336.729459,-2516.700203,-9474.636058,-689.485948
336.729780,-3849.070898,-9400.615463,-766.095498
336.730102,-5033.400406,-9252.574275,-919.314598
336.730424,-4959.379811,-8660.409521,-766.095498
336.730746,-4145.153275,-8586.388927,-1762.019645
336.731067,-2516.700203,-9030.512492,-2145.067394
336.731389,-1406.391290,-8586.388927,-459.657299
336.731711,444.123565,-9104.533087,0.000000
336.732033,1776.494261,-9400.615463,612.876398
336.732354,2960.823768,-8364.327145,1149.143247
336.732676,3849.070898,-7698.141797,-229.828649
336.732998,4515.256246,-8438.347739,-689.485948
336.733320,4071.132681,-8068.244768,153.219100
336.733642,2886.803174,-8290.306550,1072.533697
336.733963,1776.494261,-8660.409521,1378.971896
336.734285,1036.288319,-9030.512492,1149.143247
336.734607,148.041188,-8956.491898,-536.266849
336.734929,0.000000,-8956.491898,459.657299
336.735250,-370.102971,-9474.636058,0.000000
336.735572,0.000000,-9178.553681,536.266849
336.735894,444.123565,-9252.574275,306.438199
336.736216,814.226536,-9400.615463,76.609550
336.736537,222.061783,-8734.430116,-1302.362347
336.736859,-1258.350101,-8586.388927,-2221.676944
336.737181,-2442.679609,-9474.636058,-1991.848295
336.737503,-3478.967927,-9844.739029,-1685.410096
336.737825,-4663.297435,-9696.697840,-2834.553343
336.738146,-5255.462188,-9844.739029,-3217.601092
336.738468,-5773.606348,-10807.006753,-3140.991542
336.738790,-5551.544565,-10955.047942,-3677.258390
336.739111,-4663.297435,-10362.883188,-4213.525239
336.739433,-2368.659014,-9918.759623,-3370.820191
336.739755,148.041188,-9622.677246,-3217.601092
336.740077,2072.576638,-9178.553681,-3217.601092
336.740398,2738.761985,-8956.491898,-2528.115143
336.740720,2886.803174,-9326.594869,-2834.553343
336.741042,2516.700203,-9992.780217,-3217.601092
336.741364,1702.473667,-10066.800811,-2681.334243
336.741685,518.144159,-9622.677246,-2757.943793
336.742007,296.082377,-10140.821405,-2221.676944
336.742329,0.000000,-9696.697840,-2374.896044
336.742651,0.000000,-10066.800811,-2604.724693
336.742972,0.000000,-10881.027347,-2757.943793
336.743294,-222.061783,-11029.068536,-1838.629195
336.743616,296.082377,-10584.944971,-1685.410096
336.743938,1110.308913,-10066.800811,-1532.190996
336.744259,1850.514855,-9104.533087,-1302.362347
336.744581,1628.453072,-7920.203579,-2145.067394
336.744903,1036.288319,-8142.265362,-2604.724693
336.745224,-592.164754,-8586.388927,-1532.190996
336.745546,-1998.556043,-8956.491898,-1149.143247
336.745868,-3923.091493,-9178.553681,-2221.676944
336.746190,-4737.318029,-8882.471304,-2374.896044
336.746511,-5033.400406,-8216.285956,-2757.943793
336.746833,-4441.235652,-8364.327145,-3140.991542
336.747155,-3478.967927,-8364.327145,-2834.553343
336.747477,-1924.535449,-8808.450710,-1838.629195
336.747798,-444.123565,-9030.512492,-1225.752797
336.748120,518.144159,-9104.533087,-766.095498
336.748442,1332.370696,-8290.306550,-536.266849
336.748764,1628.453072,-7254.018232,-1072.533697
336.749085,2072.576638,-8512.368333,-1838.629195
336.749407,1628.453072,-8734.430116,-842.705048
336.749729,740.205942,-8882.471304,76.609550
336.750051,74.020594,-9178.553681,0.000000
336.750372,-148.041188,-8882.471304,0.000000
336.750694,-444.123565,-9252.574275,-919.314598
336.751016,-518.144159,-9992.780217,-766.095498
336.751338,0.000000,-9918.759623,229.828649
336.751659,666.185348,-9400.615463,612.876398
336.751981,1776.494261,-9548.656652,76.609550
336.752303,2886.803174,-10066.800811,-459.657299
336.752624,1776.494261,-9622.677246,-842.705048
336.752946,888.247130,-10288.862594,-919.314598
336.753268,0.000000,-10436.903782,-459.657299
336.753590,-814.226536,-10214.842000,-153.219100
336.753911,-2220.617826,-9474.636058,-919.314598
