#time,accel_x,accel_y,accel_z
225.301714,-222.061783,-9844.739029,-1149.143247
225.302036,-370.102971,-9474.636058,-1302.362347
225.302358,-518.144159,-9104.533087,-1378.971896
225.302680,0.000000,-8882.471304,-1608.800546
225.303002,0.000000,-8808.450710,-1302.362347
225.303325,-740.205942,-8660.409521,-1378.971896
225.303647,-592.164754,-9474.636058,-1225.752797
225.303969,-666.185348,-9474.636058,-1455.581446
225.304291,-444.123565,-9548.656652,-1378.971896
225.304613,-296.082377,-9474.636058,-1532.190996
225.304936,-148.041188,-9030.512492,-1302.362347
225.305258,-370.102971,-8956.491898,-1608.800546
225.305580,-296.082377,-9178.553681,-1608.800546
225.305902,-370.102971,-9178.553681,-1608.800546
225.306224,-370.102971,-9474.636058,-1838.629195
225.306547,-592.164754,-9326.594869,-919.314598
225.306869,-814.226536,-9326.594869,-1762.019645
225.307191,-444.123565,-9474.636058,-1915.238745
225.307513,-148.041188,-9474.636058,-1685.410096
225.307835,0.000000,-8882.471304,-1915.238745
225.308157,-222.061783,-9030.512492,-1302.362347
225.308480,-296.082377,-9252.574275,-1378.971896
225.308802,-592.164754,-9474.636058,-1685.410096
225.309124,-592.164754,-9696.697840,-1838.629195
225.309446,-518.144159,-9696.697840,-1838.629195
225.309768,-518.144159,-9400.615463,-1915.238745
225.310091,-148.041188,-9474.636058,-2298.286494
225.310413,-444.123565,-8956.491898,-1608.800546
225.310735,-148.041188,-9252.574275,-1762.019645
225.311057,-222.061783,-9252.574275,-1915.238745
225.311379,-592.164754,-9474.636058,-2068.457845
225.311701,-592.164754,-9770.718434,-1532.190996
225.312024,-666.185348,-9696.697840,-1302.362347
225.312346,-370.102971,-9696.697840,-1608.800546
225.312668,-296.082377,-9326.594869,-1685.410096
225.312990,-444.123565,-8956.491898,-1915.238745
225.313312,-444.123565,-9104.533087,-1838.629195
225.313635,-222.061783,-9252.574275,-1302.362347
225.313957,-518.144159,-9474.636058,-1762.019645
225.314279,-740.205942,-9696.697840,-1608.800546
225.314601,-814.226536,-9622.677246,-1762.019645
225.314923,-740.205942,-9474.636058,-1455.581446
225.315245,-148.041188,-9326.594869,-1378.971896
225.315568,-518.144159,-8512.368333,-1532.190996
225.315890,0.000000,-9030.512492,-1685.410096
225.316212,-222.061783,-9326.594869,-1685.410096
225.316534,-444.123565,-9400.615463,-1532.190996
225.316856,-518.144159,-9770.718434,-1455.581446
225.317179,-592.164754,-9696.697840,-1532.190996
225.317501,-444.123565,-9548.656652,-1685.410096
225.317823,-370.102971,-9326.594869,-1532.190996
225.318145,-370.102971,-8956.491898,-1378.971896
225.318467,148.041188,-8734.430116,-1378.971896
225.318790,1628.453072,-9104.533087,-1838.629195
225.319112,2664.741391,-9474.636058,-1455.581446
225.319434,2294.638420,-9252.574275,-306.438199
225.319756,1480.411884,-9030.512492,76.609550
225.320078,518.144159,-9104.533087,-995.924147
225.320400,-222.061783,-9326.594869,-2451.505594
225.320723,-1924.535449,-8882.471304,-1991.848295
225.321045,-3330.926739,-9252.574275,-1915.238745
225.321367,-3775.050304,-9326.594869,-2451.505594
225.321689,-2664.741391,-9030.512492,-2757.943793
225.322011,0.000000,-10436.903782,-2604.724693
225.322334,2220.617826,-11473.192101,-919.314598
225.322656,3034.844362,-10584.944971,153.219100
225.322978,2590.720797,-9030.512492,306.438199
225.323300,2368.659014,-8734.430116,-689.485948
225.323622,2738.761985,-9400.615463,-2221.676944
225.323944,2516.700203,-9252.574275,-1378.971896
225.324267,1258.350101,-8512.368333,-689.485948
225.324589,-148.041188,-7105.977043,0.000000
225.324911,444.123565,-7254.018232,-1378.971896
225.325233,2072.576638,-9474.636058,-2757.943793
225.325555,1036.288319,-9844.739029,-1532.190996
225.325878,-1110.308913,-9104.533087,-229.828649
225.326200,-1924.535449,-8808.450710,-1378.971896
225.326522,-592.164754,-9252.574275,-4290.134789
225.326844,370.102971,-10066.800811,-3600.648841
225.327166,740.205942,-10807.006753,-1532.190996
225.327488,666.185348,-10807.006753,-1762.019645
225.327811,2886.803174,-9696.697840,-2374.896044
225.328133,3923.091493,-10288.862594,-1685.410096
225.328455,4441.235652,-11621.233289,-766.095498
225.328777,3552.988522,-11251.130318,-766.095498
225.329099,1628.453072,-8364.327145,-995.924147
225.329422,1628.453072,-7550.100608,-1455.581446
225.329744,1628.453072,-7846.182985,-1378.971896
225.330066,1554.432478,-7698.141797,-1685.410096
225.330388,370.102971,-7031.956449,-766.095498
225.330710,0.000000,-7698.141797,-842.705048
225.331033,1258.350101,-9992.780217,-1149.143247
225.331355,1702.473667,-10436.903782,-1378.971896
225.331677,1184.329507,-9770.718434,-2068.457845
225.331999,814.226536,-9918.759623,-1838.629195
225.332321,1406.391290,-10362.883188,-1532.190996
225.332643,2294.638420,-9326.594869,-2068.457845
225.332966,1406.391290,-9326.594869,-3140.991542
225.333288,1258.350101,-9770.718434,-2221.676944
225.333610,1036.288319,-10288.862594,-1455.581446
225.333932,1628.453072,-9696.697840,-1685.410096
225.334254,962.267725,-9770.718434,-1762.019645
225.334577,666.185348,-9474.636058,-1378.971896
225.334899,740.205942,-8364.327145,-842.705048
225.335221,0.000000,-7254.018232,-1302.362347
225.335543,-444.123565,-7328.038826,-1378.971896
225.335865,-888.247130,-8216.285956,-1302.362347
225.336187,-1036.288319,-9030.512492,-919.314598
225.336510,-1036.288319,-10140.821405,-1302.362347
225.336832,-1184.329507,-10807.006753,-1378.971896
225.337154,-814.226536,-11769.274478,-1302.362347
225.337476,-370.102971,-11251.130318,-842.705048
225.337798,0.000000,-10732.986159,-995.924147
225.338121,-370.102971,-9474.636058,-1225.752797
225.338443,-148.041188,-9844.739029,-1455.581446
225.338765,-370.102971,-9326.594869,-1072.533697
225.339087,-740.205942,-9474.636058,-919.314598
225.339409,-888.247130,-9178.553681,-766.095498
225.339731,-518.144159,-8956.491898,-766.095498
225.340054,-444.123565,-8660.409521,-1225.752797
225.340376,-962.267725,-7920.203579,-995.924147
225.340698,-1480.411884,-7254.018232,-536.266849
225.341020,-2072.576638,-7031.956449,-1378.971896
225.341342,-2368.659014,-7328.038826,-1762.019645
225.341665,-2368.659014,-8364.327145,-2451.505594
225.341987,-2220.617826,-8808.450710,-2374.896044
225.342309,-1554.432478,-9844.739029,-2528.115143
225.342631,-1110.308913,-9992.780217,-2451.505594
225.342953,0.000000,-9918.759623,-2374.896044
225.343276,592.164754,-10066.800811,-2145.067394
225.343598,962.267725,-9696.697840,-2374.896044
225.343920,740.205942,-9548.656652,-2451.505594
225.344242,296.082377,-9770.718434,-2068.457845
225.344564,-444.123565,-9474.636058,-1532.190996
225.344886,-814.226536,-9622.677246,-1378.971896
225.345209,-592.164754,-9474.636058,-1608.800546
225.345531,-592.164754,-9104.533087,-1378.971896
225.345853,-1036.288319,-9178.553681,-1072.533697
225.346175,-888.247130,-8808.450710,-995.924147
225.346497,-518.144159,-9400.615463,-1072.533697
225.346820,-814.226536,-9844.739029,-1685.410096
225.347142,-370.102971,-10362.883188,-1838.629195
225.347464,-1036.288319,-10807.006753,-1532.190996
225.347786,-444.123565,-10658.965565,-1915.238745
225.348108,296.082377,-10214.842000,-2681.334243
225.348430,962.267725,-10510.924376,-2221.676944
225.348753,888.247130,-9844.739029,-1762.019645
225.349075,1036.288319,-9622.677246,-1991.848295
225.349397,1110.308913,-9326.594869,-2451.505594
225.349719,1332.370696,-8734.430116,-2451.505594
225.350041,814.226536,-8216.285956,-2145.067394
225.350364,814.226536,-8068.244768,-2604.724693
225.350686,962.267725,-8438.347739,-2451.505594
225.351008,592.164754,-8586.388927,-1762.019645
225.351330,740.205942,-8808.450710,-1455.581446
225.351652,1184.329507,-8956.491898,-1685.410096
225.351974,1332.370696,-8808.450710,-1532.190996
225.352297,1184.329507,-9030.512492,-1149.143247
225.352619,1110.308913,-9400.615463,-689.485948
225.352941,592.164754,-9326.594869,-766.095498
225.353263,148.041188,-9252.574275,-383.047749
225.353585,74.020594,-9474.636058,-1225.752797
225.353908,-666.185348,-9548.656652,-689.485948
225.354230,-1184.329507,-10140.821405,-766.095498
225.354552,-1776.494261,-9474.636058,-612.876398
225.354874,-2072.576638,-9104.533087,-612.876398
225.355196,-1776.494261,-9178.553681,-919.314598
225.355519,-1998.556043,-8808.450710,-842.705048
225.355841,-2072.576638,-8734.430116,-1072.533697
225.356163,-2146.597232,-8882.471304,-1378.971896
225.356485,-2072.576638,-9030.512492,-1685.410096
225.356807,-1776.494261,-9252.574275,-1455.581446
225.357129,-1998.556043,-9474.636058,-1915.238745
225.357452,-1554.432478,-9918.759623,-2528.115143
225.357774,-1332.370696,-10140.821405,-2374.896044
225.358096,-1258.350101,-9622.677246,-2221.676944
225.358418,-1110.308913,-9474.636058,-2221.676944
225.358740,-296.082377,-9400.615463,-2221.676944
225.359063,-148.041188,-9252.574275,-2068.457845
225.359385,0.000000,-9178.553681,-1685.410096
225.359707,74.020594,-8956.491898,-1378.971896
225.360029,222.061783,-9326.594869,-1532.190996
225.360351,370.102971,-9474.636058,-1302.362347
225.360673,148.041188,-8808.450710,-1225.752797
225.360996,-666.185348,-9548.656652,-842.705048
225.361318,-1184.329507,-9696.697840,-1302.362347
225.361640,-1406.391290,-9252.574275,-1762.019645
225.361962,-1850.514855,-9474.636058,-1608.800546
225.362284,-1554.432478,-9474.636058,-1762.019645
225.362607,-1628.453072,-9548.656652,-1608.800546
225.362929,-1702.473667,-9326.594869,-1532.190996
225.363251,-1554.432478,-9474.636058,-1838.629195
225.363573,-1110.308913,-10436.903782,-1915.238745
225.363895,-740.205942,-9992.780217,-2221.676944
225.364217,-666.185348,-9770.718434,-1838.629195
225.364540,-222.061783,-9992.780217,-1532.190996
225.364862,222.061783,-9918.759623,-1455.581446
225.365184,592.164754,-9474.636058,-1149.143247
225.365506,666.185348,-8808.450710,-1838.629195
225.365828,888.247130,-7476.080014,-842.705048
225.366151,1036.288319,-7328.038826,-1455.581446
225.366473,1184.329507,-6957.935855,-1991.848295
225.366795,1480.411884,-7920.203579,-2068.457845
225.367117,1628.453072,-8808.450710,-1762.019645
225.367439,1554.432478,-9030.512492,-2298.286494
225.367762,1776.494261,-9918.759623,-1455.581446
225.368084,1998.556043,-10288.862594,-1762.019645
225.368406,2072.576638,-10214.842000,-1991.848295
225.368728,1776.494261,-9622.677246,-1915.238745
225.369050,1554.432478,-8808.450710,-1149.143247
225.369372,592.164754,-9474.636058,-1685.410096
225.369694,0.000000,-9548.656652,-1225.752797
225.370017,-1184.329507,-9400.615463,-1302.362347
225.370339,-1554.432478,-9844.739029,-1225.752797
225.370661,-2146.597232,-9548.656652,-1072.533697
225.370983,-2146.597232,-9474.636058,-1149.143247
225.371305,-2368.659014,-8956.491898,-1149.143247
225.371627,-1850.514855,-8882.471304,-995.924147
225.371949,-1850.514855,-9252.574275,-1149.143247
225.372272,-1850.514855,-8956.491898,-1608.800546
225.372594,-1406.391290,-8956.491898,-1685.410096
225.372916,-1850.514855,-9622.677246,-1991.848295
225.373238,-1554.432478,-10140.821405,-2298.286494
225.373560,-1480.411884,-10362.883188,-2374.896044
225.373882,-1480.411884,-10436.903782,-2681.334243
225.374204,-1258.350101,-9992.780217,-2604.724693
225.374527,-1406.391290,-9770.718434,-2604.724693
225.374849,-1258.350101,-9474.636058,-2911.162892
225.375171,-962.267725,-9474.636058,-2604.724693
225.375493,-962.267725,-9474.636058,-2298.286494
225.375815,-370.102971,-9474.636058,-1991.848295
225.376137,-222.061783,-8808.450710,-1072.533697
225.376459,0.000000,-8808.450710,-1608.800546
225.376782,444.123565,-8364.327145,-1225.752797
225.377104,518.144159,-8660.409521,-1225.752797
225.377426,518.144159,-8660.409521,-1225.752797
225.377748,148.041188,-8586.388927,-1762.019645
225.378070,-370.102971,-9252.574275,-842.705048
225.378392,-666.185348,-9622.677246,-1072.533697
225.378714,-1184.329507,-9770.718434,-1302.362347
225.379036,-1554.432478,-9474.636058,-1378.971896
225.379359,-1702.473667,-9030.512492,-1685.410096
225.379681,-1776.494261,-9104.533087,-1302.362347
225.380003,-1184.329507,-9252.574275,-1838.629195
225.380325,-1110.308913,-9696.697840,-1455.581446
225.380647,-1110.308913,-10140.821405,-1225.752797
225.380969,-1110.308913,-10362.883188,-1149.143247
225.381291,-1036.288319,-9474.636058,-1302.362347
225.381614,-148.041188,-9992.780217,-1608.800546
225.381936,74.020594,-9474.636058,-842.705048
225.382258,444.123565,-8660.409521,-1149.143247
225.382580,1480.411884,-8142.265362,-1378.971896
225.382902,2294.638420,-7920.203579,-1608.800546
225.383224,2886.803174,-7772.162391,-919.314598
225.383546,3108.864956,-8068.244768,-1225.752797
225.383869,3034.844362,-8956.491898,-1915.238745
225.384191,3182.885551,-9548.656652,-1762.019645
225.384513,2812.782580,-9844.739029,-1149.143247
225.384835,2368.659014,-9548.656652,-1302.362347
225.385157,2146.597232,-9622.677246,-1991.848295
225.385479,1702.473667,-9548.656652,-2145.067394
225.385801,1184.329507,-9622.677246,-1685.410096
225.386124,740.205942,-9696.697840,-1072.533697
225.386446,0.000000,-9474.636058,-842.705048
225.386768,-740.205942,-9326.594869,-1149.143247
225.387090,-1406.391290,-9992.780217,-1608.800546
225.387412,-2146.597232,-10362.883188,-995.924147
225.387734,-2738.761985,-9918.759623,-842.705048
225.388056,-3034.844362,-9548.656652,-1225.752797
225.388379,-2516.700203,-9178.553681,-1608.800546
225.388701,-2368.659014,-9178.553681,-1608.800546
225.389023,-2442.679609,-8956.491898,-1608.800546
225.389345,-2146.597232,-9030.512492,-1532.190996
225.389667,-1998.556043,-9252.574275,-1532.190996
225.389989,-1332.370696,-9474.636058,-1532.190996
225.390311,-1776.494261,-9474.636058,-2068.457845
225.390634,-2368.659014,-9548.656652,-2528.115143
225.390956,-2442.679609,-9474.636058,-2528.115143
225.391278,-2516.700203,-9178.553681,-2757.943793
225.391600,-2294.638420,-8586.388927,-2757.943793
225.391922,-1258.350101,-9474.636058,-2528.115143
225.392244,-814.226536,-9844.739029,-2451.505594
225.392566,-444.123565,-9400.615463,-1685.410096
225.392889,0.000000,-9474.636058,-1532.190996
225.393211,370.102971,-9178.553681,-1302.362347
225.393533,666.185348,-8808.450710,-1072.533697
225.393855,222.061783,-8808.450710,-1149.143247
225.394177,-592.164754,-9030.512492,-1072.533697
225.394499,-740.205942,-9252.574275,-1072.533697
225.394821,-1554.432478,-9548.656652,-1149.143247
225.395144,-1554.432478,-9326.594869,-995.924147
225.395466,-1850.514855,-9474.636058,-995.924147
225.395788,-1998.556043,-9474.636058,-1378.971896
225.396110,-1998.556043,-9030.512492,-1455.581446
225.396432,-1924.535449,-9104.533087,-1838.629195
225.396754,-1258.350101,-9326.594869,-2221.676944
225.397076,-1184.329507,-9548.656652,-1991.848295
225.397399,-1332.370696,-10214.842000,-1762.019645
225.397721,-814.226536,-10362.883188,-1762.019645
225.398043,0.000000,-10584.944971,-1532.190996
225.398365,666.185348,-9844.739029,-1915.238745
225.398687,1110.308913,-9400.615463,-1225.752797
225.399009,1406.391290,-9104.533087,-766.095498
225.399331,1702.473667,-8438.347739,-689.485948
225.399654,1702.473667,-8290.306550,-1149.143247
225.399976,1406.391290,-7920.203579,-1072.533697
225.400298,1554.432478,-7772.162391,-1762.019645
225.400620,1332.370696,-7624.121203,-1838.629195
225.400942,1776.494261,-8808.450710,-1915.238745
225.401264,2146.597232,-9178.553681,-1532.190996
225.401586,2368.659014,-10140.821405,-1302.362347
225.401908,2738.761985,-9992.780217,-1225.752797
225.402231,2664.741391,-10732.986159,-1762.019645
225.402553,1480.411884,-10584.944971,-1762.019645
225.402875,1110.308913,-10288.862594,-1455.581446
225.403197,444.123565,-9844.739029,-1532.190996
225.403519,74.020594,-9474.636058,-1838.629195
225.403841,-222.061783,-9474.636058,-1225.752797
225.404163,-1110.308913,-9400.615463,-919.314598
225.404486,-1332.370696,-9252.574275,-842.705048
225.404808,-1850.514855,-9474.636058,-842.705048
225.405130,-2368.659014,-9474.636058,-842.705048
225.405452,-2368.659014,-9030.512492,-383.047749
225.405774,-2664.741391,-8586.388927,-383.047749
225.406096,-2442.679609,-8142.265362,-1302.362347
225.406418,-2072.576638,-8364.327145,-1532.190996
225.406741,-1628.453072,-8438.347739,-1608.800546
225.407063,-1702.473667,-8586.388927,-2298.286494
225.407385,-1850.514855,-9178.553681,-2221.676944
225.407707,-1924.535449,-10214.842000,-2451.505594
225.408029,-1924.535449,-10362.883188,-2757.943793
225.408351,-2072.576638,-10584.944971,-2987.772442
225.408673,-1628.453072,-9992.780217,-2757.943793
225.408996,-1406.391290,-8956.491898,-2451.505594
225.409318,-518.144159,-8956.491898,-2068.457845
225.409640,74.020594,-8734.430116,-1991.848295
225.409962,444.123565,-9178.553681,-1532.190996
225.410284,74.020594,-9030.512492,-1378.971896
225.410606,-148.041188,-9474.636058,-1378.971896
225.410928,-592.164754,-9400.615463,-1149.143247
225.411251,-888.247130,-9474.636058,-1225.752797
225.411573,-1036.288319,-9400.615463,-1149.143247
225.411895,-1628.453072,-9400.615463,-1378.971896
225.412217,-1924.535449,-9030.512492,-1302.362347
225.412539,-1776.494261,-9104.533087,-1915.238745
225.412861,-1776.494261,-9474.636058,-2068.457845
225.413183,-1702.473667,-9992.780217,-2298.286494
225.413506,-1776.494261,-10362.883188,-2451.505594
225.413828,-1554.432478,-10584.944971,-2145.067394
225.414150,-1258.350101,-10584.944971,-1915.238745
225.414472,-666.185348,-10066.800811,-2298.286494
225.414794,-592.164754,-10140.821405,-2068.457845
225.415116,-222.061783,-9696.697840,-2068.457845
225.415438,296.082377,-9326.594869,-1608.800546
225.415761,1258.350101,-9326.594869,-1378.971896
225.416083,2220.617826,-8660.409521,-1532.190996
225.416405,2368.659014,-7920.203579,-1149.143247
225.416727,2960.823768,-7772.162391,-919.314598
225.417049,3182.885551,-7476.080014,-1072.533697
225.417371,3627.009116,-7624.121203,-1532.190996
225.417693,3256.906145,-8438.347739,-1455.581446
225.418016,2516.700203,-8882.471304,-919.314598
225.418338,2220.617826,-9474.636058,-1302.362347
225.418660,1924.535449,-9918.759623,-1302.362347
225.418982,1850.514855,-10066.800811,-1455.581446
225.419304,1184.329507,-9918.759623,-842.705048
225.419626,666.185348,-9474.636058,-766.095498
225.419948,148.041188,-9400.615463,-1225.752797
225.420271,-444.123565,-9474.636058,-1225.752797
225.420593,-1258.350101,-9326.594869,-1072.533697
225.420915,-2146.597232,-9252.574275,-383.047749
225.421237,-2886.803174,-9030.512492,-995.924147
225.421559,-2812.782580,-9326.594869,-1608.800546
225.421881,-2516.700203,-9770.718434,-1455.581446
225.422203,-2294.638420,-9770.718434,-1149.143247
225.422526,-2294.638420,-9474.636058,-919.314598
225.422848,-1850.514855,-9400.615463,-1378.971896
225.423170,-1850.514855,-9178.553681,-1915.238745
225.423492,-1480.411884,-9548.656652,-1991.848295
225.423814,-1332.370696,-9548.656652,-2145.067394
225.424136,-1628.453072,-9474.636058,-2145.067394
225.424458,-1628.453072,-9474.636058,-1838.629195
225.424781,-1406.391290,-9030.512492,-2604.724693
225.425103,-1332.370696,-9326.594869,-2374.896044
225.425425,-1036.288319,-9696.697840,-2528.115143
225.425747,-740.205942,-9770.718434,-2451.505594
225.426069,-444.123565,-9548.656652,-1991.848295
225.426391,-518.144159,-9326.594869,-1225.752797
225.426713,370.102971,-9474.636058,-1225.752797
225.427035,370.102971,-9474.636058,-1762.019645
225.427358,0.000000,-9252.574275,-1302.362347
225.427680,-814.226536,-8956.491898,-766.095498
225.428002,-1776.494261,-9104.533087,-842.705048
225.428324,-2368.659014,-8734.430116,-1149.143247
225.428646,-2812.782580,-9326.594869,-1302.362347
225.428968,-3256.906145,-9400.615463,-1608.800546
225.429290,-3478.967927,-9030.512492,-1838.629195
225.429613,-3627.009116,-9178.553681,-1225.752797
225.429935,-2516.700203,-9178.553681,-2298.286494
225.430257,-1850.514855,-9474.636058,-2221.676944
225.430579,-1110.308913,-9622.677246,-2451.505594
225.430901,-666.185348,-9844.739029,-2374.896044
225.431223,-296.082377,-10362.883188,-2068.457845
225.431545,518.144159,-10140.821405,-2068.457845
225.431868,888.247130,-10140.821405,-1838.629195
225.432190,1258.350101,-9622.677246,-1991.848295
225.432512,1554.432478,-9178.553681,-1915.238745
225.432834,1998.556043,-8808.450710,-1455.581446
225.433156,2442.679609,-7920.203579,-1302.362347
225.433478,2590.720797,-7550.100608,-536.266849
225.433800,2812.782580,-7550.100608,-1455.581446
225.434123,2664.741391,-7772.162391,-1378.971896
225.434445,2368.659014,-8586.388927,-1378.971896
225.434767,1924.535449,-9326.594869,-1532.190996
225.435089,2294.638420,-9696.697840,-1685.410096
225.435411,1480.411884,-10066.800811,-1915.238745
225.435733,1184.329507,-10140.821405,-1915.238745
225.436055,444.123565,-10362.883188,-1455.581446
225.436378,0.000000,-10362.883188,-1608.800546
225.436700,-148.041188,-9548.656652,-2068.457845
225.437022,-1036.288319,-9622.677246,-2145.067394
225.437344,-1702.473667,-9622.677246,-1838.629195
225.437666,-2294.638420,-9474.636058,-1225.752797
225.437988,-2812.782580,-9474.636058,-1302.362347
225.438310,-2738.761985,-9474.636058,-1455.581446
225.438633,-2220.617826,-9474.636058,-1455.581446
225.438955,-2220.617826,-9178.553681,-1455.581446
225.439277,-1924.535449,-8660.409521,-1455.581446
225.439599,-1406.391290,-9030.512492,-1455.581446
225.439921,-888.247130,-8956.491898,-1378.971896
225.440243,0.000000,-9178.553681,-1762.019645
225.440565,-666.185348,-8882.471304,-1762.019645
225.440888,-666.185348,-9030.512492,-2145.067394
225.441210,-592.164754,-9474.636058,-2451.505594
225.441532,-518.144159,-9548.656652,-2068.457845
225.441854,-296.082377,-9770.718434,-1685.410096
225.442176,-740.205942,-9548.656652,-1532.190996
225.442498,-296.082377,-9326.594869,-1762.019645
225.442820,0.000000,-9104.533087,-1532.190996
225.443143,0.000000,-8882.471304,-1608.800546
225.443465,0.000000,-8734.430116,-1302.362347
225.443787,0.000000,-8586.388927,-1302.362347
225.444109,-740.205942,-8734.430116,-1455.581446
225.444431,-1258.350101,-9252.574275,-842.705048
225.444753,-2072.576638,-9622.677246,-1149.143247
225.445075,-2294.638420,-9696.697840,-1685.410096
225.445398,-2146.597232,-9622.677246,-1762.019645
225.445720,-2368.659014,-9104.533087,-1608.800546
225.446042,-2072.576638,-9178.553681,-1762.019645
225.446364,-1850.514855,-9548.656652,-2068.457845
225.446686,-1628.453072,-9696.697840,-2221.676944
225.447008,-1258.350101,-10140.821405,-2298.286494
225.447330,-814.226536,-10658.965565,-2374.896044
225.447653,-518.144159,-10807.006753,-2068.457845
225.447975,-296.082377,-10658.965565,-1608.800546
225.448297,370.102971,-10288.862594,-1072.533697
225.448619,1554.432478,-9474.636058,-1532.190996
225.448941,2368.659014,-9030.512492,-1685.410096
225.449263,2886.803174,-8364.327145,-1225.752797
225.449585,3108.864956,-7698.141797,-1072.533697
225.449908,3108.864956,-7772.162391,-1149.143247
225.450230,3108.864956,-8290.306550,-1072.533697
225.450552,3330.926739,-8882.471304,-1532.190996
225.450874,2812.782580,-8586.388927,-1378.971896
225.451196,2368.659014,-9252.574275,-1608.800546
225.451518,1850.514855,-9770.718434,-1455.581446
225.451840,1554.432478,-9696.697840,-1608.800546
225.452162,962.267725,-9400.615463,-1608.800546
225.452485,444.123565,-9326.594869,-1455.581446
225.452807,0.000000,-9400.615463,-1608.800546
225.453129,-740.205942,-9548.656652,-2145.067394
225.453451,-1480.411884,-9770.718434,-1608.800546
225.453773,-1776.494261,-10066.800811,-1225.752797
225.454095,-2442.679609,-9918.759623,-1072.533697
225.454417,-2664.741391,-9474.636058,-766.095498
225.454740,-2886.803174,-9622.677246,-1455.581446
225.455062,-2368.659014,-9474.636058,-1455.581446
225.455384,-2294.638420,-9548.656652,-1302.362347
225.455706,-2146.597232,-8956.491898,-612.876398
225.456028,-1850.514855,-8660.409521,-842.705048
225.456350,-1184.329507,-8956.491898,-1378.971896
225.456672,-740.205942,-9178.553681,-1532.190996
225.456995,-370.102971,-9178.553681,-1991.848295
225.457317,-888.247130,-9252.574275,-2068.457845
225.457639,-740.205942,-9474.636058,-2451.505594
225.457961,-740.205942,-9326.594869,-2068.457845
225.458283,-888.247130,-9474.636058,-2374.896044
225.458605,-888.247130,-9326.594869,-2374.896044
225.458927,-370.102971,-9474.636058,-2451.505594
225.459250,-740.205942,-8882.471304,-2068.457845
225.459572,-296.082377,-8734.430116,-1532.190996
225.459894,-518.144159,-9030.512492,-1225.752797
225.460216,-814.226536,-9030.512492,-1532.190996
225.460538,-1036.288319,-9178.553681,-1608.800546
225.460860,-2146.597232,-9770.718434,-1608.800546
225.461182,-2442.679609,-9474.636058,-1608.800546
225.461505,-2886.803174,-9622.677246,-1378.971896
225.461827,-3034.844362,-9622.677246,-1532.190996
225.462149,-2960.823768,-9252.574275,-1378.971896
225.462471,-2590.720797,-9326.594869,-1762.019645
225.462793,-2368.659014,-9104.533087,-2221.676944
225.463115,-1924.535449,-9474.636058,-1838.629195
225.463437,-1258.350101,-9844.739029,-1915.238745
225.463760,-666.185348,-10066.800811,-1838.629195
225.464082,-370.102971,-10214.842000,-1608.800546
225.464404,370.102971,-10584.944971,-1608.800546
225.464726,814.226536,-10140.821405,-1455.581446
225.465048,1924.535449,-10140.821405,-1608.800546
225.465370,2442.679609,-9474.636058,-1225.752797
225.465692,2886.803174,-8956.491898,-536.266849
225.466015,2886.803174,-8438.347739,-842.705048
225.466337,3182.885551,-8512.368333,-536.266849
225.466659,2664.741391,-7846.182985,-1072.533697
225.466981,2294.638420,-7624.121203,-1532.190996
225.467303,1702.473667,-8068.244768,-1378.971896
225.467625,1184.329507,-8808.450710,-1532.190996
225.467947,1036.288319,-8956.491898,-1685.410096
225.468270,1184.329507,-9622.677246,-1532.190996
225.468592,1184.329507,-9918.759623,-1991.848295
225.468915,962.267725,-9622.677246,-1838.629195
225.469237,518.144159,-9992.780217,-1762.019645
225.469560,0.000000,-10140.821405,-1915.238745
225.469882,-444.123565,-10288.862594,-1685.410096
225.470204,-1332.370696,-10214.842000,-1455.581446
225.470527,-1998.556043,-9992.780217,-1608.800546
225.470849,-2368.659014,-10288.862594,-1302.362347
225.471172,-2368.659014,-9918.759623,-1149.143247
225.471494,-2146.597232,-9178.553681,0.000000
225.471817,-1702.473667,-9400.615463,-153.219100
225.472139,-1258.350101,-8734.430116,-306.438199
225.472461,-1036.288319,-8216.285956,-842.705048
225.472784,-666.185348,-8364.327145,-1072.533697
225.473106,-592.164754,-8512.368333,-1838.629195
225.473429,-296.082377,-8808.450710,-1532.190996
225.473751,-296.082377,-9474.636058,-1915.238745
225.474073,-222.061783,-9992.780217,-1532.190996
225.474396,-666.185348,-10362.883188,-1762.019645
225.474718,-962.267725,-10140.821405,-2068.457845
225.475041,-1332.370696,-9770.718434,-2757.943793
225.475363,-1332.370696,-9770.718434,-2451.505594
225.475686,-1332.370696,-9252.574275,-2451.505594
225.476008,-1702.473667,-9104.533087,-2221.676944
225.476330,-1480.411884,-8734.430116,-1762.019645
225.476653,-1406.391290,-8586.388927,-1608.800546
225.476975,-1332.370696,-8660.409521,-1915.238745
225.477298,-1258.350101,-8660.409521,-2221.676944
225.477620,-1702.473667,-9178.553681,-1915.238745
225.477943,-1998.556043,-9548.656652,-1455.581446
225.478265,-1924.535449,-9548.656652,-1149.143247
225.478587,-1924.535449,-9326.594869,-995.924147
225.478910,-1554.432478,-9400.615463,-1991.848295
225.479232,-1406.391290,-9326.594869,-1991.848295
225.479555,-1258.350101,-9030.512492,-2145.067394
225.479877,-740.205942,-9474.636058,-2145.067394
225.480200,-666.185348,-9992.780217,-1685.410096
225.480522,-148.041188,-10436.903782,-2068.457845
225.480844,370.102971,-11029.068536,-1838.629195
225.481167,444.123565,-10955.047942,-1302.362347
225.481489,1036.288319,-10658.965565,-1455.581446
225.481812,1776.494261,-9992.780217,-842.705048
225.482134,2590.720797,-8882.471304,-842.705048
225.482457,2812.782580,-7994.224174,-766.095498
225.482779,2886.803174,-7772.162391,-995.924147
225.483101,2738.761985,-7105.977043,-919.314598
225.483424,2442.679609,-7328.038826,-1225.752797
225.483746,1998.556043,-7920.203579,-1762.019645
225.484069,2220.617826,-8364.327145,-1915.238745
225.484391,1554.432478,-8660.409521,-1991.848295
225.484714,1776.494261,-9326.594869,-1685.410096
225.485036,1776.494261,-9696.697840,-1762.019645
225.485358,1480.411884,-9918.759623,-2145.067394
225.485681,814.226536,-9474.636058,-1762.019645
225.486003,0.000000,-9992.780217,-1915.238745
225.486326,-518.144159,-10362.883188,-1915.238745
225.486648,-1036.288319,-10436.903782,-1991.848295
225.486971,-1110.308913,-10362.883188,-1532.190996
225.487293,-1554.432478,-9992.780217,-536.266849
225.487615,-1480.411884,-9770.718434,-383.047749
225.487938,-1628.453072,-9252.574275,-612.876398
225.488260,-1406.391290,-8660.409521,-689.485948
225.488583,-1184.329507,-8956.491898,-842.705048
225.488905,-740.205942,-9178.553681,-383.047749
225.489227,-1036.288319,-8734.430116,-459.657299
225.489550,-1036.288319,-8734.430116,-689.485948
225.489872,-888.247130,-9030.512492,-1378.971896
225.490195,-592.164754,-9474.636058,-1685.410096
225.490517,-962.267725,-9844.739029,-2451.505594
225.490840,-1702.473667,-9400.615463,-1838.629195
225.491162,-1998.556043,-9992.780217,-2374.896044
225.491484,-2368.659014,-10214.842000,-2528.115143
225.491807,-2442.679609,-10066.800811,-2604.724693
225.492129,-2812.782580,-9474.636058,-2604.724693
225.492452,-2590.720797,-8734.430116,-2604.724693
225.492774,-2220.617826,-9104.533087,-2145.067394
225.493097,-2072.576638,-9178.553681,-1762.019645
225.493419,-2072.576638,-9178.553681,-1378.971896
225.493741,-1998.556043,-9548.656652,-1378.971896
225.494064,-2368.659014,-9400.615463,-1378.971896
225.494386,-2220.617826,-9474.636058,-1225.752797
225.494709,-2368.659014,-9474.636058,-1225.752797
225.495031,-2368.659014,-9178.553681,-1838.629195
225.495354,-2146.597232,-9252.574275,-1532.190996
225.495676,-1258.350101,-9252.574275,-1225.752797
225.495998,-1184.329507,-8882.471304,-1378.971896
225.496321,-1036.288319,-9400.615463,-2451.505594
225.496643,-666.185348,-9918.759623,-2221.676944
225.496966,-222.061783,-10288.862594,-1762.019645
225.497288,74.020594,-10436.903782,-1685.410096
225.497611,444.123565,-9770.718434,-1991.848295
225.497933,962.267725,-10214.842000,-1762.019645
225.498255,1406.391290,-9622.677246,-1302.362347
225.498578,1628.453072,-9252.574275,-1225.752797
225.498900,1554.432478,-8586.388927,-995.924147
225.499223,1924.535449,-7846.182985,-1378.971896
225.499545,1850.514855,-7254.018232,-1608.800546
225.499868,1628.453072,-7254.018232,-1455.581446
225.500190,1406.391290,-7105.977043,-1378.971896
225.500512,1036.288319,-7846.182985,-1915.238745
225.500835,296.082377,-8216.285956,-1762.019645
225.501157,296.082377,-8734.430116,-1302.362347
225.501480,74.020594,-9548.656652,-1915.238745
225.501802,148.041188,-9992.780217,-2451.505594
225.502125,592.164754,-10288.862594,-2451.505594
225.502447,962.267725,-10584.944971,-1991.848295
225.502769,1258.350101,-10510.924376,-1532.190996
225.503092,740.205942,-10140.821405,-1225.752797
225.503414,518.144159,-10066.800811,-1378.971896
225.503737,222.061783,-10066.800811,-1225.752797
225.504059,-148.041188,-10140.821405,-1225.752797
225.504381,-518.144159,-9474.636058,-766.095498
225.504704,-1110.308913,-9104.533087,-383.047749
225.505026,-888.247130,-9030.512492,-766.095498
225.505349,-962.267725,-9030.512492,-536.266849
225.505671,-740.205942,-9178.553681,-995.924147
225.505994,-518.144159,-8734.430116,-1149.143247
225.506316,0.000000,-9030.512492,-1302.362347
225.506638,-296.082377,-9104.533087,-1685.410096
225.506961,-518.144159,-9178.553681,-1532.190996
225.507283,-962.267725,-9622.677246,-1838.629195
225.507606,-1628.453072,-9548.656652,-2068.457845
225.507928,-1850.514855,-9918.759623,-2911.162892
225.508251,-2294.638420,-9770.718434,-2298.286494
225.508573,-2442.679609,-9400.615463,-2528.115143
225.508895,-2442.679609,-9474.636058,-2298.286494
225.509218,-2442.679609,-8882.471304,-2145.067394
225.509540,-2072.576638,-8660.409521,-1608.800546
225.509863,-1924.535449,-8438.347739,-1455.581446
225.510185,-1406.391290,-8512.368333,-1838.629195
225.510508,-1110.308913,-8660.409521,-1915.238745
225.510830,-1406.391290,-9030.512492,-1685.410096
225.511152,-1258.350101,-9474.636058,-1225.752797
225.511475,-1184.329507,-9918.759623,-766.095498
225.511797,-962.267725,-10066.800811,-1149.143247
225.512120,-962.267725,-9770.718434,-1532.190996
225.512442,-666.185348,-10066.800811,-1838.629195
225.512765,-592.164754,-9696.697840,-1532.190996
225.513087,-148.041188,-9696.697840,-1608.800546
225.513409,-370.102971,-9474.636058,-1915.238745
225.513732,0.000000,-9918.759623,-1838.629195
225.514054,296.082377,-10362.883188,-1838.629195
225.514377,518.144159,-10436.903782,-1608.800546
225.514699,888.247130,-10807.006753,-1149.143247
225.515022,1184.329507,-10362.883188,-1072.533697
225.515344,1406.391290,-9622.677246,-1149.143247
225.515666,1702.473667,-8882.471304,-766.095498
225.515989,1924.535449,-8216.285956,-1378.971896
225.516311,1998.556043,-7328.038826,-1302.362347
225.516634,2072.576638,-7179.997637,-1915.238745
225.516956,1628.453072,-7031.956449,-1225.752797
225.517279,1406.391290,-7772.162391,-1608.800546
225.517601,888.247130,-8586.388927,-1991.848295
225.517923,444.123565,-9474.636058,-1991.848295
225.518246,518.144159,-9844.739029,-2298.286494
225.518568,74.020594,-9770.718434,-2451.505594
225.518891,518.144159,-9696.697840,-2221.676944
225.519213,148.041188,-9770.718434,-1915.238745
225.519535,74.020594,-9696.697840,-1762.019645
225.519858,0.000000,-9844.739029,-1608.800546
225.520180,-444.123565,-9844.739029,-1838.629195
225.520503,-666.185348,-10214.842000,-1378.971896
225.520825,-1258.350101,-9992.780217,-766.095498
225.521148,-1480.411884,-9252.574275,-612.876398
225.521470,-1184.329507,-9178.553681,-995.924147
225.521792,-592.164754,-9030.512492,-1302.362347
225.522115,-222.061783,-8586.388927,-766.095498
225.522437,-518.144159,-8808.450710,-459.657299
225.522760,-962.267725,-8512.368333,-919.314598
225.523082,-962.267725,-9030.512492,-1378.971896
225.523405,-962.267725,-9178.553681,-1685.410096
225.523727,-1628.453072,-9178.553681,-1838.629195
225.524049,-2220.617826,-9400.615463,-2528.115143
225.524372,-2664.741391,-9696.697840,-2757.943793
225.524694,-3034.844362,-9326.594869,-2834.553343
225.525017,-2960.823768,-9696.697840,-2911.162892
225.525339,-2960.823768,-9770.718434,-3140.991542
225.525662,-2886.803174,-9178.553681,-2987.772442
225.525984,-2516.700203,-9622.677246,-2604.724693
225.526306,-1924.535449,-9104.533087,-2221.676944
225.526629,-1406.391290,-9252.574275,-1608.800546
225.526951,-1110.308913,-9474.636058,-1762.019645
225.527274,-592.164754,-9104.533087,-1378.971896
225.527596,-962.267725,-9474.636058,-1302.362347
225.527919,-1332.370696,-9696.697840,-1302.362347
225.528241,-1332.370696,-9770.718434,-1378.971896
225.528563,-1258.350101,-10140.821405,-1072.533697
225.528886,-888.247130,-9474.636058,-612.876398
225.529208,-592.164754,-9622.677246,-1302.362347
225.529531,-666.185348,-9252.574275,-1302.362347
225.529853,-296.082377,-9252.574275,-1455.581446
225.530176,0.000000,-9696.697840,-1455.581446
225.530498,370.102971,-9474.636058,-1532.190996
225.530820,296.082377,-9918.759623,-1455.581446
225.531143,370.102971,-10214.842000,-1455.581446
225.531465,814.226536,-10288.862594,-1302.362347
225.531788,1258.350101,-10066.800811,-1149.143247
225.532110,1554.432478,-9252.574275,-1302.362347
225.532433,1480.411884,-8068.244768,-1149.143247
225.532755,1480.411884,-7994.224174,-1455.581446
225.533077,1110.308913,-7328.038826,-1378.971896
225.533400,740.205942,-7402.059420,-1532.190996
225.533722,518.144159,-7698.141797,-1685.410096
225.534045,370.102971,-8438.347739,-1378.971896
225.534367,148.041188,-8660.409521,-1532.190996
225.534689,222.061783,-9252.574275,-1302.362347
225.535012,592.164754,-9548.656652,-1378.971896
225.535334,888.247130,-9844.739029,-1455.581446
225.535657,1184.329507,-9474.636058,-1532.190996
225.535979,888.247130,-9622.677246,-1149.143247
225.536302,888.247130,-10214.842000,-1302.362347
225.536624,666.185348,-10066.800811,-1225.752797
225.536946,592.164754,-10288.862594,-1072.533697
225.537269,0.000000,-9844.739029,-689.485948
225.537591,-444.123565,-9770.718434,-919.314598
225.537914,-814.226536,-9474.636058,-1378.971896
225.538236,-888.247130,-9622.677246,-1149.143247
225.538559,-962.267725,-9622.677246,-842.705048
225.538881,-814.226536,-9400.615463,-919.314598
225.539203,-740.205942,-9104.533087,-1149.143247
225.539526,-888.247130,-9104.533087,-1838.629195
225.539848,-592.164754,-8808.450710,-1532.190996
225.540171,-370.102971,-8734.430116,-1762.019645
225.540493,-1184.329507,-8882.471304,-1991.848295
225.540816,-1480.411884,-9326.594869,-2451.505594
225.541138,-2294.638420,-9252.574275,-1991.848295
225.541460,-2960.823768,-9178.553681,-2451.505594
225.541783,-3330.926739,-9104.533087,-2604.724693
225.542105,-3404.947333,-9326.594869,-2834.553343
225.542428,-3034.844362,-8734.430116,-2834.553343
225.542750,-2664.741391,-8808.450710,-2451.505594
225.543073,-2220.617826,-8512.368333,-2145.067394
225.543395,-1480.411884,-8734.430116,-1838.629195
225.543717,-962.267725,-9178.553681,-2145.067394
225.544040,-888.247130,-9474.636058,-2374.896044
225.544362,-888.247130,-9622.677246,-1838.629195
225.544685,-1036.288319,-9918.759623,-1532.190996
225.545007,-888.247130,-10140.821405,-1762.019645
225.545330,-740.205942,-9992.780217,-1991.848295
225.545652,-518.144159,-9548.656652,-1762.019645
225.545974,-296.082377,-9178.553681,-1991.848295
225.546297,0.000000,-9326.594869,-1149.143247
225.546619,222.061783,-9474.636058,-1838.629195
225.546942,444.123565,-10066.800811,-1838.629195
225.547264,444.123565,-10214.842000,-1378.971896
225.547587,592.164754,-10214.842000,-1455.581446
225.547909,592.164754,-10214.842000,-1225.752797
225.548231,814.226536,-10140.821405,-1149.143247
225.548554,1554.432478,-9548.656652,-995.924147
225.548876,1850.514855,-8808.450710,-1302.362347
225.549199,2220.617826,-7994.224174,-1149.143247
225.549521,2294.638420,-7550.100608,-1608.800546
225.549844,1850.514855,-7772.162391,-1532.190996
225.550166,1702.473667,-8142.265362,-1302.362347
225.550488,962.267725,-8512.368333,-1991.848295
225.550811,814.226536,-8808.450710,-1991.848295
225.551133,666.185348,-9178.553681,-1915.238745
225.551456,0.000000,-8956.491898,-1302.362347
225.551778,518.144159,-9252.574275,-1762.019645
225.552100,592.164754,-9400.615463,-1762.019645
225.552423,370.102971,-9474.636058,-1762.019645
225.552745,74.020594,-9622.677246,-1378.971896
225.553068,-148.041188,-9622.677246,-689.485948
225.553390,-370.102971,-9770.718434,-842.705048
225.553713,-444.123565,-10436.903782,-919.314598
225.554035,-814.226536,-10362.883188,-536.266849
225.554357,-666.185348,-9844.739029,-459.657299
225.554680,-666.185348,-9918.759623,-536.266849
225.555002,0.000000,-9474.636058,-1072.533697
225.555325,-148.041188,-9622.677246,-919.314598
225.555647,0.000000,-9474.636058,-536.266849
225.555970,-592.164754,-8956.491898,-459.657299
225.556292,-888.247130,-9030.512492,-919.314598
225.556614,-1036.288319,-8882.471304,-1302.362347
225.556937,-1184.329507,-8956.491898,-1991.848295
225.557259,-1998.556043,-9326.594869,-1915.238745
225.557582,-2738.761985,-8956.491898,-2298.286494
225.557904,-3330.926739,-8808.450710,-2528.115143
225.558227,-3108.864956,-9252.574275,-3370.820191
225.558549,-3330.926739,-9178.553681,-2911.162892
225.558871,-3330.926739,-9474.636058,-2681.334243
225.559194,-3182.885551,-9104.533087,-2604.724693
225.559516,-2516.700203,-9030.512492,-2221.676944
225.559839,-1998.556043,-9252.574275,-1915.238745
225.560161,-1406.391290,-9252.574275,-1378.971896
225.560484,-1036.288319,-9622.677246,-1991.848295
225.560806,-1110.308913,-9770.718434,-1838.629195
225.561128,-1258.350101,-9696.697840,-1378.971896
225.561451,-1406.391290,-9844.739029,-1608.800546
225.561773,-1332.370696,-9104.533087,-1072.533697
225.562096,-444.123565,-9622.677246,-1455.581446
225.562418,-518.144159,-9474.636058,-1149.143247
225.562741,-370.102971,-8882.471304,-1225.752797
225.563063,0.000000,-9326.594869,-1378.971896
225.563385,148.041188,-9548.656652,-1685.410096
225.563708,0.000000,-9770.718434,-1072.533697
225.564030,222.061783,-10140.821405,-1455.581446
225.564353,592.164754,-9992.780217,-1991.848295
225.564675,1036.288319,-10214.842000,-1838.629195
225.564998,1628.453072,-9992.780217,-1608.800546
225.565320,1924.535449,-9474.636058,-1455.581446
225.565642,1628.453072,-8660.409521,-1685.410096
225.565965,1628.453072,-8142.265362,-1608.800546
225.566287,1702.473667,-7920.203579,-2145.067394
225.566610,888.247130,-7772.162391,-2221.676944
225.566932,1036.288319,-7920.203579,-1838.629195
225.567254,740.205942,-7994.224174,-1762.019645
225.567577,592.164754,-8586.388927,-1915.238745
225.567899,740.205942,-9474.636058,-1532.190996
225.568222,518.144159,-9326.594869,-1378.971896
225.568544,666.185348,-9474.636058,-2145.067394
225.568866,1332.370696,-9918.759623,-2221.676944
225.569189,740.205942,-9474.636058,-1762.019645
225.569511,444.123565,-9622.677246,-1302.362347
225.569833,148.041188,-10066.800811,-1302.362347
225.570156,0.000000,-10584.944971,-1225.752797
225.570478,-296.082377,-10584.944971,-612.876398
225.570800,-296.082377,-10584.944971,-1072.533697
225.571123,-444.123565,-10066.800811,-1378.971896
225.571445,-296.082377,-9696.697840,-1225.752797
225.571767,-370.102971,-9474.636058,-689.485948
225.572090,0.000000,-9252.574275,-536.266849
225.572412,-592.164754,-9178.553681,-919.314598
225.572734,-1110.308913,-9178.553681,-1225.752797
225.573057,-888.247130,-9474.636058,-1225.752797
225.573379,-888.247130,-9400.615463,-1378.971896
225.573701,-1036.288319,-9104.533087,-1302.362347
225.574024,-1184.329507,-8512.368333,-995.924147
225.574346,-1850.514855,-8956.491898,-1762.019645
225.574668,-2590.720797,-8734.430116,-1915.238745
225.574991,-3256.906145,-9178.553681,-2221.676944
225.575313,-3849.070898,-8956.491898,-2451.505594
225.575635,-3701.029710,-9400.615463,-2374.896044
225.575958,-3478.967927,-9178.553681,-2451.505594
225.576280,-2442.679609,-9104.533087,-1915.238745
225.576602,-1850.514855,-9252.574275,-1225.752797
225.576925,-1184.329507,-9252.574275,-1378.971896
225.577247,-814.226536,-9178.553681,-1455.581446
225.577569,-1110.308913,-9474.636058,-2298.286494
225.577892,-1332.370696,-9918.759623,-1455.581446
225.578214,-1406.391290,-9844.739029,-1608.800546
225.578536,-1332.370696,-9844.739029,-1685.410096
225.578859,-962.267725,-9474.636058,-1685.410096
225.579181,-296.082377,-9326.594869,-1608.800546
225.579503,-370.102971,-8882.471304,-1302.362347
225.579826,222.061783,-9474.636058,-1302.362347
225.580148,444.123565,-9770.718434,-1608.800546
225.580470,814.226536,-9918.759623,-1838.629195
225.580793,1036.288319,-10066.800811,-1608.800546
225.581115,1332.370696,-10140.821405,-842.705048
225.581437,1850.514855,-10066.800811,-1455.581446
225.581760,2368.659014,-10066.800811,-1225.752797
225.582082,2664.741391,-9474.636058,-1149.143247
225.582404,2664.741391,-8734.430116,-995.924147
225.582727,2590.720797,-7846.182985,-1225.752797
225.583049,2368.659014,-7254.018232,-1532.190996
225.583371,2072.576638,-7550.100608,-1685.410096
225.583693,1702.473667,-7846.182985,-1685.410096
225.584016,1184.329507,-8216.285956,-1915.238745
225.584338,518.144159,-8512.368333,-2221.676944
225.584660,296.082377,-8660.409521,-1608.800546
225.584983,296.082377,-9696.697840,-1915.238745
225.585305,444.123565,-9770.718434,-2145.067394
225.585627,592.164754,-9770.718434,-1991.848295
225.585950,148.041188,-9844.739029,-1532.190996
225.586272,74.020594,-9474.636058,-1838.629195
225.586594,-370.102971,-9918.759623,-1915.238745
225.586917,-888.247130,-10362.883188,-1762.019645
225.587239,-962.267725,-10214.842000,-1762.019645
225.587561,-1110.308913,-10214.842000,-1225.752797
225.587884,-1110.308913,-9474.636058,-1225.752797
225.588206,-370.102971,-9622.677246,-919.314598
225.588528,-148.041188,-9696.697840,-842.705048
225.588851,0.000000,-9252.574275,-919.314598
225.589173,0.000000,-9474.636058,-1225.752797
225.589495,-592.164754,-9548.656652,-1378.971896
225.589818,-370.102971,-9178.553681,-1455.581446
225.590140,-962.267725,-9178.553681,-1685.410096
225.590462,-1258.350101,-9104.533087,-1685.410096
225.590785,-1554.432478,-9252.574275,-1991.848295
225.591107,-2220.617826,-8956.491898,-2374.896044
225.591429,-2738.761985,-8438.347739,-1838.629195
225.591752,-3256.906145,-9326.594869,-2681.334243
225.592074,-3849.070898,-9326.594869,-2604.724693
225.592396,-3627.009116,-9252.574275,-2911.162892
225.592719,-3552.988522,-9400.615463,-2451.505594
225.593041,-3256.906145,-9474.636058,-1991.848295
225.593363,-2664.741391,-9474.636058,-1455.581446
225.593686,-2368.659014,-9622.677246,-1915.238745
225.594008,-2294.638420,-9770.718434,-1608.800546
225.594330,-2368.659014,-9992.780217,-1149.143247
225.594653,-2442.679609,-9770.718434,-1532.190996
225.594975,-2220.617826,-9104.533087,-1149.143247
225.595297,-1702.473667,-9548.656652,-1302.362347
225.595620,-1258.350101,-9474.636058,-1072.533697
225.595942,-814.226536,-9104.533087,-1072.533697
225.596264,-518.144159,-9030.512492,-1072.533697
225.596587,0.000000,-8956.491898,-1149.143247
225.596909,370.102971,-10066.800811,-1378.971896
225.597231,814.226536,-9844.739029,-1455.581446
225.597554,962.267725,-9844.739029,-1532.190996
225.597876,1110.308913,-9992.780217,-1302.362347
225.598198,1924.535449,-9918.759623,-1532.190996
225.598521,2072.576638,-9696.697840,-1378.971896
225.598843,2146.597232,-8956.491898,-1302.362347
225.599165,1924.535449,-8290.306550,-1455.581446
225.599488,1924.535449,-8290.306550,-1532.190996
225.599810,2072.576638,-8068.244768,-1302.362347
225.600132,1480.411884,-7846.182985,-1302.362347
225.600455,1406.391290,-8142.265362,-1455.581446
225.600777,888.247130,-8512.368333,-1532.190996
225.601099,814.226536,-8882.471304,-1685.410096
225.601422,592.164754,-9252.574275,-1532.190996
225.601744,1036.288319,-9696.697840,-1915.238745
225.602066,666.185348,-9400.615463,-1762.019645
225.602389,962.267725,-9548.656652,-1455.581446
225.602711,888.247130,-9696.697840,-1455.581446
225.603033,518.144159,-9918.759623,-1532.190996
225.603356,148.041188,-9770.718434,-1608.800546
225.603678,74.020594,-9844.739029,-1838.629195
225.604000,-518.144159,-9918.759623,-1378.971896
225.604323,-962.267725,-10066.800811,-1455.581446
225.604645,-962.267725,-9992.780217,-1302.362347
225.604967,-740.205942,-9844.739029,-1302.362347
225.605290,-444.123565,-10066.800811,-766.095498
225.605612,0.000000,-9696.697840,-1378.971896
225.605934,-296.082377,-9030.512492,-995.924147
225.606257,-222.061783,-8956.491898,-1302.362347
225.606579,0.000000,-8956.491898,-1532.190996
225.606901,-296.082377,-8660.409521,-1302.362347
225.607224,-1258.350101,-8734.430116,-1762.019645
225.607546,-2072.576638,-9030.512492,-1838.629195
225.607868,-2812.782580,-9474.636058,-1991.848295
225.608191,-3182.885551,-9474.636058,-2757.943793
225.608513,-3478.967927,-9252.574275,-2834.553343
225.608835,-3997.112087,-9178.553681,-2528.115143
225.609158,-3701.029710,-8586.388927,-2451.505594
225.609480,-3330.926739,-8956.491898,-2374.896044
225.609802,-2738.761985,-9252.574275,-2145.067394
225.610125,-2368.659014,-9474.636058,-2145.067394
225.610447,-1998.556043,-9696.697840,-2145.067394
225.610769,-1776.494261,-9252.574275,-2298.286494
225.611092,-2146.597232,-9918.759623,-1532.190996
225.611414,-2294.638420,-10140.821405,-1378.971896
225.611736,-1998.556043,-9844.739029,-1455.581446
225.612059,-1480.411884,-9474.636058,-995.924147
225.612381,-1110.308913,-9178.553681,-1608.800546
225.612703,-814.226536,-9178.553681,-1455.581446
225.613026,-740.205942,-9400.615463,-1532.190996
225.613348,0.000000,-9548.656652,-1532.190996
225.613670,592.164754,-10288.862594,-1302.362347
225.613992,962.267725,-9918.759623,-1072.533697
225.614315,1480.411884,-10140.821405,-995.924147
225.614637,1924.535449,-10436.903782,-1072.533697
225.614959,2516.700203,-10436.903782,-1072.533697
225.615282,2886.803174,-9918.759623,-689.485948
225.615604,3478.967927,-9104.533087,-1149.143247
225.615926,3108.864956,-7846.182985,-1072.533697
225.616249,2886.803174,-7476.080014,-995.924147
225.616571,2590.720797,-7624.121203,-1225.752797
225.616893,2220.617826,-7772.162391,-1149.143247
225.617216,1258.350101,-8216.285956,-1455.581446
225.617538,592.164754,-7920.203579,-1762.019645
225.617860,222.061783,-8512.368333,-1378.971896
225.618183,222.061783,-9252.574275,-1685.410096
225.618505,370.102971,-9178.553681,-1991.848295
225.618827,444.123565,-9400.615463,-1991.848295
225.619150,370.102971,-9474.636058,-1608.800546
225.619472,74.020594,-9326.594869,-1302.362347
225.619794,-148.041188,-9992.780217,-1532.190996
225.620117,-296.082377,-10362.883188,-1838.629195
225.620439,-592.164754,-10881.027347,-1608.800546
225.620761,-1184.329507,-10955.047942,-766.095498
225.621084,-814.226536,-10214.842000,-689.485948
225.621406,-740.205942,-9474.636058,-689.485948
225.621728,0.000000,-9178.553681,-689.485948
225.622051,222.061783,-8734.430116,-919.314598
225.622373,222.061783,-8586.388927,-842.705048
225.622695,296.082377,-8512.368333,-919.314598
225.623018,-222.061783,-8586.388927,-919.314598
225.623340,-444.123565,-9252.574275,-1455.581446
225.623662,-666.185348,-9474.636058,-1838.629195
225.623985,-1406.391290,-9696.697840,-2145.067394
225.624307,-1702.473667,-9548.656652,-2834.553343
225.624629,-2368.659014,-9104.533087,-2451.505594
225.624952,-3108.864956,-9548.656652,-2987.772442
225.625274,-3330.926739,-9400.615463,-3217.601092
225.625596,-3627.009116,-9622.677246,-3217.601092
225.625919,-3775.050304,-9622.677246,-2834.553343
225.626241,-3404.947333,-9178.553681,-2681.334243
225.626563,-3256.906145,-9400.615463,-2528.115143
225.626886,-3034.844362,-9326.594869,-2451.505594
225.627208,-2812.782580,-9252.574275,-2298.286494
225.627530,-3034.844362,-9474.636058,-1915.238745
225.627853,-2664.741391,-9400.615463,-1685.410096
225.628175,-2812.782580,-9178.553681,-1225.752797
225.628497,-2442.679609,-9548.656652,-1762.019645
225.628820,-1998.556043,-9474.636058,-1378.971896
225.629142,-1406.391290,-9474.636058,-1378.971896
225.629464,-1332.370696,-9178.553681,-1455.581446
225.629787,-592.164754,-9252.574275,-1532.190996
225.630109,0.000000,-10214.842000,-1915.238745
225.630431,444.123565,-10362.883188,-1838.629195
225.630754,592.164754,-10510.924376,-1302.362347
225.631076,962.267725,-10362.883188,-1685.410096
225.631398,1998.556043,-10807.006753,-1378.971896
225.631721,2294.638420,-9844.739029,-995.924147
225.632043,2812.782580,-8956.491898,-1072.533697
225.632365,2664.741391,-8512.368333,-1225.752797
225.632688,2368.659014,-7994.224174,-1302.362347
225.633010,1850.514855,-7698.141797,-1378.971896
225.633332,1258.350101,-7476.080014,-1072.533697
225.633655,592.164754,-7772.162391,-1915.238745
225.633977,444.123565,-8438.347739,-2221.676944
225.634299,370.102971,-8956.491898,-1991.848295
225.634622,740.205942,-8734.430116,-1762.019645
225.634944,1258.350101,-9326.594869,-1532.190996
225.635266,1258.350101,-9770.718434,-1608.800546
225.635589,1184.329507,-9992.780217,-1608.800546
225.635911,592.164754,-10066.800811,-1455.581446
225.636233,518.144159,-10288.862594,-1455.581446
225.636556,0.000000,-10214.842000,-995.924147
225.636878,0.000000,-10436.903782,-1302.362347
225.637200,0.000000,-9770.718434,-919.314598
225.637523,-74.020594,-9474.636058,-383.047749
225.637845,-296.082377,-9178.553681,-612.876398
225.638167,-296.082377,-9030.512492,-1072.533697
225.638490,-518.144159,-8734.430116,-153.219100
225.638812,-444.123565,-9104.533087,-459.657299
225.639134,-518.144159,-8956.491898,-612.876398
225.639457,-518.144159,-9326.594869,-1225.752797
225.639779,148.041188,-9178.553681,-1685.410096
225.640101,444.123565,-8956.491898,-1302.362347
225.640424,0.000000,-9030.512492,-1455.581446
225.640746,-444.123565,-9474.636058,-1685.410096
225.641068,-1332.370696,-9844.739029,-2145.067394
225.641391,-2146.597232,-9770.718434,-2451.505594
225.641713,-3108.864956,-9696.697840,-2451.505594
225.642035,-3108.864956,-9178.553681,-2374.896044
225.642358,-3034.844362,-8660.409521,-2604.724693
225.642680,-2738.761985,-8734.430116,-2298.286494
225.643002,-2294.638420,-8364.327145,-1532.190996
225.643324,-2146.597232,-8290.306550,-1532.190996
225.643647,-1998.556043,-8364.327145,-1991.848295
225.643969,-1628.453072,-8808.450710,-2298.286494
225.644291,-2072.576638,-9622.677246,-1915.238745
225.644614,-2442.679609,-9770.718434,-1378.971896
225.644936,-2516.700203,-9548.656652,-1532.190996
225.645258,-2146.597232,-9844.739029,-2298.286494
225.645581,-1850.514855,-9474.636058,-1915.238745
225.645903,-1554.432478,-9474.636058,-2068.457845
225.646225,-1702.473667,-9326.594869,-2145.067394
225.646548,-1036.288319,-9918.759623,-2298.286494
225.646870,-962.267725,-10140.821405,-1991.848295
225.647192,-296.082377,-10362.883188,-1762.019645
225.647515,148.041188,-10510.924376,-2145.067394
225.647837,740.205942,-10732.986159,-1991.848295
225.648159,1776.494261,-10658.965565,-1608.800546
225.648482,2590.720797,-10140.821405,-919.314598
225.648804,3256.906145,-9400.615463,-306.438199
225.649126,3997.112087,-8216.285956,-995.924147
225.649449,3627.009116,-7698.141797,-1072.533697
225.649771,3627.009116,-7254.018232,-1225.752797
225.650093,2812.782580,-7476.080014,-1225.752797
225.650416,1998.556043,-7846.182985,-1455.581446
225.650738,1480.411884,-8438.347739,-1532.190996
225.651060,814.226536,-9104.533087,-1455.581446
225.651383,370.102971,-9104.533087,-1685.410096
225.651705,222.061783,-9548.656652,-1991.848295
225.652027,592.164754,-10066.800811,-1762.019645
225.652350,-296.082377,-9474.636058,-2068.457845
225.652672,-666.185348,-10140.821405,-2068.457845
225.652994,-1258.350101,-10362.883188,-2068.457845
225.653317,-1628.453072,-10362.883188,-1838.629195
225.653639,-1702.473667,-10436.903782,-2298.286494
225.653961,-1406.391290,-10066.800811,-2528.115143
225.654284,-1554.432478,-9992.780217,-1378.971896
225.654606,-1332.370696,-9474.636058,-842.705048
225.654928,-666.185348,-9400.615463,-766.095498
225.655251,-222.061783,-9326.594869,-689.485948
225.655573,0.000000,-9326.594869,-766.095498
225.655895,222.061783,-8956.491898,-689.485948
225.656218,0.000000,-8956.491898,-689.485948
225.656540,148.041188,-8586.388927,-766.095498
225.656862,370.102971,-8808.450710,-919.314598
225.657185,0.000000,-8808.450710,-919.314598
225.657507,-592.164754,-8660.409521,-995.924147
225.657829,-1406.391290,-8956.491898,-1762.019645
225.658152,-1998.556043,-9326.594869,-2068.457845
225.658474,-2442.679609,-9326.594869,-2221.676944
225.658796,-2738.761985,-9918.759623,-2451.505594
225.659119,-2812.782580,-9178.553681,-1991.848295
225.659441,-3182.885551,-9178.553681,-2374.896044
225.659763,-2886.803174,-9622.677246,-1915.238745
225.660086,-2738.761985,-9696.697840,-1991.848295
225.660408,-2664.741391,-9474.636058,-1685.410096
225.660730,-2886.803174,-8882.471304,-2145.067394
225.661053,-2886.803174,-9178.553681,-919.314598
225.661375,-2664.741391,-9326.594869,-1685.410096
225.661697,-2442.679609,-8882.471304,-1685.410096
225.662020,-2146.597232,-9252.574275,-1455.581446
225.662342,-1924.535449,-9104.533087,-1225.752797
225.662664,-1702.473667,-9030.512492,-536.266849
225.662987,-740.205942,-9252.574275,-1762.019645
225.663309,-222.061783,-9474.636058,-1685.410096
225.663631,222.061783,-9992.780217,-1378.971896
225.663954,444.123565,-9992.780217,-1608.800546
225.664276,1258.350101,-10066.800811,-1608.800546
225.664598,1850.514855,-10436.903782,-1532.190996
225.664921,2146.597232,-10362.883188,-1225.752797
225.665243,2516.700203,-9770.718434,-995.924147
225.665565,2516.700203,-9104.533087,-1378.971896
225.665888,2886.803174,-8216.285956,-1149.143247
225.666210,3182.885551,-7920.203579,-1685.410096
225.666532,2886.803174,-8068.244768,-1685.410096
225.666855,2072.576638,-7846.182985,-1608.800546
225.667177,1258.350101,-8290.306550,-1685.410096
225.667499,740.205942,-8586.388927,-1762.019645
225.667822,370.102971,-8956.491898,-1532.190996
225.668136,444.123565,-9844.739029,-2221.676944
225.668458,296.082377,-9770.718434,-1762.019645
225.668781,222.061783,-9770.718434,-1991.848295
225.669103,296.082377,-9474.636058,-1991.848295
225.669426,222.061783,-9548.656652,-1838.629195
225.669748,0.000000,-9844.739029,-2068.457845
225.670071,-370.102971,-10140.821405,-1762.019645
225.670393,-814.226536,-10288.862594,-1608.800546
225.670716,-1110.308913,-10288.862594,-1762.019645
225.671038,-1258.350101,-9992.780217,-1532.190996
225.671361,-1110.308913,-9474.636058,-995.924147
225.671683,-518.144159,-9696.697840,-1532.190996
225.672006,0.000000,-9548.656652,-1149.143247
225.672328,148.041188,-9252.574275,-1149.143247
225.672651,0.000000,-9104.533087,-995.924147
225.672973,74.020594,-9030.512492,-1378.971896
225.673296,444.123565,-9622.677246,-1225.752797
225.673618,0.000000,-9030.512492,-1685.410096
225.673940,-444.123565,-8956.491898,-1915.238745
225.674263,-1110.308913,-8808.450710,-1915.238745
225.674585,-1850.514855,-9030.512492,-2298.286494
225.674908,-2516.700203,-9252.574275,-2068.457845
225.675230,-2960.823768,-9326.594869,-2068.457845
225.675553,-3182.885551,-9548.656652,-2374.896044
225.675875,-3330.926739,-9178.553681,-2451.505594
225.676198,-3108.864956,-8956.491898,-2221.676944
225.676520,-2516.700203,-9252.574275,-1915.238745
225.676843,-1998.556043,-9030.512492,-1991.848295
225.677165,-1850.514855,-9104.533087,-2145.067394
225.677488,-2072.576638,-9474.636058,-1915.238745
225.677810,-1998.556043,-9770.718434,-1302.362347
225.678133,-2294.638420,-10140.821405,-1072.533697
225.678455,-1998.556043,-9992.780217,-1838.629195
225.678778,-1850.514855,-9844.739029,-1302.362347
225.679100,-1406.391290,-9474.636058,-919.314598
225.679423,-888.247130,-8808.450710,-1072.533697
225.679745,-296.082377,-9178.553681,-1302.362347
225.680068,370.102971,-9474.636058,-1225.752797
225.680390,370.102971,-9918.759623,-1149.143247
225.680713,444.123565,-10066.800811,-1225.752797
225.681035,888.247130,-10140.821405,-1149.143247
225.681358,1776.494261,-10362.883188,-1072.533697
225.681680,2590.720797,-10066.800811,-689.485948
225.682002,3701.029710,-9548.656652,-766.095498
225.682325,3330.926739,-8808.450710,-459.657299
225.682647,3552.988522,-7920.203579,-919.314598
225.682970,3256.906145,-7550.100608,-1149.143247
225.683292,2738.761985,-7772.162391,-1149.143247
225.683615,2072.576638,-7476.080014,-995.924147
225.683937,1628.453072,-8808.450710,-1378.971896
225.684260,1110.308913,-8882.471304,-1762.019645
225.684582,740.205942,-9104.533087,-1608.800546
225.684905,74.020594,-9252.574275,-1608.800546
225.685227,0.000000,-8734.430116,-1225.752797
225.685550,0.000000,-9104.533087,-1915.238745
225.685872,-222.061783,-9474.636058,-1991.848295
225.686195,-666.185348,-9548.656652,-1762.019645
225.686517,-1258.350101,-9992.780217,-1915.238745
225.686840,-1184.329507,-10658.965565,-1838.629195
225.687162,-962.267725,-10732.986159,-1838.629195
225.687485,-1480.411884,-10658.965565,-1378.971896
225.687807,-1406.391290,-9770.718434,-995.924147
225.688130,-1332.370696,-9400.615463,-1302.362347
225.688452,-666.185348,-9252.574275,-1608.800546
225.688775,0.000000,-9326.594869,-1225.752797
225.689097,0.000000,-9622.677246,-995.924147
225.689420,0.000000,-9326.594869,-1378.971896
225.689742,222.061783,-9474.636058,-1225.752797
225.690064,74.020594,-9474.636058,-1378.971896
225.690387,-962.267725,-8734.430116,-1608.800546
225.690709,-1184.329507,-8808.450710,-2374.896044
225.691032,-2368.659014,-8808.450710,-2451.505594
225.691354,-2738.761985,-8956.491898,-2987.772442
225.691677,-3182.885551,-9548.656652,-3217.601092
225.691999,-3330.926739,-9622.677246,-3064.381992
225.692322,-3701.029710,-9474.636058,-2681.334243
225.692644,-3330.926739,-9622.677246,-2757.943793
225.692967,-2960.823768,-9548.656652,-2374.896044
225.693289,-2442.679609,-9696.697840,-2374.896044
225.693612,-2368.659014,-9474.636058,-2451.505594
225.693934,-2368.659014,-9104.533087,-2068.457845
225.694257,-2368.659014,-9622.677246,-1991.848295
225.694579,-2220.617826,-9696.697840,-1838.629195
225.694902,-2220.617826,-9770.718434,-1685.410096
225.695224,-2072.576638,-9770.718434,-1302.362347
225.695547,-1776.494261,-9400.615463,-689.485948
225.695869,-814.226536,-9252.574275,-1072.533697
225.696192,-666.185348,-8882.471304,-1149.143247
225.696514,-296.082377,-9030.512492,-1225.752797
225.696837,148.041188,-9474.636058,-1532.190996
225.697159,666.185348,-9696.697840,-995.924147
225.697482,888.247130,-9326.594869,-1532.190996
225.697804,1332.370696,-10066.800811,-1302.362347
225.698126,1998.556043,-10140.821405,-919.314598
225.698449,2516.700203,-10140.821405,-689.485948
225.698771,2664.741391,-9474.636058,-1149.143247
225.699094,2886.803174,-8142.265362,-766.095498
225.699416,2516.700203,-7920.203579,-1378.971896
225.699739,2590.720797,-7698.141797,-1378.971896
225.700061,2220.617826,-8068.244768,-1378.971896
225.700384,1332.370696,-8216.285956,-1378.971896
225.700706,1406.391290,-8808.450710,-1302.362347
225.701029,1184.329507,-9178.553681,-1608.800546
225.701351,592.164754,-9104.533087,-995.924147
225.701674,592.164754,-9474.636058,-1149.143247
225.701996,518.144159,-9178.553681,-1608.800546
225.702319,666.185348,-9252.574275,-1225.752797
225.702641,666.185348,-9030.512492,-919.314598
225.702964,-148.041188,-9548.656652,-1532.190996
225.703286,-370.102971,-9770.718434,-1455.581446
225.703609,-444.123565,-10288.862594,-1685.410096
225.703931,-592.164754,-10510.924376,-1225.752797
225.704254,-888.247130,-9918.759623,-995.924147
225.704576,-740.205942,-9918.759623,-1302.362347
225.704899,-444.123565,-9622.677246,-1225.752797
225.705221,-592.164754,-9622.677246,-1072.533697
225.705544,-444.123565,-9548.656652,-995.924147
225.705866,-444.123565,-9474.636058,-919.314598
225.706188,-592.164754,-9252.574275,-995.924147
225.706511,-370.102971,-9548.656652,-1378.971896
225.706833,-296.082377,-9252.574275,-1378.971896
225.707156,-962.267725,-8956.491898,-1378.971896
225.707478,-1628.453072,-8290.306550,-1455.581446
225.707801,-2368.659014,-8512.368333,-1685.410096
225.708123,-3256.906145,-8438.347739,-2451.505594
225.708446,-3923.091493,-8882.471304,-2604.724693
225.708768,-4293.194464,-9252.574275,-2681.334243
225.709091,-3923.091493,-9400.615463,-2757.943793
225.709413,-3108.864956,-9770.718434,-2757.943793
225.709736,-2368.659014,-9252.574275,-2834.553343
225.710058,-1924.535449,-9474.636058,-2374.896044
225.710381,-1628.453072,-9474.636058,-2451.505594
225.710703,-1702.473667,-9696.697840,-2451.505594
225.711026,-1850.514855,-9918.759623,-1915.238745
225.711348,-1998.556043,-10362.883188,-1685.410096
225.711671,-1998.556043,-9918.759623,-1991.848295
225.711993,-1850.514855,-9844.739029,-1838.629195
225.712316,-1332.370696,-9474.636058,-1378.971896
225.712638,-518.144159,-9400.615463,-1072.533697
225.712961,-296.082377,-9030.512492,-1762.019645
225.713283,0.000000,-8882.471304,-1608.800546
225.713606,0.000000,-9474.636058,-1608.800546
225.713928,370.102971,-9844.739029,-1455.581446
225.714250,592.164754,-10362.883188,-1608.800546
225.714573,1332.370696,-10807.006753,-1378.971896
225.714895,2368.659014,-10732.986159,-1378.971896
225.715218,3404.947333,-10436.903782,-1149.143247
225.715540,3775.050304,-9474.636058,-1225.752797
225.715863,4145.153275,-8586.388927,-1225.752797
225.716185,4145.153275,-8512.368333,-1302.362347
225.716508,3701.029710,-8216.285956,-919.314598
225.716830,2590.720797,-8216.285956,-1378.971896
225.717153,1628.453072,-8216.285956,-1685.410096
225.717475,1258.350101,-8364.327145,-1915.238745
225.717798,592.164754,-8586.388927,-1608.800546
225.718120,814.226536,-9104.533087,-1149.143247
225.718443,518.144159,-8364.327145,-842.705048
225.718765,296.082377,-9104.533087,-1455.581446
225.719088,222.061783,-9252.574275,-1608.800546
225.719410,-370.102971,-9474.636058,-1991.848295
225.719733,-666.185348,-9844.739029,-1762.019645
225.720055,-962.267725,-10362.883188,-1685.410096
225.720378,-1110.308913,-10881.027347,-1685.410096
225.720700,-740.205942,-10510.924376,-1378.971896
225.721023,-740.205942,-10066.800811,-766.095498
225.721345,-888.247130,-9548.656652,-995.924147
225.721667,-740.205942,-8882.471304,-1072.533697
225.721990,-148.041188,-9400.615463,-766.095498
225.722312,-370.102971,-9400.615463,-842.705048
225.722635,-592.164754,-9104.533087,-995.924147
225.722957,-666.185348,-9178.553681,-689.485948
225.723280,-592.164754,-8882.471304,-1149.143247
225.723602,-592.164754,-8216.285956,-766.095498
225.723925,-962.267725,-8808.450710,-1532.190996
225.724247,-1776.494261,-8290.306550,-1838.629195
225.724570,-2664.741391,-8364.327145,-2145.067394
225.724892,-3330.926739,-8808.450710,-2451.505594
225.725215,-3627.009116,-9030.512492,-2451.505594
225.725537,-3923.091493,-9770.718434,-3217.601092
225.725860,-3849.070898,-9474.636058,-3064.381992
225.726182,-3330.926739,-9622.677246,-2604.724693
225.726505,-3108.864956,-9844.739029,-2374.896044
225.726827,-2664.741391,-9696.697840,-1838.629195
225.727150,-2960.823768,-9474.636058,-2298.286494
225.727472,-3256.906145,-9770.718434,-2221.676944
225.727795,-3034.844362,-9548.656652,-2068.457845
225.728117,-3034.844362,-9622.677246,-2451.505594
225.728440,-2516.700203,-8882.471304,-1838.629195
225.728762,-1850.514855,-9474.636058,-1302.362347
225.729085,-1406.391290,-9474.636058,-842.705048
225.729407,-740.205942,-9474.636058,-1072.533697
225.729729,-370.102971,-9696.697840,-1302.362347
225.730052,222.061783,-9474.636058,-1532.190996
225.730374,1110.308913,-9696.697840,-1455.581446
225.730697,740.205942,-9622.677246,-1455.581446
225.731019,1480.411884,-9548.656652,-1685.410096
225.731342,1998.556043,-10140.821405,-1378.971896
225.731664,2590.720797,-9992.780217,-1225.752797
225.731987,2812.782580,-9992.780217,-1302.362347
225.732309,2664.741391,-8882.471304,-1225.752797
225.732632,2738.761985,-9030.512492,-1608.800546
225.732954,2590.720797,-8734.430116,-1608.800546
225.733277,2220.617826,-8364.327145,-1685.410096
225.733599,1702.473667,-7402.059420,-1608.800546
225.733922,1332.370696,-7920.203579,-2068.457845
225.734244,1110.308913,-8586.388927,-1455.581446
225.734567,740.205942,-8956.491898,-1072.533697
225.734889,592.164754,-9474.636058,-995.924147
225.735212,740.205942,-9548.656652,-1378.971896
225.735534,1184.329507,-9474.636058,-1762.019645
225.735857,814.226536,-9104.533087,-1072.533697
225.736179,814.226536,-9548.656652,-1072.533697
225.736502,370.102971,-9474.636058,-1225.752797
225.736824,0.000000,-9844.739029,-1225.752797
225.737147,0.000000,-9770.718434,-1149.143247
225.737469,-518.144159,-10066.800811,-1608.800546
225.737791,-296.082377,-10066.800811,-1608.800546
225.738114,-518.144159,-10066.800811,-1225.752797
225.738436,-296.082377,-9770.718434,-919.314598
225.738759,-222.061783,-9770.718434,-306.438199
225.739081,-222.061783,-9770.718434,-689.485948
225.739404,-1258.350101,-9252.574275,-842.705048
225.739726,-1110.308913,-9252.574275,-1225.752797
225.740049,-1036.288319,-9178.553681,-1378.971896
225.740371,-1110.308913,-8660.409521,-1455.581446
225.740694,-1480.411884,-8290.306550,-1225.752797
225.741016,-2146.597232,-8290.306550,-842.705048
225.741339,-2738.761985,-8290.306550,-1915.238745
225.741661,-3256.906145,-9178.553681,-2451.505594
225.741984,-4071.132681,-9326.594869,-2834.553343
225.742306,-4071.132681,-9400.615463,-3064.381992
225.742629,-3775.050304,-9400.615463,-2987.772442
225.742951,-3256.906145,-9326.594869,-2374.896044
225.743274,-2664.741391,-9474.636058,-1991.848295
225.743596,-2220.617826,-9474.636058,-2221.676944
225.743919,-1850.514855,-9474.636058,-2451.505594
225.744241,-2220.617826,-9474.636058,-2681.334243
225.744564,-2368.659014,-9474.636058,-1455.581446
225.744886,-1998.556043,-9622.677246,-1762.019645
225.745209,-1850.514855,-9770.718434,-1915.238745
225.745531,-1332.370696,-9474.636058,-1378.971896
225.745853,-666.185348,-9474.636058,-919.314598
225.746176,-148.041188,-8808.450710,-1072.533697
225.746498,74.020594,-9252.574275,-1685.410096
225.746821,148.041188,-9474.636058,-1685.410096
225.747143,814.226536,-9474.636058,-1378.971896
225.747466,1184.329507,-9696.697840,-1225.752797
225.747788,1850.514855,-9696.697840,-2374.896044
225.748111,2368.659014,-10288.862594,-1685.410096
225.748433,2812.782580,-10436.903782,-1378.971896
225.748756,2960.823768,-9770.718434,-995.924147
225.749078,3404.947333,-9400.615463,-1149.143247
225.749401,3330.926739,-8808.450710,-1762.019645
225.749723,3552.988522,-8216.285956,-1838.629195
225.750046,2812.782580,-7994.224174,-1532.190996
225.750368,2220.617826,-7698.141797,-1762.019645
225.750691,1628.453072,-8142.265362,-1608.800546
225.751013,1110.308913,-8808.450710,-1762.019645
225.751336,888.247130,-9252.574275,-1532.190996
225.751658,296.082377,-9474.636058,-1762.019645
225.751981,296.082377,-9252.574275,-1991.848295
225.752303,666.185348,-9474.636058,-1685.410096
225.752626,666.185348,-9770.718434,-1838.629195
225.752948,444.123565,-10288.862594,-1915.238745
225.753271,0.000000,-10066.800811,-1685.410096
225.753593,-222.061783,-10658.965565,-1532.190996
225.753915,-518.144159,-10807.006753,-1378.971896
225.754238,-740.205942,-10510.924376,-1149.143247
225.754560,-666.185348,-9770.718434,-536.266849
225.754883,-592.164754,-9474.636058,-689.485948
225.755205,-444.123565,-9770.718434,-1072.533697
225.755528,74.020594,-9474.636058,-766.095498
225.755850,0.000000,-9252.574275,-689.485948
225.756173,-518.144159,-8808.450710,0.000000
225.756495,-444.123565,-8512.368333,-612.876398
225.756818,-1036.288319,-8808.450710,-1302.362347
225.757140,-1628.453072,-8660.409521,-1608.800546
225.757463,-2590.720797,-8364.327145,-1915.238745
225.757785,-3552.988522,-8882.471304,-2451.505594
225.758108,-3404.947333,-8956.491898,-2451.505594
225.758430,-4071.132681,-9474.636058,-2451.505594
225.758753,-4293.194464,-9548.656652,-2911.162892
225.759075,-4145.153275,-9400.615463,-2834.553343
225.759398,-3775.050304,-9474.636058,-2374.896044
225.759720,-3034.844362,-9252.574275,-1991.848295
225.760043,-2590.720797,-9918.759623,-2374.896044
225.760365,-2590.720797,-9474.636058,-1991.848295
225.760688,-2368.659014,-9474.636058,-1915.238745
225.761010,-2442.679609,-9474.636058,-1685.410096
225.761332,-2072.576638,-9770.718434,-1149.143247
225.761655,-1702.473667,-9770.718434,-995.924147
225.761977,-1702.473667,-9622.677246,-842.705048
225.762300,-1184.329507,-9326.594869,-766.095498
225.762622,-666.185348,-8882.471304,-995.924147
225.762945,-740.205942,-8734.430116,-1225.752797
225.763267,-444.123565,-8734.430116,-1685.410096
225.763590,0.000000,-9178.553681,-1685.410096
225.763912,222.061783,-9400.615463,-1532.190996
225.764235,666.185348,-9548.656652,-1532.190996
225.764557,1110.308913,-10362.883188,-1685.410096
225.764880,1628.453072,-10140.821405,-1302.362347
225.765202,1850.514855,-9696.697840,-2068.457845
225.765525,2146.597232,-9326.594869,-1915.238745
225.765847,2368.659014,-8734.430116,-2068.457845
225.766170,2368.659014,-8512.368333,-2221.676944
225.766492,2146.597232,-8290.306550,-1991.848295
225.766815,2146.597232,-7846.182985,-1225.752797
225.767137,1184.329507,-8068.244768,-1302.362347
225.767460,1628.453072,-8364.327145,-1762.019645
225.767782,1110.308913,-8882.471304,-1838.629195
225.768105,1184.329507,-9104.533087,-1532.190996
225.768427,1406.391290,-9030.512492,-1149.143247
225.768750,1036.288319,-8734.430116,-1378.971896
225.769072,1406.391290,-9178.553681,-1915.238745
225.769394,1258.350101,-9548.656652,-1762.019645
225.769717,1110.308913,-9770.718434,-1378.971896
225.770039,518.144159,-10362.883188,-1378.971896
225.770362,0.000000,-10510.924376,-1225.752797
225.770684,0.000000,-10807.006753,-1149.143247
225.771007,-296.082377,-10362.883188,-1225.752797
225.771329,-592.164754,-10140.821405,-1455.581446
225.771652,-370.102971,-9770.718434,-1608.800546
225.771974,-148.041188,-9770.718434,-1149.143247
225.772297,-370.102971,-9252.574275,-383.047749
225.772619,-222.061783,-8956.491898,-689.485948
225.772942,-222.061783,-9474.636058,-1378.971896
225.773264,0.000000,-9474.636058,-1378.971896
225.773587,-518.144159,-9252.574275,-1225.752797
225.773910,-1258.350101,-8956.491898,-1302.362347
225.774232,-2220.617826,-8586.388927,-1762.019645
225.774555,-3034.844362,-9030.512492,-2221.676944
225.774877,-3478.967927,-8956.491898,-2451.505594
225.775200,-3923.091493,-8882.471304,-2451.505594
225.775522,-4071.132681,-8956.491898,-2451.505594
225.775845,-3923.091493,-9252.574275,-2604.724693
225.776167,-3404.947333,-9696.697840,-2221.676944
225.776490,-3034.844362,-9548.656652,-1838.629195
225.776812,-2664.741391,-9474.636058,-2145.067394
225.777135,-1998.556043,-9326.594869,-2681.334243
225.777457,-1998.556043,-9474.636058,-2145.067394
225.777780,-1998.556043,-9770.718434,-1532.190996
225.778102,-1998.556043,-10066.800811,-1149.143247
225.778425,-1332.370696,-10066.800811,-1225.752797
225.778747,-666.185348,-10066.800811,-995.924147
225.779070,-592.164754,-9400.615463,-919.314598
225.779392,-222.061783,-8882.471304,-689.485948
225.779715,74.020594,-9178.553681,-995.924147
225.780037,444.123565,-9030.512492,-1072.533697
225.780360,444.123565,-9474.636058,-919.314598
225.780682,370.102971,-9400.615463,-919.314598
225.781005,444.123565,-9548.656652,-1225.752797
225.781327,740.205942,-10140.821405,-1378.971896
225.781650,1258.350101,-10140.821405,-1072.533697
225.781972,1702.473667,-9844.739029,-919.314598
225.782295,1998.556043,-8808.450710,-1149.143247
225.782617,2516.700203,-8216.285956,-1915.238745
225.782940,2294.638420,-7624.121203,-1608.800546
225.783262,1776.494261,-7550.100608,-1532.190996
225.783585,1332.370696,-7846.182985,-1685.410096
225.783907,740.205942,-8438.347739,-1991.848295
225.784230,1184.329507,-9030.512492,-1991.848295
225.784552,814.226536,-8882.471304,-1915.238745
225.784875,962.267725,-9178.553681,-1838.629195
225.785197,1184.329507,-9252.574275,-1608.800546
225.785520,1480.411884,-9104.533087,-1532.190996
225.785842,1702.473667,-9252.574275,-1532.190996
225.786165,814.226536,-8808.450710,-1532.190996
225.786488,222.061783,-9770.718434,-1685.410096
225.786810,74.020594,-10510.924376,-1378.971896
225.787133,0.000000,-10955.047942,-1302.362347
225.787455,-370.102971,-10510.924376,-1072.533697
225.787778,-222.061783,-9474.636058,-612.876398
225.788100,0.000000,-9770.718434,-842.705048
225.788423,0.000000,-9474.636058,-1225.752797
225.788745,222.061783,-9030.512492,-1072.533697
225.789068,0.000000,-9252.574275,-1532.190996
225.789390,0.000000,-9178.553681,-1378.971896
225.789713,0.000000,-9326.594869,-1455.581446
225.790035,-518.144159,-9474.636058,-1762.019645
225.790358,-1036.288319,-9252.574275,-1915.238745
225.790680,-1628.453072,-9548.656652,-1838.629195
225.791003,-2664.741391,-9104.533087,-2298.286494
225.791325,-3627.009116,-8364.327145,-3140.991542
225.791648,-4145.153275,-8734.430116,-3217.601092
225.791970,-4219.173869,-9104.533087,-3294.210641
225.792293,-4145.153275,-9400.615463,-2911.162892
225.792615,-3849.070898,-9252.574275,-2604.724693
225.792938,-3108.864956,-9326.594869,-2068.457845
225.793260,-2664.741391,-9474.636058,-1915.238745
225.793583,-2294.638420,-9622.677246,-2068.457845
225.793905,-2146.597232,-9844.739029,-1991.848295
225.794228,-2368.659014,-9992.780217,-1762.019645
225.794550,-2368.659014,-9696.697840,-1685.410096
225.794873,-1850.514855,-9622.677246,-1225.752797
225.795195,-1406.391290,-9844.739029,-1225.752797
225.795518,-1036.288319,-9474.636058,-919.314598
225.795840,-814.226536,-9622.677246,-536.266849
225.796163,-740.205942,-9178.553681,-612.876398
225.796485,-370.102971,-9400.615463,-1149.143247
225.796808,-370.102971,-9326.594869,-1378.971896
225.797130,0.000000,-9622.677246,-1072.533697
225.797453,296.082377,-9844.739029,-1455.581446
225.797775,592.164754,-9696.697840,-1455.581446
225.798098,1776.494261,-10214.842000,-1302.362347
225.798420,1628.453072,-9918.759623,-689.485948
225.798743,1924.535449,-9622.677246,-919.314598
225.799066,1702.473667,-9252.574275,-995.924147
225.799388,1776.494261,-8808.450710,-1378.971896
225.799711,1628.453072,-7624.121203,-1378.971896
225.800033,1406.391290,-7179.997637,-919.314598
225.800356,1258.350101,-7476.080014,-1225.752797
225.800678,1110.308913,-7920.203579,-1455.581446
225.801001,962.267725,-8660.409521,-1608.800546
225.801323,814.226536,-8956.491898,-1225.752797
225.801646,740.205942,-9474.636058,-1378.971896
225.801968,888.247130,-9696.697840,-1225.752797
225.802291,1036.288319,-9696.697840,-1225.752797
225.802613,1110.308913,-9474.636058,-1302.362347
225.802936,1036.288319,-9474.636058,-1149.143247
225.803258,888.247130,-9474.636058,-1225.752797
225.803581,444.123565,-9548.656652,-766.095498
225.803903,0.000000,-10288.862594,-1149.143247
225.804226,-370.102971,-10732.986159,-1072.533697
225.804548,-740.205942,-10288.862594,-842.705048
225.804871,-518.144159,-9918.759623,-842.705048
225.805193,-296.082377,-9400.615463,-1455.581446
225.805516,0.000000,-9326.594869,-1225.752797
225.805838,-222.061783,-8808.450710,-995.924147
225.806161,-444.123565,-8364.327145,-995.924147
225.806483,-296.082377,-8586.388927,-1378.971896
225.806806,-222.061783,-9178.553681,-1762.019645
225.807128,-814.226536,-9474.636058,-1991.848295
225.807451,-1702.473667,-9474.636058,-1685.410096
225.807773,-2294.638420,-9548.656652,-2068.457845
225.808096,-2738.761985,-8956.491898,-2374.896044
225.808418,-3034.844362,-8956.491898,-2374.896044
225.808741,-3552.988522,-8438.347739,-2298.286494
225.809063,-3627.009116,-8438.347739,-3064.381992
225.809386,-3404.947333,-9104.533087,-2834.553343
225.809708,-2738.761985,-9104.533087,-2451.505594
225.810031,-2294.638420,-9474.636058,-2298.286494
225.810353,-1628.453072,-9104.533087,-2068.457845
225.810676,-1036.288319,-9474.636058,-2451.505594
225.810999,-1258.350101,-10066.800811,-2145.067394
225.811321,-1258.350101,-9844.739029,-1915.238745
225.811644,-1110.308913,-10066.800811,-1915.238745
225.811966,-1110.308913,-10214.842000,-1685.410096
225.812289,-666.185348,-9918.759623,-1225.752797
225.812611,-666.185348,-9918.759623,-1225.752797
225.812934,-444.123565,-9030.512492,-1378.971896
225.813256,0.000000,-9252.574275,-1838.629195
225.813579,0.000000,-9548.656652,-995.924147
225.813901,148.041188,-9178.553681,-1225.752797
225.814224,148.041188,-9844.739029,-1532.190996
225.814546,222.061783,-9844.739029,-1685.410096
225.814869,888.247130,-10288.862594,-1532.190996
225.815191,1480.411884,-10214.842000,-1072.533697
225.815514,2146.597232,-9400.615463,-919.314598
225.815836,2368.659014,-8364.327145,-842.705048
225.816159,2664.741391,-8438.347739,-1302.362347
225.816481,2516.700203,-7920.203579,-1455.581446
225.816804,1924.535449,-7698.141797,-1608.800546
225.817126,1776.494261,-8438.347739,-1378.971896
225.817449,814.226536,-8586.388927,-1532.190996
225.817771,592.164754,-9178.553681,-1455.581446
225.818094,370.102971,-9104.533087,-1302.362347
225.818416,444.123565,-9400.615463,-1532.190996
225.818739,592.164754,-9252.574275,-1608.800546
225.819061,370.102971,-9030.512492,-1302.362347
225.819384,592.164754,-9474.636058,-995.924147
225.819706,0.000000,-9474.636058,-1149.143247
225.820029,-444.123565,-9696.697840,-919.314598
225.820351,-518.144159,-10362.883188,-995.924147
225.820674,-296.082377,-10214.842000,-612.876398
225.820996,-148.041188,-9770.718434,-536.266849
225.821319,-444.123565,-9326.594869,-689.485948
225.821641,-148.041188,-9104.533087,-612.876398
225.821964,-148.041188,-9474.636058,-612.876398
225.822286,-444.123565,-9252.574275,0.000000
225.822609,-1036.288319,-9104.533087,-459.657299
225.822931,-1628.453072,-9178.553681,-1532.190996
225.823254,-1628.453072,-9178.553681,-1915.238745
225.823577,-1998.556043,-9104.533087,-1685.410096
225.823899,-2294.638420,-9252.574275,-1991.848295
225.824222,-2664.741391,-8586.388927,-2221.676944
225.824544,-2886.803174,-9030.512492,-2374.896044
225.824867,-3034.844362,-8956.491898,-2757.943793
225.825189,-3034.844362,-9326.594869,-2987.772442
225.825512,-3034.844362,-9622.677246,-2757.943793
225.825834,-2146.597232,-9770.718434,-2145.067394
225.826157,-2220.617826,-9030.512492,-2145.067394
225.826479,-1554.432478,-9030.512492,-1991.848295
225.826802,-1184.329507,-9252.574275,-1838.629195
225.827124,-1110.308913,-9326.594869,-1532.190996
225.827447,-814.226536,-9918.759623,-1608.800546
225.827769,-1332.370696,-9474.636058,-1302.362347
225.828092,-1776.494261,-9622.677246,-1532.190996
225.828414,-1554.432478,-9474.636058,-1532.190996
225.828737,-1776.494261,-9770.718434,-1455.581446
225.829059,-1924.535449,-9474.636058,-1455.581446
225.829382,-1480.411884,-8956.491898,-1378.971896
225.829704,-1258.350101,-8882.471304,-1838.629195
225.830027,-666.185348,-9548.656652,-1991.848295
225.830349,-444.123565,-9992.780217,-1838.629195
225.830672,0.000000,-9770.718434,-1991.848295
225.830994,666.185348,-10288.862594,-2068.457845
225.831317,740.205942,-10066.800811,-1532.190996
225.831639,1332.370696,-10214.842000,-1608.800546
225.831962,1332.370696,-9992.780217,-1838.629195
225.832284,1406.391290,-9400.615463,-1685.410096
225.832607,1406.391290,-8586.388927,-1532.190996
225.832929,1480.411884,-8142.265362,-1378.971896
225.833252,1406.391290,-7624.121203,-1991.848295
225.833574,1628.453072,-7476.080014,-2145.067394
225.833897,1776.494261,-8068.244768,-2145.067394
225.834219,1850.514855,-8734.430116,-1532.190996
225.834542,2072.576638,-9622.677246,-1225.752797
225.834864,1776.494261,-9548.656652,-1225.752797
225.835187,2294.638420,-9918.759623,-1378.971896
225.835509,2146.597232,-10140.821405,-1608.800546
225.835832,2072.576638,-9918.759623,-1302.362347
225.836155,1850.514855,-9548.656652,-1072.533697
225.836477,1406.391290,-9696.697840,-995.924147
225.836800,592.164754,-9474.636058,-995.924147
225.837122,-148.041188,-9696.697840,-842.705048
225.837445,-814.226536,-9992.780217,-1225.752797
225.837767,-1258.350101,-9696.697840,-766.095498
225.838090,-1850.514855,-9326.594869,-536.266849
225.838412,-2146.597232,-9400.615463,-919.314598
225.838735,-1924.535449,-9326.594869,-995.924147
225.839057,-2072.576638,-9030.512492,-995.924147
225.839380,-2146.597232,-8734.430116,-1149.143247
225.839702,-1850.514855,-9326.594869,-2145.067394
225.840025,-1554.432478,-9104.533087,-1915.238745
225.840347,-1480.411884,-9622.677246,-1608.800546
225.840670,-1924.535449,-9770.718434,-1455.581446
225.840992,-1998.556043,-9622.677246,-1838.629195
225.841315,-2146.597232,-9696.697840,-2374.896044
225.841637,-2146.597232,-9252.574275,-2221.676944
225.841960,-1924.535449,-8882.471304,-2451.505594
225.842282,-1998.556043,-9030.512492,-2145.067394
225.842605,-1628.453072,-8808.450710,-1762.019645
225.842927,-1110.308913,-9030.512492,-1608.800546
225.843250,-962.267725,-8882.471304,-1455.581446
225.843572,-296.082377,-8956.491898,-995.924147
225.843895,-518.144159,-9400.615463,-1072.533697
225.844217,-740.205942,-9474.636058,-1225.752797
225.844540,-962.267725,-9400.615463,-842.705048
225.844862,-962.267725,-9474.636058,-1838.629195
225.845185,-1332.370696,-8882.471304,-995.924147
225.845507,-1702.473667,-9400.615463,-1455.581446
225.845830,-1850.514855,-9474.636058,-1378.971896
225.846152,-1998.556043,-9252.574275,-1532.190996
225.846475,-1776.494261,-9474.636058,-2145.067394
225.846797,-1628.453072,-9252.574275,-2604.724693
225.847120,-1258.350101,-9770.718434,-2451.505594
225.847442,-1258.350101,-9770.718434,-1991.848295
225.847765,-962.267725,-9622.677246,-2451.505594
225.848088,-444.123565,-10214.842000,-2374.896044
225.848410,222.061783,-10288.862594,-1915.238745
225.848733,1036.288319,-9326.594869,-1838.629195
225.849055,1628.453072,-9326.594869,-1762.019645
225.849378,2516.700203,-8956.491898,-1762.019645
225.849700,3330.926739,-8290.306550,-1838.629195
225.850023,3478.967927,-8068.244768,-1532.190996
225.850345,3775.050304,-7920.203579,-1072.533697
225.850668,3849.070898,-8512.368333,-1532.190996
225.850990,3404.947333,-8956.491898,-1455.581446
225.851313,2886.803174,-9178.553681,-1225.752797
225.851635,2516.700203,-9622.677246,-1072.533697
225.851958,2516.700203,-9326.594869,-1762.019645
225.852280,2368.659014,-9622.677246,-1302.362347
225.852603,2072.576638,-9400.615463,-1149.143247
225.852925,1332.370696,-9326.594869,-1225.752797
225.853248,444.123565,-9474.636058,-1072.533697
225.853570,-518.144159,-9326.594869,-1378.971896
225.853893,-1258.350101,-9844.739029,-1072.533697
225.854215,-2146.597232,-10510.924376,-1378.971896
225.854538,-2664.741391,-10140.821405,-1225.752797
225.854860,-2664.741391,-9622.677246,-1455.581446
225.855183,-2590.720797,-9548.656652,-1378.971896
225.855505,-2664.741391,-9104.533087,-1685.410096
225.855828,-2738.761985,-9474.636058,-1455.581446
225.856150,-2738.761985,-9104.533087,-1532.190996
225.856473,-2368.659014,-9400.615463,-2068.457845
225.856795,-2368.659014,-9622.677246,-2298.286494
225.857118,-1924.535449,-9548.656652,-2298.286494
225.857440,-1702.473667,-9770.718434,-1608.800546
225.857763,-1776.494261,-9696.697840,-2221.676944
225.858085,-1110.308913,-9474.636058,-1915.238745
225.858408,-1110.308913,-9252.574275,-1608.800546
225.858730,-814.226536,-9400.615463,-1915.238745
225.859053,-296.082377,-8882.471304,-1991.848295
225.859375,0.000000,-8882.471304,-1991.848295
225.859698,222.061783,-9178.553681,-1072.533697
225.860020,296.082377,-9548.656652,-995.924147
225.860343,74.020594,-9252.574275,-766.095498
225.860666,-518.144159,-8734.430116,-536.266849
225.860988,-1924.535449,-9030.512492,-842.705048
225.861311,-2960.823768,-9400.615463,-842.705048
225.861633,-3627.009116,-9474.636058,-1608.800546
225.861956,-4145.153275,-9474.636058,-1838.629195
225.862278,-4219.173869,-9548.656652,-1608.800546
225.862601,-4145.153275,-9326.594869,-1378.971896
225.862923,-3478.967927,-9030.512492,-2221.676944
225.863246,-2886.803174,-9400.615463,-2374.896044
225.863568,-2220.617826,-9918.759623,-2068.457845
225.863891,-1332.370696,-9918.759623,-2374.896044
225.864213,-1184.329507,-9474.636058,-2374.896044
225.864536,0.000000,-10066.800811,-2221.676944
225.864858,888.247130,-10066.800811,-1762.019645
225.865181,1776.494261,-9992.780217,-1455.581446
225.865503,2516.700203,-9252.574275,-1532.190996
225.865826,3108.864956,-8438.347739,-1072.533697
225.866148,3404.947333,-8142.265362,-689.485948
225.866471,3627.009116,-7846.182985,-536.266849
225.866793,3330.926739,-7624.121203,-842.705048
225.867116,3182.885551,-7772.162391,-995.924147
225.867438,2368.659014,-7698.141797,-1302.362347
225.867761,2146.597232,-8068.244768,-612.876398
225.868083,1406.391290,-8438.347739,-1302.362347
225.868406,888.247130,-9104.533087,-1991.848295
225.868728,1036.288319,-9992.780217,-2374.896044
225.869051,1480.411884,-10658.965565,-2298.286494
225.869373,740.205942,-10436.903782,-1991.848295
225.869696,0.000000,-10732.986159,-1762.019645
225.870018,-370.102971,-10732.986159,-1762.019645
225.870341,-1110.308913,-10436.903782,-2374.896044
225.870663,-1776.494261,-10214.842000,-2221.676944
225.870986,-2368.659014,-9992.780217,-2145.067394
225.871308,-2442.679609,-9178.553681,-1991.848295
225.871631,-2294.638420,-9252.574275,-1532.190996
225.871953,-1850.514855,-9474.636058,-995.924147
225.872276,-1258.350101,-9030.512492,-383.047749
225.872598,-666.185348,-8216.285956,-612.876398
225.872921,-370.102971,-7698.141797,-1072.533697
225.873243,296.082377,-8364.327145,-1302.362347
225.873566,592.164754,-8808.450710,-1378.971896
225.873888,74.020594,-8808.450710,-1072.533697
225.874211,0.000000,-8956.491898,-1302.362347
225.874533,0.000000,-9400.615463,-1608.800546
225.874856,-296.082377,-9548.656652,-2298.286494
225.875178,-888.247130,-10140.821405,-2374.896044
225.875501,-1628.453072,-9844.739029,-2451.505594
225.875823,-1850.514855,-9622.677246,-1991.848295
225.876146,-1924.535449,-9326.594869,-1685.410096
225.876468,-1184.329507,-9030.512492,-2374.896044
225.876791,-1628.453072,-8660.409521,-1915.238745
225.877113,-1850.514855,-8882.471304,-1838.629195
225.877436,-1628.453072,-9030.512492,-1915.238745
225.877758,-1924.535449,-9474.636058,-1532.190996
225.878081,-2294.638420,-9622.677246,-1072.533697
225.878403,-2368.659014,-9770.718434,-1378.971896
225.878726,-2368.659014,-10066.800811,-1532.190996
225.879048,-2516.700203,-9474.636058,-1532.190996
225.879371,-2220.617826,-9400.615463,-1455.581446
225.879693,-1924.535449,-9252.574275,-1915.238745
225.880016,-1850.514855,-8882.471304,-2068.457845
225.880338,-1480.411884,-9696.697840,-1991.848295
225.880661,-888.247130,-10066.800811,-1762.019645
225.880983,-222.061783,-10658.965565,-1991.848295
225.881306,444.123565,-10881.027347,-1762.019645
225.881628,1036.288319,-10807.006753,-1149.143247
225.881951,1998.556043,-10584.944971,-842.705048
225.882273,2368.659014,-9548.656652,-536.266849
225.882596,2738.761985,-8438.347739,-842.705048
225.882919,3256.906145,-7846.182985,-1149.143247
225.883241,3256.906145,-7105.977043,-1532.190996
225.883564,2960.823768,-6883.915261,-995.924147
225.883886,2294.638420,-7772.162391,-1225.752797
225.884209,1776.494261,-8364.327145,-1149.143247
225.884531,1036.288319,-8956.491898,-1455.581446
225.884854,444.123565,-9030.512492,-1685.410096
225.885176,0.000000,-8882.471304,-1915.238745
225.885499,0.000000,-9474.636058,-2298.286494
225.885821,74.020594,-9474.636058,-2145.067394
225.886144,-222.061783,-9622.677246,-1838.629195
225.886466,-370.102971,-9770.718434,-1762.019645
225.886789,-518.144159,-9844.739029,-1532.190996
225.887111,-592.164754,-10732.986159,-1608.800546
225.887434,-1332.370696,-10732.986159,-1225.752797
225.887756,-1480.411884,-10140.821405,-766.095498
225.888079,-1480.411884,-9474.636058,-689.485948
225.888401,-1036.288319,-8512.368333,-1302.362347
225.888724,-222.061783,-8216.285956,-612.876398
225.889046,-296.082377,-8068.244768,-536.266849
225.889369,-148.041188,-8068.244768,-612.876398
225.889691,0.000000,-8734.430116,-995.924147
225.890014,0.000000,-9104.533087,-1608.800546
225.890336,0.000000,-9474.636058,-842.705048
225.890659,-592.164754,-9622.677246,-1685.410096
225.890981,-1184.329507,-9696.697840,-2528.115143
225.891304,-1480.411884,-9622.677246,-2757.943793
225.891626,-1628.453072,-9474.636058,-2987.772442
225.891949,-1850.514855,-9474.636058,-2374.896044
225.892271,-1850.514855,-10066.800811,-3064.381992
225.892594,-1776.494261,-9770.718434,-2604.724693
225.892916,-1628.453072,-9992.780217,-2374.896044
225.893239,-1628.453072,-9474.636058,-1991.848295
225.893561,-1332.370696,-8956.491898,-1915.238745
225.893884,-1628.453072,-8882.471304,-1532.190996
225.894206,-1776.494261,-9178.553681,-1762.019645
225.894529,-2072.576638,-9474.636058,-1302.362347
225.894851,-2072.576638,-9622.677246,-1378.971896
225.895174,-2146.597232,-9548.656652,-1455.581446
225.895496,-2072.576638,-9326.594869,-1455.581446
225.895819,-1776.494261,-9770.718434,-1608.800546
225.896141,-1850.514855,-9178.553681,-1378.971896
225.896464,-1850.514855,-9474.636058,-1532.190996
225.896786,-1406.391290,-9474.636058,-1762.019645
225.897109,-1036.288319,-9770.718434,-2068.457845
225.897431,-962.267725,-9548.656652,-2221.676944
225.897754,-148.041188,-9770.718434,-2145.067394
225.898076,444.123565,-10510.924376,-1532.190996
225.898399,1110.308913,-10510.924376,-1225.752797
225.898721,1554.432478,-9548.656652,-766.095498
225.899044,1184.329507,-8882.471304,-995.924147
225.899366,1850.514855,-8438.347739,-1225.752797
225.899689,2072.576638,-7920.203579,-1225.752797
225.900011,1850.514855,-7476.080014,-1149.143247
225.900334,1776.494261,-7105.977043,-995.924147
225.900656,1850.514855,-7698.141797,-1685.410096
225.900979,1332.370696,-8142.265362,-1455.581446
225.901301,1110.308913,-8808.450710,-995.924147
225.901624,666.185348,-9474.636058,-1225.752797
225.901946,444.123565,-9770.718434,-1608.800546
225.902269,0.000000,-9326.594869,-1455.581446
225.902591,74.020594,-9696.697840,-1608.800546
225.902914,0.000000,-9992.780217,-1608.800546
225.903236,-666.185348,-10288.862594,-1455.581446
225.903559,-740.205942,-10288.862594,-1455.581446
225.903881,-962.267725,-10362.883188,-1378.971896
225.904204,-1110.308913,-10066.800811,-919.314598
225.904526,-1036.288319,-9622.677246,-689.485948
225.904849,-962.267725,-9548.656652,-1225.752797
225.905171,-740.205942,-9326.594869,-995.924147
225.905494,-444.123565,-9252.574275,-1072.533697
225.905816,-740.205942,-9326.594869,-842.705048
225.906139,-1036.288319,-8586.388927,-1149.143247
225.906461,-814.226536,-9104.533087,-1378.971896
225.906784,-518.144159,-9178.553681,-1608.800546
225.907106,-222.061783,-9178.553681,-1838.629195
225.907429,-592.164754,-9252.574275,-1685.410096
225.907751,-1184.329507,-8956.491898,-1149.143247
225.908074,-1110.308913,-9252.574275,-1991.848295
225.908396,-1480.411884,-9326.594869,-2221.676944
225.908719,-1776.494261,-9178.553681,-2221.676944
225.909041,-1924.535449,-9326.594869,-2451.505594
225.909364,-1850.514855,-8660.409521,-1532.190996
225.909686,-1406.391290,-8808.450710,-2145.067394
225.910009,-1036.288319,-9030.512492,-1532.190996
225.910331,-592.164754,-8808.450710,-1532.190996
225.910654,-592.164754,-8808.450710,-1991.848295
225.910976,-1184.329507,-9326.594869,-1455.581446
225.911299,-666.185348,-9770.718434,-1455.581446
225.911621,-1110.308913,-9992.780217,-1378.971896
225.911944,-1480.411884,-10214.842000,-1608.800546
225.912266,-1332.370696,-9770.718434,-1838.629195
225.912589,-1332.370696,-9918.759623,-1608.800546
225.912911,-1036.288319,-9474.636058,-2221.676944
225.913234,-740.205942,-9474.636058,-1532.190996
225.913556,-740.205942,-9622.677246,-1762.019645
225.913879,-370.102971,-9844.739029,-1532.190996
225.914201,0.000000,-10140.821405,-1532.190996
225.914524,370.102971,-9918.759623,-1302.362347
225.914846,814.226536,-10658.965565,-1378.971896
225.915169,1184.329507,-10362.883188,-919.314598
225.915491,1702.473667,-9622.677246,-842.705048
225.915814,1998.556043,-9030.512492,-995.924147
225.916136,2294.638420,-8290.306550,-1455.581446
225.916459,2368.659014,-7772.162391,-1378.971896
225.916781,1628.453072,-7179.997637,-1378.971896
225.917104,1406.391290,-7624.121203,-1608.800546
225.917426,1258.350101,-8068.244768,-1915.238745
225.917749,518.144159,-8882.471304,-2068.457845
225.918071,296.082377,-9474.636058,-1455.581446
225.918394,0.000000,-9474.636058,-1762.019645
225.918716,74.020594,-9770.718434,-2068.457845
225.919039,296.082377,-9622.677246,-1991.848295
225.919361,222.061783,-9622.677246,-1762.019645
225.919684,0.000000,-9474.636058,-1455.581446
225.920006,0.000000,-9770.718434,-1378.971896
225.920329,-444.123565,-10066.800811,-1225.752797
225.920651,-518.144159,-10436.903782,-1072.533697
225.920974,-1110.308913,-10140.821405,-919.314598
225.921296,-1406.391290,-9918.759623,-919.314598
225.921619,-1184.329507,-9918.759623,-689.485948
225.921941,-1332.370696,-9252.574275,-383.047749
225.922264,-1036.288319,-8808.450710,-536.266849
225.922586,-518.144159,-8660.409521,-1225.752797
225.922909,-740.205942,-8808.450710,-1225.752797
225.923231,-962.267725,-8660.409521,-1302.362347
225.923554,-1258.350101,-9252.574275,-995.924147
225.923876,-1628.453072,-9400.615463,-1762.019645
225.924199,-1924.535449,-9696.697840,-2298.286494
225.924521,-2072.576638,-9770.718434,-2834.553343
225.924844,-2220.617826,-9400.615463,-3064.381992
225.925166,-2146.597232,-9622.677246,-2757.943793
225.925489,-1924.535449,-9178.553681,-2681.334243
225.925811,-1184.329507,-9178.553681,-2834.553343
225.926134,-1332.370696,-9030.512492,-2068.457845
225.926456,-1332.370696,-8956.491898,-1762.019645
225.926779,-1036.288319,-9030.512492,-2221.676944
225.927101,-740.205942,-9400.615463,-2221.676944
225.927424,-962.267725,-9252.574275,-1685.410096
225.927746,-1332.370696,-9622.677246,-1149.143247
225.928069,-1850.514855,-9770.718434,-1225.752797
225.928391,-1776.494261,-9400.615463,-766.095498
225.928714,-1406.391290,-9992.780217,-1149.143247
225.929036,-1776.494261,-9474.636058,-1302.362347
225.929359,-1702.473667,-9548.656652,-1378.971896
225.929681,-1776.494261,-9104.533087,-1608.800546
225.930004,-1258.350101,-9474.636058,-1532.190996
225.930326,-518.144159,-9770.718434,-1378.971896
225.930649,-370.102971,-9622.677246,-2221.676944
225.930971,0.000000,-9770.718434,-2145.067394
225.931294,444.123565,-10362.883188,-1991.848295
225.931616,888.247130,-10436.903782,-1762.019645
225.931939,962.267725,-9770.718434,-1072.533697
225.932261,1258.350101,-9252.574275,-1915.238745
225.932584,1628.453072,-8808.450710,-1455.581446
225.932906,1924.535449,-8364.327145,-1378.971896
225.933229,1850.514855,-7772.162391,-1378.971896
225.933551,1480.411884,-7476.080014,-1455.581446
225.933874,1480.411884,-7624.121203,-1685.410096
225.934196,1406.391290,-7994.224174,-1838.629195
225.934519,1110.308913,-8660.409521,-1762.019645
225.934841,962.267725,-9178.553681,-1762.019645
225.935164,888.247130,-9696.697840,-1608.800546
225.935486,1628.453072,-9992.780217,-1838.629195
225.935809,888.247130,-9474.636058,-1302.362347
225.936131,518.144159,-9992.780217,-1608.800546
225.936454,0.000000,-10288.862594,-1762.019645
225.936776,-592.164754,-10510.924376,-1378.971896
225.937099,-962.267725,-10288.862594,-1685.410096
225.937421,-1258.350101,-10807.006753,-1072.533697
225.937744,-1776.494261,-10510.924376,-1072.533697
225.938066,-2072.576638,-9992.780217,-919.314598
225.938389,-1924.535449,-9400.615463,-995.924147
225.938711,-1406.391290,-9252.574275,-919.314598
225.939034,-1184.329507,-8586.388927,-612.876398
225.939356,-1332.370696,-8216.285956,-689.485948
225.939679,-1110.308913,-8660.409521,-1225.752797
225.940001,-592.164754,-9030.512492,-1378.971896
225.940324,-592.164754,-9252.574275,-1455.581446
225.940646,-814.226536,-9400.615463,-1685.410096
225.940969,-1184.329507,-9104.533087,-1455.581446
225.941291,-1628.453072,-9474.636058,-1991.848295
225.941614,-1776.494261,-9474.636058,-2298.286494
225.941936,-2220.617826,-9474.636058,-2221.676944
225.942259,-2368.659014,-8882.471304,-2374.896044
225.942581,-1924.535449,-8660.409521,-2681.334243
225.942904,-1480.411884,-9030.512492,-2068.457845
225.943226,-962.267725,-9104.533087,-1685.410096
225.943549,-518.144159,-9326.594869,-1225.752797
225.943871,-370.102971,-9178.553681,-1608.800546
225.944194,-518.144159,-8956.491898,-1302.362347
225.944516,-444.123565,-9400.615463,-1302.362347
225.944839,-518.144159,-9992.780217,-1302.362347
225.945161,-592.164754,-9992.780217,-1378.971896
225.945484,-888.247130,-9992.780217,-1302.362347
225.945806,-740.205942,-9696.697840,-1149.143247
225.946129,-370.102971,-8956.491898,-995.924147
225.946451,-518.144159,-9844.739029,-1838.629195
225.946774,-592.164754,-9696.697840,-2068.457845
225.947096,-666.185348,-10066.800811,-1532.190996
225.947419,-518.144159,-9844.739029,-1608.800546
225.947741,0.000000,-10066.800811,-2221.676944
225.948064,0.000000,-10362.883188,-2068.457845
225.948386,296.082377,-10288.862594,-1685.410096
225.948709,1184.329507,-9918.759623,-1378.971896
225.949031,1702.473667,-9326.594869,-1149.143247
225.949354,2368.659014,-8290.306550,-1685.410096
225.949676,2590.720797,-7105.977043,-1455.581446
225.949999,2294.638420,-7031.956449,-1608.800546
225.950321,2146.597232,-7402.059420,-1838.629195
225.950644,1776.494261,-7920.203579,-2298.286494
225.950966,1480.411884,-8512.368333,-1991.848295
225.951289,1332.370696,-9474.636058,-1762.019645
225.951611,888.247130,-9252.574275,-1762.019645
225.951934,1406.391290,-9696.697840,-2068.457845
225.952256,1480.411884,-9474.636058,-1915.238745
225.952579,1184.329507,-9622.677246,-1532.190996
225.952901,962.267725,-9696.697840,-766.095498
225.953224,-296.082377,-9400.615463,-1608.800546
225.953546,-962.267725,-10066.800811,-1225.752797
225.953869,-1332.370696,-10658.965565,-1302.362347
225.954191,-1850.514855,-10436.903782,-995.924147
225.954514,-2368.659014,-9474.636058,0.000000
225.954836,-2072.576638,-9400.615463,-1072.533697
225.955159,-1628.453072,-9400.615463,-995.924147
225.955481,-1332.370696,-9400.615463,-766.095498
225.955804,-1850.514855,-8586.388927,-1072.533697
225.956126,-1924.535449,-8068.244768,-1378.971896
225.956449,-1776.494261,-8956.491898,-1685.410096
225.956771,-1850.514855,-9326.594869,-2221.676944
225.957094,-2220.617826,-9400.615463,-2451.505594
225.957416,-2368.659014,-10066.800811,-2451.505594
225.957739,-2294.638420,-10436.903782,-2528.115143
225.958061,-1628.453072,-10214.842000,-2834.553343
225.958384,-2368.659014,-9474.636058,-2451.505594
225.958706,-1924.535449,-9326.594869,-2604.724693
225.959029,-1702.473667,-9252.574275,-2528.115143
225.959351,-1332.370696,-8956.491898,-2145.067394
225.959674,-962.267725,-8882.471304,-1532.190996
225.959996,-962.267725,-9326.594869,-1455.581446
225.960319,-370.102971,-9030.512492,-1302.362347
225.960641,0.000000,-9252.574275,-1225.752797
225.960964,-518.144159,-9548.656652,-766.095498
225.961286,-1184.329507,-9770.718434,-689.485948
225.961609,-1628.453072,-9918.759623,-1072.533697
225.961931,-2146.597232,-9474.636058,-842.705048
225.962254,-2072.576638,-9696.697840,-1378.971896
225.962576,-2220.617826,-9474.636058,-1302.362347
225.962899,-2072.576638,-9252.574275,-1685.410096
225.963221,-1776.494261,-9400.615463,-1915.238745
225.963544,-1406.391290,-9770.718434,-1378.971896
225.963866,-962.267725,-10066.800811,-1532.190996
225.964189,-740.205942,-10140.821405,-2145.067394
225.964511,0.000000,-10288.862594,-2298.286494
225.964834,666.185348,-10584.944971,-1225.752797
225.965156,1554.432478,-9918.759623,-995.924147
225.965479,2072.576638,-8956.491898,-1072.533697
225.965801,2738.761985,-8364.327145,-919.314598
225.966124,3034.844362,-8142.265362,-919.314598
225.966447,2960.823768,-7550.100608,-919.314598
225.966769,2664.741391,-7254.018232,-1302.362347
225.967092,2146.597232,-7031.956449,-1225.752797
225.967414,2072.576638,-7846.182985,-1685.410096
225.967737,1998.556043,-8364.327145,-1762.019645
225.968059,1998.556043,-8808.450710,-1685.410096
225.968382,1850.514855,-9326.594869,-1532.190996
225.968704,1702.473667,-9844.739029,-1378.971896
225.969027,1702.473667,-10140.821405,-1915.238745
225.969349,1110.308913,-10362.883188,-1762.019645
225.969672,518.144159,-10510.924376,-1378.971896
225.969994,-148.041188,-10807.006753,-1608.800546
225.970317,-592.164754,-10214.842000,-1915.238745
225.970639,-1258.350101,-10214.842000,-1838.629195
225.970962,-1998.556043,-9918.759623,-1608.800546
225.971284,-2294.638420,-9474.636058,-1378.971896
225.971606,-2146.597232,-9474.636058,-1149.143247
225.971929,-2146.597232,-9326.594869,-1149.143247
225.972251,-1850.514855,-8882.471304,-689.485948
225.972574,-2072.576638,-8734.430116,-1072.533697
225.972896,-2146.597232,-8586.388927,-1455.581446
225.973218,-1480.411884,-8364.327145,-2145.067394
225.973541,-1036.288319,-9326.594869,-1838.629195
225.973863,-962.267725,-9326.594869,-2374.896044
225.974186,-1258.350101,-9548.656652,-2068.457845
225.974508,-1702.473667,-10214.842000,-2374.896044
225.974831,-1776.494261,-9844.739029,-2604.724693
225.975153,-1628.453072,-10140.821405,-2757.943793
225.975475,-1554.432478,-9918.759623,-2604.724693
225.975798,-1406.391290,-9400.615463,-2298.286494
225.976120,-1480.411884,-8512.368333,-2374.896044
225.976443,-1036.288319,-8290.306550,-1838.629195
225.976765,-814.226536,-8438.347739,-1532.190996
225.977088,-592.164754,-8438.347739,-1225.752797
225.977410,-740.205942,-8660.409521,-1685.410096
225.977732,-814.226536,-9548.656652,-1225.752797
225.978055,-1110.308913,-10214.842000,-995.924147
225.978377,-1332.370696,-10214.842000,-995.924147
225.978700,-1406.391290,-10066.800811,-919.314598
225.979022,-1628.453072,-9474.636058,-1302.362347
225.979344,-1554.432478,-9252.574275,-1455.581446
225.979667,-1406.391290,-8956.491898,-1762.019645
225.979989,-1258.350101,-9326.594869,-2221.676944
225.980312,-1184.329507,-10214.842000,-1915.238745
225.980634,-962.267725,-10288.862594,-1072.533697
225.980957,-666.185348,-10362.883188,-1532.190996
225.981279,-222.061783,-10214.842000,-1762.019645
225.981601,444.123565,-10140.821405,-1991.848295
225.981924,1110.308913,-9844.739029,-1225.752797
225.982246,1776.494261,-9030.512492,-536.266849
225.982569,2812.782580,-8586.388927,-766.095498
225.982891,3034.844362,-7994.224174,-1149.143247
225.983214,3404.947333,-7624.121203,-1072.533697
225.983536,3108.864956,-7920.203579,-1149.143247
225.983858,3108.864956,-8216.285956,-1532.190996
225.984181,3182.885551,-8586.388927,-1838.629195
225.984503,2368.659014,-8956.491898,-1455.581446
225.984826,2220.617826,-9178.553681,-1302.362347
225.985148,1776.494261,-9474.636058,-1455.581446
225.985470,1184.329507,-9474.636058,-1532.190996
225.985793,962.267725,-9696.697840,-1685.410096
225.986115,666.185348,-9844.739029,-1915.238745
225.986438,0.000000,-9844.739029,-1455.581446
225.986760,-740.205942,-9844.739029,-1378.971896
225.987083,-1332.370696,-10288.862594,-1378.971896
225.987405,-1628.453072,-10510.924376,-1149.143247
225.987727,-1998.556043,-10584.944971,-1378.971896
225.988050,-2664.741391,-9770.718434,-1149.143247
225.988372,-2368.659014,-9474.636058,-1302.362347
225.988695,-2146.597232,-9400.615463,-1532.190996
225.989017,-1998.556043,-8956.491898,-995.924147
225.989340,-1924.535449,-8734.430116,-1149.143247
225.989662,-1850.514855,-8882.471304,-1455.581446
225.989984,-1258.350101,-8956.491898,-1685.410096
225.990307,-1258.350101,-9252.574275,-1608.800546
225.990629,-1480.411884,-9474.636058,-1762.019645
225.990952,-1628.453072,-9030.512492,-1455.581446
225.991274,-1850.514855,-8808.450710,-2451.505594
225.991596,-1776.494261,-9030.512492,-2374.896044
225.991919,-1776.494261,-9104.533087,-2451.505594
225.992241,-1554.432478,-8956.491898,-2528.115143
225.992564,-1332.370696,-8956.491898,-2451.505594
225.992886,-1110.308913,-9030.512492,-1915.238745
225.993209,-1258.350101,-9400.615463,-1838.629195
225.993531,-888.247130,-9696.697840,-1991.848295
225.993853,-1184.329507,-9992.780217,-1838.629195
225.994176,-1480.411884,-9844.739029,-1378.971896
225.994498,-1924.535449,-10066.800811,-1532.190996
225.994821,-2220.617826,-9548.656652,-1225.752797
225.995143,-2590.720797,-9104.533087,-1915.238745
225.995466,-2664.741391,-9104.533087,-1685.410096
225.995788,-2664.741391,-9104.533087,-1378.971896
225.996110,-2590.720797,-8734.430116,-919.314598
225.996433,-2368.659014,-9104.533087,-1455.581446
225.996755,-1850.514855,-9474.636058,-1762.019645
225.997078,-1332.370696,-10066.800811,-1915.238745
225.997400,-518.144159,-9622.677246,-2221.676944
225.997722,444.123565,-9622.677246,-2528.115143
225.998045,666.185348,-10140.821405,-2221.676944
225.998367,2220.617826,-10362.883188,-1532.190996
225.998690,2516.700203,-9918.759623,-1455.581446
225.999012,2812.782580,-9474.636058,-1532.190996
225.999335,3108.864956,-9104.533087,-1532.190996
225.999657,3404.947333,-8956.491898,-1455.581446
225.999979,3034.844362,-8364.327145,-1149.143247
226.000302,2812.782580,-7624.121203,-1378.971896
226.000624,2516.700203,-7920.203579,-1532.190996
226.000947,2368.659014,-7994.224174,-1455.581446
226.001269,1998.556043,-8882.471304,-1072.533697
226.001592,1850.514855,-8808.450710,-1072.533697
226.001914,1184.329507,-9252.574275,-1455.581446
226.002236,1184.329507,-9918.759623,-1532.190996
226.002559,814.226536,-10140.821405,-1608.800546
226.002881,222.061783,-10288.862594,-1608.800546
226.003204,-296.082377,-10288.862594,-1225.752797
226.003526,-888.247130,-10214.842000,-1608.800546
226.003848,-1406.391290,-10214.842000,-1685.410096
226.004171,-1998.556043,-10140.821405,-1608.800546
226.004493,-2294.638420,-9992.780217,-1302.362347
226.004816,-2220.617826,-9252.574275,-536.266849
226.005138,-1998.556043,-9104.533087,-1302.362347
226.005461,-1702.473667,-9252.574275,-919.314598
226.005783,-1702.473667,-8956.491898,-1149.143247
226.006105,-1554.432478,-8808.450710,-1072.533697
226.006428,-1184.329507,-8882.471304,-995.924147
226.006750,-518.144159,-9104.533087,-1302.362347
226.007073,-740.205942,-8734.430116,-1225.752797
226.007395,-518.144159,-8956.491898,-1685.410096
226.007718,-666.185348,-8808.450710,-1838.629195
226.008040,-888.247130,-9178.553681,-1838.629195
226.008362,-1110.308913,-9474.636058,-2068.457845
226.008685,-1184.329507,-9474.636058,-2221.676944
226.009007,-1554.432478,-9326.594869,-1991.848295
226.009330,-1406.391290,-9030.512492,-2221.676944
226.009652,-1110.308913,-9104.533087,-1685.410096
226.009974,-1036.288319,-9252.574275,-689.485948
226.010297,-962.267725,-8882.471304,-1149.143247
226.010619,-1184.329507,-8956.491898,-1532.190996
226.010942,-1332.370696,-9474.636058,-1762.019645
226.011264,-1776.494261,-9548.656652,-1378.971896
226.011587,-2220.617826,-9844.739029,-1455.581446
226.011909,-2072.576638,-9696.697840,-1685.410096
226.012231,-1850.514855,-10066.800811,-1838.629195
226.012554,-1924.535449,-9474.636058,-1455.581446
226.012876,-1924.535449,-9178.553681,-1608.800546
226.013199,-1776.494261,-9474.636058,-2145.067394
226.013521,-1036.288319,-9400.615463,-2298.286494
226.013843,-518.144159,-9918.759623,-2221.676944
226.014166,-518.144159,-9844.739029,-2298.286494
226.014488,74.020594,-10140.821405,-1991.848295
226.014811,888.247130,-10807.006753,-1608.800546
226.015133,1924.535449,-10584.944971,-1685.410096
226.015456,2368.659014,-9400.615463,-842.705048
226.015778,2664.741391,-8586.388927,-995.924147
226.016100,3256.906145,-7920.203579,-1302.362347
226.016423,3701.029710,-7698.141797,-1455.581446
226.016745,3775.050304,-7772.162391,-1149.143247
226.017068,3256.906145,-7846.182985,-1378.971896
226.017390,2442.679609,-8882.471304,-1378.971896
226.017713,2146.597232,-9030.512492,-1378.971896
226.018035,1850.514855,-9548.656652,-1532.190996
226.018357,1110.308913,-9548.656652,-1838.629195
226.018680,1184.329507,-9622.677246,-1532.190996
226.019002,1110.308913,-9696.697840,-1762.019645
226.019325,296.082377,-9696.697840,-1685.410096
226.019647,-296.082377,-9400.615463,-1762.019645
226.019969,-888.247130,-9696.697840,-1608.800546
226.020292,-1554.432478,-10214.842000,-1838.629195
226.020614,-1702.473667,-10288.862594,-1455.581446
226.020937,-2072.576638,-10807.006753,-1302.362347
226.021259,-2368.659014,-9548.656652,-995.924147
226.021582,-2368.659014,-9252.574275,-689.485948
226.021904,-1924.535449,-8882.471304,-995.924147
226.022226,-1776.494261,-8734.430116,-766.095498
226.022549,-1406.391290,-8290.306550,-1378.971896
226.022871,-1480.411884,-8438.347739,-1302.362347
226.023194,-1258.350101,-8882.471304,-1532.190996
226.023516,-1258.350101,-9474.636058,-1762.019645
226.023839,-1480.411884,-9474.636058,-1608.800546
226.024161,-1110.308913,-9918.759623,-1608.800546
226.024483,-1702.473667,-9918.759623,-1915.238745
226.024806,-1554.432478,-9326.594869,-2145.067394
226.025128,-1702.473667,-9474.636058,-2298.286494
226.025451,-1332.370696,-9474.636058,-2221.676944
226.025773,-1406.391290,-9326.594869,-1991.848295
226.026095,-1184.329507,-9400.615463,-1838.629195
226.026418,-1110.308913,-9400.615463,-1685.410096
226.026740,-1480.411884,-9474.636058,-1302.362347
226.027063,-1554.432478,-9696.697840,-1685.410096
226.027385,-1924.535449,-9474.636058,-766.095498
226.027708,-2516.700203,-9474.636058,-919.314598
226.028030,-2960.823768,-9030.512492,-1072.533697
226.028352,-3108.864956,-9030.512492,-1532.190996
226.028675,-2960.823768,-9104.533087,-1608.800546
226.028997,-2886.803174,-9030.512492,-1455.581446
226.029320,-2442.679609,-8956.491898,-1455.581446
226.029642,-2590.720797,-9030.512492,-1532.190996
226.029965,-2072.576638,-9400.615463,-2221.676944
226.030287,-1332.370696,-9770.718434,-1991.848295
226.030609,-370.102971,-9844.739029,-2221.676944
226.030932,222.061783,-9992.780217,-2221.676944
226.031254,1184.329507,-9992.780217,-2221.676944
226.031577,1554.432478,-9844.739029,-1532.190996
226.031899,2368.659014,-9474.636058,-1378.971896
226.032221,2738.761985,-8734.430116,-1532.190996
226.032544,3034.844362,-8882.471304,-1072.533697
226.032866,2886.803174,-8290.306550,-689.485948
226.033189,2812.782580,-7698.141797,-612.876398
226.033511,2442.679609,-7624.121203,-995.924147
226.033834,1998.556043,-7920.203579,-1302.362347
226.034156,2368.659014,-8586.388927,-1302.362347
226.034478,2072.576638,-9326.594869,-1378.971896
226.034801,1998.556043,-9030.512492,-1378.971896
226.035123,1776.494261,-9992.780217,-1378.971896
226.035446,1628.453072,-9992.780217,-1532.190996
226.035768,1184.329507,-9992.780217,-1685.410096
226.036091,592.164754,-9548.656652,-1225.752797
226.036413,-592.164754,-10066.800811,-1915.238745
226.036735,-814.226536,-10658.965565,-1991.848295
226.037058,-1332.370696,-10584.944971,-1991.848295
226.037380,-1776.494261,-10214.842000,-1762.019645
226.037703,-2220.617826,-10214.842000,-1302.362347
226.038025,-2146.597232,-9548.656652,-1225.752797
226.038347,-2146.597232,-9030.512492,-1302.362347
226.038670,-2146.597232,-8734.430116,-1532.190996
226.038992,-1480.411884,-8290.306550,-1608.800546
226.039315,-1628.453072,-8216.285956,-1225.752797
226.039637,-1332.370696,-8438.347739,-1685.410096
226.039960,-740.205942,-8734.430116,-1838.629195
226.040282,-666.185348,-9548.656652,-1455.581446
226.040604,-740.205942,-9992.780217,-1685.410096
226.040927,-1036.288319,-9918.759623,-1915.238745
226.041249,-1332.370696,-9918.759623,-2221.676944
226.041572,-962.267725,-9622.677246,-2451.505594
226.041894,-1554.432478,-9548.656652,-2221.676944
226.042217,-1628.453072,-9474.636058,-2374.896044
226.042539,-1776.494261,-9178.553681,-2374.896044
226.042861,-1480.411884,-8956.491898,-1685.410096
226.043184,-1110.308913,-8882.471304,-1072.533697
226.043506,-666.185348,-9326.594869,-1225.752797
226.043829,-518.144159,-9252.574275,-1455.581446
226.044151,-814.226536,-9252.574275,-1225.752797
226.044473,-1110.308913,-9622.677246,-842.705048
226.044796,-1036.288319,-9400.615463,-1149.143247
226.045118,-1406.391290,-8882.471304,-1685.410096
226.045441,-1850.514855,-9252.574275,-1685.410096
226.045763,-1702.473667,-8956.491898,-1762.019645
226.046086,-1702.473667,-9252.574275,-1532.190996
226.046408,-1702.473667,-9252.574275,-1378.971896
226.046730,-1332.370696,-9770.718434,-2221.676944
226.047053,-1332.370696,-10066.800811,-2068.457845
226.047375,-1332.370696,-10066.800811,-1915.238745
226.047698,-962.267725,-10140.821405,-2298.286494
226.048020,-296.082377,-10288.862594,-2068.457845
226.048343,444.123565,-9844.739029,-1762.019645
226.048665,2220.617826,-9622.677246,-1915.238745
226.048987,2664.741391,-8882.471304,-1302.362347
226.049310,3256.906145,-8216.285956,-1072.533697
226.049632,3627.009116,-8142.265362,-1149.143247
226.049955,3701.029710,-7476.080014,-1149.143247
226.050277,3404.947333,-8068.244768,-919.314598
226.050599,2516.700203,-8512.368333,-1532.190996
226.050922,2072.576638,-8808.450710,-1608.800546
226.051244,1702.473667,-9178.553681,-1532.190996
226.051567,1554.432478,-8956.491898,-1378.971896
226.051889,1850.514855,-9696.697840,-1915.238745
226.052212,1480.411884,-9104.533087,-1838.629195
226.052534,1332.370696,-9696.697840,-1455.581446
226.052856,666.185348,-9918.759623,-1225.752797
226.053179,-370.102971,-10140.821405,-1608.800546
226.053501,-1258.350101,-10288.862594,-2068.457845
226.053824,-1924.535449,-10288.862594,-2068.457845
226.054146,-3034.844362,-10214.842000,-1455.581446
226.054469,-2886.803174,-10214.842000,-1302.362347
226.054791,-3108.864956,-9622.677246,-1225.752797
226.055113,-2590.720797,-9252.574275,-689.485948
226.055436,-2072.576638,-9104.533087,-995.924147
226.055758,-2220.617826,-8808.450710,-1302.362347
226.056081,-2072.576638,-8438.347739,-1532.190996
226.056403,-2368.659014,-8956.491898,-1838.629195
226.056725,-1998.556043,-9252.574275,-1991.848295
226.057048,-1850.514855,-9178.553681,-2298.286494
226.057370,-1776.494261,-9474.636058,-2145.067394
226.057693,-1628.453072,-9622.677246,-2068.457845
226.058015,-1332.370696,-9992.780217,-2374.896044
226.058338,-1036.288319,-9474.636058,-2374.896044
226.058660,-666.185348,-9474.636058,-1838.629195
226.058982,-888.247130,-9104.533087,-1762.019645
226.059305,-592.164754,-9178.553681,-1838.629195
226.059627,-666.185348,-9178.553681,-1685.410096
226.059950,-962.267725,-9104.533087,-1378.971896
226.060272,-814.226536,-9326.594869,-1532.190996
226.060595,-666.185348,-9326.594869,-1225.752797
226.060917,-962.267725,-9622.677246,-1302.362347
226.061239,-1110.308913,-9844.739029,-612.876398
226.061562,-1702.473667,-9918.759623,-766.095498
226.061884,-1554.432478,-9474.636058,-1072.533697
226.062207,-1554.432478,-9474.636058,-1838.629195
226.062529,-1924.535449,-9030.512492,-1762.019645
226.062851,-2146.597232,-9104.533087,-1455.581446
226.063174,-2072.576638,-8882.471304,-2221.676944
226.063496,-1406.391290,-9474.636058,-2145.067394
226.063819,-666.185348,-10066.800811,-2221.676944
226.064141,-222.061783,-10214.842000,-1915.238745
226.064464,296.082377,-9844.739029,-2145.067394
226.064786,740.205942,-10288.862594,-2068.457845
226.065108,1036.288319,-9844.739029,-1762.019645
226.065431,1554.432478,-9400.615463,-1608.800546
226.065753,1554.432478,-8660.409521,-1302.362347
226.066076,2072.576638,-8216.285956,-2068.457845
226.066398,2368.659014,-8364.327145,-1762.019645
226.066721,2368.659014,-8216.285956,-1608.800546
226.067043,2738.761985,-8290.306550,-1532.190996
226.067365,2664.741391,-8512.368333,-1991.848295
226.067688,2886.803174,-9030.512492,-1455.581446
226.068010,2590.720797,-9178.553681,-1455.581446
226.068333,2442.679609,-9326.594869,-1455.581446
226.068655,2368.659014,-9400.615463,-1762.019645
226.068977,2220.617826,-9474.636058,-1455.581446
226.069300,1776.494261,-9844.739029,-1685.410096
226.069622,814.226536,-9770.718434,-1072.533697
226.069945,0.000000,-10362.883188,-995.924147
226.070267,-888.247130,-10288.862594,-1072.533697
226.070590,-1554.432478,-10436.903782,-1149.143247
226.070912,-2516.700203,-9918.759623,-1072.533697
226.071234,-2960.823768,-9400.615463,-1532.190996
226.071557,-3330.926739,-9252.574275,-1608.800546
226.071879,-3182.885551,-9400.615463,-1455.581446
226.072202,-3034.844362,-8956.491898,-1532.190996
226.072524,-3404.947333,-9030.512492,-1225.752797
226.072846,-2664.741391,-8882.471304,-1378.971896
226.073169,-2146.597232,-9178.553681,-1838.629195
226.073491,-2072.576638,-9400.615463,-1608.800546
226.073813,-1850.514855,-9326.594869,-1762.019645
226.074136,-1850.514855,-9548.656652,-1991.848295
226.074458,-1628.453072,-9696.697840,-1991.848295
226.074781,-1406.391290,-9104.533087,-1915.238745
226.075103,-1554.432478,-8956.491898,-2145.067394
226.075425,-1332.370696,-8882.471304,-1915.238745
226.075748,-1036.288319,-8882.471304,-1762.019645
226.076070,-592.164754,-8808.450710,-2068.457845
226.076392,0.000000,-8882.471304,-1149.143247
226.076715,222.061783,-9030.512492,-995.924147
226.077037,444.123565,-8882.471304,-1072.533697
226.077360,296.082377,-8956.491898,-1149.143247
226.077682,0.000000,-9252.574275,-1225.752797
226.078004,-666.185348,-9252.574275,-1225.752797
226.078327,-1184.329507,-9844.739029,-1532.190996
226.078649,-1776.494261,-9992.780217,-1762.019645
226.078972,-2146.597232,-9918.759623,-2145.067394
226.079294,-2442.679609,-10140.821405,-1915.238745
226.079616,-2294.638420,-9622.677246,-2298.286494
226.079939,-1998.556043,-9696.697840,-2451.505594
226.080261,-1702.473667,-9696.697840,-2681.334243
226.080583,-1480.411884,-9548.656652,-2374.896044
226.080906,-1406.391290,-9770.718434,-2374.896044
226.081228,-592.164754,-9992.780217,-2221.676944
226.081551,444.123565,-10510.924376,-1991.848295
226.081873,1110.308913,-10584.944971,-1991.848295
226.082195,2146.597232,-9992.780217,-1455.581446
226.082518,3108.864956,-9474.636058,-919.314598
226.082840,3923.091493,-8364.327145,-995.924147
226.083162,4367.215058,-7179.997637,-842.705048
226.083485,4219.173869,-7179.997637,-766.095498
226.083807,3923.091493,-7254.018232,-1302.362347
226.084130,3478.967927,-8216.285956,-1532.190996
226.084452,2960.823768,-9030.512492,-1149.143247
226.084774,2294.638420,-8956.491898,-1149.143247
226.085097,1776.494261,-9326.594869,-1225.752797
226.085419,1702.473667,-9474.636058,-1608.800546
226.085741,1332.370696,-9400.615463,-1608.800546
226.086064,444.123565,-9400.615463,-1532.190996
226.086386,-518.144159,-9474.636058,-1225.752797
226.086709,-1702.473667,-9622.677246,-1149.143247
226.087031,-2294.638420,-10066.800811,-1991.848295
226.087353,-2738.761985,-10362.883188,-1991.848295
226.087676,-3478.967927,-10658.965565,-1685.410096
226.087998,-3478.967927,-9918.759623,-1302.362347
226.088321,-3034.844362,-9400.615463,-1149.143247
226.088643,-2442.679609,-9178.553681,-995.924147
226.088965,-2294.638420,-8956.491898,-919.314598
