#time,accel_x,accel_y,accel_z
281.545031,-888.247130,-9178.553681,-1915.238745
281.545353,-814.226536,-9252.574275,-1532.190996
281.545675,-740.205942,-9548.656652,-1838.629195
281.545997,-518.144159,-9400.615463,-1915.238745
281.546319,-592.164754,-9474.636058,-1838.629195
281.546641,-370.102971,-9548.656652,-2068.457845
281.546963,-296.082377,-9622.677246,-2221.676944
281.547285,-370.102971,-9696.697840,-2145.067394
281.547607,-592.164754,-9770.718434,-1685.410096
281.547929,-666.185348,-9548.656652,-1838.629195
281.548251,-444.123565,-9474.636058,-1685.410096
281.548573,-518.144159,-9326.594869,-2604.724693
281.548895,-592.164754,-9400.615463,-1915.238745
281.549217,-518.144159,-9474.636058,-1608.800546
281.549539,-296.082377,-9474.636058,-1532.190996
281.549861,0.000000,-9474.636058,-1762.019645
281.550183,-444.123565,-9030.512492,-1455.581446
281.550505,0.000000,-9474.636058,-2145.067394
281.550827,-444.123565,-9474.636058,-1455.581446
281.551149,-518.144159,-9474.636058,-1532.190996
281.551471,-370.102971,-9474.636058,-1455.581446
281.551793,-148.041188,-9474.636058,-1149.143247
281.552115,0.000000,-9548.656652,-1072.533697
281.552438,0.000000,-9030.512492,-995.924147
281.552760,0.000000,-9474.636058,-1225.752797
281.553082,0.000000,-9400.615463,-1455.581446
281.553404,-444.123565,-9326.594869,-1455.581446
281.553726,-740.205942,-9474.636058,-766.095498
281.554048,-148.041188,-9178.553681,-995.924147
281.554370,0.000000,-9474.636058,-1302.362347
281.554692,-148.041188,-9178.553681,-995.924147
281.555014,0.000000,-9252.574275,-995.924147
281.555336,-148.041188,-8956.491898,-536.266849
281.555658,-222.061783,-8956.491898,-1072.533697
281.555980,-148.041188,-9104.533087,-1149.143247
281.556302,-222.061783,-9326.594869,-1225.752797
281.556624,-444.123565,-9326.594869,-1225.752797
281.556946,-444.123565,-9474.636058,-995.924147
281.557268,-740.205942,-8734.430116,-995.924147
281.557590,-148.041188,-9474.636058,-1072.533697
281.557912,-296.082377,-9400.615463,-1225.752797
281.558234,-444.123565,-9326.594869,-1378.971896
281.558556,-518.144159,-9326.594869,-1302.362347
281.558878,-666.185348,-9178.553681,-1302.362347
281.559200,-370.102971,-9326.594869,-1685.410096
281.559522,-444.123565,-9400.615463,-1455.581446
281.559844,-592.164754,-9696.697840,-1378.971896
281.560166,-888.247130,-9548.656652,-1302.362347
281.560488,-666.185348,-9696.697840,-1225.752797
281.560810,-148.041188,-9252.574275,-1378.971896
281.561132,0.000000,-9400.615463,-1685.410096
281.561454,-296.082377,-9178.553681,-1532.190996
281.561776,-592.164754,-9178.553681,-1532.190996
281.562098,-518.144159,-9548.656652,-1685.410096
281.562421,-296.082377,-9844.739029,-1455.581446
281.562743,0.000000,-9400.615463,-1838.629195
281.563065,296.082377,-9696.697840,-1915.238745
281.563387,962.267725,-9992.780217,-1838.629195
281.563709,888.247130,-9844.739029,-1072.533697
281.564031,666.185348,-9178.553681,-995.924147
281.564353,0.000000,-8364.327145,-1072.533697
281.564675,0.000000,-8882.471304,-1991.848295
281.564997,-888.247130,-8956.491898,-2298.286494
281.565319,-1628.453072,-8734.430116,-2068.457845
281.565641,-1184.329507,-8882.471304,-2298.286494
281.565963,-222.061783,-9400.615463,-2451.505594
281.566285,148.041188,-10584.944971,-1608.800546
281.566607,-148.041188,-10362.883188,-1072.533697
281.566929,370.102971,-9622.677246,-1225.752797
281.567251,1480.411884,-9844.739029,-2451.505594
281.567573,2220.617826,-10288.862594,-2145.067394
281.567895,1554.432478,-9474.636058,-1149.143247
281.568217,1702.473667,-8586.388927,-536.266849
281.568539,2590.720797,-9030.512492,-1072.533697
281.568861,3775.050304,-9844.739029,-1302.362347
281.569183,3330.926739,-9474.636058,-536.266849
281.569505,2442.679609,-8956.491898,0.000000
281.569827,2664.741391,-8068.244768,-306.438199
281.570149,3627.009116,-8734.430116,-766.095498
281.570471,3108.864956,-9104.533087,-919.314598
281.570793,2664.741391,-8290.306550,-1225.752797
281.571115,3108.864956,-7994.224174,-1532.190996
281.571437,4071.132681,-9178.553681,-2451.505594
281.571759,4589.276840,-11029.068536,-1915.238745
281.572081,4145.153275,-10658.965565,-1378.971896
281.572403,4071.132681,-10288.862594,-1149.143247
281.572726,3997.112087,-10584.944971,-1532.190996
281.573048,4959.379811,-10362.883188,-2298.286494
281.573370,3627.009116,-9400.615463,-2528.115143
281.573692,2812.782580,-9030.512492,-2221.676944
281.574014,2368.659014,-8956.491898,-1225.752797
281.574336,2960.823768,-8882.471304,-1225.752797
281.574658,4293.194464,-9104.533087,-1378.971896
281.574980,4811.338623,-9326.594869,-1149.143247
281.575302,5625.565159,-9474.636058,-842.705048
281.575624,5995.668130,-8882.471304,-842.705048
281.575946,5995.668130,-8734.430116,-919.314598
281.576268,5181.441594,-8882.471304,-1149.143247
281.576590,3775.050304,-9696.697840,-2221.676944
281.576912,2220.617826,-10510.924376,-2451.505594
281.577234,888.247130,-11843.295072,-2145.067394
281.577556,666.185348,-12805.562797,-1302.362347
281.577878,444.123565,-13323.706956,0.000000
281.578200,1480.411884,-12953.603985,383.047749
281.578522,1628.453072,-11843.295072,842.705048
281.578844,1776.494261,-10584.944971,1455.581446
281.579166,1110.308913,-9030.512492,1991.848295
281.579488,-444.123565,-7105.977043,2145.067394
281.579810,-1702.473667,-4737.318029,1532.190996
281.580132,-1258.350101,-3923.091493,-689.485948
281.580454,-370.102971,-4663.297435,-2451.505594
281.580776,1184.329507,-5255.462188,-3064.381992
281.581098,3404.947333,-5477.523971,-2681.334243
281.581420,5921.647536,-7031.956449,-2757.943793
281.581742,7550.100608,-9548.656652,-3830.477490
281.582064,7031.956449,-12213.398043,-4213.525239
281.582386,5107.421000,-13545.768739,-3677.258390
281.582708,3997.112087,-14211.954086,-2681.334243
281.583031,3997.112087,-14137.933492,-2834.553343
281.583353,3108.864956,-12879.583391,-2298.286494
281.583675,1702.473667,-11695.253884,536.266849
281.583997,444.123565,-10214.842000,3064.381992
281.584319,518.144159,-7772.162391,3600.648841
281.584641,962.267725,-5329.482782,2757.943793
281.584963,962.267725,-4219.173869,1455.581446
281.585285,592.164754,-4589.276840,995.924147
281.585607,-814.226536,-5625.565159,536.266849
281.585929,-962.267725,-6883.915261,919.314598
281.586251,-444.123565,-7179.997637,-1608.800546
281.586573,518.144159,-9252.574275,-5286.058936
281.586895,1480.411884,-11695.253884,-6128.763984
281.587217,1406.391290,-15026.180623,-5286.058936
281.587539,222.061783,-17764.942608,-3983.696590
281.587861,-148.041188,-17912.983796,-2911.162892
281.588183,0.000000,-14804.118840,-3370.820191
281.588505,592.164754,-10510.924376,-5209.449386
281.588827,1332.370696,-8142.265362,-5209.449386
281.589149,2442.679609,-7994.224174,-3524.039291
281.589471,3478.967927,-8808.450710,-995.924147
281.589793,4367.215058,-8438.347739,2757.943793
281.590115,4811.338623,-7698.141797,5515.887586
281.590437,4071.132681,-5847.626942,4673.182538
281.590759,4071.132681,-5107.421000,2604.724693
281.591081,3997.112087,-3330.926739,-536.266849
281.591403,3404.947333,-3701.029710,-1838.629195
281.591725,1480.411884,-4811.338623,842.705048
281.592047,-1184.329507,-7254.018232,1455.581446
281.592369,-2590.720797,-10066.800811,-2068.457845
281.592691,-1998.556043,-13175.665768,-5515.887586
281.593013,-2146.597232,-13323.706956,-7354.516781
281.593336,-3478.967927,-14137.933492,-7201.297681
281.593658,-4811.338623,-15692.365970,-4136.915689
281.593980,-5181.441594,-15026.180623,-2451.505594
281.594302,-5033.400406,-11547.212695,-4060.306139
281.594624,-2886.803174,-9622.677246,-5209.449386
281.594946,-814.226536,-8956.491898,-5132.839837
281.595268,444.123565,-7550.100608,-4366.744339
281.595590,1924.535449,-6883.915261,-306.438199
281.595912,5329.482782,-7920.203579,3370.820191
281.596234,8068.244768,-9178.553681,2681.334243
281.596556,9252.574275,-10066.800811,76.609550
281.596878,7772.162391,-9844.739029,689.485948
281.597200,5181.441594,-7476.080014,3064.381992
281.597522,3034.844362,-5107.421000,1991.848295
281.597844,1480.411884,-5699.585753,-536.266849
281.598166,-592.164754,-7550.100608,-1532.190996
281.598488,-4441.235652,-9326.594869,-919.314598
281.598810,-8512.368333,-11547.212695,0.000000
281.599132,-11251.130318,-12953.603985,-459.657299
281.599454,-12509.480420,-12065.356855,-2374.896044
281.599776,-12139.377449,-9770.718434,-4903.011187
281.600098,-10066.800811,-8734.430116,-6128.763984
281.600420,-7105.977043,-7772.162391,-5898.935335
281.600742,-4293.194464,-7105.977043,-5132.839837
281.601064,-888.247130,-9474.636058,-3447.429741
281.601386,1776.494261,-11177.109724,-536.266849
281.601708,3182.885551,-10955.047942,-919.314598
281.602030,5181.441594,-10881.027347,-1838.629195
281.602352,7105.977043,-10140.821405,-1455.581446
281.602674,8438.347739,-7994.224174,0.000000
281.602996,7920.203579,-5181.441594,1455.581446
281.603318,6513.812290,-5107.421000,2298.286494
281.603641,4663.297435,-6957.935855,2451.505594
281.603963,1554.432478,-8216.285956,1532.190996
281.604285,-1628.453072,-9252.574275,1149.143247
281.604607,-3034.844362,-9474.636058,306.438199
281.604929,-3034.844362,-9992.780217,-1072.533697
281.605251,-3182.885551,-11325.150913,-995.924147
281.605573,-3923.091493,-11769.274478,459.657299
281.605895,-3552.988522,-10732.986159,-229.828649
281.606217,-2294.638420,-10288.862594,-4060.306139
281.606539,222.061783,-11621.233289,-5745.716235
281.606861,2442.679609,-12361.439231,-5515.887586
281.607183,4293.194464,-13101.645173,-4903.011187
281.607505,5847.626942,-13471.748144,-2987.772442
281.607827,7624.121203,-12583.501014,0.000000
281.608149,6587.832884,-9992.780217,383.047749
281.608471,3404.947333,-6439.791695,-383.047749
281.608793,444.123565,-4071.132681,-1302.362347
281.609115,-2368.659014,-3923.091493,-1685.410096
281.609437,-5477.523971,-5033.400406,0.000000
281.609759,-9400.615463,-6439.791695,2068.457845
281.610081,-11547.212695,-8512.368333,2221.676944
281.610403,-10584.944971,-10807.006753,-612.876398
281.610725,-8956.491898,-11695.253884,-3217.601092
281.611047,-6661.853478,-11621.233289,-2757.943793
281.611369,-3997.112087,-10807.006753,-1225.752797
281.611691,-1406.391290,-9696.697840,-1608.800546
281.611999,2812.782580,-9474.636058,-2757.943793
281.612321,7550.100608,-10436.903782,-3907.087040
281.612643,11325.150913,-12657.521608,-5286.058936
281.612965,13175.665768,-12953.603985,-5439.278036
281.613287,12805.562797,-11177.109724,-2145.067394
281.613608,10658.965565,-9918.759623,2374.896044
281.613930,7920.203579,-8660.409521,2298.286494
281.614252,5255.462188,-6365.771101,-536.266849
281.614574,1998.556043,-4367.215058,-2757.943793
281.614896,-2368.659014,-4885.359217,-1762.019645
281.615218,-6661.853478,-5847.626942,612.876398
281.615540,-9548.656652,-5255.462188,2681.334243
281.615862,-11547.212695,-4811.338623,1608.800546
281.616183,-11029.068536,-7698.141797,-3064.381992
281.616505,-10881.027347,-12583.501014,-5132.839837
281.616827,-9918.759623,-13841.851115,-4060.306139
281.617149,-8512.368333,-11177.109724,-3907.087040
281.617471,-4885.359217,-13027.624579,-4366.744339
281.617793,148.041188,-14952.160028,-2987.772442
281.618115,4293.194464,-12583.501014,-3370.820191
281.618437,7254.018232,-9474.636058,-7277.907231
281.618758,11843.295072,-11843.295072,-7431.126331
281.619080,14285.974681,-13619.789333,-2298.286494
281.619402,10658.965565,-9844.739029,1762.019645
281.619724,5033.400406,-5107.421000,2757.943793
281.620046,3256.906145,-4737.318029,1225.752797
281.620368,2590.720797,-5403.503377,-2528.115143
281.620690,-2664.741391,-6143.709319,-4136.915689
281.621011,-9696.697840,-7105.977043,1455.581446
281.621333,-12731.542202,-9326.594869,7048.078582
281.621655,-11621.233289,-11991.336260,4519.963438
281.621977,-9474.636058,-10881.027347,-1532.190996
281.622299,-7994.224174,-6365.771101,-2987.772442
281.622621,-5255.462188,-5329.482782,-4060.306139
281.622943,-2886.803174,-10214.842000,-4290.134789
281.623265,-1110.308913,-13545.768739,-1149.143247
281.623586,1776.494261,-12065.356855,-919.314598
281.623908,4737.318029,-12287.418637,-4366.744339
281.624230,7105.977043,-14137.933492,-5209.449386
281.624552,6809.894666,-11991.336260,-3600.648841
281.624874,5033.400406,-7846.182985,-2145.067394
281.625196,4737.318029,-6513.812290,76.609550
281.625518,3256.906145,-5773.606348,1838.629195
281.625839,1036.288319,-4367.215058,766.095498
281.626161,-1554.432478,-3849.070898,0.000000
281.626483,-3478.967927,-4737.318029,1072.533697
281.626805,-5107.421000,-5699.585753,1762.019645
281.627127,-6513.812290,-7624.121203,2298.286494
281.627449,-6883.915261,-12361.439231,919.314598
281.627771,-6365.771101,-13101.645173,0.000000
281.628093,-4367.215058,-9770.718434,-1915.238745
281.628414,-814.226536,-10436.903782,-3524.039291
281.628736,1702.473667,-14359.995275,-2068.457845
281.629058,2960.823768,-13545.768739,-612.876398
281.629380,5477.523971,-10510.924376,-2834.553343
281.629702,10510.924376,-12731.542202,-6281.983084
281.630024,13323.706956,-16580.613101,-5669.106685
281.630346,10288.862594,-13545.768739,-1685.410096
281.630668,4219.173869,-7105.977043,2068.457845
281.630989,1184.329507,-5551.544565,2681.334243
281.631311,296.082377,-6957.935855,-153.219100
281.631633,-3997.112087,-5773.606348,-3830.477490
281.631955,-10140.821405,-4589.276840,-2221.676944
281.632277,-13249.686362,-6513.812290,2604.724693
281.632599,-12657.521608,-8142.265362,3140.991542
281.632921,-11325.150913,-8660.409521,-766.095498
281.633242,-9178.553681,-9474.636058,-3447.429741
281.633564,-7179.997637,-9844.739029,-3294.210641
281.633886,-4885.359217,-9918.759623,-3217.601092
281.634208,-2960.823768,-11917.315666,-2987.772442
281.634530,1776.494261,-13323.706956,-2451.505594
281.634852,6735.874072,-12657.521608,-3753.867940
281.635174,10807.006753,-11843.295072,-5975.544884
281.635496,13545.768739,-11399.171507,-4213.525239
281.635817,14063.912898,-9548.656652,-229.828649
281.636139,11103.089130,-8734.430116,1838.629195
281.636461,6883.915261,-7105.977043,1991.848295
281.636783,4293.194464,-4737.318029,536.266849
281.637105,2072.576638,-3997.112087,-3294.210641
281.637427,-1850.514855,-5847.626942,-2681.334243
281.637749,-6291.750507,-4811.338623,1991.848295
281.638070,-8290.306550,-4737.318029,2987.772442
281.638392,-7772.162391,-9918.759623,-1378.971896
281.638714,-7402.059420,-13767.830521,-1838.629195
281.639036,-7920.203579,-9622.677246,-536.266849
281.639358,-6957.935855,-7254.018232,-5056.230287
281.639680,-3478.967927,-14508.036463,-5362.668486
281.640002,222.061783,-16802.674883,-2374.896044
281.640324,1702.473667,-12435.459826,-3064.381992
281.640645,4589.276840,-10066.800811,-4366.744339
281.640967,9696.697840,-13767.830521,-4903.011187
281.641289,12065.356855,-14804.118840,-4519.963438
281.641611,10066.800811,-9400.615463,-2374.896044
281.641933,5847.626942,-6883.915261,1072.533697
281.642255,2664.741391,-7920.203579,3217.601092
281.642577,0.000000,-5699.585753,842.705048
281.642899,-4885.359217,-2220.617826,-2911.162892
281.643220,-10955.047942,-4219.173869,-1378.971896
281.643542,-15026.180623,-8808.450710,3140.991542
281.643864,-16136.489536,-11621.233289,1608.800546
281.644186,-14137.933492,-11547.212695,-3294.210641
281.644508,-8586.388927,-9474.636058,-2834.553343
281.644830,-3552.988522,-7994.224174,-2068.457845
281.645152,-962.267725,-10732.986159,-3140.991542
281.645473,1776.494261,-12361.439231,-919.314598
281.645795,5181.441594,-10732.986159,-1455.581446
281.646117,8882.471304,-10732.986159,-5745.716235
281.646439,11769.274478,-12731.542202,-4673.182538
281.646761,10732.986159,-11029.068536,-2604.724693
281.647083,7402.059420,-9178.553681,-1225.752797
281.647405,5699.585753,-10362.883188,1302.362347
281.647727,3923.091493,-8660.409521,2298.286494
281.648048,2146.597232,-3478.967927,-536.266849
281.648370,-370.102971,-2664.741391,-2451.505594
281.648692,-3775.050304,-5847.626942,842.705048
281.649014,-7994.224174,-4737.318029,4366.744339
281.649336,-9992.780217,-4441.235652,1762.019645
281.649658,-8956.491898,-9844.739029,-1685.410096
281.649980,-7402.059420,-12435.459826,-2604.724693
281.650302,-7328.038826,-9474.636058,-2987.772442
281.650623,-6291.750507,-11621.233289,-2834.553343
281.650945,-2072.576638,-16284.530724,0.000000
281.651267,2590.720797,-13545.768739,-383.047749
281.651589,5255.462188,-9474.636058,-5056.230287
281.651911,8956.491898,-9844.739029,-6052.154434
281.652233,12213.398043,-13767.830521,-5132.839837
281.652555,11177.109724,-13693.809927,-3600.648841
281.652876,7031.956449,-10436.903782,1225.752797
281.653198,3256.906145,-7179.997637,5132.839837
281.653520,1480.411884,-6365.771101,1072.533697
281.653842,-518.144159,-6809.894666,-3907.087040
281.654164,-5921.647536,-7402.059420,-2681.334243
281.654486,-11103.089130,-7846.182985,3294.210641
281.654808,-12139.377449,-7698.141797,5132.839837
281.655130,-10510.924376,-9474.636058,229.828649
281.655451,-8586.388927,-9474.636058,-3064.381992
281.655773,-7105.977043,-7105.977043,-3064.381992
281.656095,-4959.379811,-8290.306550,-3524.039291
281.656417,-1702.473667,-13175.665768,-3294.210641
281.656739,2368.659014,-13915.871710,-1455.581446
281.657061,5477.523971,-11769.274478,-2987.772442
281.657383,9178.553681,-11991.336260,-4673.182538
281.657704,10732.986159,-13027.624579,-3600.648841
281.658026,9400.615463,-10807.006753,-2604.724693
281.658348,5329.482782,-8068.244768,-689.485948
281.658670,3478.967927,-6661.853478,1915.238745
281.658992,1776.494261,-5033.400406,459.657299
281.659314,-592.164754,-4885.359217,-2451.505594
281.659636,-3923.091493,-4737.318029,-1838.629195
281.659958,-6217.729913,-4367.215058,2298.286494
281.660279,-7550.100608,-4071.132681,2374.896044
281.660601,-8142.265362,-6883.915261,153.219100
281.660923,-8364.327145,-12287.418637,-1685.410096
281.661245,-7920.203579,-12953.603985,-2221.676944
281.661567,-5995.668130,-10214.842000,-3907.087040
281.661889,-2664.741391,-11547.212695,-3983.696590
281.662211,1924.535449,-13471.748144,-1378.971896
281.662533,5255.462188,-11695.253884,-1838.629195
281.662854,8216.285956,-10584.944971,-5286.058936
281.663176,12139.377449,-13545.768739,-6052.154434
281.663498,13397.727550,-15692.365970,-3524.039291
281.663820,8660.409521,-11769.274478,612.876398
281.664142,2294.638420,-7179.997637,2987.772442
281.664464,0.000000,-5625.565159,2221.676944
281.664786,-444.123565,-4737.318029,-2987.772442
281.665107,-4293.194464,-5625.565159,-4673.182538
281.665429,-9844.739029,-6735.874072,459.657299
281.665751,-12805.562797,-6217.729913,6052.154434
281.666073,-11769.274478,-9030.512492,2298.286494
281.666395,-9622.677246,-10584.944971,-2757.943793
281.666717,-8586.388927,-8734.430116,-3830.477490
281.667039,-6883.915261,-8142.265362,-4519.963438
281.667361,-3849.070898,-12805.562797,-4903.011187
281.667682,0.000000,-14063.912898,-2451.505594
281.668004,3627.009116,-12139.377449,-2528.115143
281.668326,8290.306550,-11843.295072,-4519.963438
281.668648,11695.253884,-12435.459826,-4060.306139
281.668970,11695.253884,-9844.739029,-3983.696590
281.669292,9178.553681,-8216.285956,-1915.238745
281.669614,6513.812290,-9104.533087,2145.067394
281.669936,3923.091493,-8512.368333,2604.724693
281.670257,1776.494261,-6217.729913,-842.705048
281.670579,-962.267725,-5625.565159,-2145.067394
281.670901,-3552.988522,-5181.441594,842.705048
281.671223,-5033.400406,-3849.070898,1838.629195
281.671545,-6587.832884,-5107.421000,536.266849
281.671867,-6661.853478,-10288.862594,-536.266849
281.672189,-6883.915261,-14137.933492,-536.266849
281.672510,-6883.915261,-11917.315666,-1608.800546
281.672832,-5181.441594,-10732.986159,-3677.258390
281.673154,-1184.329507,-13693.809927,-3447.429741
281.673476,2590.720797,-13619.789333,-2451.505594
281.673798,5477.523971,-11029.068536,-3447.429741
281.674120,9400.615463,-11991.336260,-5362.668486
281.674442,12583.501014,-14359.995275,-4136.915689
281.674764,10955.047942,-12731.542202,-689.485948
281.675085,4959.379811,-7328.038826,1378.971896
281.675407,1702.473667,-4885.359217,1838.629195
281.675729,1480.411884,-4737.318029,-1608.800546
281.676051,-1554.432478,-5255.462188,-4826.401637
281.676373,-8734.430116,-6587.832884,-383.047749
281.676695,-13915.871710,-7254.018232,6588.421283
281.677017,-13841.851115,-9104.533087,4366.744339
281.677338,-11177.109724,-11103.089130,-3064.381992
281.677660,-10140.821405,-8290.306550,-4596.572988
281.677982,-8660.409521,-6217.729913,-3064.381992
281.678304,-5921.647536,-9178.553681,-3370.820191
281.678626,-1776.494261,-12953.603985,-2068.457845
281.678948,2664.741391,-12805.562797,-1455.581446
281.679270,6365.771101,-12139.377449,-3677.258390
281.679592,9844.739029,-13915.871710,-4213.525239
281.679913,11325.150913,-11621.233289,-3064.381992
281.680235,10288.862594,-7402.059420,-2604.724693
281.680557,8882.471304,-7772.162391,76.609550
281.680879,6217.729913,-9104.533087,2451.505594
281.681201,2146.597232,-7105.977043,1302.362347
281.681523,-1184.329507,-4589.276840,-612.876398
281.681845,-3182.885551,-3997.112087,-153.219100
281.682167,-4219.173869,-5107.421000,612.876398
281.682488,-6883.915261,-5255.462188,1532.190996
281.682810,-9918.759623,-5625.565159,1762.019645
281.683132,-10732.986159,-9622.677246,306.438199
281.683454,-9474.636058,-11843.295072,-2681.334243
281.683776,-7476.080014,-10732.986159,-6205.373534
281.684098,-4589.276840,-11843.295072,-7048.078582
281.684420,-740.205942,-15396.283594,-3830.477490
281.684741,2812.782580,-15396.283594,-919.314598
281.685063,7254.018232,-12953.603985,-2681.334243
281.685385,11325.150913,-12287.418637,-5975.544884
281.685707,12435.459826,-13619.789333,-4596.572988
281.686029,8586.388927,-11399.171507,-995.924147
281.686351,2960.823768,-7105.977043,1455.581446
281.686673,1406.391290,-5033.400406,1149.143247
281.686995,1184.329507,-4959.379811,-612.876398
281.687316,-1628.453072,-5403.503377,-2145.067394
281.687638,-7254.018232,-6439.791695,229.828649
281.687960,-11177.109724,-7254.018232,4443.353888
281.688282,-11325.150913,-8734.430116,2451.505594
281.688604,-9400.615463,-10881.027347,-2145.067394
281.688926,-7254.018232,-11399.171507,-4519.963438
281.689248,-5033.400406,-8364.327145,-4443.353888
281.689569,-2442.679609,-9104.533087,-3600.648841
281.689891,1776.494261,-13915.871710,-1762.019645
281.690213,5773.606348,-15100.201217,-842.705048
281.690535,8586.388927,-12287.418637,-4213.525239
281.690857,10436.903782,-10436.903782,-6205.373534
281.691179,11029.068536,-10658.965565,-3064.381992
281.691501,7846.182985,-9622.677246,76.609550
281.691823,4071.132681,-7772.162391,1072.533697
281.692144,2590.720797,-5551.544565,995.924147
281.692466,1924.535449,-4219.173869,-612.876398
281.692788,-666.185348,-5477.523971,-2374.896044
281.693110,-4071.132681,-6069.688724,76.609550
281.693432,-7179.997637,-3552.988522,3064.381992
281.693754,-8290.306550,-3849.070898,1225.752797
281.694076,-7994.224174,-9178.553681,-1608.800546
281.694398,-7920.203579,-14359.995275,-3600.648841
281.694719,-7698.141797,-11917.315666,-3830.477490
281.695041,-5995.668130,-10881.027347,-4290.134789
281.695363,-1628.453072,-15026.180623,-1991.848295
281.695685,2442.679609,-15174.221811,76.609550
281.696007,5995.668130,-10732.986159,-2374.896044
281.696329,10140.821405,-9918.759623,-6435.202183
281.696651,14434.015869,-14137.933492,-5132.839837
281.696972,13471.748144,-13767.830521,-995.924147
281.697294,7550.100608,-8216.285956,2451.505594
281.697616,3330.926739,-3997.112087,3370.820191
281.697938,2886.803174,-4219.173869,766.095498
281.698260,1628.453072,-6069.688724,-3907.087040
281.698582,-5477.523971,-7031.956449,-3753.867940
281.698904,-11843.295072,-7772.162391,2911.162892
281.699226,-12953.603985,-9474.636058,4979.620737
281.699547,-11769.274478,-11251.130318,0.000000
281.699869,-11103.089130,-8438.347739,-3140.991542
281.700191,-9326.594869,-5403.503377,-4826.401637
281.700513,-7105.977043,-8808.450710,-5286.058936
281.700835,-4293.194464,-14211.954086,-3830.477490
281.701157,-1110.308913,-13841.851115,-2221.676944
281.701479,3330.926739,-11325.150913,-2757.943793
281.701801,8512.368333,-12435.459826,-4596.572988
281.702122,10140.821405,-12139.377449,-3983.696590
281.702444,8364.327145,-8290.306550,-2987.772442
281.702766,6439.791695,-6735.874072,-536.266849
281.703088,5255.462188,-8216.285956,1378.971896
281.703410,3182.885551,-7105.977043,1072.533697
281.703732,296.082377,-5477.523971,-612.876398
281.704054,-1110.308913,-4293.194464,0.000000
281.704375,-2072.576638,-5625.565159,766.095498
281.704697,-4737.318029,-4885.359217,1762.019645
281.705019,-7698.141797,-5329.482782,1302.362347
281.705341,-8512.368333,-10140.821405,-1302.362347
281.705663,-7550.100608,-14804.118840,-3830.477490
281.705985,-5625.565159,-13249.686362,-4366.744339
281.706307,-3627.009116,-12361.439231,-4290.134789
281.706629,74.020594,-14434.015869,-1532.190996
281.706950,4959.379811,-13693.809927,689.485948
281.707272,8660.409521,-10436.903782,-4136.915689
281.707594,11917.315666,-10510.924376,-6818.249932
281.707916,12731.542202,-13027.624579,-3753.867940
281.708238,7994.224174,-11695.253884,612.876398
281.708560,1110.308913,-6513.812290,2451.505594
281.708882,-444.123565,-4589.276840,1685.410096
281.709203,-592.164754,-4737.318029,-2604.724693
281.709525,-3923.091493,-7105.977043,-5592.497135
281.709847,-10881.027347,-8142.265362,0.000000
281.710169,-15618.345376,-7328.038826,6435.202183
281.710491,-14063.912898,-8364.327145,2451.505594
281.710813,-10510.924376,-10140.821405,-4060.306139
281.711135,-8068.244768,-8808.450710,-6588.421283
281.711457,-7031.956449,-7550.100608,-4673.182538
281.711778,-4737.318029,-11843.295072,-1838.629195
281.712100,148.041188,-13397.727550,0.000000
281.712422,5847.626942,-13397.727550,-2221.676944
281.712744,10362.883188,-12731.542202,-5132.839837
281.713065,12435.459826,-12583.501014,-3983.696590
281.713387,11843.295072,-10288.862594,-1838.629195
281.713709,9400.615463,-7698.141797,0.000000
281.714031,7550.100608,-7846.182985,2987.772442
281.714353,5033.400406,-5403.503377,1762.019645
281.714674,3034.844362,-2886.803174,-2834.553343
281.714996,0.000000,-6069.688724,-3294.210641
281.715318,-3849.070898,-8290.306550,2145.067394
281.715640,-7476.080014,-5107.421000,4673.182538
281.715961,-8882.471304,-5551.544565,842.705048
281.716283,-7772.162391,-10436.903782,-2451.505594
281.716605,-8364.327145,-12287.418637,-4060.306139
281.716927,-8734.430116,-10362.883188,-4290.134789
281.717248,-7254.018232,-12287.418637,-2987.772442
281.717570,-2442.679609,-14878.139434,-1072.533697
281.717892,444.123565,-12435.459826,-2451.505594
281.718214,5107.421000,-9548.656652,-4443.353888
281.718536,9030.512492,-11695.253884,-5669.106685
281.718857,11843.295072,-14508.036463,-5592.497135
281.719179,11547.212695,-13545.768739,-2298.286494
281.719501,7105.977043,-9622.677246,3447.429741
281.719823,3108.864956,-5921.647536,4826.401637
281.720144,1850.514855,-3701.029710,76.609550
281.720466,518.144159,-3775.050304,-4979.620737
281.720788,-3997.112087,-6069.688724,-3370.820191
281.721110,-9918.759623,-7550.100608,3140.991542
281.721432,-12139.377449,-8364.327145,4903.011187
281.721753,-10214.842000,-11917.315666,0.000000
281.722075,-8068.244768,-11177.109724,-3447.429741
281.722397,-6365.771101,-8068.244768,-4060.306139
281.722719,-4663.297435,-8142.265362,-4443.353888
281.723040,-2368.659014,-12953.603985,-2374.896044
281.723362,1480.411884,-13101.645173,-995.924147
281.723684,5477.523971,-11103.089130,-3677.258390
281.724006,9918.759623,-11251.130318,-5439.278036
281.724327,11695.253884,-11917.315666,-3600.648841
281.724649,9030.512492,-9844.739029,-2451.505594
281.724971,4737.318029,-7254.018232,842.705048
281.725293,2516.700203,-7402.059420,2834.553343
281.725615,1776.494261,-6513.812290,-612.876398
281.725936,0.000000,-5329.482782,-4596.572988
281.726258,-2738.761985,-5995.668130,-2681.334243
281.726580,-5995.668130,-5847.626942,3217.601092
281.726902,-8216.285956,-4663.297435,4060.306139
281.727223,-7920.203579,-6587.832884,-383.047749
281.727545,-6735.874072,-11843.295072,-4519.963438
281.727867,-6439.791695,-13027.624579,-3983.696590
281.728189,-6365.771101,-11695.253884,-2987.772442
281.728510,-4219.173869,-12805.562797,-1608.800546
281.728832,296.082377,-14285.974681,0.000000
281.729154,4737.318029,-11769.274478,-1762.019645
281.729476,8734.430116,-9696.697840,-5592.497135
281.729798,12731.542202,-12213.398043,-6741.640382
281.730119,14508.036463,-14211.954086,-3677.258390
281.730441,10807.006753,-11991.336260,1532.190996
281.730763,4737.318029,-6957.935855,4596.572988
281.731085,1702.473667,-3330.926739,2298.286494
281.731406,1406.391290,-3849.070898,-4290.134789
281.731728,-2886.803174,-6809.894666,-7201.297681
281.732050,-10732.986159,-7698.141797,-306.438199
281.732372,-14878.139434,-8068.244768,5822.325785
281.732694,-13989.892304,-11843.295072,2757.943793
281.733015,-10436.903782,-11843.295072,-2145.067394
281.733337,-8734.430116,-8364.327145,-4596.572988
281.733659,-7402.059420,-7179.997637,-5209.449386
281.733981,-4885.359217,-11917.315666,-2911.162892
281.734302,-2072.576638,-11991.336260,0.000000
281.734624,1998.556043,-9992.780217,-1838.629195
281.734946,7772.162391,-11399.171507,-4749.792088
281.735268,10732.986159,-13471.748144,-4366.744339
281.735589,9622.677246,-11621.233289,-3294.210641
281.735911,7254.018232,-8586.388927,-306.438199
281.736233,5625.565159,-8734.430116,2987.772442
281.736555,4441.235652,-7402.059420,2451.505594
281.736877,2368.659014,-3849.070898,-1991.848295
281.737198,74.020594,-4811.338623,-3217.601092
281.737520,-2664.741391,-6883.915261,1302.362347
281.737842,-5921.647536,-5551.544565,4290.134789
281.738164,-8290.306550,-5551.544565,1915.238745
281.738485,-8142.265362,-9104.533087,-1608.800546
281.738807,-7772.162391,-11843.295072,-2987.772442
281.739129,-7179.997637,-11769.274478,-3907.087040
281.739451,-5995.668130,-12805.562797,-3140.991542
281.739772,-2368.659014,-14359.995275,-766.095498
281.740094,1110.308913,-12657.521608,-536.266849
281.740416,5255.462188,-9992.780217,-2451.505594
281.740738,9474.636058,-10140.821405,-4826.401637
281.741060,11991.336260,-12657.521608,-6052.154434
281.741381,11029.068536,-12509.480420,-2987.772442
281.741703,6735.874072,-10288.862594,3217.601092
281.742025,2368.659014,-6587.832884,5286.058936
281.742347,518.144159,-3552.988522,612.876398
281.742668,-296.082377,-4367.215058,-4979.620737
281.742990,-4885.359217,-7031.956449,-4213.525239
281.743312,-10955.047942,-7772.162391,2681.334243
281.743634,-13915.871710,-7105.977043,5056.230287
281.743956,-11695.253884,-10584.944971,-229.828649
281.744277,-8216.285956,-11029.068536,-3677.258390
281.744599,-6883.915261,-7994.224174,-4749.792088
281.744921,-5477.523971,-8882.471304,-4903.011187
281.745243,-2886.803174,-14063.912898,-2374.896044
281.745564,1406.391290,-13619.789333,-919.314598
281.745886,6143.709319,-10955.047942,-3830.477490
281.746208,10732.986159,-10214.842000,-5669.106685
281.746530,13101.645173,-11177.109724,-4213.525239
281.746851,11769.274478,-9622.677246,-2834.553343
281.747173,7698.141797,-8364.327145,536.266849
281.747495,5181.441594,-8142.265362,3447.429741
281.747817,2960.823768,-6957.935855,0.000000
281.748139,222.061783,-6143.709319,-4443.353888
281.748460,-3034.844362,-6217.729913,-3064.381992
281.748782,-6217.729913,-5107.421000,1608.800546
281.749104,-7402.059420,-5403.503377,2451.505594
281.749426,-8438.347739,-7179.997637,153.219100
281.749747,-8882.471304,-11103.089130,-2068.457845
281.750069,-9400.615463,-11473.192101,-3217.601092
281.750391,-8068.244768,-9918.759623,-4749.792088
281.750713,-5403.503377,-12731.542202,-4749.792088
281.751035,-1406.391290,-15248.242405,-2987.772442
281.751356,2072.576638,-13471.748144,-1838.629195
281.751678,5551.544565,-11399.171507,-3447.429741
281.752000,9474.636058,-12361.439231,-4596.572988
281.752322,12065.356855,-12361.439231,-3983.696590
281.752643,11399.171507,-10362.883188,-2221.676944
281.752965,7994.224174,-7031.956449,612.876398
281.753287,5033.400406,-6365.771101,2298.286494
281.753609,2368.659014,-5995.668130,1302.362347
281.753930,-1406.391290,-5181.441594,-1455.581446
281.754252,-6069.688724,-6217.729913,-919.314598
281.754574,-9770.718434,-8290.306550,1991.848295
281.754896,-11473.192101,-9992.780217,2221.676944
281.755218,-11103.089130,-11547.212695,306.438199
281.755539,-9326.594869,-9474.636058,-1838.629195
281.755861,-6513.812290,-6513.812290,-2604.724693
281.756183,-4145.153275,-7105.977043,-3830.477490
281.756505,-1702.473667,-11251.130318,-2834.553343
281.756826,1184.329507,-12509.480420,-1302.362347
281.757148,4737.318029,-11843.295072,-3217.601092
281.757470,8660.409521,-12361.439231,-4596.572988
281.757792,10807.006753,-13619.789333,-2757.943793
281.758113,9400.615463,-10584.944971,-766.095498
281.758435,5625.565159,-6957.935855,1302.362347
281.758757,3478.967927,-5329.482782,1991.848295
281.759079,2220.617826,-5033.400406,0.000000
281.759401,-962.267725,-6217.729913,-2604.724693
281.759722,-5699.585753,-6735.874072,-842.705048
281.760044,-8882.471304,-6143.709319,2681.334243
281.760366,-9104.533087,-6513.812290,2374.896044
281.760688,-7994.224174,-8956.491898,-1149.143247
281.761009,-7031.956449,-11547.212695,-2451.505594
281.761331,-6661.853478,-10881.027347,-2451.505594
281.761653,-4663.297435,-9770.718434,-2451.505594
281.761975,-1776.494261,-12287.418637,-2451.505594
281.762297,1924.535449,-14359.995275,-1149.143247
281.762618,5181.441594,-12287.418637,-2604.724693
281.762940,8660.409521,-11843.295072,-5209.449386
281.763262,12361.439231,-14063.912898,-5515.887586
281.763584,13175.665768,-13619.789333,-1149.143247
281.763905,9178.553681,-8734.430116,1991.848295
281.764227,4071.132681,-4515.256246,1915.238745
281.764549,1554.432478,-4293.194464,383.047749
281.764871,-370.102971,-5995.668130,-3064.381992
281.765192,-6439.791695,-6661.853478,-4366.744339
281.765514,-12361.439231,-7920.203579,1072.533697
281.765836,-14508.036463,-8660.409521,5439.278036
281.766158,-13027.624579,-10732.986159,919.314598
281.766480,-10658.965565,-9770.718434,-4136.915689
281.766801,-7920.203579,-7846.182985,-5286.058936
281.767123,-5773.606348,-8734.430116,-4749.792088
281.767445,-4219.173869,-12213.398043,-2528.115143
281.767767,-1332.370696,-11695.253884,0.000000
281.768088,3775.050304,-10288.862594,-2451.505594
281.768410,9474.636058,-11843.295072,-6818.249932
281.768732,12953.603985,-14211.954086,-6052.154434
281.769054,12583.501014,-11695.253884,-2298.286494
281.769376,9104.533087,-7994.224174,1991.848295
281.769697,6957.935855,-7550.100608,4366.744339
281.770019,4367.215058,-6439.791695,1608.800546
281.770341,1924.535449,-4219.173869,-3217.601092
281.770663,-1628.453072,-5255.462188,-4673.182538
281.770984,-5625.565159,-7105.977043,689.485948
281.771306,-8438.347739,-6069.688724,5056.230287
281.771628,-9326.594869,-5921.647536,3064.381992
281.771950,-8216.285956,-10807.006753,-2451.505594
281.772271,-7402.059420,-11769.274478,-3830.477490
281.772593,-7328.038826,-9474.636058,-4443.353888
281.772915,-5403.503377,-11325.150913,-3983.696590
281.773237,-1776.494261,-15174.221811,-2221.676944
281.773559,2960.823768,-13619.789333,-1378.971896
281.773880,6735.874072,-10955.047942,-4060.306139
281.774202,10066.800811,-12435.459826,-5745.716235
281.774524,12287.418637,-13767.830521,-3983.696590
281.774846,10807.006753,-11103.089130,-1455.581446
281.775167,5995.668130,-7772.162391,1072.533697
281.775489,1850.514855,-7254.018232,3140.991542
281.775811,0.000000,-5995.668130,995.924147
281.776133,-2146.597232,-4589.276840,-3753.867940
281.776454,-6513.812290,-4885.359217,-1915.238745
281.776776,-10658.965565,-5847.626942,3983.696590
281.777098,-11843.295072,-8734.430116,4136.915689
281.777420,-9918.759623,-12361.439231,-383.047749
281.777742,-7476.080014,-10436.903782,-2987.772442
281.778063,-5181.441594,-6661.853478,-2451.505594
281.778385,-2664.741391,-9178.553681,-2987.772442
281.778707,-1554.432478,-13249.686362,-995.924147
281.779029,888.247130,-10955.047942,0.000000
281.779350,5329.482782,-8586.388927,-4903.011187
281.779672,10584.944971,-11991.336260,-7354.516781
281.779994,13545.768739,-14211.954086,-4596.572988
281.780316,10881.027347,-11029.068536,-995.924147
281.780638,6957.935855,-7920.203579,2604.724693
281.780959,4515.256246,-7105.977043,4673.182538
281.781281,2590.720797,-5551.544565,229.828649
281.781603,-1036.288319,-3849.070898,-5822.325785
281.781925,-5773.606348,-4589.276840,-3677.258390
281.782246,-8956.491898,-7179.997637,2681.334243
281.782568,-9104.533087,-8734.430116,4290.134789
281.782890,-7402.059420,-11177.109724,536.266849
281.783212,-5921.647536,-10066.800811,-1685.410096
281.783533,-4885.359217,-7698.141797,-2528.115143
281.783855,-4071.132681,-9178.553681,-4519.963438
281.784177,-2664.741391,-13989.892304,-3524.039291
281.784499,148.041188,-14285.974681,-1838.629195
281.784821,3552.988522,-11547.212695,-3064.381992
281.785142,7846.182985,-11843.295072,-4903.011187
281.785464,11769.274478,-14656.077652,-4519.963438
281.785786,12361.439231,-13397.727550,-3753.867940
281.786108,9474.636058,-9326.594869,-995.924147
281.786429,4515.256246,-7254.018232,2221.676944
281.786751,444.123565,-6809.894666,2528.115143
281.787073,-2738.761985,-5033.400406,-2068.457845
281.787395,-7031.956449,-5181.441594,-4903.011187
281.787716,-11251.130318,-7179.997637,-612.876398
281.788038,-13545.768739,-9252.574275,4060.306139
281.788360,-13027.624579,-10881.027347,2221.676944
281.788682,-10658.965565,-9252.574275,-612.876398
281.789004,-6957.935855,-6661.853478,-1838.629195
281.789325,-4071.132681,-6661.853478,-3753.867940
281.789647,-2368.659014,-10955.047942,-4136.915689
281.789969,-444.123565,-11991.336260,-2298.286494
281.790291,2812.782580,-9252.574275,-2451.505594
281.790612,8068.244768,-11251.130318,-5209.449386
281.790934,11029.068536,-14434.015869,-4903.011187
281.791256,10807.006753,-13323.706956,-3217.601092
281.791578,7994.224174,-9474.636058,-383.047749
281.791900,5329.482782,-8216.285956,2451.505594
281.792221,2886.803174,-7179.997637,995.924147
281.792543,1036.288319,-4737.318029,-2374.896044
281.792865,-2664.741391,-3997.112087,-3524.039291
281.793187,-5699.585753,-5995.668130,919.314598
281.793508,-7994.224174,-6439.791695,4443.353888
281.793830,-9030.512492,-6883.915261,2681.334243
281.794152,-7920.203579,-9622.677246,-612.876398
281.794474,-7105.977043,-10214.842000,-1838.629195
281.794795,-5847.626942,-8512.368333,-2604.724693
281.795117,-3849.070898,-9918.759623,-3753.867940
281.795439,-1036.288319,-13249.686362,-1685.410096
281.795761,2368.659014,-11917.315666,-2068.457845
281.796083,5625.565159,-11325.150913,-4443.353888
281.796404,8882.471304,-13841.851115,-5286.058936
281.796726,11029.068536,-15470.304188,-3830.477490
281.797048,9474.636058,-13767.830521,-1762.019645
281.797370,5551.544565,-9474.636058,1072.533697
281.797691,2368.659014,-7179.997637,2374.896044
281.798013,814.226536,-5403.503377,0.000000
281.798335,-2072.576638,-4515.256246,-3983.696590
281.798657,-6513.812290,-5847.626942,-1762.019645
281.798979,-9770.718434,-7031.956449,3830.477490
281.799300,-10436.903782,-8734.430116,3753.867940
281.799622,-8438.347739,-12139.377449,612.876398
281.799944,-5847.626942,-10436.903782,-766.095498
281.800266,-4145.153275,-6957.935855,-2145.067394
281.800587,-2220.617826,-7772.162391,-3753.867940
281.800909,-518.144159,-11399.171507,-2068.457845
281.801231,1776.494261,-10955.047942,-1455.581446
281.801553,4663.297435,-9178.553681,-4749.792088
281.801874,9400.615463,-11473.192101,-6205.373534
281.802196,12657.521608,-14137.933492,-4903.011187
281.802518,11473.192101,-12583.501014,-1991.848295
281.802840,6883.915261,-9622.677246,1915.238745
281.803162,3478.967927,-6957.935855,3983.696590
281.803483,1702.473667,-5995.668130,-383.047749
281.803805,-2072.576638,-5033.400406,-4673.182538
281.804127,-6883.915261,-5107.421000,-3294.210641
281.804449,-9178.553681,-5477.523971,689.485948
281.804770,-9400.615463,-6957.935855,2528.115143
281.805092,-7994.224174,-8734.430116,1072.533697
281.805414,-6809.894666,-10732.986159,-1225.752797
281.805736,-5477.523971,-9326.594869,-2911.162892
281.806057,-3627.009116,-8734.430116,-4290.134789
281.806379,-1258.350101,-11991.336260,-4366.744339
281.806701,1110.308913,-14656.077652,-2528.115143
281.807023,4219.173869,-12805.562797,-2451.505594
281.807345,7254.018232,-11547.212695,-5056.230287
281.807666,11103.089130,-13619.789333,-5898.935335
281.807988,12879.583391,-14211.954086,-3447.429741
281.808310,10214.842000,-10510.924376,-1072.533697
281.808632,4737.318029,-7328.038826,1149.143247
281.808953,1184.329507,-6735.874072,1838.629195
281.809275,-1480.411884,-5847.626942,-1838.629195
281.809597,-5403.503377,-5551.544565,-4443.353888
281.809919,-10584.944971,-6291.750507,-1685.410096
281.810241,-12805.562797,-8142.265362,2451.505594
281.810562,-12139.377449,-10288.862594,1762.019645
281.810884,-9548.656652,-10732.986159,-383.047749
281.811206,-6291.750507,-7920.203579,-2145.067394
281.811528,-3627.009116,-6513.812290,-3447.429741
281.811850,-2368.659014,-9474.636058,-3677.258390
281.812172,-518.144159,-11843.295072,-1608.800546
281.812494,2146.597232,-10140.821405,-2681.334243
281.812816,6513.812290,-10881.027347,-6894.859482
281.813138,9622.677246,-13767.830521,-6128.763984
281.813460,10584.944971,-14211.954086,-2757.943793
281.813782,7772.162391,-10436.903782,459.657299
281.814104,4663.297435,-7328.038826,2068.457845
281.814426,2960.823768,-6439.791695,1302.362347
281.814748,1924.535449,-5107.421000,-2834.553343
281.815070,-2368.659014,-4885.359217,-4060.306139
281.815392,-6439.791695,-6513.812290,306.438199
281.815714,-8290.306550,-7031.956449,4290.134789
281.816035,-7550.100608,-8660.409521,2221.676944
281.816357,-5773.606348,-11251.130318,-689.485948
281.816679,-5329.482782,-10362.883188,-536.266849
281.817001,-4737.318029,-7846.182985,-1225.752797
281.817323,-3330.926739,-9400.615463,-3140.991542
281.817645,0.000000,-13693.809927,-2604.724693
281.817967,2220.617826,-12657.521608,-2834.553343
281.818289,4293.194464,-10881.027347,-3907.087040
281.818611,6957.935855,-11843.295072,-3217.601092
281.818933,9178.553681,-13693.809927,-2298.286494
281.819255,9252.574275,-12583.501014,-2298.286494
281.819577,6809.894666,-9252.574275,-383.047749
281.819899,2886.803174,-7328.038826,1149.143247
281.820221,-444.123565,-6661.853478,1302.362347
281.820543,-4441.235652,-5773.606348,-536.266849
281.820865,-8068.244768,-5329.482782,-689.485948
281.821187,-11177.109724,-6735.874072,383.047749
281.821509,-12731.542202,-9104.533087,2145.067394
281.821831,-12139.377449,-10807.006753,1455.581446
281.822153,-9696.697840,-9918.759623,-842.705048
281.822475,-6143.709319,-7105.977043,-2298.286494
281.822797,-2294.638420,-7031.956449,-2681.334243
281.823119,-222.061783,-10140.821405,-2911.162892
281.823441,1924.535449,-11103.089130,-2451.505594
281.823763,4071.132681,-10881.027347,-3217.601092
281.824085,7624.121203,-11547.212695,-4749.792088
281.824407,10732.986159,-13693.809927,-4290.134789
281.824729,10584.944971,-12657.521608,-2068.457845
281.825051,7624.121203,-9474.636058,842.705048
281.825373,5699.585753,-7031.956449,2528.115143
281.825695,4441.235652,-5181.441594,995.924147
281.826017,1924.535449,-4663.297435,-2374.896044
281.826339,-2294.638420,-6143.709319,-2298.286494
281.826661,-6513.812290,-6439.791695,919.314598
281.826983,-7402.059420,-7031.956449,1149.143247
281.827305,-7846.182985,-9918.759623,229.828649
281.827627,-7994.224174,-10881.027347,306.438199
281.827949,-8142.265362,-8660.409521,-1225.752797
281.828271,-5773.606348,-8216.285956,-4903.011187
281.828593,-148.041188,-11103.089130,-6281.983084
281.828915,3923.091493,-13027.624579,-5132.839837
281.829237,5329.482782,-14063.912898,-2757.943793
281.829559,6735.874072,-13545.768739,-536.266849
281.829881,9104.533087,-13397.727550,-1838.629195
281.830202,10584.944971,-13767.830521,-4673.182538
281.830524,9104.533087,-11695.253884,-4366.744339
281.830846,4367.215058,-9252.574275,-1072.533697
281.831168,222.061783,-7031.956449,383.047749
281.831490,-1406.391290,-6069.688724,995.924147
281.831812,-3404.947333,-4367.215058,689.485948
281.832134,-6365.771101,-4219.173869,-1302.362347
281.832456,-8956.491898,-7179.997637,-459.657299
281.832778,-11251.130318,-9696.697840,919.314598
281.833100,-11843.295072,-9622.677246,536.266849
281.833422,-9770.718434,-9400.615463,-919.314598
281.833744,-5921.647536,-8586.388927,-3600.648841
281.834066,-2442.679609,-9696.697840,-5439.278036
281.834388,-592.164754,-10881.027347,-3983.696590
281.834710,2368.659014,-11547.212695,-1302.362347
281.835032,6661.853478,-11695.253884,-2451.505594
281.835354,9844.739029,-11917.315666,-5515.887586
281.835676,12287.418637,-12731.542202,-5056.230287
281.835998,11621.233289,-10955.047942,-459.657299
281.836320,7402.059420,-7624.121203,1378.971896
281.836642,4071.132681,-5847.626942,1149.143247
281.836964,1628.453072,-5403.503377,459.657299
281.837286,-2294.638420,-5477.523971,-383.047749
281.837608,-6439.791695,-6587.832884,-1762.019645
281.837930,-8956.491898,-7994.224174,1532.190996
281.838252,-9030.512492,-8068.244768,2757.943793
281.838574,-8142.265362,-8068.244768,306.438199
281.838896,-6735.874072,-8956.491898,-1915.238745
281.839218,-5477.523971,-8216.285956,-1991.848295
281.839540,-4071.132681,-8364.327145,-3753.867940
281.839862,-2886.803174,-12361.439231,-4519.963438
281.840184,148.041188,-15396.283594,-2221.676944
281.840506,3256.906145,-13693.809927,-2221.676944
281.840828,6291.750507,-11769.274478,-5132.839837
281.841150,9622.677246,-13471.748144,-4290.134789
281.841472,10658.965565,-12657.521608,-1225.752797
281.841794,8290.306550,-8586.388927,-689.485948
281.842116,3701.029710,-5995.668130,-919.314598
281.842438,814.226536,-6957.935855,1302.362347
281.842760,-2442.679609,-7328.038826,383.047749
281.843082,-6661.853478,-6587.832884,-1762.019645
281.843404,-9622.677246,-7402.059420,0.000000
281.843726,-10214.842000,-9326.594869,3217.601092
281.844047,-9770.718434,-9770.718434,2145.067394
281.844369,-8142.265362,-9326.594869,-689.485948
281.844691,-5403.503377,-7254.018232,-1762.019645
281.845013,-2220.617826,-6661.853478,-2451.505594
281.845335,-592.164754,-9474.636058,-3294.210641
281.845657,592.164754,-12287.418637,-1608.800546
281.845979,2812.782580,-11547.212695,-2757.943793
281.846301,6809.894666,-11621.233289,-5439.278036
281.846623,9992.780217,-14285.974681,-5822.325785
281.846945,10732.986159,-14359.995275,-1991.848295
281.847267,7920.203579,-10288.862594,459.657299
281.847589,4737.318029,-6217.729913,1838.629195
281.847911,2664.741391,-4589.276840,1225.752797
281.848233,74.020594,-4737.318029,-1072.533697
281.848555,-4885.359217,-5033.400406,-3064.381992
281.848877,-8364.327145,-5699.585753,-1302.362347
281.849199,-8438.347739,-7698.141797,1685.410096
281.849521,-7105.977043,-10658.965565,1762.019645
281.849843,-6957.935855,-11695.253884,1378.971896
281.850165,-6439.791695,-9178.553681,306.438199
281.850487,-4515.256246,-7254.018232,-2757.943793
281.850809,-1258.350101,-9474.636058,-5439.278036
281.851131,962.267725,-12805.562797,-4290.134789
281.851453,2590.720797,-13175.665768,-2604.724693
281.851775,4663.297435,-12731.542202,-2681.334243
281.852097,8512.368333,-14952.160028,-3294.210641
281.852419,10732.986159,-15544.324782,-2757.943793
281.852741,9400.615463,-11991.336260,-1225.752797
281.853063,4441.235652,-7624.121203,0.000000
281.853385,740.205942,-5995.668130,612.876398
281.853707,-1258.350101,-6291.750507,229.828649
281.854029,-4071.132681,-5551.544565,-1991.848295
281.854351,-7772.162391,-5699.585753,-1838.629195
281.854673,-9474.636058,-7698.141797,1302.362347
281.854995,-10214.842000,-10732.986159,2451.505594
281.855317,-9992.780217,-10584.944971,919.314598
281.855639,-8290.306550,-8438.347739,-306.438199
281.855961,-5255.462188,-7105.977043,-3217.601092
281.856283,-1850.514855,-8734.430116,-5439.278036
281.856605,518.144159,-10955.047942,-3370.820191
281.856927,3034.844362,-11325.150913,-1915.238745
281.857249,5921.647536,-10732.986159,-2757.943793
281.857571,9474.636058,-11177.109724,-3753.867940
281.857892,11177.109724,-11473.192101,-2987.772442
281.858214,9918.759623,-9992.780217,-1225.752797
281.858536,6069.688724,-8364.327145,-689.485948
281.858858,3182.885551,-7328.038826,229.828649
281.859180,814.226536,-6439.791695,153.219100
281.859502,-1924.535449,-5699.585753,-1302.362347
281.859824,-4293.194464,-5255.462188,-1838.629195
281.860146,-5773.606348,-7476.080014,0.000000
281.860468,-7105.977043,-9252.574275,1455.581446
281.860790,-8068.244768,-9030.512492,1915.238745
281.861112,-7476.080014,-8290.306550,0.000000
281.861434,-5033.400406,-7772.162391,-3753.867940
281.861756,-1924.535449,-9474.636058,-6435.202183
281.862078,518.144159,-13101.645173,-5898.935335
281.862400,2886.803174,-15766.386565,-3064.381992
281.862722,5477.523971,-15396.283594,-766.095498
281.863044,8512.368333,-12953.603985,-1225.752797
281.863366,9918.759623,-11695.253884,-3217.601092
281.863688,8512.368333,-10584.944971,-3677.258390
281.864010,4589.276840,-9030.512492,-3064.381992
281.864332,1110.308913,-7031.956449,-1915.238745
281.864654,-962.267725,-6143.709319,-689.485948
281.864976,-3404.947333,-7105.977043,536.266849
281.865298,-6587.832884,-8364.327145,995.924147
281.865620,-9474.636058,-8882.471304,1685.410096
281.865942,-10807.006753,-9918.759623,1608.800546
281.866264,-10584.944971,-9844.739029,306.438199
281.866586,-9696.697840,-7920.203579,-612.876398
281.866908,-7328.038826,-5255.462188,-2374.896044
281.867230,-3775.050304,-6069.688724,-4290.134789
281.867552,370.102971,-9474.636058,-4136.915689
281.867874,3256.906145,-13323.706956,-2681.334243
281.868196,5403.503377,-14063.912898,-1838.629195
281.868518,8142.265362,-12435.459826,-2221.676944
281.868840,9770.718434,-11917.315666,-2911.162892
281.869162,10214.842000,-10955.047942,-2528.115143
281.869484,7698.141797,-8068.244768,-2068.457845
281.869806,4737.318029,-5625.565159,-766.095498
281.870128,2590.720797,-4071.132681,842.705048
281.870450,518.144159,-5107.421000,1149.143247
281.870772,-2664.741391,-6439.791695,76.609550
281.871094,-5403.503377,-8290.306550,612.876398
281.871416,-7772.162391,-8660.409521,2145.067394
281.871738,-9400.615463,-8660.409521,1838.629195
281.872059,-9400.615463,-8068.244768,-536.266849
281.872381,-7328.038826,-7624.121203,-2757.943793
281.872703,-4885.359217,-8438.347739,-5132.839837
281.873025,-1998.556043,-11473.192101,-4979.620737
281.873347,888.247130,-14730.098246,-2987.772442
281.873669,3923.091493,-15840.407159,-1149.143247
281.873991,6735.874072,-13397.727550,-2068.457845
281.874313,9252.574275,-11991.336260,-3600.648841
281.874635,9326.594869,-11695.253884,-3753.867940
281.874957,6365.771101,-10066.800811,-2834.553343
281.875279,2368.659014,-7624.121203,-1838.629195
281.875601,518.144159,-6587.832884,-919.314598
281.875923,-1258.350101,-7105.977043,306.438199
281.876245,-3849.070898,-8068.244768,459.657299
281.876567,-6439.791695,-8586.388927,766.095498
281.876889,-7846.182985,-8882.471304,2298.286494
281.877211,-8956.491898,-8734.430116,2451.505594
281.877533,-9622.677246,-7846.182985,0.000000
281.877855,-9326.594869,-7105.977043,-1838.629195
281.878177,-7031.956449,-6513.812290,-3907.087040
281.878499,-2886.803174,-8808.450710,-5362.668486
281.878821,888.247130,-12583.501014,-4366.744339
281.879143,3849.070898,-14656.077652,-2374.896044
281.879465,6809.894666,-13619.789333,-1302.362347
281.879787,9696.697840,-11695.253884,-2221.676944
281.880109,11103.089130,-10362.883188,-3064.381992
281.880431,9696.697840,-8364.327145,-2528.115143
281.880753,5551.544565,-6217.729913,-1838.629195
281.881075,1554.432478,-5255.462188,-229.828649
281.881397,-666.185348,-5107.421000,1149.143247
281.881719,-2294.638420,-5921.647536,0.000000
281.882041,-3923.091493,-7179.997637,-1225.752797
281.882363,-5403.503377,-8660.409521,1762.019645
281.882685,-7179.997637,-9992.780217,2451.505594
281.883007,-9326.594869,-8808.450710,2451.505594
281.883329,-8956.491898,-7476.080014,0.000000
281.883651,-7179.997637,-6069.688724,-4213.525239
281.883973,-4071.132681,-7550.100608,-6971.469032
281.884295,-370.102971,-11547.212695,-4903.011187
281.884617,1628.453072,-14952.160028,-2451.505594
281.884939,5255.462188,-15470.304188,-1302.362347
281.885261,9400.615463,-14211.954086,-2451.505594
281.885583,11695.253884,-14137.933492,-3370.820191
281.885904,10584.944971,-11843.295072,-1762.019645
281.886226,6439.791695,-8660.409521,-1991.848295
281.886548,2146.597232,-6217.729913,-1838.629195
281.886870,74.020594,-6143.709319,-766.095498
281.887192,-2220.617826,-6883.915261,0.000000
281.887514,-5403.503377,-7031.956449,0.000000
281.887836,-7179.997637,-8586.388927,459.657299
281.888158,-8438.347739,-10140.821405,2374.896044
281.888480,-9622.677246,-9474.636058,2145.067394
281.888802,-9992.780217,-7402.059420,995.924147
281.889124,-8512.368333,-6069.688724,-2451.505594
281.889446,-4885.359217,-6957.935855,-5132.839837
281.889768,-1480.411884,-9178.553681,-6128.763984
281.890090,1554.432478,-12805.562797,-3830.477490
281.890412,4589.276840,-14434.015869,-1762.019645
281.890734,7920.203579,-12953.603985,-1302.362347
281.891056,10807.006753,-11177.109724,-2834.553343
281.891378,11843.295072,-9770.718434,-2757.943793
281.891700,8808.450710,-8142.265362,-2528.115143
281.892022,4737.318029,-7031.956449,-1991.848295
281.892344,1776.494261,-6291.750507,-536.266849
281.892666,-148.041188,-6883.915261,1072.533697
281.892988,-2072.576638,-7402.059420,536.266849
281.893310,-4071.132681,-8290.306550,612.876398
281.893632,-5921.647536,-9030.512492,1838.629195
281.893954,-7846.182985,-8216.285956,1991.848295
281.894276,-8586.388927,-6291.750507,766.095498
281.894598,-8734.430116,-5255.462188,-2068.457845
281.894920,-6809.894666,-7550.100608,-5669.106685
281.895242,-3330.926739,-11103.089130,-7048.078582
281.895564,222.061783,-14137.933492,-5515.887586
281.895886,4071.132681,-17098.757260,-2834.553343
281.896208,7550.100608,-17468.860231,76.609550
281.896530,10436.903782,-14063.912898,-383.047749
281.896852,10288.862594,-10214.842000,-2834.553343
281.897174,8512.368333,-8586.388927,-3830.477490
281.897496,5033.400406,-7476.080014,-3217.601092
281.897818,814.226536,-6143.709319,-2298.286494
281.898140,-2442.679609,-6735.874072,-459.657299
281.898462,-4737.318029,-8956.491898,2604.724693
281.898784,-6809.894666,-10214.842000,3370.820191
281.899106,-8586.388927,-9474.636058,2068.457845
281.899428,-9548.656652,-8660.409521,842.705048
281.899750,-9326.594869,-7105.977043,612.876398
281.900071,-9326.594869,-4515.256246,-459.657299
281.900393,-7846.182985,-4737.318029,-2834.553343
281.900715,-4589.276840,-6809.894666,-4366.744339
281.901037,-814.226536,-9918.759623,-4826.401637
281.901359,2368.659014,-13101.645173,-3830.477490
281.901681,5477.523971,-15544.324782,-2145.067394
281.902003,8364.327145,-14508.036463,-1762.019645
281.902325,10288.862594,-12361.439231,-2528.115143
281.902647,10140.821405,-10140.821405,-2298.286494
281.902969,7328.038826,-7254.018232,-1532.190996
281.903291,4145.153275,-3923.091493,-1532.190996
281.903613,1702.473667,-4071.132681,-2068.457845
281.903935,-1332.370696,-6069.688724,229.828649
281.904257,-4515.256246,-7698.141797,1455.581446
281.904579,-6587.832884,-8142.265362,1302.362347
281.904901,-7920.203579,-9622.677246,919.314598
281.905223,-8586.388927,-10288.862594,1532.190996
281.905545,-9178.553681,-7476.080014,229.828649
281.905867,-8438.347739,-5477.523971,-2911.162892
281.906189,-4959.379811,-7179.997637,-5362.668486
281.906511,0.000000,-10214.842000,-5515.887586
281.906833,3108.864956,-14211.954086,-4366.744339
281.907155,6513.812290,-16876.695478,-1838.629195
281.907477,9844.739029,-16358.551318,76.609550
281.907799,11843.295072,-14063.912898,-1225.752797
281.908121,11177.109724,-11399.171507,-2145.067394
281.908443,7550.100608,-9400.615463,-2374.896044
281.908765,2368.659014,-7846.182985,-3294.210641
281.909087,-1850.514855,-6883.915261,-2528.115143
281.909409,-5107.421000,-7328.038826,-229.828649
281.909731,-7698.141797,-7254.018232,689.485948
281.910053,-9474.636058,-8438.347739,1149.143247
281.910375,-10362.883188,-10288.862594,1532.190996
281.910697,-10955.047942,-9474.636058,689.485948
281.911019,-9992.780217,-6883.915261,-766.095498
281.911341,-8512.368333,-5181.441594,-2374.896044
281.911663,-6365.771101,-6957.935855,-3677.258390
281.911985,-4293.194464,-9326.594869,-4213.525239
281.912307,-1258.350101,-11991.336260,-3600.648841
281.912629,2738.761985,-12805.562797,-2451.505594
281.912951,7846.182985,-12953.603985,-3447.429741
281.913273,11991.336260,-13027.624579,-4443.353888
281.913595,13545.768739,-11473.192101,-2374.896044
281.913916,12509.480420,-8660.409521,1149.143247
281.914238,8586.388927,-6365.771101,919.314598
281.914560,4737.318029,-5477.523971,306.438199
281.914882,888.247130,-5551.544565,-383.047749
281.915204,-2960.823768,-5847.626942,-2451.505594
281.915526,-4885.359217,-8216.285956,-1915.238745
281.915848,-5921.647536,-9918.759623,1685.410096
281.916169,-7031.956449,-11251.130318,3294.210641
281.916491,-7179.997637,-9326.594869,2604.724693
281.916813,-6661.853478,-5107.421000,-306.438199
281.917135,-4737.318029,-4589.276840,-4519.963438
281.917457,-2220.617826,-8586.388927,-6128.763984
281.917778,148.041188,-13027.624579,-5362.668486
281.918100,2220.617826,-14878.139434,-2834.553343
281.918422,5625.565159,-15248.242405,-842.705048
281.918744,9474.636058,-14878.139434,-306.438199
281.919066,10732.986159,-13545.768739,-2374.896044
281.919388,9030.512492,-9918.759623,-3524.039291
281.919709,5329.482782,-7846.182985,-3447.429741
281.920031,1628.453072,-7105.977043,-2374.896044
281.920353,-1480.411884,-7772.162391,-766.095498
281.920675,-5181.441594,-7328.038826,1225.752797
281.920997,-7698.141797,-7328.038826,1072.533697
281.921318,-9030.512492,-9400.615463,536.266849
281.921640,-9474.636058,-11029.068536,229.828649
281.921962,-10214.842000,-9918.759623,536.266849
281.922284,-9400.615463,-6365.771101,229.828649
281.922606,-6439.791695,-4737.318029,-995.924147
281.922928,-2664.741391,-6661.853478,-4903.011187
281.923249,0.000000,-8808.450710,-4903.011187
281.923571,2664.741391,-11473.192101,-3370.820191
281.923893,5551.544565,-13027.624579,-2451.505594
281.924215,9178.553681,-13175.665768,-2834.553343
281.924537,11547.212695,-13767.830521,-2681.334243
281.924858,10955.047942,-11843.295072,-995.924147
281.925180,8364.327145,-8438.347739,-459.657299
281.925502,4367.215058,-6661.853478,-1838.629195
281.925824,1332.370696,-5403.503377,-1532.190996
281.926146,-1924.535449,-5329.482782,-995.924147
281.926467,-5255.462188,-5995.668130,-842.705048
281.926789,-7624.121203,-7624.121203,459.657299
281.927111,-8808.450710,-9548.656652,1915.238745
281.927433,-10140.821405,-9770.718434,1532.190996
281.927755,-10214.842000,-7105.977043,842.705048
281.928077,-8956.491898,-5403.503377,-2374.896044
281.928398,-6069.688724,-7254.018232,-5515.887586
281.928720,-2442.679609,-10732.986159,-5975.544884
281.929042,1110.308913,-12953.603985,-4136.915689
281.929364,4145.153275,-14434.015869,-2451.505594
281.929686,7328.038826,-15766.386565,-1685.410096
281.930007,8882.471304,-15396.283594,-1608.800546
281.930329,9252.574275,-12435.459826,-2604.724693
281.930651,7105.977043,-9622.677246,-3600.648841
281.930973,3997.112087,-9030.512492,-3217.601092
281.931295,1184.329507,-7846.182985,-1149.143247
281.931617,-1776.494261,-7031.956449,1072.533697
281.931938,-4885.359217,-6661.853478,2221.676944
281.932260,-7328.038826,-7846.182985,1762.019645
281.932582,-8438.347739,-9696.697840,689.485948
281.932904,-9474.636058,-10140.821405,-459.657299
281.933226,-10658.965565,-7920.203579,612.876398
281.933547,-9252.574275,-4959.379811,612.876398
281.933869,-5773.606348,-5625.565159,-2987.772442
281.934191,-1480.411884,-7846.182985,-5209.449386
281.934513,1776.494261,-10288.862594,-4290.134789
281.934835,3923.091493,-12879.583391,-2834.553343
281.935157,6957.935855,-14434.015869,-1302.362347
281.935478,9252.574275,-14211.954086,-1608.800546
281.935800,10288.862594,-11843.295072,-1991.848295
281.936122,9104.533087,-8882.471304,-1838.629195
281.936444,5699.585753,-6513.812290,-1608.800546
281.936766,2442.679609,-5477.523971,-1302.362347
281.937087,370.102971,-5551.544565,229.828649
281.937409,-1554.432478,-5921.647536,612.876398
281.937731,-3478.967927,-7476.080014,1149.143247
281.938053,-4885.359217,-9326.594869,2298.286494
281.938375,-6217.729913,-9474.636058,2528.115143
281.938697,-7846.182985,-7698.141797,2145.067394
281.939018,-7772.162391,-5181.441594,0.000000
281.939340,-5773.606348,-6365.771101,-4366.744339
281.939662,-1406.391290,-9030.512492,-6205.373534
281.939984,2146.597232,-11177.109724,-4903.011187
281.940306,5033.400406,-14359.995275,-2528.115143
281.940627,7846.182985,-16210.510130,306.438199
281.940949,9918.759623,-15396.283594,76.609550
281.941271,9696.697840,-13323.706956,-2681.334243
281.941593,7846.182985,-11399.171507,-4519.963438
281.941915,3701.029710,-9918.759623,-3370.820191
281.942236,-370.102971,-8290.306550,-3370.820191
281.942558,-2812.782580,-6957.935855,-919.314598
281.942880,-4737.318029,-6661.853478,1378.971896
281.943202,-6513.812290,-7328.038826,2068.457845
281.943524,-8142.265362,-8734.430116,1149.143247
281.943846,-9252.574275,-9104.533087,306.438199
281.944167,-9992.780217,-8068.244768,-459.657299
281.944489,-9844.739029,-6439.791695,383.047749
281.944811,-8586.388927,-5773.606348,-1838.629195
281.945133,-5033.400406,-7846.182985,-5056.230287
281.945455,-444.123565,-10807.006753,-5515.887586
281.945776,3182.885551,-13175.665768,-4290.134789
281.946098,6291.750507,-13545.768739,-2374.896044
281.946420,9548.656652,-13397.727550,-1608.800546
281.946742,11769.274478,-12213.398043,-2145.067394
281.947064,11621.233289,-9326.594869,-2451.505594
281.947386,8290.306550,-7254.018232,-2911.162892
281.947707,4515.256246,-6957.935855,-1685.410096
281.948029,814.226536,-6439.791695,459.657299
281.948351,-2516.700203,-5921.647536,919.314598
281.948673,-4515.256246,-6661.853478,-229.828649
281.948995,-5107.421000,-8216.285956,459.657299
281.949316,-6439.791695,-9622.677246,383.047749
281.949638,-8660.409521,-8142.265362,1302.362347
281.949960,-9326.594869,-5107.421000,1532.190996
281.950282,-7920.203579,-4219.173869,-2374.896044
281.950604,-4885.359217,-8216.285956,-6588.421283
281.950926,-962.267725,-11843.295072,-6894.859482
281.951247,1850.514855,-14359.995275,-5286.058936
281.951569,4959.379811,-16284.530724,-1762.019645
281.951891,8734.430116,-15914.427753,1225.752797
281.952213,10066.800811,-13397.727550,-306.438199
281.952535,9178.553681,-10510.924376,-3600.648841
281.952856,6143.709319,-9104.533087,-3907.087040
281.953178,1850.514855,-8068.244768,-3217.601092
281.953500,-1258.350101,-7105.977043,-1762.019645
281.953822,-4293.194464,-5995.668130,919.314598
281.954144,-5995.668130,-7254.018232,2451.505594
281.954466,-7624.121203,-9104.533087,2068.457845
281.954787,-8956.491898,-10066.800811,1302.362347
281.955109,-9474.636058,-9104.533087,612.876398
281.955431,-9252.574275,-6883.915261,-306.438199
281.955753,-8216.285956,-5551.544565,-1532.190996
281.956075,-5255.462188,-6143.709319,-3677.258390
281.956396,-1628.453072,-8290.306550,-4826.401637
281.956718,1480.411884,-11621.233289,-4213.525239
281.957040,4515.256246,-14582.057057,-2757.943793
281.957362,7105.977043,-15174.221811,-2451.505594
281.957684,8586.388927,-13767.830521,-2145.067394
281.958005,9844.739029,-12213.398043,-1762.019645
281.958327,8734.430116,-10214.842000,-1149.143247
281.958649,5403.503377,-6365.771101,-1455.581446
281.958971,2442.679609,-3404.947333,-1149.143247
281.959293,296.082377,-4145.153275,153.219100
281.959615,-2146.597232,-5847.626942,1149.143247
281.959936,-4589.276840,-7179.997637,1608.800546
281.960258,-5995.668130,-8808.450710,2145.067394
281.960580,-7105.977043,-10140.821405,2298.286494
281.960902,-8734.430116,-9252.574275,1915.238745
281.961224,-9104.533087,-6883.915261,-306.438199
281.961545,-7402.059420,-5329.482782,-3600.648841
281.961867,-3034.844362,-7402.059420,-6205.373534
281.962189,1406.391290,-11991.336260,-6511.811733
281.962511,3034.844362,-15618.345376,-3600.648841
281.962833,4737.318029,-16728.654289,76.609550
281.963155,7328.038826,-14952.160028,0.000000
281.963476,9400.615463,-13545.768739,-2145.067394
281.963798,9030.512492,-11251.130318,-3524.039291
281.964120,5107.421000,-7550.100608,-3064.381992
281.964442,1554.432478,-6661.853478,-2221.676944
281.964764,-518.144159,-7328.038826,612.876398
281.965085,-2442.679609,-7772.162391,2374.896044
281.965407,-4737.318029,-7328.038826,1608.800546
281.965729,-6587.832884,-8142.265362,1225.752797
281.966051,-7254.018232,-9252.574275,1455.581446
281.966373,-7994.224174,-9178.553681,229.828649
281.966695,-8586.388927,-6809.894666,153.219100
281.967016,-7476.080014,-5107.421000,-689.485948
281.967338,-4367.215058,-7476.080014,-4596.572988
281.967660,-814.226536,-11103.089130,-6128.763984
281.967982,1628.453072,-12287.418637,-4366.744339
281.968304,3627.009116,-12509.480420,-1915.238745
281.968625,7179.997637,-13249.686362,-2145.067394
281.968947,10362.883188,-13249.686362,-2374.896044
281.969269,10658.965565,-10658.965565,-2604.724693
281.969591,8142.265362,-6957.935855,-2834.553343
281.969913,4663.297435,-6069.688724,-1378.971896
281.970235,1332.370696,-5921.647536,-306.438199
281.970556,-1258.350101,-6217.729913,-536.266849
281.970878,-3923.091493,-6735.874072,-766.095498
281.971200,-5255.462188,-9030.512492,153.219100
281.971522,-5551.544565,-10584.944971,919.314598
281.971844,-7476.080014,-10584.944971,383.047749
281.972165,-7772.162391,-7328.038826,842.705048
281.972487,-6439.791695,-4811.338623,-1072.533697
281.972809,-3775.050304,-6069.688724,-5822.325785
281.973131,0.000000,-10140.821405,-7201.297681
281.973453,2960.823768,-13545.768739,-5209.449386
281.973774,5181.441594,-16210.510130,-2298.286494
281.974096,7994.224174,-16950.716072,383.047749
281.974418,9918.759623,-14285.974681,383.047749
281.974740,10362.883188,-10732.986159,-2757.943793
281.975062,8882.471304,-9252.574275,-4519.963438
281.975384,5403.503377,-8364.327145,-3600.648841
281.975705,1110.308913,-7698.141797,-1991.848295
281.976027,-2664.741391,-7624.121203,842.705048
281.976349,-5033.400406,-7772.162391,2374.896044
281.976671,-7402.059420,-8068.244768,1149.143247
281.976993,-9252.574275,-9030.512492,-383.047749
281.977314,-10584.944971,-8660.409521,-1302.362347
281.977636,-10362.883188,-7698.141797,-1072.533697
281.977958,-9030.512492,-5995.668130,76.609550
281.978280,-6661.853478,-5773.606348,-689.485948
281.978602,-3997.112087,-8882.471304,-3600.648841
281.978924,-1036.288319,-11177.109724,-3524.039291
281.979245,1924.535449,-11325.150913,-2987.772442
281.979567,5255.462188,-11769.274478,-4366.744339
281.979889,8586.388927,-13027.624579,-4673.182538
281.980211,10732.986159,-14359.995275,-1762.019645
281.980533,9400.615463,-11621.233289,612.876398
281.980854,5995.668130,-7698.141797,306.438199
281.981176,3330.926739,-5403.503377,76.609550
281.981498,1036.288319,-4737.318029,-306.438199
281.981820,-2516.700203,-5033.400406,-1072.533697
281.982142,-5847.626942,-6069.688724,0.000000
281.982464,-7105.977043,-7698.141797,2757.943793
281.982785,-6513.812290,-9400.615463,2451.505594
281.983107,-6735.874072,-10288.862594,0.000000
281.983429,-7402.059420,-7920.203579,153.219100
281.983751,-6883.915261,-5477.523971,-1072.533697
281.984073,-4293.194464,-7624.121203,-4136.915689
281.984394,-740.205942,-11917.315666,-5898.935335
281.984716,1776.494261,-14137.933492,-3830.477490
281.985038,2960.823768,-14063.912898,-1149.143247
281.985360,5699.585753,-13989.892304,-1225.752797
281.985682,8068.244768,-14211.954086,-1762.019645
281.986003,8586.388927,-11843.295072,-2681.334243
281.986325,6365.771101,-8734.430116,-2987.772442
281.986647,3034.844362,-8068.244768,-2221.676944
281.986969,148.041188,-8512.368333,536.266849
281.987291,-3034.844362,-8290.306550,1838.629195
281.987613,-6439.791695,-6587.832884,1149.143247
281.987934,-7994.224174,-6069.688724,-306.438199
281.988256,-7994.224174,-8364.327145,-919.314598
281.988578,-8734.430116,-9696.697840,-919.314598
281.988900,-9474.636058,-8068.244768,383.047749
281.989222,-7328.038826,-7328.038826,0.000000
281.989543,-3108.864956,-8882.471304,-2757.943793
281.989865,444.123565,-10214.842000,-4596.572988
281.990187,1998.556043,-9918.759623,-4060.306139
281.990509,3997.112087,-10658.965565,-2451.505594
281.990831,7994.224174,-12805.562797,-2604.724693
281.991153,11029.068536,-13693.809927,-3600.648841
281.991474,11251.130318,-12213.398043,-2374.896044
281.991796,8438.347739,-9548.656652,689.485948
281.992118,4737.318029,-7105.977043,1302.362347
281.992440,1628.453072,-4811.338623,-689.485948
281.992762,-740.205942,-4737.318029,-2451.505594
281.993083,-4071.132681,-5625.565159,-2221.676944
281.993405,-6069.688724,-7402.059420,-995.924147
281.993727,-7254.018232,-10807.006753,76.609550
281.994049,-8142.265362,-11843.295072,2374.896044
281.994371,-8882.471304,-9104.533087,2911.162892
281.994693,-8438.347739,-5847.626942,-919.314598
281.995014,-4811.338623,-6735.874072,-6358.592633
281.995336,370.102971,-9770.718434,-8503.660028
281.995658,3701.029710,-12361.439231,-5975.544884
281.995980,4959.379811,-14730.098246,-536.266849
281.996302,7624.121203,-14063.912898,3600.648841
281.996623,9696.697840,-11917.315666,612.876398
281.996945,9770.718434,-11325.150913,-4366.744339
281.997267,8290.306550,-11917.315666,-3983.696590
281.997589,4663.297435,-9770.718434,-2451.505594
281.997911,888.247130,-6513.812290,-612.876398
281.998233,-1184.329507,-5699.585753,2604.724693
281.998554,-3330.926739,-5181.441594,3677.258390
281.998876,-5921.647536,-5255.462188,842.705048
281.999198,-8586.388927,-6661.853478,-2221.676944
281.999520,-10436.903782,-10214.842000,-2451.505594
281.999842,-10732.986159,-11251.130318,153.219100
282.000163,-10066.800811,-8734.430116,459.657299
282.000485,-7328.038826,-7698.141797,-2068.457845
282.000807,-2664.741391,-8956.491898,-4213.525239
282.001129,148.041188,-10288.862594,-4979.620737
282.001451,1110.308913,-11399.171507,-4136.915689
282.001772,3034.844362,-11325.150913,-3294.210641
282.002094,6513.812290,-11843.295072,-3447.429741
282.002416,9474.636058,-12805.562797,-2604.724693
282.002738,10140.821405,-11843.295072,-1378.971896
282.003060,7624.121203,-8808.450710,153.219100
282.003382,5033.400406,-5477.523971,229.828649
282.003703,2220.617826,-5329.482782,153.219100
282.004025,-1258.350101,-6143.709319,1378.971896
282.004347,-5033.400406,-5329.482782,383.047749
282.004669,-5995.668130,-7476.080014,-1455.581446
282.004991,-5329.482782,-11029.068536,-536.266849
282.005312,-5921.647536,-10881.027347,1455.581446
282.005634,-7031.956449,-7328.038826,1991.848295
282.005956,-6291.750507,-5773.606348,-1455.581446
282.006278,-2368.659014,-8438.347739,-5056.230287
282.006600,444.123565,-12213.398043,-7354.516781
282.006922,1258.350101,-15026.180623,-5209.449386
282.007243,2294.638420,-15100.201217,-536.266849
282.007565,5255.462188,-13249.686362,306.438199
282.007887,7920.203579,-11843.295072,-2298.286494
282.008209,8216.285956,-11103.089130,-3140.991542
282.008531,5773.606348,-8808.450710,-3907.087040
282.008852,2072.576638,-7254.018232,-2911.162892
282.009174,-518.144159,-7402.059420,153.219100
282.009496,-3108.864956,-7698.141797,3064.381992
282.009818,-6291.750507,-6883.915261,1915.238745
282.010140,-8142.265362,-6883.915261,0.000000
282.010462,-8512.368333,-8808.450710,-1302.362347
282.010783,-8660.409521,-10214.842000,-1072.533697
282.011105,-8512.368333,-8216.285956,919.314598
282.011427,-6809.894666,-7105.977043,229.828649
282.011749,-3404.947333,-7846.182985,-2757.943793
282.012071,222.061783,-9474.636058,-4673.182538
282.012392,1776.494261,-10214.842000,-3907.087040
282.012714,3182.885551,-11843.295072,-3294.210641
282.013036,5921.647536,-12287.418637,-2374.896044
282.013358,9030.512492,-12805.562797,-3217.601092
282.013680,10362.883188,-12731.542202,-2298.286494
282.014002,8512.368333,-10436.903782,0.000000
282.014323,4737.318029,-6735.874072,306.438199
282.014645,1406.391290,-4071.132681,0.000000
282.014967,-1554.432478,-4737.318029,-383.047749
282.015289,-4441.235652,-5255.462188,-1225.752797
282.015611,-6661.853478,-7105.977043,-1455.581446
282.015932,-7402.059420,-10436.903782,0.000000
282.016254,-7550.100608,-11991.336260,1608.800546
282.016576,-7550.100608,-9178.553681,1838.629195
282.016898,-7179.997637,-6291.750507,-842.705048
282.017220,-4737.318029,-6883.915261,-4366.744339
282.017542,-814.226536,-10362.883188,-6818.249932
282.017863,2146.597232,-13693.809927,-6358.592633
282.018185,3701.029710,-14656.077652,-2221.676944
282.018507,6587.832884,-13915.871710,1532.190996
282.018829,9178.553681,-12065.356855,76.609550
282.019151,10362.883188,-11695.253884,-2681.334243
282.019472,9104.533087,-10510.924376,-3830.477490
282.019794,5403.503377,-8956.491898,-2451.505594
282.020116,1850.514855,-8216.285956,-612.876398
282.020438,-1776.494261,-7105.977043,2374.896044
282.020760,-4515.256246,-5995.668130,2451.505594
282.021082,-6809.894666,-5551.544565,0.000000
282.021403,-8216.285956,-7105.977043,-2221.676944
282.021725,-9104.533087,-9622.677246,-2068.457845
282.022047,-10362.883188,-10658.965565,689.485948
282.022369,-9992.780217,-9104.533087,1991.848295
282.022691,-7105.977043,-8586.388927,-1225.752797
282.023012,-2516.700203,-9696.697840,-4749.792088
282.023334,666.185348,-10584.944971,-5669.106685
282.023656,2072.576638,-10066.800811,-3447.429741
282.023978,4589.276840,-9918.759623,-1991.848295
282.024300,8734.430116,-10732.986159,-2604.724693
282.024622,11769.274478,-11917.315666,-3217.601092
282.024943,11621.233289,-11621.233289,-1608.800546
282.025265,7254.018232,-8808.450710,383.047749
282.025587,3182.885551,-6661.853478,919.314598
282.025909,666.185348,-5847.626942,0.000000
282.026231,-2368.659014,-5995.668130,-1532.190996
282.026552,-5921.647536,-6069.688724,-2068.457845
282.026874,-7624.121203,-8216.285956,-919.314598
282.027196,-7254.018232,-10881.027347,-229.828649
282.027518,-6661.853478,-11621.233289,153.219100
282.027840,-6809.894666,-8438.347739,459.657299
282.028162,-5921.647536,-6291.750507,-689.485948
282.028483,-3182.885551,-8068.244768,-3983.696590
282.028805,148.041188,-11843.295072,-6281.983084
282.029127,2294.638420,-13545.768739,-5056.230287
282.029449,4145.153275,-13175.665768,-2221.676944
282.029771,6957.935855,-12805.562797,-689.485948
282.030093,8882.471304,-13175.665768,-766.095498
282.030414,9400.615463,-12361.439231,-1838.629195
282.030736,8364.327145,-8956.491898,-3064.381992
282.031058,4959.379811,-7624.121203,-3064.381992
282.031380,1628.453072,-7920.203579,-612.876398
282.031702,-2960.823768,-7772.162391,2298.286494
282.032023,-6365.771101,-5847.626942,612.876398
282.032345,-8142.265362,-6365.771101,-1838.629195
282.032667,-8882.471304,-10214.842000,-2451.505594
282.032989,-10066.800811,-11177.109724,-1302.362347
282.033311,-11325.150913,-8512.368333,842.705048
282.033633,-8660.409521,-6883.915261,842.705048
282.033954,-3849.070898,-7994.224174,-3140.991542
282.034276,-148.041188,-8808.450710,-5209.449386
282.034598,888.247130,-9178.553681,-4596.572988
282.034920,2294.638420,-10214.842000,-2528.115143
282.035242,5477.523971,-11473.192101,-1915.238745
282.035563,8586.388927,-12213.398043,-2757.943793
282.035885,9622.677246,-11843.295072,-2451.505594
282.036207,8586.388927,-10066.800811,-536.266849
282.036529,6439.791695,-8068.244768,-536.266849
282.036851,4515.256246,-7105.977043,-459.657299
282.037173,2220.617826,-6587.832884,1072.533697
282.037494,-1184.329507,-6735.874072,842.705048
282.037816,-4663.297435,-7994.224174,383.047749
282.038138,-6513.812290,-9474.636058,536.266849
282.038460,-7772.162391,-9104.533087,842.705048
282.038782,-8216.285956,-8142.265362,-306.438199
282.039103,-7920.203579,-7772.162391,-1838.629195
282.039425,-5625.565159,-7846.182985,-2604.724693
282.039747,-2516.700203,-9622.677246,-4060.306139
282.040069,0.000000,-12879.583391,-3830.477490
282.040391,2072.576638,-14285.974681,-536.266849
282.040713,4219.173869,-12509.480420,-459.657299
282.041034,6513.812290,-11843.295072,-3370.820191
282.041356,8586.388927,-12139.377449,-3753.867940
282.041678,8290.306550,-10732.986159,-2221.676944
282.042000,5625.565159,-8290.306550,-2374.896044
282.042322,2516.700203,-8068.244768,-536.266849
282.042644,0.000000,-9474.636058,1762.019645
282.042965,-4219.173869,-8882.471304,1762.019645
282.043287,-7476.080014,-7105.977043,-536.266849
282.043609,-8734.430116,-7254.018232,-1685.410096
282.043931,-9252.574275,-8438.347739,-1378.971896
282.044253,-9992.780217,-8438.347739,-306.438199
282.044574,-9622.677246,-7624.121203,153.219100
282.044896,-6809.894666,-7105.977043,-919.314598
282.045218,-2590.720797,-8512.368333,-3140.991542
282.045540,444.123565,-10732.986159,-4136.915689
282.045862,1924.535449,-11917.315666,-2145.067394
282.046184,4441.235652,-11103.089130,-995.924147
282.046505,8438.347739,-10140.821405,-2528.115143
282.046827,11843.295072,-10510.924376,-3983.696590
282.047149,11991.336260,-10584.944971,-2145.067394
282.047471,7772.162391,-8586.388927,306.438199
282.047793,3775.050304,-6587.832884,995.924147
282.048114,592.164754,-6809.894666,612.876398
282.048436,-2220.617826,-7624.121203,-1149.143247
282.048758,-6735.874072,-6957.935855,-2528.115143
282.049080,-9474.636058,-7179.997637,-1838.629195
282.049402,-8882.471304,-9474.636058,-919.314598
282.049724,-8956.491898,-11547.212695,-919.314598
282.050045,-8290.306550,-9622.677246,153.219100
282.050367,-7624.121203,-6957.935855,-766.095498
282.050689,-4885.359217,-7179.997637,-4213.525239
282.051011,-370.102971,-11325.150913,-6128.763984
282.051333,2960.823768,-14285.974681,-4673.182538
282.051654,4293.194464,-12879.583391,-2374.896044
282.051976,6883.915261,-11399.171507,-919.314598
282.052298,10066.800811,-12731.542202,-1072.533697
282.052620,11547.212695,-13619.789333,-2451.505594
282.052942,9696.697840,-11103.089130,-2834.553343
282.053264,5773.606348,-9030.512492,-1685.410096
282.053585,1702.473667,-8660.409521,919.314598
282.053907,-1850.514855,-7920.203579,2298.286494
282.054229,-5255.462188,-5181.441594,76.609550
282.054551,-8068.244768,-4885.359217,-1685.410096
282.054873,-9104.533087,-8068.244768,-2374.896044
282.055194,-9696.697840,-10732.986159,-1991.848295
282.055516,-9622.677246,-10658.965565,-229.828649
282.055838,-8068.244768,-8438.347739,689.485948
282.056160,-4515.256246,-8068.244768,-1838.629195
282.056482,-1036.288319,-9918.759623,-4136.915689
282.056804,1258.350101,-10732.986159,-3983.696590
282.057125,2960.823768,-9696.697840,-2604.724693
282.057447,5847.626942,-8808.450710,-2834.553343
282.057769,9844.739029,-10881.027347,-3447.429741
282.058091,11917.315666,-12435.459826,-2451.505594
282.058413,10658.965565,-11103.089130,0.000000
282.058735,7254.018232,-8438.347739,1149.143247
282.059056,4071.132681,-7179.997637,1378.971896
282.059378,888.247130,-6957.935855,306.438199
282.059700,-2664.741391,-6143.709319,-842.705048
282.060022,-6143.709319,-5255.462188,-1685.410096
282.060344,-7254.018232,-8364.327145,-1072.533697
282.060665,-7254.018232,-11325.150913,229.828649
282.060987,-8068.244768,-10214.842000,1532.190996
282.061309,-8068.244768,-6883.915261,995.924147
282.061631,-5551.544565,-6587.832884,-2298.286494
282.061953,-1110.308913,-10436.903782,-5592.497135
282.062275,1850.514855,-13545.768739,-6128.763984
282.062596,2738.761985,-13767.830521,-2528.115143
282.062918,4441.235652,-11769.274478,919.314598
282.063240,7254.018232,-10955.047942,1608.800546
282.063562,9252.574275,-11251.130318,-2374.896044
282.063884,8956.491898,-10510.924376,-4749.792088
282.064205,6217.729913,-9474.636058,-3064.381992
282.064527,1924.535449,-8512.368333,-229.828649
282.064849,-2294.638420,-8512.368333,2987.772442
282.065171,-5255.462188,-6809.894666,2451.505594
282.065493,-8438.347739,-5995.668130,-612.876398
282.065815,-10288.862594,-7624.121203,-2604.724693
282.066136,-11473.192101,-10584.944971,-2374.896044
282.066458,-11473.192101,-11547.212695,-842.705048
282.066780,-9252.574275,-8586.388927,766.095498
282.067102,-5847.626942,-6661.853478,-229.828649
282.067424,-1850.514855,-7920.203579,-3217.601092
282.067745,1110.308913,-9622.677246,-4673.182538
282.068067,2442.679609,-10362.883188,-3600.648841
282.068389,4663.297435,-10436.903782,-3524.039291
282.068711,8438.347739,-12435.459826,-3753.867940
282.069033,10214.842000,-14211.954086,-2374.896044
282.069355,9326.594869,-13249.686362,-229.828649
282.069676,6365.771101,-9252.574275,919.314598
282.069998,3997.112087,-5477.523971,0.000000
282.070320,1776.494261,-4737.318029,-995.924147
282.070642,-2294.638420,-5477.523971,-1838.629195
282.070964,-7031.956449,-5551.544565,-1532.190996
282.071285,-9030.512492,-8290.306550,-306.438199
282.071607,-8364.327145,-11843.295072,-459.657299
282.071929,-8660.409521,-11695.253884,-229.828649
282.072251,-8512.368333,-8216.285956,0.000000
282.072573,-7624.121203,-6439.791695,-1915.238745
282.072895,-3997.112087,-8734.430116,-4290.134789
282.073216,370.102971,-11621.233289,-5592.497135
282.073538,3034.844362,-12805.562797,-5056.230287
282.073860,4811.338623,-12509.480420,-1608.800546
282.074182,7105.977043,-12361.439231,842.705048
282.074504,9400.615463,-12509.480420,-689.485948
282.074826,10288.862594,-11399.171507,-2834.553343
282.075147,8586.388927,-9770.718434,-2834.553343
282.075469,4145.153275,-8364.327145,-1149.143247
282.075791,444.123565,-7624.121203,1225.752797
282.076113,-3330.926739,-6069.688724,2604.724693
282.076435,-5847.626942,-5329.482782,612.876398
282.076756,-7550.100608,-6291.750507,-1915.238745
282.077078,-9252.574275,-9104.533087,-2145.067394
282.077400,-10140.821405,-10807.006753,-689.485948
282.077722,-9918.759623,-10214.842000,1072.533697
282.078044,-7402.059420,-7920.203579,-229.828649
282.078366,-3256.906145,-8142.265362,-3294.210641
282.078687,444.123565,-9548.656652,-4979.620737
282.079009,2146.597232,-11103.089130,-3370.820191
282.079331,4367.215058,-10510.924376,-1302.362347
282.079653,7698.141797,-9474.636058,-1302.362347
282.079975,11251.130318,-10658.965565,-2911.162892
282.080296,12509.480420,-11547.212695,-2221.676944
282.080618,10732.986159,-9844.739029,-536.266849
282.080940,6809.894666,-7105.977043,0.000000
282.081262,3330.926739,-6217.729913,919.314598
282.081584,74.020594,-6883.915261,766.095498
282.081906,-3627.009116,-6809.894666,-1149.143247
282.082227,-7105.977043,-7254.018232,-1608.800546
282.082549,-7920.203579,-9992.780217,-919.314598
282.082871,-8068.244768,-12065.356855,-689.485948
282.083193,-8438.347739,-9548.656652,536.266849
282.083515,-7772.162391,-6365.771101,-919.314598
282.083836,-4885.359217,-7254.018232,-4060.306139
282.084158,-962.267725,-11103.089130,-5975.544884
282.084480,1850.514855,-13989.892304,-5209.449386
282.084802,3034.844362,-14063.912898,-2451.505594
282.085124,5921.647536,-12731.542202,229.828649
282.085446,9326.594869,-11917.315666,-153.219100
282.085767,11399.171507,-11843.295072,-2911.162892
282.086089,9696.697840,-10066.800811,-4060.306139
282.086411,5995.668130,-8290.306550,-1608.800546
282.086733,1554.432478,-7179.997637,0.000000
282.087055,-1998.556043,-7772.162391,1608.800546
282.087376,-5477.523971,-7031.956449,1072.533697
282.087698,-9326.594869,-6587.832884,-1302.362347
282.088020,-10732.986159,-8364.327145,-1608.800546
282.088342,-11325.150913,-10362.883188,-1225.752797
282.088664,-10955.047942,-10288.862594,-1532.190996
282.088986,-9178.553681,-8586.388927,-766.095498
282.089307,-5921.647536,-7105.977043,-1378.971896
282.089629,-2738.761985,-8290.306550,-3600.648841
282.089951,0.000000,-9844.739029,-3907.087040
282.090273,2368.659014,-10140.821405,-2911.162892
282.090595,5477.523971,-9548.656652,-3217.601092
282.090917,8956.491898,-11325.150913,-3294.210641
282.091238,11029.068536,-12953.603985,-1225.752797
282.091560,9770.718434,-11843.295072,536.266849
282.091882,6735.874072,-8142.265362,1072.533697
282.092204,4219.173869,-4885.359217,153.219100
282.092526,2368.659014,-4959.379811,-1302.362347
282.092847,-1036.288319,-5847.626942,-1991.848295
282.093169,-6143.709319,-6291.750507,-1072.533697
282.093491,-9252.574275,-7105.977043,1838.629195
282.093813,-8142.265362,-10214.842000,459.657299
282.094135,-7254.018232,-12583.501014,-2298.286494
282.094457,-6957.935855,-9992.780217,-1608.800546
282.094778,-7031.956449,-7031.956449,-1225.752797
282.095100,-4367.215058,-9252.574275,-3140.991542
282.095422,-444.123565,-12065.356855,-4596.572988
282.095744,2220.617826,-12435.459826,-4366.744339
282.096066,3997.112087,-11103.089130,-2374.896044
282.096387,6809.894666,-11843.295072,-1685.410096
282.096709,9474.636058,-13545.768739,-1838.629195
282.097031,10140.821405,-12435.459826,-1915.238745
282.097353,8068.244768,-9030.512492,-459.657299
282.097675,3775.050304,-7179.997637,536.266849
282.097997,444.123565,-8364.327145,995.924147
282.098318,-3182.885551,-7772.162391,0.000000
282.098640,-6809.894666,-6143.709319,-2298.286494
282.098962,-9178.553681,-7179.997637,-1838.629195
282.099284,-9770.718434,-10214.842000,459.657299
282.099606,-10140.821405,-10584.944971,459.657299
282.099927,-8364.327145,-9178.553681,-536.266849
282.100249,-5625.565159,-7402.059420,-1378.971896
282.100571,-2886.803174,-8364.327145,-2221.676944
282.100893,-666.185348,-9992.780217,-3370.820191
282.101215,1406.391290,-11029.068536,-2681.334243
282.101537,4071.132681,-10881.027347,-2298.286494
282.101858,7254.018232,-10436.903782,-2145.067394
282.102180,10214.842000,-11177.109724,-2068.457845
282.102502,11473.192101,-10658.965565,-536.266849
282.102824,10066.800811,-8808.450710,536.266849
282.103146,7328.038826,-6957.935855,1302.362347
282.103468,3627.009116,-5551.544565,766.095498
282.103789,-222.061783,-6069.688724,-229.828649
282.104111,-4737.318029,-6439.791695,-1378.971896
282.104433,-8808.450710,-7624.121203,-995.924147
282.104755,-9770.718434,-10362.883188,-536.266849
282.105077,-9474.636058,-11547.212695,-689.485948
282.105398,-9770.718434,-10214.842000,-1532.190996
282.105720,-8734.430116,-7476.080014,-1455.581446
282.106042,-6069.688724,-7105.977043,-2451.505594
282.106364,-2664.741391,-8734.430116,-4903.011187
282.106686,370.102971,-11399.171507,-5286.058936
282.107008,2146.597232,-12953.603985,-2604.724693
282.107329,4293.194464,-13693.809927,-612.876398
282.107651,6809.894666,-13175.665768,-995.924147
282.107973,8956.491898,-12509.480420,-1991.848295
282.108295,10362.883188,-10807.006753,-1685.410096
282.108617,9104.533087,-7698.141797,-2757.943793
282.108938,5699.585753,-6883.915261,-995.924147
282.109260,1776.494261,-7920.203579,1225.752797
282.109582,-1998.556043,-8068.244768,1532.190996
282.109904,-5477.523971,-7698.141797,-459.657299
282.110226,-8068.244768,-9178.553681,-2221.676944
282.110548,-9622.677246,-11103.089130,-2298.286494
282.110869,-10288.862594,-10732.986159,-1762.019645
282.111191,-9474.636058,-8660.409521,-1608.800546
282.111513,-6291.750507,-7105.977043,-1762.019645
282.111835,-2294.638420,-7476.080014,-2834.553343
282.112157,296.082377,-9918.759623,-4060.306139
282.112478,2072.576638,-10732.986159,-2221.676944
282.112800,4737.318029,-9770.718434,-689.485948
282.113122,8068.244768,-9400.615463,-1608.800546
282.113444,11029.068536,-10881.027347,-2298.286494
282.113766,11103.089130,-10288.862594,-1455.581446
282.114088,9252.574275,-7772.162391,0.000000
282.114410,6217.729913,-5773.606348,153.219100
282.114731,3627.009116,-6957.935855,0.000000
282.115053,-666.185348,-7920.203579,-459.657299
282.115375,-4959.379811,-7105.977043,-1302.362347
282.115697,-7476.080014,-8660.409521,-1991.848295
282.116019,-8734.430116,-10807.006753,-1072.533697
282.116341,-9178.553681,-11843.295072,-1762.019645
282.116663,-8734.430116,-9474.636058,-1991.848295
282.116985,-7105.977043,-6587.832884,-2145.067394
282.117307,-4367.215058,-8290.306550,-2987.772442
282.117628,-666.185348,-11843.295072,-4290.134789
282.117950,1924.535449,-13323.706956,-3370.820191
282.118272,3775.050304,-12435.459826,-1762.019645
282.118594,6735.874072,-11843.295072,0.000000
282.118916,9844.739029,-11473.192101,383.047749
282.119238,10732.986159,-10362.883188,-1762.019645
282.119560,9770.718434,-7772.162391,-2451.505594
282.119882,6735.874072,-7550.100608,-766.095498
282.120204,1702.473667,-8586.388927,536.266849
282.120526,-3552.988522,-9178.553681,1532.190996
282.120847,-7179.997637,-7920.203579,0.000000
282.121169,-10288.862594,-8216.285956,-2451.505594
282.121491,-12583.501014,-10140.821405,-2604.724693
282.121813,-13915.871710,-10732.986159,-1378.971896
282.122135,-13397.727550,-8512.368333,-1532.190996
282.122457,-9474.636058,-6217.729913,-1838.629195
282.122779,-5551.544565,-7254.018232,-3217.601092
282.123101,-2738.761985,-9992.780217,-3064.381992
282.123423,-740.205942,-10658.965565,-1915.238745
282.123744,2146.597232,-9770.718434,-1685.410096
282.124066,6587.832884,-10288.862594,-2451.505594
282.124388,9918.759623,-11695.253884,-3294.210641
282.124710,10288.862594,-11917.315666,-842.705048
282.125032,7920.203579,-9474.636058,1915.238745
282.125354,5921.647536,-6365.771101,2987.772442
282.125676,5329.482782,-4515.256246,1149.143247
282.125998,4145.153275,-6217.729913,-2451.505594
282.126320,-370.102971,-7179.997637,-1762.019645
282.126641,-5403.503377,-7105.977043,1378.971896
282.126963,-7328.038826,-8512.368333,1302.362347
282.127285,-6587.832884,-11103.089130,-1378.971896
282.127607,-6661.853478,-12805.562797,-3983.696590
282.127929,-8290.306550,-9918.759623,-2145.067394
282.128251,-8364.327145,-8512.368333,-689.485948
282.128573,-4737.318029,-9548.656652,-2834.553343
282.128895,1258.350101,-11325.150913,-5056.230287
282.129217,4367.215058,-12361.439231,-4060.306139
282.129539,5329.482782,-12435.459826,-1302.362347
282.129860,6217.729913,-11991.336260,2221.676944
282.130182,7920.203579,-10436.903782,842.705048
282.130504,9918.759623,-9104.533087,-2681.334243
282.130826,9252.574275,-7846.182985,-3524.039291
282.131148,5107.421000,-8068.244768,-383.047749
282.131470,148.041188,-8586.388927,1838.629195
282.131792,-2886.803174,-7846.182985,2451.505594
282.132114,-4737.318029,-7031.956449,-306.438199
282.132436,-6513.812290,-8216.285956,-2681.334243
282.132757,-9326.594869,-10955.047942,-2374.896044
282.133079,-10436.903782,-12361.439231,-1532.190996
282.133401,-9622.677246,-9918.759623,-1378.971896
282.133723,-5625.565159,-7698.141797,-3064.381992
282.134045,-1850.514855,-8660.409521,-4519.963438
282.134367,444.123565,-10955.047942,-3600.648841
282.134689,1628.453072,-11695.253884,-766.095498
282.135011,3404.947333,-9622.677246,-536.266849
282.135333,7698.141797,-8808.450710,-2451.505594
282.135655,11325.150913,-9992.780217,-3294.210641
282.135976,11251.130318,-9548.656652,-1455.581446
282.136298,8660.409521,-7031.956449,1378.971896
282.136620,6513.812290,-5107.421000,1225.752797
282.136942,4441.235652,-6365.771101,-383.047749
282.137264,518.144159,-7846.182985,-1532.190996
282.137586,-5181.441594,-8956.491898,-1991.848295
282.137908,-9474.636058,-9844.739029,-1915.238745
282.138230,-10214.842000,-11547.212695,-1225.752797
282.138552,-8734.430116,-11325.150913,-2528.115143
282.138873,-7624.121203,-9104.533087,-3677.258390
282.139195,-6883.915261,-7402.059420,-2068.457845
282.139517,-5477.523971,-8438.347739,-995.924147
282.139839,-2516.700203,-10436.903782,-2298.286494
282.140161,0.000000,-12213.398043,-4136.915689
282.140483,2664.741391,-12509.480420,-2298.286494
282.140805,5255.462188,-11547.212695,-1149.143247
282.141127,8216.285956,-11547.212695,-1762.019645
282.141449,10066.800811,-11473.192101,-689.485948
282.141770,9918.759623,-9400.615463,306.438199
282.142092,7402.059420,-6217.729913,0.000000
282.142414,2590.720797,-6291.750507,-536.266849
282.142736,-1628.453072,-8734.430116,153.219100
282.143058,-5847.626942,-9326.594869,-536.266849
282.143380,-9622.677246,-8512.368333,-2911.162892
282.143702,-11991.336260,-9770.718434,-1762.019645
282.144024,-12213.398043,-11695.253884,-383.047749
282.144346,-11621.233289,-9844.739029,-1838.629195
282.144668,-8956.491898,-6661.853478,-2757.943793
282.144989,-5033.400406,-7031.956449,-3217.601092
282.145311,-1924.535449,-9400.615463,-3064.381992
282.145633,222.061783,-9696.697840,-1838.629195
282.145955,2516.700203,-8216.285956,-1378.971896
282.146277,6291.750507,-9030.512492,-2221.676944
282.146599,9622.677246,-11695.253884,-2834.553343
282.146921,10584.944971,-12509.480420,-2221.676944
282.147243,8734.430116,-9622.677246,1149.143247
282.147565,6883.915261,-7031.956449,2145.067394
282.147886,5403.503377,-6143.709319,0.000000
282.148208,3182.885551,-7476.080014,-2451.505594
282.148530,-1036.288319,-8142.265362,-2451.505594
282.148852,-6513.812290,-7328.038826,-459.657299
282.149174,-8512.368333,-8956.491898,766.095498
282.149496,-7920.203579,-10955.047942,-536.266849
282.149818,-8142.265362,-11621.233289,-3140.991542
282.150140,-8438.347739,-9918.759623,-2757.943793
282.150462,-7476.080014,-9030.512492,-1608.800546
282.150784,-4145.153275,-9770.718434,-2528.115143
282.151105,148.041188,-11029.068536,-4290.134789
282.151427,3330.926739,-11843.295072,-3294.210641
282.151749,5403.503377,-11251.130318,-612.876398
282.152071,7920.203579,-11251.130318,0.000000
282.152393,9326.594869,-12139.377449,-1302.362347
282.152715,10214.842000,-10881.027347,-1455.581446
282.153037,8290.306550,-7550.100608,-536.266849
282.153359,3330.926739,-6883.915261,-383.047749
282.153681,-518.144159,-8882.471304,842.705048
282.154002,-3849.070898,-9252.574275,689.485948
282.154324,-6809.894666,-7772.162391,-1608.800546
282.154646,-9252.574275,-8956.491898,-2145.067394
282.154968,-10436.903782,-11473.192101,-229.828649
282.155290,-11325.150913,-9622.677246,-76.609550
282.155612,-9696.697840,-6513.812290,-1838.629195
282.155934,-6587.832884,-6069.688724,-3140.991542
282.156256,-2960.823768,-9252.574275,-3753.867940
282.156578,-1036.288319,-11399.171507,-2451.505594
282.156899,444.123565,-10214.842000,-459.657299
282.157221,4293.194464,-9030.512492,-153.219100
282.157543,9474.636058,-9992.780217,-2374.896044
282.157865,12287.418637,-10807.006753,-3447.429741
282.158187,11547.212695,-9548.656652,-919.314598
282.158509,9030.512492,-6735.874072,2374.896044
282.158831,6661.853478,-5477.523971,1685.410096
282.159153,4663.297435,-7105.977043,-1072.533697
282.159475,592.164754,-7920.203579,-2451.505594
282.159797,-4441.235652,-8142.265362,-2145.067394
282.160118,-8290.306550,-9696.697840,-536.266849
282.160440,-9474.636058,-11473.192101,229.828649
282.160762,-9622.677246,-10066.800811,-383.047749
282.161084,-9178.553681,-8142.265362,-2528.115143
282.161406,-7402.059420,-7476.080014,-4136.915689
282.161728,-3849.070898,-9622.677246,-4136.915689
282.162050,-74.020594,-11177.109724,-3753.867940
282.162372,2368.659014,-11621.233289,-3370.820191
282.162694,5551.544565,-12879.583391,-153.219100
282.163015,8512.368333,-12953.603985,306.438199
282.163337,9548.656652,-11991.336260,-1838.629195
282.163659,9030.512492,-10807.006753,-2681.334243
282.163981,7179.997637,-8660.409521,-612.876398
282.164303,4219.173869,-6661.853478,-459.657299
282.164625,1110.308913,-7105.977043,-995.924147
282.164947,-1332.370696,-8586.388927,-612.876398
282.165269,-4145.153275,-8882.471304,-459.657299
282.165591,-7402.059420,-9326.594869,-1072.533697
282.165913,-9918.759623,-9474.636058,-229.828649
282.166234,-12139.377449,-9918.759623,-1225.752797
282.166556,-12805.562797,-9326.594869,-2834.553343
282.166878,-10881.027347,-8068.244768,-4060.306139
282.167200,-7254.018232,-8660.409521,-5132.839837
282.167522,-2442.679609,-11177.109724,-4596.572988
282.167844,1628.453072,-12583.501014,-2068.457845
282.168166,4589.276840,-10584.944971,-306.438199
282.168488,8512.368333,-8734.430116,-919.314598
282.168810,11843.295072,-9104.533087,-1915.238745
282.169131,12065.356855,-8586.388927,-1991.848295
282.169453,9178.553681,-6883.915261,-459.657299
282.169775,5625.565159,-5921.647536,766.095498
282.170097,3108.864956,-6957.935855,842.705048
282.170419,1036.288319,-8068.244768,76.609550
282.170741,-1850.514855,-7624.121203,-612.876398
282.171063,-5181.441594,-8216.285956,-383.047749
282.171385,-7105.977043,-9548.656652,0.000000
282.171707,-8512.368333,-10214.842000,-459.657299
282.172028,-8734.430116,-9400.615463,-1991.848295
282.172350,-8216.285956,-7624.121203,-3983.696590
282.172672,-5847.626942,-8734.430116,-4749.792088
282.172994,-2516.700203,-11547.212695,-4903.011187
282.173316,1184.329507,-13989.892304,-3217.601092
282.173638,4885.359217,-13693.809927,-1991.848295
282.173960,7920.203579,-12583.501014,-766.095498
282.174282,10362.883188,-11991.336260,229.828649
282.174604,10584.944971,-9844.739029,-306.438199
282.174926,8364.327145,-7105.977043,-1685.410096
282.175247,5551.544565,-6365.771101,-1225.752797
282.175569,2516.700203,-6661.853478,-995.924147
282.175891,-1258.350101,-7254.018232,-1149.143247
282.176213,-4885.359217,-8882.471304,76.609550
282.176535,-8068.244768,-11103.089130,1225.752797
282.176857,-10214.842000,-11547.212695,919.314598
282.177179,-11695.253884,-10955.047942,-1455.581446
282.177501,-11843.295072,-9844.739029,-2451.505594
282.177823,-10732.986159,-7402.059420,-1991.848295
282.178144,-8364.327145,-4737.318029,-4213.525239
282.178466,-4515.256246,-7476.080014,-4903.011187
282.178788,0.000000,-11843.295072,-3830.477490
282.179110,2738.761985,-13841.851115,-2528.115143
282.179432,5033.400406,-13175.665768,-1072.533697
282.179754,8734.430116,-11917.315666,383.047749
282.180076,11103.089130,-10732.986159,-383.047749
282.180398,10881.027347,-8660.409521,-1532.190996
282.180720,8586.388927,-5551.544565,0.000000
282.181041,5255.462188,-3404.947333,842.705048
282.181363,2886.803174,-4145.153275,0.000000
282.181685,888.247130,-7105.977043,-842.705048
282.182007,-3182.885551,-9252.574275,-153.219100
282.182329,-7402.059420,-11103.089130,459.657299
282.182651,-10066.800811,-11843.295072,995.924147
282.182973,-11029.068536,-9992.780217,-383.047749
282.183295,-10140.821405,-7550.100608,-3677.258390
282.183617,-7624.121203,-7698.141797,-5975.544884
282.183939,-3997.112087,-9918.759623,-5209.449386
282.184260,-666.185348,-11917.315666,-3830.477490
282.184582,2368.659014,-14063.912898,-1915.238745
282.184904,6143.709319,-14285.974681,536.266849
282.185226,9400.615463,-12509.480420,229.828649
282.185548,9844.739029,-10807.006753,-2451.505594
282.185870,8142.265362,-9178.553681,-1991.848295
282.186192,5773.606348,-7402.059420,0.000000
282.186514,3034.844362,-4515.256246,0.000000
282.186836,1184.329507,-4589.276840,-1225.752797
282.187157,-592.164754,-7402.059420,-536.266849
282.187479,-3108.864956,-10436.903782,0.000000
282.187801,-6883.915261,-10955.047942,1225.752797
282.188123,-9992.780217,-10510.924376,1762.019645
282.188445,-10881.027347,-10658.965565,-995.924147
282.188767,-10955.047942,-8808.450710,-3677.258390
282.189089,-10066.800811,-6439.791695,-4979.620737
282.189411,-7105.977043,-6809.894666,-6128.763984
282.189733,-2072.576638,-11103.089130,-5439.278036
282.190055,3108.864956,-14508.036463,-3447.429741
282.190376,6587.832884,-13693.809927,-306.438199
282.190698,9844.739029,-11843.295072,842.705048
282.191020,12583.501014,-9770.718434,153.219100
282.191342,12953.603985,-7476.080014,-1455.581446
282.191664,10214.842000,-4737.318029,-1762.019645
282.191986,6365.771101,-3330.926739,0.000000
282.192308,3478.967927,-4589.276840,306.438199
282.192630,518.144159,-7105.977043,-919.314598
282.192952,-2738.761985,-10288.862594,-459.657299
282.193273,-6365.771101,-11399.171507,383.047749
282.193595,-8956.491898,-11843.295072,-229.828649
282.193917,-9770.718434,-11769.274478,-2068.457845
282.194239,-9548.656652,-9104.533087,-3064.381992
282.194561,-9030.512492,-5625.565159,-4596.572988
282.194883,-7105.977043,-6735.874072,-6052.154434
282.195205,-3034.844362,-11695.253884,-4826.401637
282.195527,666.185348,-14952.160028,-3753.867940
282.195849,3404.947333,-15618.345376,-2604.724693
282.196170,7402.059420,-14508.036463,153.219100
282.196492,11251.130318,-12731.542202,536.266849
282.196814,11991.336260,-9474.636058,-2298.286494
282.197136,10214.842000,-7105.977043,-1532.190996
282.197458,6957.935855,-5033.400406,842.705048
282.197780,2960.823768,-3923.091493,459.657299
282.198102,0.000000,-5255.462188,-995.924147
282.198424,-3256.906145,-8808.450710,0.000000
282.198746,-6735.874072,-11991.336260,1225.752797
282.199068,-10658.965565,-11399.171507,1685.410096
282.199389,-12213.398043,-11473.192101,0.000000
282.199711,-11695.253884,-10066.800811,-2221.676944
282.200033,-10658.965565,-6439.791695,-3447.429741
282.200355,-8808.450710,-4663.297435,-4673.182538
282.200677,-5625.565159,-7031.956449,-5362.668486
282.200999,-1702.473667,-11843.295072,-3907.087040
282.201321,1850.514855,-13101.645173,-1915.238745
282.201643,5329.482782,-11621.233289,-766.095498
282.201965,9326.594869,-11325.150913,-995.924147
282.202286,11473.192101,-10955.047942,-1991.848295
282.202608,10955.047942,-9178.553681,-995.924147
282.202930,8290.306550,-5181.441594,842.705048
282.203252,5107.421000,-3108.864956,995.924147
282.203574,3552.988522,-4219.173869,-612.876398
282.203896,962.267725,-6957.935855,-1455.581446
282.204218,-3923.091493,-8068.244768,0.000000
282.204540,-7328.038826,-10214.842000,1532.190996
282.204862,-8882.471304,-12361.439231,612.876398
282.205184,-9474.636058,-12731.542202,-1608.800546
282.205505,-9474.636058,-8734.430116,-2834.553343
282.205827,-8586.388927,-6217.729913,-4366.744339
282.206149,-5773.606348,-9030.512492,-5439.278036
282.206471,-1110.308913,-12213.398043,-4673.182538
282.206793,2516.700203,-12731.542202,-3217.601092
282.207115,5477.523971,-12953.603985,-1915.238745
282.207437,9030.512492,-13545.768739,76.609550
282.207759,10955.047942,-12805.562797,-306.438199
282.208081,10436.903782,-10066.800811,-2068.457845
282.208402,8068.244768,-7846.182985,-919.314598
282.208724,4885.359217,-6069.688724,229.828649
282.209046,666.185348,-6217.729913,-612.876398
282.209368,-2738.761985,-7179.997637,-995.924147
282.209690,-6439.791695,-8512.368333,-306.438199
282.210012,-9178.553681,-10362.883188,153.219100
282.210334,-11621.233289,-11325.150913,306.438199
282.210656,-12657.521608,-11325.150913,-766.095498
282.210978,-11991.336260,-9326.594869,-2528.115143
282.211299,-9770.718434,-6069.688724,-3600.648841
282.211621,-6513.812290,-5921.647536,-4903.011187
282.211943,-2812.782580,-9474.636058,-5515.887586
282.212265,814.226536,-12879.583391,-2911.162892
282.212587,3923.091493,-13101.645173,-383.047749
282.212909,7624.121203,-11843.295072,-842.705048
282.213231,10881.027347,-11917.315666,-1608.800546
282.213553,12139.377449,-11103.089130,-995.924147
282.213875,9844.739029,-7772.162391,459.657299
282.214197,6587.832884,-3256.906145,1149.143247
282.214518,4219.173869,-2294.638420,306.438199
282.214840,2590.720797,-4959.379811,-612.876398
282.215162,-1258.350101,-7476.080014,-1455.581446
282.215484,-6365.771101,-9474.636058,459.657299
282.215806,-9178.553681,-11029.068536,2068.457845
282.216128,-10066.800811,-12287.418637,0.000000
282.216450,-9252.574275,-9474.636058,-3140.991542
282.216772,-8734.430116,-6365.771101,-4519.963438
282.217094,-6661.853478,-7402.059420,-5286.058936
282.217415,-2738.761985,-11029.068536,-4290.134789
282.217737,1036.288319,-13249.686362,-2757.943793
282.218059,4367.215058,-13323.706956,-2068.457845
282.218381,7698.141797,-13545.768739,0.000000
282.218703,10732.986159,-13397.727550,459.657299
282.219025,11103.089130,-10510.924376,-1532.190996
282.219347,9548.656652,-8142.265362,-1915.238745
282.219669,7254.018232,-6661.853478,536.266849
282.219990,3923.091493,-6217.729913,0.000000
282.220312,0.000000,-6587.832884,-536.266849
282.220634,-2664.741391,-7550.100608,-536.266849
282.220956,-5403.503377,-9178.553681,-153.219100
282.221278,-7994.224174,-9992.780217,229.828649
282.221600,-10732.986159,-10362.883188,-306.438199
282.221922,-11843.295072,-11029.068536,-1378.971896
282.222244,-10881.027347,-8808.450710,-2604.724693
282.222566,-8808.450710,-6069.688724,-4826.401637
282.222887,-5033.400406,-8290.306550,-6205.373534
282.223209,-888.247130,-11991.336260,-4443.353888
282.223531,3108.864956,-12953.603985,-1991.848295
282.223853,5995.668130,-11251.130318,-919.314598
282.224175,9696.697840,-10658.965565,-383.047749
282.224497,12139.377449,-10214.842000,-842.705048
282.224819,11029.068536,-8438.347739,-1302.362347
282.225141,8808.450710,-5921.647536,-919.314598
282.225462,5403.503377,-4811.338623,766.095498
282.225784,3182.885551,-6513.812290,0.000000
282.226106,370.102971,-7698.141797,-919.314598
282.226428,-3034.844362,-8956.491898,-383.047749
282.226750,-5699.585753,-10066.800811,1072.533697
282.227072,-7772.162391,-11991.336260,-766.095498
282.227394,-9474.636058,-11695.253884,-1455.581446
282.227716,-9548.656652,-7550.100608,-2221.676944
282.228037,-8512.368333,-5773.606348,-4673.182538
282.228359,-5329.482782,-9178.553681,-6281.983084
282.228681,-1480.411884,-13249.686362,-4826.401637
282.229003,1110.308913,-13841.851115,-2911.162892
282.229325,4145.153275,-13545.768739,-1762.019645
282.229647,7846.182985,-13397.727550,229.828649
282.229969,9918.759623,-11695.253884,0.000000
282.230291,9030.512492,-8142.265362,-2681.334243
282.230613,6661.853478,-6957.935855,-2145.067394
282.230934,3849.070898,-6291.750507,-229.828649
282.231256,296.082377,-6143.709319,-459.657299
282.231578,-3108.864956,-7402.059420,0.000000
282.231900,-5773.606348,-9178.553681,1608.800546
282.232222,-7846.182985,-10807.006753,995.924147
282.232544,-9844.739029,-10955.047942,0.000000
282.232866,-10807.006753,-9918.759623,-689.485948
282.233188,-10436.903782,-7920.203579,-1991.848295
282.233509,-9252.574275,-6217.729913,-3447.429741
282.233831,-6661.853478,-6365.771101,-3830.477490
282.234153,-4071.132681,-9400.615463,-4366.744339
282.234475,-962.267725,-12805.562797,-3064.381992
282.234797,2294.638420,-13027.624579,-1302.362347
282.235119,5921.647536,-11917.315666,-1378.971896
282.235441,9252.574275,-12213.398043,-1762.019645
282.235763,10510.924376,-10732.986159,-919.314598
282.236084,9104.533087,-7476.080014,459.657299
282.236406,5921.647536,-3775.050304,459.657299
282.236728,3775.050304,-3330.926739,0.000000
282.237050,2072.576638,-5403.503377,0.000000
282.237372,-1702.473667,-7772.162391,-1532.190996
282.237694,-5403.503377,-9918.759623,76.609550
282.238016,-7994.224174,-11325.150913,1455.581446
282.238338,-8512.368333,-12139.377449,306.438199
282.238660,-8364.327145,-9770.718434,-1455.581446
282.238981,-7994.224174,-6069.688724,-2834.553343
282.239303,-6513.812290,-6291.750507,-4366.744339
282.239625,-2220.617826,-9548.656652,-4366.744339
282.239947,2072.576638,-12435.459826,-3600.648841
282.240269,4737.318029,-14063.912898,-2145.067394
282.240591,7254.018232,-14211.954086,766.095498
282.240913,10140.821405,-13619.789333,1455.581446
282.241235,10584.944971,-11547.212695,-766.095498
282.241556,9474.636058,-8364.327145,-2068.457845
282.241878,7105.977043,-6513.812290,-919.314598
282.242200,3849.070898,-5551.544565,0.000000
282.242522,518.144159,-6439.791695,612.876398
282.242844,-2590.720797,-7550.100608,0.000000
282.243166,-5329.482782,-9252.574275,-383.047749
282.243488,-7698.141797,-11325.150913,-919.314598
282.243810,-10658.965565,-12361.439231,-842.705048
282.244131,-11843.295072,-10955.047942,-1072.533697
282.244453,-11029.068536,-8068.244768,-2451.505594
282.244775,-8808.450710,-5921.647536,-5515.887586
282.245097,-4959.379811,-7698.141797,-6818.249932
282.245419,-740.205942,-11547.212695,-5286.058936
282.245741,2072.576638,-12953.603985,-3524.039291
282.246063,5107.421000,-12583.501014,-306.438199
282.246385,8956.491898,-11843.295072,995.924147
282.246707,10807.006753,-9770.718434,76.609550
282.247028,9918.759623,-7105.977043,-1455.581446
282.247350,7179.997637,-5033.400406,-536.266849
282.247672,5181.441594,-4071.132681,-229.828649
282.247994,3108.864956,-4589.276840,-1378.971896
282.248316,740.205942,-7254.018232,0.000000
282.248638,-2368.659014,-9992.780217,1685.410096
282.248960,-5181.441594,-10732.986159,1225.752797
282.249282,-7328.038826,-11473.192101,-689.485948
282.249603,-8808.450710,-11399.171507,-1915.238745
282.249925,-9918.759623,-8290.306550,-2221.676944
282.250247,-10288.862594,-4737.318029,-4903.011187
282.250569,-7254.018232,-7402.059420,-6511.811733
282.250891,-1702.473667,-12805.562797,-6281.983084
282.251213,962.267725,-15766.386565,-4826.401637
282.251535,3849.070898,-15988.448347,-2068.457845
282.251857,7402.059420,-14952.160028,1149.143247
282.252178,10214.842000,-12879.583391,612.876398
282.252500,9622.677246,-8290.306550,-1838.629195
282.252822,6883.915261,-4811.338623,-766.095498
282.253144,3627.009116,-3404.947333,-536.266849
282.253466,1776.494261,-4589.276840,-1072.533697
282.253788,-888.247130,-7031.956449,-689.485948
282.254110,-3627.009116,-10436.903782,1302.362347
282.254432,-6291.750507,-12361.439231,2221.676944
282.254754,-8660.409521,-11843.295072,1762.019645
282.255075,-9844.739029,-9992.780217,-383.047749
282.255397,-9548.656652,-7624.121203,-2987.772442
282.255719,-8364.327145,-5995.668130,-5056.230287
282.256041,-5477.523971,-6587.832884,-5898.935335
282.256363,-1776.494261,-9844.739029,-4903.011187
282.256685,1628.453072,-14063.912898,-2834.553343
282.257007,4071.132681,-15100.201217,459.657299
282.257329,6957.935855,-12879.583391,1149.143247
282.257650,8586.388927,-10140.821405,-536.266849
282.257972,9178.553681,-8068.244768,-1532.190996
282.258294,7772.162391,-6513.812290,-1149.143247
282.258616,5921.647536,-3182.885551,-612.876398
282.258938,4589.276840,-2072.576638,-612.876398
282.259260,3256.906145,-5773.606348,536.266849
282.259582,222.061783,-9400.615463,1838.629195
282.259904,-3552.988522,-10881.027347,1072.533697
282.260225,-7624.121203,-12361.439231,-306.438199
282.260547,-9992.780217,-11843.295072,-612.876398
282.260869,-11695.253884,-8290.306550,-2221.676944
282.261191,-11177.109724,-6217.729913,-5132.839837
282.261513,-7105.977043,-7994.224174,-7277.907231
282.261835,-2146.597232,-11695.253884,-5669.106685
282.262157,1554.432478,-14211.954086,-3983.696590
282.262479,4811.338623,-15470.304188,-1225.752797
282.262801,8734.430116,-15618.345376,1762.019645
282.263122,11325.150913,-12213.398043,919.314598
282.263444,10732.986159,-7476.080014,-1378.971896
282.263766,7994.224174,-5551.544565,-1532.190996
282.264088,4071.132681,-5255.462188,76.609550
282.264410,1036.288319,-4885.359217,0.000000
282.264732,-1258.350101,-5847.626942,-919.314598
282.265054,-2590.720797,-9622.677246,0.000000
282.265376,-5403.503377,-12879.583391,1838.629195
282.265697,-8808.450710,-12065.356855,2221.676944
282.266019,-10362.883188,-9844.739029,229.828649
282.266341,-10436.903782,-8956.491898,-2987.772442
282.266663,-11695.253884,-6809.894666,-4136.915689
282.266985,-12435.459826,-4219.173869,-4673.182538
282.267307,-9474.636058,-6883.915261,-5515.887586
282.267629,-4589.276840,-12287.418637,-5362.668486
282.267951,-148.041188,-15544.324782,-3294.210641
282.268272,3330.926739,-14952.160028,-689.485948
282.268594,6513.812290,-12435.459826,306.438199
282.268916,9178.553681,-10584.944971,76.609550
282.269238,10140.821405,-7254.018232,-1762.019645
282.269560,9030.512492,-2738.761985,-1915.238745
282.269882,6661.853478,-1258.350101,-1302.362347
282.270204,3701.029710,-3627.009116,153.219100
282.270526,444.123565,-7994.224174,1225.752797
282.270848,-1998.556043,-10881.027347,1072.533697
282.271169,-4515.256246,-12583.501014,0.000000
282.271491,-6513.812290,-13175.665768,-612.876398
282.271813,-7624.121203,-11473.192101,-612.876398
282.272135,-8438.347739,-7105.977043,-919.314598
282.272457,-7698.141797,-3997.112087,-4136.915689
282.272779,-5033.400406,-6365.771101,-6205.373534
282.273101,-740.205942,-11399.171507,-5898.935335
282.273423,1924.535449,-14730.098246,-4136.915689
282.273744,4367.215058,-16728.654289,-1685.410096
282.274066,8068.244768,-16580.613101,1685.410096
282.274388,10881.027347,-12953.603985,2221.676944
282.274710,10881.027347,-7179.997637,-919.314598
282.275032,8660.409521,-4367.215058,-1762.019645
282.275354,6069.688724,-4885.359217,-1072.533697
282.275676,2664.741391,-4663.297435,-1685.410096
282.275998,-740.205942,-6661.853478,-1225.752797
282.276319,-3404.947333,-10066.800811,459.657299
282.276641,-4885.359217,-12287.418637,536.266849
282.276963,-7476.080014,-13027.624579,-536.266849
282.277285,-9992.780217,-11547.212695,-459.657299
282.277607,-10584.944971,-9104.533087,-995.924147
282.277929,-9918.759623,-5773.606348,-3983.696590
282.278251,-7105.977043,-5255.462188,-6894.859482
282.278573,-2590.720797,-8586.388927,-6128.763984
282.278895,1924.535449,-12583.501014,-4519.963438
282.279216,4663.297435,-14952.160028,-995.924147
282.279538,7402.059420,-13841.851115,3140.991542
282.279860,10140.821405,-10658.965565,2451.505594
282.280182,10955.047942,-7624.121203,-1532.190996
282.280504,10362.883188,-6513.812290,-2451.505594
282.280826,7846.182985,-4737.318029,-1532.190996
282.281148,4589.276840,-2886.803174,-1072.533697
282.281470,2442.679609,-5551.544565,-306.438199
282.281791,296.082377,-9918.759623,1455.581446
282.282113,-3330.926739,-11843.295072,1302.362347
282.282435,-6439.791695,-12065.356855,-766.095498
282.282757,-8956.491898,-12657.521608,-2451.505594
282.283079,-10436.903782,-10140.821405,-1838.629195
282.283401,-11547.212695,-6143.709319,-2298.286494
282.283723,-10807.006753,-4737.318029,-4673.182538
282.284045,-6217.729913,-7698.141797,-6665.030833
282.284366,-962.267725,-12731.542202,-5362.668486
282.284688,2516.700203,-15396.283594,-3140.991542
282.285010,5403.503377,-15692.365970,153.219100
282.285332,9030.512492,-13545.768739,2451.505594
282.285654,11029.068536,-9474.636058,1149.143247
282.285976,9474.636058,-5773.606348,-1225.752797
282.286298,6365.771101,-3997.112087,-2145.067394
282.286620,2812.782580,-4515.256246,-2068.457845
282.286942,0.000000,-5995.668130,-1762.019645
282.287263,-3330.926739,-9400.615463,-306.438199
282.287585,-5699.585753,-11695.253884,1608.800546
282.287907,-7846.182985,-12435.459826,2145.067394
282.288229,-9400.615463,-11991.336260,-536.266849
282.288551,-9770.718434,-10362.883188,-2221.676944
282.288873,-9992.780217,-8142.265362,-2604.724693
282.289195,-10510.924376,-5033.400406,-3217.601092
282.289517,-8438.347739,-4959.379811,-4366.744339
282.289838,-4589.276840,-8068.244768,-4903.011187
282.290160,-592.164754,-12287.418637,-3677.258390
282.290482,2220.617826,-13989.892304,-1915.238745
282.290804,4811.338623,-13397.727550,-612.876398
282.291126,7846.182985,-11769.274478,-689.485948
282.291448,9178.553681,-10584.944971,153.219100
282.291770,8586.388927,-7402.059420,-536.266849
282.292092,6957.935855,-3034.844362,-1915.238745
282.292413,5255.462188,-2146.597232,-2145.067394
282.292735,2368.659014,-6291.750507,-306.438199
282.293057,-1924.535449,-9548.656652,1225.752797
282.293379,-5625.565159,-11843.295072,995.924147
282.293701,-7772.162391,-12953.603985,-919.314598
282.294023,-8660.409521,-13101.645173,-1378.971896
282.294345,-8882.471304,-9474.636058,-1072.533697
282.294667,-8068.244768,-4737.318029,-2298.286494
282.294989,-5255.462188,-4737.318029,-4366.744339
282.295310,74.020594,-8956.491898,-4673.182538
282.295632,3256.906145,-12583.501014,-3294.210641
282.295954,4959.379811,-14285.974681,-1455.581446
282.296276,7031.956449,-15100.201217,1685.410096
282.296598,10362.883188,-13249.686362,2145.067394
282.296920,10807.006753,-9400.615463,-306.438199
282.297242,8956.491898,-7105.977043,-919.314598
282.297564,5921.647536,-5403.503377,-383.047749
282.297885,3404.947333,-4737.318029,-1762.019645
282.298207,666.185348,-5995.668130,-2145.067394
282.298529,-1850.514855,-9474.636058,-612.876398
282.298851,-4885.359217,-11769.274478,1072.533697
282.299173,-8216.285956,-11843.295072,76.609550
282.299495,-10584.944971,-11769.274478,-995.924147
282.299817,-11917.315666,-10214.842000,-1225.752797
282.300139,-12213.398043,-5995.668130,-2451.505594
282.300460,-10436.903782,-3997.112087,-5209.449386
282.300782,-5255.462188,-7179.997637,-6205.373534
282.301104,370.102971,-11547.212695,-3983.696590
282.301426,4293.194464,-13619.789333,-1455.581446
282.301748,6957.935855,-12879.583391,1302.362347
282.302070,9548.656652,-11325.150913,3064.381992
282.302392,11695.253884,-8882.471304,153.219100
282.302714,11103.089130,-6957.935855,-3064.381992
282.303036,9030.512492,-5551.544565,-2068.457845
282.303357,6291.750507,-4293.194464,-995.924147
282.303679,2960.823768,-6217.729913,-459.657299
282.304001,0.000000,-9918.759623,1532.190996
282.304323,-3108.864956,-11325.150913,2068.457845
282.304645,-5255.462188,-11769.274478,-1302.362347
282.304967,-7476.080014,-11621.233289,-2987.772442
282.305289,-9696.697840,-11325.150913,-2145.067394
282.305611,-11251.130318,-6809.894666,-1762.019645
282.305932,-11029.068536,-4367.215058,-3753.867940
282.306254,-7698.141797,-7105.977043,-6052.154434
282.306576,-2590.720797,-11695.253884,-6281.983084
282.306898,370.102971,-14063.912898,-4519.963438
282.307220,2960.823768,-15544.324782,-1225.752797
282.307542,6513.812290,-15100.201217,2298.286494
282.307864,9104.533087,-12065.356855,1762.019645
282.308186,8808.450710,-7698.141797,-1455.581446
282.308507,6735.874072,-5107.421000,-3140.991542
282.308829,4811.338623,-4515.256246,-3370.820191
282.309151,2146.597232,-5699.585753,-3370.820191
282.309473,-888.247130,-8734.430116,-995.924147
282.309795,-3330.926739,-11843.295072,2374.896044
282.310117,-5181.441594,-13249.686362,1838.629195
282.310439,-7105.977043,-12509.480420,-766.095498
282.310761,-8956.491898,-11029.068536,-1455.581446
282.311083,-10066.800811,-7179.997637,-1608.800546
282.311404,-10140.821405,-3552.988522,-2834.553343
282.311726,-6957.935855,-3627.009116,-4979.620737
282.312048,-2590.720797,-7698.141797,-4979.620737
282.312370,1554.432478,-12065.356855,-3753.867940
282.312692,3627.009116,-13915.871710,-995.924147
282.313014,5995.668130,-13619.789333,1225.752797
282.313336,8290.306550,-11917.315666,919.314598
282.313658,9918.759623,-9474.636058,-689.485948
282.313979,8364.327145,-6439.791695,-1915.238745
282.314301,5551.544565,-4219.173869,-2757.943793
282.314623,2738.761985,-4293.194464,-2374.896044
282.314945,0.000000,-7031.956449,-459.657299
282.315267,-2886.803174,-9696.697840,689.485948
282.315589,-6143.709319,-11769.274478,459.657299
282.315911,-7179.997637,-13397.727550,-995.924147
282.316233,-8808.450710,-13471.748144,-995.924147
282.316554,-10066.800811,-9992.780217,-383.047749
282.316876,-9622.677246,-4885.359217,-1302.362347
282.317198,-6291.750507,-2664.741391,-4366.744339
282.317520,-1998.556043,-6587.832884,-5975.544884
282.317842,2442.679609,-11695.253884,-4060.306139
282.318164,4885.359217,-14137.933492,-1455.581446
282.318486,7402.059420,-16136.489536,1072.533697
282.318808,10362.883188,-14878.139434,2987.772442
282.319130,10732.986159,-11547.212695,1685.410096
282.319452,9178.553681,-6365.771101,-1608.800546
282.319774,6365.771101,-5181.441594,-2911.162892
282.320095,3775.050304,-5847.626942,-2911.162892
282.320417,296.082377,-7031.956449,-1915.238745
282.320739,-3404.947333,-9918.759623,153.219100
282.321061,-6587.832884,-12805.562797,2451.505594
282.321383,-7846.182985,-13249.686362,612.876398
282.321705,-9844.739029,-12213.398043,-1991.848295
282.322027,-11621.233289,-8956.491898,-1225.752797
282.322349,-11251.130318,-4589.276840,-1072.533697
282.322671,-9844.739029,-2442.679609,-3983.696590
282.322993,-4959.379811,-5329.482782,-6281.983084
282.323314,814.226536,-10436.903782,-4903.011187
282.323636,3478.967927,-13545.768739,-2528.115143
282.323958,5773.606348,-15026.180623,459.657299
282.324280,7994.224174,-13693.809927,4136.915689
282.324602,9474.636058,-9992.780217,1225.752797
282.324924,9400.615463,-6957.935855,-2221.676944
282.325246,7698.141797,-5995.668130,-2911.162892
282.325568,5107.421000,-4885.359217,-2374.896044
282.325890,2738.761985,-4737.318029,-919.314598
282.326212,148.041188,-8290.306550,1762.019645
282.326534,-2072.576638,-11399.171507,2681.334243
282.326855,-4293.194464,-12139.377449,612.876398
282.327177,-7179.997637,-11621.233289,-1762.019645
282.327499,-8956.491898,-10214.842000,-919.314598
282.327821,-9844.739029,-6365.771101,-766.095498
282.328143,-9770.718434,-3404.947333,-4366.744339
282.328465,-5551.544565,-5773.606348,-6511.811733
