#time,accel_x,accel_y,accel_z
425.544230,-370.102971,-9770.718434,-1608.800546
425.544552,-444.123565,-9474.636058,-1685.410096
425.544875,0.000000,-9252.574275,-1685.410096
425.545198,0.000000,-8956.491898,-1608.800546
425.545520,-222.061783,-8882.471304,-1455.581446
425.545843,74.020594,-9252.574275,-1685.410096
425.546166,-444.123565,-9400.615463,-1762.019645
425.546488,-592.164754,-9918.759623,-1685.410096
425.546811,-592.164754,-9844.739029,-1838.629195
425.547134,-296.082377,-9548.656652,-1378.971896
425.547456,-296.082377,-9326.594869,-1378.971896
425.547779,-222.061783,-9030.512492,-1532.190996
425.548102,0.000000,-8808.450710,-1532.190996
425.548424,-222.061783,-9030.512492,-1532.190996
425.548747,-370.102971,-9474.636058,-1762.019645
425.549070,0.000000,-9696.697840,-1762.019645
425.549392,-444.123565,-9844.739029,-1378.971896
425.549715,-370.102971,-9622.677246,-1762.019645
425.550038,-370.102971,-9474.636058,-1685.410096
425.550361,-222.061783,-9178.553681,-1608.800546
425.550683,-370.102971,-8956.491898,-1838.629195
425.551006,-518.144159,-8660.409521,-1762.019645
425.551329,-444.123565,-9252.574275,-1532.190996
425.551651,-518.144159,-9548.656652,-1608.800546
425.551974,-592.164754,-9696.697840,-1762.019645
425.552297,-592.164754,-9696.697840,-1072.533697
425.552619,-222.061783,-9178.553681,-1455.581446
425.552942,0.000000,-9400.615463,-1762.019645
425.553265,0.000000,-9252.574275,-1532.190996
425.553587,-148.041188,-8956.491898,-1608.800546
425.553910,-370.102971,-9178.553681,-1915.238745
425.554233,-444.123565,-9474.636058,-1991.848295
425.554555,-518.144159,-9622.677246,-2145.067394
425.554878,-444.123565,-9622.677246,-1608.800546
425.555201,-296.082377,-9474.636058,-1378.971896
425.555523,-370.102971,-9252.574275,-1225.752797
425.555846,-518.144159,-8956.491898,-1685.410096
425.556169,-222.061783,-9252.574275,-1455.581446
425.556491,-370.102971,-9104.533087,-1455.581446
425.556814,-518.144159,-9178.553681,-1608.800546
425.557137,-444.123565,-9474.636058,-1608.800546
425.557459,-592.164754,-9548.656652,-1302.362347
425.557782,222.061783,-9770.718434,-1532.190996
425.558105,-370.102971,-9474.636058,-1532.190996
425.558428,-370.102971,-9030.512492,-1532.190996
425.558750,-518.144159,-9178.553681,-1608.800546
425.559073,-296.082377,-9104.533087,-1608.800546
425.559396,-370.102971,-9474.636058,-1072.533697
425.559718,-740.205942,-9622.677246,-1072.533697
425.560041,-592.164754,-9474.636058,-1532.190996
425.560364,-518.144159,-9548.656652,-1608.800546
425.560686,-296.082377,-9474.636058,-1685.410096
425.561009,-296.082377,-9178.553681,-1762.019645
425.561332,-296.082377,-9030.512492,-1455.581446
425.561654,0.000000,-9326.594869,-1685.410096
425.561977,-296.082377,-9252.574275,-1608.800546
425.562300,-444.123565,-9400.615463,-1762.019645
425.562622,-444.123565,-9474.636058,-1762.019645
425.562945,-370.102971,-9252.574275,-1685.410096
425.563268,-296.082377,-9548.656652,-1608.800546
425.563590,-296.082377,-9030.512492,-1225.752797
425.563913,-148.041188,-9104.533087,-1608.800546
425.564236,-296.082377,-9030.512492,-1302.362347
425.564558,0.000000,-8808.450710,-1608.800546
425.564881,-370.102971,-9252.574275,-2145.067394
425.565204,-518.144159,-9474.636058,-1685.410096
425.565527,-592.164754,-9622.677246,-1608.800546
425.565849,-518.144159,-9474.636058,-1685.410096
425.566172,-518.144159,-9400.615463,-1302.362347
425.566495,-370.102971,-9474.636058,-1225.752797
425.566817,-296.082377,-9178.553681,-1762.019645
425.567140,-296.082377,-9178.553681,-1608.800546
425.567463,-444.123565,-9474.636058,-1838.629195
425.567785,-592.164754,-9474.636058,-1762.019645
425.568108,-148.041188,-9696.697840,-1608.800546
425.568431,-666.185348,-9474.636058,-1225.752797
425.568753,444.123565,-9400.615463,-1532.190996
425.569076,1776.494261,-9548.656652,-2221.676944
425.569399,2664.741391,-9622.677246,-1608.800546
425.569721,2664.741391,-8808.450710,-919.314598
425.570044,1702.473667,-8364.327145,-919.314598
425.570367,518.144159,-8956.491898,-1838.629195
425.570689,-740.205942,-9178.553681,-2834.553343
425.571012,-2368.659014,-9474.636058,-2451.505594
425.571335,-3627.009116,-9770.718434,-1991.848295
425.571657,-4589.276840,-9548.656652,-2374.896044
425.571980,-2220.617826,-9548.656652,-2757.943793
425.572303,666.185348,-10584.944971,-2681.334243
425.572625,2960.823768,-11177.109724,-1072.533697
425.572948,3330.926739,-10140.821405,229.828649
425.573271,2442.679609,-8734.430116,229.828649
425.573594,2590.720797,-8216.285956,-306.438199
425.573916,2664.741391,-9326.594869,-2068.457845
425.574239,2146.597232,-9326.594869,-2374.896044
425.574562,518.144159,-8364.327145,-689.485948
425.574884,-592.164754,-7179.997637,-459.657299
425.575207,666.185348,-8586.388927,-1608.800546
425.575530,1850.514855,-9696.697840,-2681.334243
425.575852,814.226536,-10140.821405,-1455.581446
425.576175,-1184.329507,-9104.533087,-536.266849
425.576498,-1628.453072,-8882.471304,-1991.848295
425.576820,-518.144159,-9474.636058,-4060.306139
425.577143,0.000000,-9622.677246,-3140.991542
425.577466,444.123565,-10881.027347,-1378.971896
425.577788,1406.391290,-10436.903782,-1685.410096
425.578111,2812.782580,-9770.718434,-2298.286494
425.578434,4293.194464,-10140.821405,-1149.143247
425.578756,5033.400406,-11325.150913,306.438199
425.579079,4145.153275,-10436.903782,-459.657299
425.579402,2590.720797,-8290.306550,-1378.971896
425.579724,2368.659014,-7476.080014,-1225.752797
425.580047,2294.638420,-7994.224174,-1149.143247
425.580370,1702.473667,-7698.141797,-842.705048
425.580693,1036.288319,-7105.977043,-1225.752797
425.581015,1110.308913,-8586.388927,-1072.533697
425.581338,2146.597232,-10732.986159,-919.314598
425.581661,2442.679609,-10584.944971,-842.705048
425.581983,1850.514855,-9474.636058,-1685.410096
425.582306,2368.659014,-10140.821405,-2451.505594
425.582629,2812.782580,-10288.862594,-1532.190996
425.582951,2886.803174,-9400.615463,-2221.676944
425.583274,2664.741391,-8956.491898,-2604.724693
425.583597,2368.659014,-9918.759623,-2298.286494
425.583919,3404.947333,-10288.862594,-842.705048
425.584242,3330.926739,-9696.697840,-1608.800546
425.584565,2590.720797,-9474.636058,-2374.896044
425.584887,2220.617826,-9400.615463,-995.924147
425.585210,1628.453072,-8586.388927,-536.266849
425.585533,1036.288319,-7179.997637,-1072.533697
425.585855,-296.082377,-7550.100608,-1838.629195
425.586178,-666.185348,-8808.450710,-1915.238745
425.586501,-518.144159,-9844.739029,-1149.143247
425.586823,-518.144159,-11103.089130,-689.485948
425.587146,74.020594,-11843.295072,-919.314598
425.587469,1110.308913,-11621.233289,-842.705048
425.587791,1702.473667,-11103.089130,-459.657299
425.588114,1998.556043,-10584.944971,-383.047749
425.588437,1776.494261,-9400.615463,-1225.752797
425.588760,1554.432478,-8216.285956,-1685.410096
425.589082,1406.391290,-7476.080014,-766.095498
425.589405,1036.288319,-7920.203579,-1378.971896
425.589728,814.226536,-8142.265362,-1838.629195
425.590050,888.247130,-8808.450710,-1838.629195
425.590373,962.267725,-8956.491898,-1302.362347
425.590696,962.267725,-8142.265362,-842.705048
425.591018,1258.350101,-7550.100608,-2528.115143
425.591341,1184.329507,-7698.141797,-2987.772442
425.591664,1332.370696,-8882.471304,-2298.286494
425.591986,1258.350101,-9548.656652,-1838.629195
425.592309,1036.288319,-10436.903782,-2068.457845
425.592632,1184.329507,-11251.130318,-2145.067394
425.592954,1480.411884,-12213.398043,-1608.800546
425.593277,1924.535449,-11769.274478,-995.924147
425.593600,2368.659014,-11103.089130,-995.924147
425.593922,3182.885551,-10214.842000,-919.314598
425.594245,3775.050304,-9326.594869,0.000000
425.594568,4071.132681,-8660.409521,-306.438199
425.594890,3552.988522,-8586.388927,0.000000
425.595213,3404.947333,-8586.388927,-536.266849
425.595536,4441.235652,-8216.285956,-1838.629195
425.595858,5625.565159,-8068.244768,-2145.067394
425.596181,5921.647536,-8142.265362,-1838.629195
425.596504,5329.482782,-8364.327145,-1225.752797
425.596827,4589.276840,-9474.636058,-1762.019645
425.597149,3404.947333,-11103.089130,-2298.286494
425.597472,1924.535449,-12731.542202,-2451.505594
425.597795,444.123565,-12509.480420,-2681.334243
425.598117,-888.247130,-11695.253884,-1762.019645
425.598440,-1036.288319,-10362.883188,-1072.533697
425.598763,-740.205942,-8956.491898,-383.047749
425.599085,-296.082377,-7476.080014,0.000000
425.599408,222.061783,-6069.688724,-536.266849
425.599731,296.082377,-5329.482782,-766.095498
425.600053,962.267725,-5107.421000,-612.876398
425.600376,1480.411884,-6661.853478,-689.485948
425.600699,1406.391290,-8142.265362,-1225.752797
425.601021,1036.288319,-9326.594869,-1149.143247
425.601344,296.082377,-9622.677246,-1532.190996
425.601667,0.000000,-10732.986159,-1991.848295
425.601989,-296.082377,-11251.130318,-2911.162892
425.602312,-740.205942,-10881.027347,-3064.381992
425.602635,-1184.329507,-11103.089130,-3064.381992
425.602957,-1332.370696,-11621.233289,-2374.896044
425.603280,-1850.514855,-11695.253884,-2298.286494
425.603603,-2812.782580,-11769.274478,-1608.800546
425.603926,-3330.926739,-11695.253884,-1149.143247
425.604248,-3182.885551,-11399.171507,-1225.752797
425.604571,-2146.597232,-10288.862594,-1149.143247
425.604894,-1184.329507,-8438.347739,-842.705048
425.605216,296.082377,-7105.977043,-153.219100
425.605539,2590.720797,-6291.750507,-383.047749
425.605862,4959.379811,-5403.503377,-995.924147
425.606184,6439.791695,-5625.565159,-536.266849
425.606507,6587.832884,-6957.935855,-1455.581446
425.606830,6069.688724,-7402.059420,-842.705048
425.607152,5699.585753,-8512.368333,-3064.381992
425.607475,5551.544565,-11547.212695,-4749.792088
425.607798,4885.359217,-13989.892304,-3294.210641
425.608120,2960.823768,-12805.562797,-995.924147
425.608443,814.226536,-11769.274478,-306.438199
425.608766,-1332.370696,-11769.274478,-1149.143247
425.609088,-3330.926739,-11029.068536,-1838.629195
425.609411,-5181.441594,-8734.430116,-842.705048
425.609734,-6735.874072,-6291.750507,-2757.943793
425.610056,-6365.771101,-6735.874072,-2681.334243
425.610379,-3182.885551,-8438.347739,-2221.676944
425.610702,592.164754,-7920.203579,-1915.238745
425.611024,4441.235652,-8734.430116,-2451.505594
425.611347,8068.244768,-11547.212695,-1225.752797
425.611670,11325.150913,-11621.233289,-383.047749
425.611993,12583.501014,-10584.944971,-919.314598
425.612315,13027.624579,-8956.491898,-1378.971896
425.612638,12657.521608,-8142.265362,-1608.800546
425.612961,10510.924376,-8364.327145,-1838.629195
425.613283,7031.956449,-8808.450710,-459.657299
425.613606,3108.864956,-9030.512492,153.219100
425.613929,-962.267725,-11103.089130,-1072.533697
425.614251,-2960.823768,-13471.748144,-995.924147
425.614574,-5699.585753,-12953.603985,229.828649
425.614897,-8216.285956,-11029.068536,2298.286494
425.615219,-9622.677246,-7254.018232,2451.505594
425.615542,-8808.450710,-4293.194464,459.657299
425.615865,-5329.482782,-3330.926739,-1838.629195
425.616187,-1184.329507,-4145.153275,-3524.039291
425.616510,2516.700203,-6291.750507,-4366.744339
425.616833,5181.441594,-9326.594869,-2145.067394
425.617155,7550.100608,-12731.542202,-1302.362347
425.617478,8438.347739,-13767.830521,-2221.676944
425.617800,7179.997637,-13471.748144,-3983.696590
425.618123,4589.276840,-11695.253884,-4979.620737
425.618446,1924.535449,-10288.862594,-5898.935335
425.618768,-296.082377,-8808.450710,-5209.449386
425.619091,-1998.556043,-8290.306550,-3677.258390
425.619413,-4515.256246,-9178.553681,-306.438199
425.619736,-5255.462188,-12139.377449,2681.334243
425.620059,-7105.977043,-12509.480420,2681.334243
425.620381,-7772.162391,-11325.150913,2757.943793
425.620704,-7402.059420,-7179.997637,995.924147
425.621026,-4885.359217,-6291.750507,-612.876398
425.621349,-222.061783,-7105.977043,0.000000
425.621672,5255.462188,-3701.029710,-306.438199
425.621994,7920.203579,-4071.132681,-2374.896044
425.622317,10807.006753,-7994.224174,-1455.581446
425.622639,10362.883188,-11843.295072,-689.485948
425.622962,6587.832884,-13471.748144,-4213.525239
425.623285,1258.350101,-14508.036463,-5592.497135
425.623607,-2960.823768,-15248.242405,-4443.353888
425.623930,-7624.121203,-14656.077652,-5745.716235
425.624252,-11991.336260,-13323.706956,-3983.696590
425.624575,-15766.386565,-7846.182985,-306.438199
425.624898,-14804.118840,-5403.503377,-2068.457845
425.625220,-10066.800811,-3478.967927,-3447.429741
425.625543,-6143.709319,-6217.729913,-2145.067394
425.625865,-4219.173869,-8734.430116,995.924147
425.626188,-1406.391290,-9474.636058,3447.429741
425.626511,2442.679609,-7328.038826,3064.381992
425.626833,6291.750507,-5477.523971,842.705048
425.627156,8290.306550,-4663.297435,-1225.752797
425.627478,7105.977043,-4589.276840,-1915.238745
425.627801,4885.359217,-6661.853478,-1915.238745
425.628124,3478.967927,-10214.842000,-3370.820191
425.628446,2738.761985,-12879.583391,-5286.058936
425.628769,2072.576638,-15396.283594,-5515.887586
425.629092,1406.391290,-15914.427753,-3524.039291
425.629414,-1998.556043,-13471.748144,-2757.943793
425.629737,-3034.844362,-12731.542202,-1915.238745
425.630059,-3701.029710,-11843.295072,-1762.019645
425.630382,-3108.864956,-10584.944971,-1302.362347
425.630705,-1924.535449,-6735.874072,-842.705048
425.631027,518.144159,-4737.318029,-689.485948
425.631350,3997.112087,-5773.606348,0.000000
425.631672,6143.709319,-6957.935855,995.924147
425.631995,5477.523971,-7994.224174,1762.019645
425.632318,3404.947333,-10732.986159,1685.410096
425.632640,296.082377,-11177.109724,153.219100
425.632963,-2516.700203,-9918.759623,-2911.162892
425.633285,-4663.297435,-7994.224174,-4673.182538
425.633608,-4737.318029,-8142.265362,-4903.011187
425.633931,-3182.885551,-8512.368333,-4596.572988
425.634253,-1628.453072,-8660.409521,-4749.792088
425.634576,518.144159,-9474.636058,-2451.505594
425.634898,1776.494261,-10584.944971,-1838.629195
425.635221,2590.720797,-12287.418637,-1685.410096
425.635544,2072.576638,-13175.665768,-1685.410096
425.635866,1110.308913,-11843.295072,-995.924147
425.636189,740.205942,-9992.780217,-1072.533697
425.636511,1110.308913,-8364.327145,-459.657299
425.636834,1850.514855,-8364.327145,153.219100
425.637157,1702.473667,-8068.244768,995.924147
425.637479,962.267725,-7254.018232,1302.362347
425.637802,888.247130,-6513.812290,1455.581446
425.638124,296.082377,-6735.874072,459.657299
425.638447,-370.102971,-7105.977043,-306.438199
425.638770,-1184.329507,-7105.977043,-689.485948
425.639092,-1110.308913,-7920.203579,-1532.190996
425.639415,-740.205942,-9548.656652,-2911.162892
425.639738,-296.082377,-11917.315666,-2604.724693
425.640060,-1258.350101,-12583.501014,-1838.629195
425.640383,-1924.535449,-11843.295072,-995.924147
425.640705,-2146.597232,-10658.965565,-1378.971896
425.641028,-1036.288319,-11325.150913,-3064.381992
425.641351,-1258.350101,-12287.418637,-2528.115143
425.641673,-3849.070898,-10214.842000,-919.314598
425.641996,-6365.771101,-7402.059420,1149.143247
425.642318,-5921.647536,-6291.750507,0.000000
425.642641,-3256.906145,-5403.503377,-2757.943793
425.642964,-1332.370696,-4293.194464,-3830.477490
425.643286,-666.185348,-4293.194464,-2604.724693
425.643609,592.164754,-7402.059420,-766.095498
425.643931,2368.659014,-10288.862594,0.000000
425.644254,3256.906145,-10584.944971,-1225.752797
425.644577,3108.864956,-10510.924376,-3677.258390
425.644899,1998.556043,-11399.171507,-4443.353888
425.645222,1184.329507,-12879.583391,-4366.744339
425.645544,222.061783,-13249.686362,-2911.162892
425.645867,-740.205942,-13101.645173,-1532.190996
425.646190,-1480.411884,-12213.398043,-766.095498
425.646512,-888.247130,-10881.027347,-2068.457845
425.646835,-1406.391290,-9178.553681,-2911.162892
425.647157,-1628.453072,-8882.471304,-2068.457845
425.647480,-1332.370696,-8364.327145,-689.485948
425.647803,-370.102971,-7402.059420,0.000000
425.648125,814.226536,-6513.812290,995.924147
425.648448,1628.453072,-6809.894666,76.609550
425.648770,1702.473667,-7772.162391,-536.266849
425.649093,1406.391290,-9252.574275,-2221.676944
425.649416,740.205942,-10436.903782,-2221.676944
425.649738,-370.102971,-11177.109724,-1532.190996
425.650061,-2294.638420,-10584.944971,-995.924147
425.650383,-4441.235652,-10140.821405,-1532.190996
425.650706,-6069.688724,-8882.471304,-2604.724693
425.651029,-6069.688724,-8216.285956,-4136.915689
425.651351,-4885.359217,-7698.141797,-5515.887586
425.651674,-3404.947333,-7550.100608,-3524.039291
425.651997,-1332.370696,-8512.368333,-1685.410096
425.652319,666.185348,-9030.512492,-306.438199
425.652642,2960.823768,-9474.636058,-306.438199
425.652964,4145.153275,-9326.594869,-1149.143247
425.653287,4145.153275,-9400.615463,-1838.629195
425.653610,3182.885551,-9252.574275,-1608.800546
425.653932,2368.659014,-9104.533087,-1378.971896
425.654255,1332.370696,-10066.800811,-995.924147
425.654577,296.082377,-10807.006753,-612.876398
425.654900,-740.205942,-10510.924376,0.000000
425.655223,-370.102971,-9770.718434,-1608.800546
425.655545,-444.123565,-9104.533087,-1991.848295
425.655868,-740.205942,-8882.471304,-1378.971896
425.656190,-1110.308913,-8438.347739,459.657299
425.656513,-1036.288319,-8290.306550,153.219100
425.656836,222.061783,-9474.636058,-1608.800546
425.657158,1184.329507,-10214.842000,-2221.676944
425.657481,1184.329507,-10807.006753,-1685.410096
425.657803,296.082377,-10955.047942,-383.047749
425.658126,-444.123565,-11325.150913,-153.219100
425.658449,-740.205942,-11621.233289,-1455.581446
425.658771,-1628.453072,-11103.089130,-1915.238745
425.659094,-3923.091493,-8956.491898,-1608.800546
425.659416,-5551.544565,-7179.997637,-1915.238745
425.659739,-5255.462188,-6439.791695,-2757.943793
425.660062,-3701.029710,-5995.668130,-2987.772442
425.660384,-2368.659014,-5699.585753,-1608.800546
425.660707,-814.226536,-7105.977043,-1685.410096
425.661029,296.082377,-8956.491898,-919.314598
425.661352,2072.576638,-10658.965565,-1149.143247
425.661675,3034.844362,-11251.130318,-1072.533697
425.661997,3108.864956,-10658.965565,-842.705048
425.662320,2442.679609,-9326.594869,-995.924147
425.662642,1702.473667,-9030.512492,-1455.581446
425.662965,1184.329507,-9474.636058,-1685.410096
425.663288,592.164754,-9844.739029,-1302.362347
425.663610,-444.123565,-10288.862594,-1762.019645
425.663933,-1554.432478,-10362.883188,-1455.581446
425.664256,-2442.679609,-9770.718434,0.000000
425.664578,-2590.720797,-8512.368333,-1532.190996
425.664901,-2368.659014,-8364.327145,-2834.553343
425.665223,-592.164754,-9252.574275,-2145.067394
425.665546,1184.329507,-9030.512492,-1762.019645
425.665869,2442.679609,-9622.677246,-2528.115143
425.666191,2442.679609,-11177.109724,-1225.752797
425.666514,1850.514855,-11843.295072,536.266849
425.666836,1332.370696,-10510.924376,536.266849
425.667159,444.123565,-9474.636058,-2451.505594
425.667482,-1702.473667,-9770.718434,-4443.353888
425.667804,-4219.173869,-9770.718434,-2221.676944
425.668127,-5551.544565,-7846.182985,-842.705048
425.668449,-5921.647536,-6439.791695,-2068.457845
425.668772,-4737.318029,-6957.935855,-3370.820191
425.669095,-3108.864956,-6661.853478,-3217.601092
425.669417,-1332.370696,-7179.997637,-2068.457845
425.669740,-518.144159,-8586.388927,-1378.971896
425.670062,0.000000,-9770.718434,-919.314598
425.670385,666.185348,-10584.944971,-1608.800546
425.670708,1628.453072,-10214.842000,-2911.162892
425.671030,1258.350101,-9400.615463,-3447.429741
425.671353,592.164754,-10955.047942,-4673.182538
425.671675,296.082377,-12805.562797,-2604.724693
425.671998,0.000000,-12953.603985,-229.828649
425.672321,-592.164754,-11547.212695,-383.047749
425.672643,-1332.370696,-10658.965565,-2145.067394
425.672966,-740.205942,-9918.759623,-1991.848295
425.673288,-666.185348,-8290.306550,-1225.752797
425.673611,-222.061783,-6439.791695,-459.657299
425.673934,444.123565,-6587.832884,-383.047749
425.674256,1924.535449,-7920.203579,153.219100
425.674579,3034.844362,-8586.388927,842.705048
425.674902,3478.967927,-9992.780217,-612.876398
425.675224,3256.906145,-11621.233289,-1532.190996
425.675547,2590.720797,-12065.356855,-612.876398
425.675869,1184.329507,-11251.130318,153.219100
425.676192,-1480.411884,-9548.656652,-536.266849
425.676515,-4663.297435,-8734.430116,-1532.190996
425.676837,-6883.915261,-7179.997637,-2298.286494
425.677160,-7476.080014,-6069.688724,-3983.696590
425.677482,-5551.544565,-6513.812290,-4826.401637
425.677805,-3997.112087,-6439.791695,-4060.306139
425.678128,-2664.741391,-8734.430116,-2068.457845
425.678450,-1036.288319,-10140.821405,0.000000
425.678773,962.267725,-10584.944971,-459.657299
425.679095,2368.659014,-10214.842000,-2681.334243
425.679418,3108.864956,-9400.615463,-2528.115143
425.679741,2220.617826,-8734.430116,-1378.971896
425.680063,1480.411884,-8882.471304,-1225.752797
425.680386,1406.391290,-9918.759623,-1149.143247
425.680708,1258.350101,-10658.965565,-306.438199
425.681031,888.247130,-9770.718434,229.828649
425.681354,518.144159,-9326.594869,-842.705048
425.681676,-222.061783,-8734.430116,-1455.581446
425.681999,-148.041188,-8734.430116,-1149.143247
425.682321,74.020594,-8660.409521,76.609550
425.682644,518.144159,-8364.327145,-153.219100
425.682967,1480.411884,-8586.388927,-1149.143247
425.683289,2442.679609,-9252.574275,-1762.019645
425.683612,2812.782580,-10807.006753,-1149.143247
425.683934,1554.432478,-11769.274478,-383.047749
425.684257,-444.123565,-11843.295072,-459.657299
425.684580,-2072.576638,-10955.047942,-2068.457845
425.684902,-4071.132681,-9548.656652,-3370.820191
425.685225,-6217.729913,-8660.409521,-3600.648841
425.685547,-8068.244768,-7550.100608,-4290.134789
425.685870,-7994.224174,-7402.059420,-4213.525239
425.686193,-7031.956449,-7624.121203,-3983.696590
425.686515,-4663.297435,-8882.471304,-3140.991542
425.686838,-3108.864956,-8586.388927,-2757.943793
425.687161,-1110.308913,-9474.636058,-2145.067394
425.687483,1406.391290,-9844.739029,-1532.190996
425.687806,3701.029710,-9992.780217,-1302.362347
425.688128,4441.235652,-9770.718434,-1608.800546
425.688451,3552.988522,-9030.512492,-1455.581446
425.688774,2886.803174,-9474.636058,-1608.800546
425.689096,2220.617826,-11029.068536,-1532.190996
425.689419,814.226536,-11621.233289,-1225.752797
425.689741,-740.205942,-10362.883188,-459.657299
425.690064,-1036.288319,-8734.430116,-383.047749
425.690387,-1036.288319,-9030.512492,-919.314598
425.690709,-518.144159,-8956.491898,-919.314598
425.691032,0.000000,-8364.327145,-689.485948
425.691354,518.144159,-8068.244768,-919.314598
425.691677,1628.453072,-8068.244768,-1455.581446
425.692000,2442.679609,-9844.739029,-1149.143247
425.692322,2072.576638,-10807.006753,-1225.752797
425.692645,814.226536,-11547.212695,-995.924147
425.692967,0.000000,-11621.233289,-1685.410096
425.693290,-592.164754,-11473.192101,-2834.553343
425.693613,-2220.617826,-10066.800811,-2757.943793
425.693935,-4663.297435,-7920.203579,-2068.457845
425.694258,-5995.668130,-6587.832884,-1685.410096
425.694580,-5329.482782,-6587.832884,-2681.334243
425.694903,-3923.091493,-6957.935855,-3753.867940
425.695226,-3478.967927,-7402.059420,-2374.896044
425.695548,-2368.659014,-8512.368333,-1532.190996
425.695871,-444.123565,-9622.677246,-919.314598
425.696193,1776.494261,-9918.759623,-995.924147
425.696516,3256.906145,-9548.656652,-995.924147
425.696839,3923.091493,-9030.512492,-1455.581446
425.697161,4145.153275,-9252.574275,-1838.629195
425.697484,3627.009116,-9844.739029,-1685.410096
425.697806,2664.741391,-11251.130318,-919.314598
425.698129,1184.329507,-11769.274478,0.000000
425.698452,-518.144159,-10510.924376,0.000000
425.698774,-1628.453072,-9252.574275,-919.314598
425.699097,-2294.638420,-8438.347739,-1838.629195
425.699420,-1702.473667,-8734.430116,-1991.848295
425.699742,-1258.350101,-8364.327145,-1378.971896
425.700065,-592.164754,-8438.347739,-306.438199
425.700387,888.247130,-9400.615463,-766.095498
425.700710,1406.391290,-9844.739029,-612.876398
425.701033,1184.329507,-10288.862594,-1072.533697
425.701355,370.102971,-10140.821405,-1378.971896
425.701678,-296.082377,-10288.862594,-2221.676944
425.702000,-1110.308913,-10658.965565,-3064.381992
425.702323,-2664.741391,-9992.780217,-2374.896044
425.702646,-4071.132681,-8808.450710,-1915.238745
425.702968,-4811.338623,-7624.121203,-2221.676944
425.703291,-4293.194464,-7254.018232,-2834.553343
425.703613,-3256.906145,-7254.018232,-2911.162892
425.703936,-2146.597232,-7698.141797,-1762.019645
425.704259,-1110.308913,-8142.265362,-842.705048
425.704581,370.102971,-8734.430116,-766.095498
425.704904,2590.720797,-8586.388927,-1608.800546
425.705226,3627.009116,-8438.347739,-1838.629195
425.705549,3997.112087,-8290.306550,-1762.019645
425.705872,2516.700203,-9252.574275,-1225.752797
425.706194,1702.473667,-10436.903782,-842.705048
425.706517,296.082377,-11843.295072,-1532.190996
425.706839,-1332.370696,-11769.274478,-1532.190996
425.707162,-2368.659014,-10732.986159,-1455.581446
425.707485,-1924.535449,-10362.883188,-2604.724693
425.707807,-2072.576638,-9178.553681,-3064.381992
425.708130,-1332.370696,-9178.553681,-1455.581446
425.708452,-1184.329507,-8068.244768,76.609550
425.708775,74.020594,-8586.388927,-153.219100
425.709098,1702.473667,-9326.594869,-1608.800546
425.709420,2368.659014,-10288.862594,-1762.019645
425.709743,2442.679609,-10066.800811,-1225.752797
425.710066,1924.535449,-10288.862594,-1762.019645
425.710388,1258.350101,-11621.233289,-1149.143247
425.710711,148.041188,-11547.212695,0.000000
425.711033,-1776.494261,-9474.636058,-1302.362347
425.711356,-5329.482782,-8660.409521,-2451.505594
425.711679,-7179.997637,-8216.285956,-2221.676944
425.712001,-7550.100608,-7179.997637,-2757.943793
425.712324,-5847.626942,-5773.606348,-4443.353888
425.712646,-3849.070898,-5847.626942,-3370.820191
425.712969,-1924.535449,-7624.121203,-2374.896044
425.713292,518.144159,-9770.718434,-1302.362347
425.713614,2442.679609,-10066.800811,-919.314598
425.713937,3182.885551,-9918.759623,-1991.848295
425.714259,3478.967927,-10214.842000,-3217.601092
425.714582,2886.803174,-10658.965565,-2757.943793
425.714905,1776.494261,-11325.150913,-2451.505594
425.715227,518.144159,-11843.295072,-2068.457845
425.715550,0.000000,-12213.398043,-1302.362347
425.715872,-370.102971,-10584.944971,-612.876398
425.716204,-888.247130,-8586.388927,-153.219100
425.716527,-1776.494261,-7105.977043,-919.314598
425.716850,-1258.350101,-7476.080014,-1532.190996
425.717172,444.123565,-9030.512492,-995.924147
425.717495,2442.679609,-8808.450710,-919.314598
425.717817,3552.988522,-9178.553681,-1532.190996
425.718140,4589.276840,-10214.842000,0.000000
425.718462,4737.318029,-10955.047942,842.705048
425.718785,3478.967927,-10362.883188,1225.752797
425.719107,1110.308913,-9252.574275,383.047749
425.719430,-666.185348,-9548.656652,-1762.019645
425.719752,-2368.659014,-10510.924376,-3140.991542
425.720075,-4589.276840,-9326.594869,-2451.505594
425.720397,-6217.729913,-7624.121203,-1915.238745
425.720720,-6069.688724,-6957.935855,-2911.162892
425.721043,-4663.297435,-6661.853478,-2987.772442
425.721365,-2886.803174,-6735.874072,-2604.724693
425.721688,-1924.535449,-7402.059420,-2374.896044
425.722010,-1332.370696,-8512.368333,-1455.581446
425.722333,-222.061783,-10140.821405,-1685.410096
425.722655,814.226536,-10214.842000,-1915.238745
425.722978,2220.617826,-9622.677246,-2757.943793
425.723300,1924.535449,-10066.800811,-3140.991542
425.723623,1702.473667,-10881.027347,-2298.286494
425.723945,888.247130,-11621.233289,-612.876398
425.724268,-370.102971,-11843.295072,0.000000
425.724591,-888.247130,-10436.903782,-766.095498
425.724913,-1258.350101,-9474.636058,-1915.238745
425.725236,-518.144159,-7994.224174,-2604.724693
425.725558,296.082377,-7772.162391,-1455.581446
425.725881,814.226536,-7846.182985,76.609550
425.726203,2368.659014,-7994.224174,766.095498
425.726526,5255.462188,-9104.533087,76.609550
425.726848,5921.647536,-10584.944971,-1072.533697
425.727171,5181.441594,-11621.233289,0.000000
425.727493,3256.906145,-11621.233289,612.876398
425.727816,1184.329507,-11843.295072,-229.828649
425.728139,-444.123565,-11251.130318,-995.924147
425.728461,-3108.864956,-9326.594869,-1455.581446
425.728784,-6291.750507,-7179.997637,-2451.505594
425.729106,-8290.306550,-6143.709319,-2757.943793
425.729429,-9252.574275,-5551.544565,-3907.087040
425.729751,-7328.038826,-6143.709319,-4826.401637
425.730074,-5995.668130,-7994.224174,-4596.572988
425.730396,-4293.194464,-9474.636058,-3370.820191
425.730719,-2294.638420,-10066.800811,-2145.067394
425.731041,0.000000,-10732.986159,-2528.115143
425.731364,1554.432478,-11251.130318,-2987.772442
425.731686,2146.597232,-10214.842000,-3217.601092
425.732009,2368.659014,-10436.903782,-3600.648841
425.732332,2294.638420,-11695.253884,-2451.505594
425.732654,2368.659014,-12361.439231,-689.485948
425.732977,1628.453072,-11325.150913,153.219100
425.733299,1184.329507,-10288.862594,0.000000
425.733622,1258.350101,-8068.244768,229.828649
425.733944,1998.556043,-7105.977043,-766.095498
425.734267,2516.700203,-6365.771101,0.000000
425.734589,2590.720797,-6291.750507,842.705048
425.734912,3478.967927,-7254.018232,919.314598
425.735234,4737.318029,-8438.347739,612.876398
425.735557,5551.544565,-10584.944971,-689.485948
425.735880,4737.318029,-11843.295072,-612.876398
425.736202,2220.617826,-11917.315666,306.438199
425.736525,-740.205942,-11769.274478,-306.438199
425.736847,-2664.741391,-11325.150913,-2757.943793
425.737170,-5033.400406,-10807.006753,-4290.134789
425.737492,-7624.121203,-9178.553681,-3983.696590
425.737815,-9696.697840,-7846.182985,-3447.429741
425.738137,-9178.553681,-7402.059420,-4903.011187
425.738460,-7624.121203,-7550.100608,-4749.792088
425.738782,-5403.503377,-8068.244768,-3447.429741
425.739105,-3552.988522,-9178.553681,-2451.505594
425.739427,-1332.370696,-9622.677246,-1838.629195
425.739750,1110.308913,-9252.574275,-1838.629195
425.740073,2812.782580,-8216.285956,-1532.190996
425.740395,3478.967927,-8142.265362,-612.876398
425.740718,3849.070898,-8734.430116,-229.828649
425.741040,3997.112087,-9548.656652,-1149.143247
425.741363,3330.926739,-10436.903782,-459.657299
425.741685,2368.659014,-11103.089130,689.485948
425.742008,962.267725,-10584.944971,1378.971896
425.742330,370.102971,-8808.450710,-153.219100
425.742653,74.020594,-8142.265362,-919.314598
425.742975,370.102971,-7624.121203,-1225.752797
425.743298,814.226536,-7031.956449,-766.095498
425.743621,1406.391290,-7105.977043,-842.705048
425.743943,2886.803174,-9326.594869,-689.485948
425.744266,3701.029710,-11399.171507,-995.924147
425.744588,2516.700203,-11991.336260,-995.924147
425.744911,518.144159,-12361.439231,-1225.752797
425.745233,-1850.514855,-12139.377449,-1455.581446
425.745556,-3330.926739,-11399.171507,-2604.724693
425.745878,-5403.503377,-9474.636058,-3140.991542
425.746201,-6809.894666,-7254.018232,-3907.087040
425.746523,-7698.141797,-6069.688724,-3600.648841
425.746846,-7105.977043,-6587.832884,-3447.429741
425.747169,-5329.482782,-5551.544565,-3064.381992
425.747491,-3627.009116,-7105.977043,-3370.820191
425.747814,-1480.411884,-9326.594869,-1915.238745
425.748136,888.247130,-10214.842000,-1225.752797
425.748459,2664.741391,-10658.965565,-1455.581446
425.748781,3552.988522,-9918.759623,-1608.800546
425.749104,4293.194464,-9030.512492,-1532.190996
425.749426,4367.215058,-9474.636058,-2221.676944
425.749749,4071.132681,-10436.903782,-1915.238745
425.750071,2960.823768,-11991.336260,-766.095498
425.750394,1332.370696,-12213.398043,-383.047749
425.750716,370.102971,-11473.192101,-536.266849
425.751039,148.041188,-9474.636058,-536.266849
425.751362,-518.144159,-7772.162391,-1915.238745
425.751684,-370.102971,-7254.018232,-2145.067394
425.752007,444.123565,-7254.018232,-1762.019645
425.752329,1776.494261,-7772.162391,-1225.752797
425.752652,4071.132681,-9844.739029,-919.314598
425.752974,4071.132681,-11399.171507,-689.485948
425.753297,3034.844362,-12583.501014,-306.438199
425.753619,962.267725,-12509.480420,-153.219100
425.753942,-1406.391290,-11399.171507,-842.705048
425.754264,-3330.926739,-10214.842000,-1762.019645
425.754587,-4737.318029,-9326.594869,-2987.772442
425.754910,-6217.729913,-7846.182985,-3064.381992
425.755232,-6735.874072,-6069.688724,-2221.676944
425.755555,-7105.977043,-5699.585753,-2451.505594
425.755877,-5699.585753,-6439.791695,-1991.848295
425.756200,-3701.029710,-6661.853478,-2451.505594
425.756522,-2368.659014,-8216.285956,-2528.115143
425.756845,-666.185348,-9474.636058,-1685.410096
425.757167,444.123565,-9548.656652,-1455.581446
425.757490,1332.370696,-9844.739029,-1455.581446
425.757812,1332.370696,-9326.594869,-1378.971896
425.758135,1776.494261,-10066.800811,-2374.896044
425.758458,1998.556043,-11325.150913,-2451.505594
425.758780,1554.432478,-12287.418637,-995.924147
425.759103,0.000000,-12287.418637,153.219100
425.759425,-962.267725,-11103.089130,153.219100
425.759748,-1258.350101,-8660.409521,0.000000
425.760070,-962.267725,-7179.997637,-1378.971896
425.760393,-370.102971,-6069.688724,-1455.581446
425.760715,148.041188,-6439.791695,-689.485948
425.761038,1776.494261,-7846.182985,306.438199
425.761360,3034.844362,-9030.512492,229.828649
425.761683,4219.173869,-11029.068536,0.000000
425.762005,3404.947333,-11769.274478,536.266849
425.762328,1184.329507,-11473.192101,76.609550
425.762651,-1332.370696,-10510.924376,-1532.190996
425.762973,-2960.823768,-10436.903782,-2757.943793
425.763296,-4663.297435,-9844.739029,-3294.210641
425.763618,-6587.832884,-8216.285956,-3140.991542
425.763941,-7920.203579,-6439.791695,-2757.943793
425.764263,-6587.832884,-7328.038826,-2834.553343
425.764586,-4737.318029,-6883.915261,-3140.991542
425.764908,-2960.823768,-8512.368333,-3294.210641
425.765231,-2146.597232,-9030.512492,-2221.676944
425.765553,-518.144159,-9178.553681,-1838.629195
425.765876,1332.370696,-9104.533087,-1915.238745
425.766199,2664.741391,-8956.491898,-1915.238745
425.766521,3182.885551,-9548.656652,-1762.019645
425.766844,2960.823768,-10732.986159,-1762.019645
425.767166,3182.885551,-11769.274478,-1838.629195
425.767489,2812.782580,-11917.315666,-1225.752797
425.767811,2294.638420,-11547.212695,-459.657299
425.768134,1776.494261,-10288.862594,995.924147
425.768456,888.247130,-8068.244768,76.609550
425.768779,518.144159,-6513.812290,-1532.190996
425.769101,444.123565,-6809.894666,-2298.286494
425.769424,1110.308913,-7698.141797,-1455.581446
425.769746,2368.659014,-8734.430116,-689.485948
425.770069,3997.112087,-10732.986159,-842.705048
425.770392,4737.318029,-12139.377449,-153.219100
425.770714,4515.256246,-12953.603985,0.000000
425.771037,2442.679609,-11843.295072,76.609550
425.771359,-222.061783,-9918.759623,-612.876398
425.771682,-2146.597232,-8882.471304,-2604.724693
425.772004,-4441.235652,-8216.285956,-3983.696590
425.772327,-6957.935855,-7254.018232,-3447.429741
425.772649,-8142.265362,-7402.059420,-2834.553343
425.772972,-8142.265362,-7920.203579,-3600.648841
425.773294,-5921.647536,-8364.327145,-3294.210641
425.773617,-3923.091493,-8660.409521,-3294.210641
425.773940,-1924.535449,-9548.656652,-2757.943793
425.774262,518.144159,-9992.780217,-2221.676944
425.774585,2368.659014,-10066.800811,-2221.676944
425.774907,2960.823768,-9548.656652,-1608.800546
425.775230,2738.761985,-9178.553681,-1685.410096
425.775552,1850.514855,-10658.965565,-1685.410096
425.775875,888.247130,-11769.274478,-1838.629195
425.776197,444.123565,-12731.542202,-689.485948
425.776520,74.020594,-11843.295072,306.438199
425.776842,148.041188,-9252.574275,306.438199
425.777165,-444.123565,-7402.059420,-612.876398
425.777488,-666.185348,-6883.915261,-306.438199
425.777810,-1332.370696,-6513.812290,153.219100
425.778133,-1332.370696,-7179.997637,-995.924147
425.778455,-296.082377,-8956.491898,-1762.019645
425.778778,1406.391290,-10436.903782,-1532.190996
425.779100,2368.659014,-11399.171507,-153.219100
425.779423,1850.514855,-12065.356855,383.047749
425.779745,0.000000,-11769.274478,0.000000
425.780068,-2220.617826,-11103.089130,-1302.362347
425.780390,-3923.091493,-9696.697840,-3217.601092
425.780713,-6291.750507,-8808.450710,-3600.648841
425.781035,-8068.244768,-7772.162391,-3753.867940
425.781358,-8808.450710,-6587.832884,-3140.991542
425.781681,-6513.812290,-7328.038826,-2604.724693
425.782003,-4589.276840,-6439.791695,-1838.629195
425.782326,-2812.782580,-7254.018232,-1915.238745
425.782648,-1332.370696,-7698.141797,-1532.190996
425.782971,296.082377,-8808.450710,-1608.800546
425.783293,1554.432478,-9770.718434,-1378.971896
425.783616,2886.803174,-9474.636058,-1378.971896
425.783938,3478.967927,-9622.677246,-1072.533697
425.784261,3849.070898,-9622.677246,-1838.629195
425.784583,3775.050304,-10807.006753,-1608.800546
425.784906,2886.803174,-11991.336260,-612.876398
425.785229,1332.370696,-12065.356855,-153.219100
425.785551,0.000000,-10510.924376,0.000000
425.785874,-148.041188,-8734.430116,-995.924147
425.786196,-518.144159,-7624.121203,-2681.334243
425.786519,0.000000,-7105.977043,-2298.286494
425.786841,1184.329507,-7254.018232,-1915.238745
425.787164,3182.885551,-8882.471304,-1072.533697
425.787486,4663.297435,-9770.718434,536.266849
425.787809,5329.482782,-11177.109724,153.219100
425.788131,4293.194464,-11325.150913,0.000000
425.788454,1998.556043,-11547.212695,-383.047749
425.788777,-962.267725,-11177.109724,-919.314598
425.789099,-3552.988522,-9696.697840,-2145.067394
425.789422,-5403.503377,-8364.327145,-3447.429741
425.789744,-6513.812290,-6957.935855,-3447.429741
425.790067,-7105.977043,-6143.709319,-3600.648841
425.790389,-5329.482782,-7402.059420,-3447.429741
425.790712,-3923.091493,-7105.977043,-2987.772442
425.791034,-2368.659014,-8882.471304,-3294.210641
425.791357,-1406.391290,-9622.677246,-3294.210641
425.791679,0.000000,-10584.944971,-2757.943793
425.792002,592.164754,-11029.068536,-2987.772442
425.792324,1406.391290,-10510.924376,-3140.991542
425.792647,1998.556043,-10881.027347,-2604.724693
425.792970,2738.761985,-11473.192101,-2068.457845
425.793292,3404.947333,-11695.253884,-1685.410096
425.793615,3182.885551,-12065.356855,-842.705048
425.793937,1924.535449,-11177.109724,536.266849
425.794260,592.164754,-9770.718434,995.924147
425.794582,-444.123565,-7476.080014,-459.657299
425.794905,-592.164754,-6291.750507,-1915.238745
425.795227,-148.041188,-6291.750507,-1915.238745
425.795550,814.226536,-7328.038826,-766.095498
425.795872,2590.720797,-9104.533087,0.000000
425.796195,4293.194464,-10510.924376,689.485948
425.796518,4959.379811,-11843.295072,766.095498
425.796840,3404.947333,-12139.377449,842.705048
425.797163,74.020594,-11325.150913,0.000000
425.797485,-3404.947333,-10066.800811,-1455.581446
425.797808,-6069.688724,-9474.636058,-3447.429741
425.798130,-8216.285956,-8364.327145,-3983.696590
425.798453,-9770.718434,-7105.977043,-3983.696590
425.798775,-9992.780217,-6735.874072,-3140.991542
425.799098,-8438.347739,-7772.162391,-2451.505594
425.799420,-6069.688724,-8290.306550,-2374.896044
425.799743,-4293.194464,-8660.409521,-2374.896044
425.800065,-2146.597232,-9326.594869,-1608.800546
425.800388,-592.164754,-8734.430116,-1455.581446
425.800711,740.205942,-7994.224174,-1608.800546
425.801033,1480.411884,-7920.203579,-1685.410096
425.801356,2368.659014,-9178.553681,-1915.238745
425.801678,3108.864956,-10658.965565,-1685.410096
425.802001,3404.947333,-11843.295072,-1072.533697
425.802323,3034.844362,-12805.562797,0.000000
425.802646,2442.679609,-12065.356855,919.314598
425.802968,1480.411884,-9474.636058,689.485948
425.803291,74.020594,-7624.121203,-1072.533697
425.803613,-888.247130,-6587.832884,-1838.629195
425.803936,-888.247130,-6587.832884,-2374.896044
425.804259,222.061783,-7624.121203,-2374.896044
425.804581,1924.535449,-9400.615463,-1532.190996
425.804904,4145.153275,-11029.068536,-459.657299
425.805226,5699.585753,-12435.459826,-229.828649
425.805549,6069.688724,-12731.542202,153.219100
425.805871,4293.194464,-11695.253884,76.609550
425.806194,740.205942,-9770.718434,-536.266849
425.806516,-2886.803174,-8882.471304,-1685.410096
425.806839,-5625.565159,-7846.182985,-2681.334243
425.807161,-7846.182985,-6365.771101,-3600.648841
425.807484,-7772.162391,-5403.503377,-4290.134789
425.807807,-6883.915261,-6069.688724,-3830.477490
425.808129,-4293.194464,-7772.162391,-1762.019645
425.808452,-2294.638420,-8068.244768,-1532.190996
425.808774,-666.185348,-9252.574275,-1685.410096
425.809097,814.226536,-10214.842000,-2374.896044
425.809419,2072.576638,-10140.821405,-2911.162892
425.809742,1480.411884,-9030.512492,-3600.648841
425.810064,1850.514855,-9326.594869,-3677.258390
425.810387,2368.659014,-10807.006753,-3064.381992
425.810709,2960.823768,-12509.480420,-2068.457845
425.811032,2886.803174,-13027.624579,-766.095498
425.811354,1184.329507,-12435.459826,153.219100
425.811677,-444.123565,-10140.821405,0.000000
425.812000,-1998.556043,-7994.224174,-919.314598
425.812322,-2294.638420,-6291.750507,-2068.457845
425.812645,-1406.391290,-6217.729913,-2298.286494
425.812967,370.102971,-6883.915261,-1532.190996
425.813290,3108.864956,-8364.327145,-306.438199
425.813612,4959.379811,-9770.718434,1072.533697
425.813935,6291.750507,-11917.315666,1532.190996
425.814257,5921.647536,-12509.480420,1608.800546
425.814580,4515.256246,-12065.356855,536.266849
425.814902,1628.453072,-11251.130318,-1225.752797
425.815225,-2368.659014,-10288.862594,-1378.971896
425.815548,-6513.812290,-8882.471304,-1532.190996
425.815870,-9622.677246,-7105.977043,-3140.991542
425.816193,-10066.800811,-6143.709319,-4903.011187
425.816515,-8660.409521,-7624.121203,-5362.668486
425.816838,-6439.791695,-7031.956449,-3983.696590
425.817160,-4737.318029,-8364.327145,-2757.943793
425.817483,-3182.885551,-9918.759623,-1838.629195
425.817805,-962.267725,-10584.944971,-1762.019645
425.818128,0.000000,-10881.027347,-2451.505594
425.818450,0.000000,-8808.450710,-3830.477490
425.818773,222.061783,-8734.430116,-3217.601092
425.819095,1258.350101,-9474.636058,-2987.772442
425.819418,2368.659014,-10584.944971,-2068.457845
425.819740,3182.885551,-12657.521608,153.219100
425.820063,2146.597232,-11695.253884,1838.629195
425.820385,1184.329507,-9844.739029,1378.971896
425.820708,-592.164754,-7254.018232,0.000000
425.821030,-1036.288319,-5921.647536,-1532.190996
425.821353,-1184.329507,-5477.523971,-1762.019645
425.821675,0.000000,-6587.832884,-1455.581446
425.821998,2220.617826,-7920.203579,-766.095498
425.822320,4441.235652,-9992.780217,0.000000
425.822643,6365.771101,-12435.459826,229.828649
425.822965,6809.894666,-13915.871710,536.266849
425.823288,5551.544565,-13767.830521,229.828649
425.823610,3552.988522,-12509.480420,-995.924147
425.823933,296.082377,-10732.986159,-1532.190996
425.824255,-3701.029710,-8808.450710,-1915.238745
425.824578,-7105.977043,-5921.647536,-2298.286494
425.824900,-7698.141797,-4589.276840,-3907.087040
425.825223,-7031.956449,-4737.318029,-5362.668486
425.825545,-5181.441594,-6735.874072,-4443.353888
425.825868,-3627.009116,-7698.141797,-2604.724693
425.826190,-2220.617826,-9030.512492,-995.924147
425.826513,0.000000,-10436.903782,-995.924147
425.826835,962.267725,-10436.903782,-2374.896044
425.827158,296.082377,-9252.574275,-3600.648841
425.827480,-814.226536,-8734.430116,-3294.210641
425.827803,-444.123565,-8660.409521,-3600.648841
425.828125,518.144159,-10066.800811,-2987.772442
425.828448,1184.329507,-11843.295072,-1302.362347
425.828770,1036.288319,-13027.624579,76.609550
425.829093,-296.082377,-10955.047942,1149.143247
425.829415,-1036.288319,-9400.615463,-153.219100
425.829738,-1110.308913,-7105.977043,-1685.410096
425.830060,-222.061783,-6439.791695,-2298.286494
425.830383,592.164754,-6439.791695,-2068.457845
425.830705,2220.617826,-7328.038826,-1072.533697
425.831028,4367.215058,-9474.636058,-306.438199
425.831350,5699.585753,-11547.212695,459.657299
425.831673,5699.585753,-13175.665768,153.219100
425.831995,4737.318029,-13915.871710,76.609550
425.832318,2590.720797,-13027.624579,0.000000
425.832640,0.000000,-12287.418637,-1608.800546
425.832963,-3701.029710,-9474.636058,-2068.457845
425.833285,-6661.853478,-6587.832884,-2604.724693
425.833608,-7254.018232,-5107.421000,-3753.867940
425.833930,-6439.791695,-5477.523971,-5362.668486
425.834253,-4737.318029,-6069.688724,-4060.306139
425.834575,-3034.844362,-8142.265362,-2528.115143
425.834898,-1480.411884,-9770.718434,-1149.143247
425.835220,370.102971,-10807.006753,-459.657299
425.835543,888.247130,-10362.883188,-1455.581446
425.835865,296.082377,-9474.636058,-2528.115143
425.836188,-1184.329507,-8660.409521,-3294.210641
425.836510,-1406.391290,-9030.512492,-3370.820191
425.836833,-1110.308913,-10066.800811,-2757.943793
425.837155,-888.247130,-11103.089130,-1455.581446
425.837478,-1480.411884,-11399.171507,306.438199
425.837800,-1406.391290,-10881.027347,919.314598
425.838123,-2072.576638,-8882.471304,-459.657299
425.838445,-1628.453072,-7772.162391,-1532.190996
425.838768,-444.123565,-7105.977043,-1225.752797
425.839090,888.247130,-6809.894666,-1149.143247
425.839413,3627.009116,-7624.121203,-229.828649
425.839735,5551.544565,-9178.553681,0.000000
425.840058,6957.935855,-11251.130318,383.047749
425.840380,7031.956449,-12879.583391,1225.752797
425.840703,5477.523971,-13545.768739,1455.581446
425.841025,3108.864956,-12435.459826,919.314598
425.841348,-370.102971,-10807.006753,-383.047749
425.841670,-3775.050304,-8956.491898,-1455.581446
425.841993,-6069.688724,-6217.729913,-2298.286494
425.842315,-7328.038826,-4071.132681,-3830.477490
425.842638,-5625.565159,-4737.318029,-4596.572988
425.842960,-3775.050304,-5403.503377,-3524.039291
425.843283,-2146.597232,-8068.244768,-2374.896044
425.843605,-1332.370696,-10436.903782,-1302.362347
425.843928,-592.164754,-11917.315666,-536.266849
425.844250,-592.164754,-11399.171507,-2068.457845
425.844573,-740.205942,-9622.677246,-4213.525239
425.844895,-1554.432478,-9178.553681,-4749.792088
425.845218,-1850.514855,-9104.533087,-3447.429741
425.845540,-1480.411884,-10288.862594,-2681.334243
425.845863,-888.247130,-10881.027347,-1685.410096
425.846185,-1036.288319,-10807.006753,-612.876398
425.846508,-1998.556043,-9548.656652,153.219100
425.846831,-1406.391290,-9548.656652,-612.876398
425.847153,-1036.288319,-7698.141797,-1532.190996
425.847476,0.000000,-6735.874072,-1762.019645
425.847798,1406.391290,-6883.915261,-1532.190996
425.848121,3775.050304,-7476.080014,-536.266849
425.848443,5403.503377,-9400.615463,-306.438199
425.848766,6661.853478,-11251.130318,229.828649
425.849088,6883.915261,-13101.645173,919.314598
425.849411,5625.565159,-13397.727550,995.924147
425.849733,3034.844362,-12287.418637,842.705048
425.850056,-296.082377,-11325.150913,-1072.533697
425.850378,-3627.009116,-9252.574275,-1532.190996
425.850701,-6291.750507,-6439.791695,-2528.115143
425.851023,-8142.265362,-3478.967927,-4213.525239
425.851346,-7105.977043,-3701.029710,-5056.230287
425.851668,-4515.256246,-6439.791695,-4903.011187
425.851991,-1628.453072,-9326.594869,-2911.162892
425.852313,444.123565,-11251.130318,-1608.800546
425.852636,1406.391290,-12509.480420,-919.314598
425.852958,1776.494261,-11843.295072,-1225.752797
425.853281,1480.411884,-10436.903782,-2374.896044
425.853603,-296.082377,-9104.533087,-3524.039291
425.853926,-1332.370696,-8438.347739,-4443.353888
425.854248,-1554.432478,-9474.636058,-3753.867940
425.854571,-1480.411884,-10807.006753,-1378.971896
425.854893,-1776.494261,-10584.944971,229.828649
425.855216,-2442.679609,-9178.553681,766.095498
425.855538,-1332.370696,-9326.594869,-766.095498
425.855861,0.000000,-7476.080014,-1532.190996
425.856183,592.164754,-6809.894666,-1762.019645
425.856506,1258.350101,-6735.874072,-766.095498
425.856828,3108.864956,-7698.141797,0.000000
425.857151,4515.256246,-9918.759623,0.000000
425.857473,4959.379811,-11695.253884,536.266849
425.857796,4589.276840,-13027.624579,459.657299
425.858118,3478.967927,-13693.809927,-306.438199
425.858441,1924.535449,-12731.542202,-689.485948
425.858763,-222.061783,-11769.274478,-153.219100
425.859086,-3627.009116,-9104.533087,-229.828649
425.859408,-5477.523971,-5699.585753,-1225.752797
425.859731,-6735.874072,-3701.029710,-3447.429741
425.860053,-6735.874072,-3923.091493,-4519.963438
425.860376,-5403.503377,-5773.606348,-3677.258390
425.860698,-3775.050304,-8808.450710,-2911.162892
425.861021,-1554.432478,-10955.047942,-1072.533697
425.861343,740.205942,-12435.459826,-536.266849
425.861666,1850.514855,-12139.377449,-1378.971896
425.861988,1850.514855,-11177.109724,-2298.286494
425.862311,592.164754,-9918.759623,-2681.334243
425.862633,-222.061783,-9326.594869,-2604.724693
425.862956,-296.082377,-9844.739029,-2757.943793
425.863278,-666.185348,-10510.924376,-1455.581446
425.863601,-1776.494261,-9696.697840,76.609550
425.863923,-1480.411884,-9252.574275,383.047749
425.864246,-1924.535449,-7846.182985,153.219100
425.864568,-962.267725,-7179.997637,-919.314598
425.864891,0.000000,-6365.771101,-995.924147
425.865213,1258.350101,-6513.812290,-229.828649
425.865536,3256.906145,-7772.162391,0.000000
425.865858,4515.256246,-9326.594869,306.438199
425.866181,5329.482782,-10955.047942,536.266849
425.866503,5033.400406,-12583.501014,0.000000
425.866826,3701.029710,-13397.727550,-536.266849
425.867148,2072.576638,-13175.665768,-153.219100
425.867471,-444.123565,-11325.150913,-1378.971896
425.867793,-3034.844362,-9474.636058,-2451.505594
425.868116,-5403.503377,-6883.915261,-2221.676944
425.868438,-7105.977043,-4811.338623,-2681.334243
425.868761,-6291.750507,-5033.400406,-3907.087040
425.869083,-4885.359217,-5699.585753,-5286.058936
425.869406,-2442.679609,-8068.244768,-4213.525239
425.869728,-148.041188,-10436.903782,-1915.238745
425.870051,2294.638420,-12361.439231,-459.657299
425.870373,3404.947333,-12139.377449,-612.876398
425.870696,2072.576638,-9844.739029,-1455.581446
425.871018,814.226536,-8956.491898,-2451.505594
425.871341,-592.164754,-8216.285956,-3830.477490
425.871663,-1702.473667,-8734.430116,-5132.839837
425.871986,-2516.700203,-10066.800811,-3907.087040
425.872308,-3404.947333,-10288.862594,-1762.019645
425.872631,-3478.967927,-10362.883188,0.000000
425.872953,-3552.988522,-9326.594869,-919.314598
425.873276,-2368.659014,-8142.265362,-2374.896044
425.873598,-592.164754,-8586.388927,-3140.991542
425.873921,1184.329507,-8364.327145,-2451.505594
425.874243,2738.761985,-8512.368333,-229.828649
425.874566,3627.009116,-9474.636058,459.657299
425.874888,4145.153275,-11103.089130,76.609550
425.875211,3701.029710,-12065.356855,-995.924147
425.875533,2886.803174,-12953.603985,-1915.238745
425.875856,1332.370696,-12953.603985,-1915.238745
425.876178,-370.102971,-12065.356855,-689.485948
425.876501,-3108.864956,-9474.636058,0.000000
425.876823,-5107.421000,-6661.853478,-1378.971896
425.877146,-5033.400406,-5255.462188,-3140.991542
425.877468,-4589.276840,-4811.338623,-4596.572988
425.877791,-2960.823768,-5477.523971,-4290.134789
425.878113,-1332.370696,-7031.956449,-2911.162892
425.878436,370.102971,-9622.677246,-1225.752797
425.878758,1776.494261,-12657.521608,536.266849
425.879081,2072.576638,-12953.603985,383.047749
425.879403,518.144159,-11251.130318,-1608.800546
425.879726,-1406.391290,-9474.636058,-3294.210641
425.880048,-1554.432478,-8586.388927,-4290.134789
425.880371,-1850.514855,-8734.430116,-3677.258390
425.880693,-2368.659014,-9252.574275,-1225.752797
425.881016,-2368.659014,-9326.594869,842.705048
425.881338,-2072.576638,-8586.388927,0.000000
425.881661,-1850.514855,-8734.430116,-1225.752797
425.881983,-962.267725,-8364.327145,-1455.581446
425.882306,0.000000,-8586.388927,-1302.362347
425.882628,1258.350101,-8438.347739,0.000000
425.882951,2664.741391,-7846.182985,536.266849
425.883273,3923.091493,-8142.265362,612.876398
425.883596,4959.379811,-10140.821405,229.828649
425.883918,5551.544565,-11769.274478,0.000000
425.884241,4737.318029,-12139.377449,-229.828649
425.884564,2516.700203,-11621.233289,383.047749
425.884886,1258.350101,-11769.274478,689.485948
425.885209,-1406.391290,-10214.842000,766.095498
425.885531,-3849.070898,-7254.018232,-306.438199
425.885854,-5403.503377,-4811.338623,-2911.162892
425.886176,-5033.400406,-4589.276840,-4826.401637
425.886499,-3034.844362,-5551.544565,-3983.696590
425.886821,-2664.741391,-7328.038826,-2604.724693
425.887144,-1554.432478,-10807.006753,-995.924147
425.887466,-148.041188,-13249.686362,-383.047749
425.887789,740.205942,-13545.768739,-1455.581446
425.888111,962.267725,-11547.212695,-3370.820191
425.888434,296.082377,-10288.862594,-3600.648841
425.888756,-222.061783,-9252.574275,-3370.820191
425.889079,-740.205942,-8808.450710,-2681.334243
425.889401,-1628.453072,-9252.574275,-1532.190996
425.889724,-2886.803174,-9474.636058,-229.828649
425.890046,-3256.906145,-9992.780217,-995.924147
425.890369,-3256.906145,-8956.491898,-1838.629195
425.890691,-2516.700203,-7920.203579,-2221.676944
425.891014,-1036.288319,-8068.244768,-1072.533697
425.891336,518.144159,-7476.080014,0.000000
425.891659,1850.514855,-7920.203579,383.047749
425.891981,3034.844362,-7846.182985,306.438199
425.892304,3997.112087,-8808.450710,-842.705048
425.892626,3849.070898,-10436.903782,-1608.800546
425.892949,2368.659014,-12361.439231,-1225.752797
425.893271,592.164754,-13471.748144,-1225.752797
425.893594,-1998.556043,-12953.603985,-766.095498
425.893916,-4219.173869,-11399.171507,-1532.190996
425.894239,-5551.544565,-8586.388927,-2757.943793
425.894561,-6291.750507,-6217.729913,-4290.134789
425.894884,-4589.276840,-5625.565159,-4903.011187
425.895206,-2960.823768,-5255.462188,-2987.772442
425.895529,-888.247130,-7550.100608,-2451.505594
425.895851,592.164754,-9992.780217,-1455.581446
425.896174,1702.473667,-11103.089130,-536.266849
425.896496,1924.535449,-11843.295072,-1149.143247
425.896819,1850.514855,-10436.903782,-2298.286494
425.897141,1554.432478,-9622.677246,-3140.991542
425.897464,1480.411884,-8586.388927,-3447.429741
425.897786,888.247130,-8068.244768,-2528.115143
425.898109,-222.061783,-9400.615463,-1072.533697
425.898431,-1406.391290,-9770.718434,-153.219100
425.898754,-1702.473667,-9770.718434,-766.095498
425.899076,-1850.514855,-9030.512492,-2451.505594
425.899399,-1110.308913,-8586.388927,-2604.724693
425.899721,-222.061783,-7994.224174,-1991.848295
425.900044,1406.391290,-8216.285956,-766.095498
425.900366,2960.823768,-8808.450710,0.000000
425.900689,3997.112087,-9844.739029,-459.657299
425.901011,4219.173869,-10584.944971,-1302.362347
425.901334,3256.906145,-12213.398043,-1532.190996
425.901656,2072.576638,-12435.459826,0.000000
425.901979,-296.082377,-11695.253884,0.000000
425.902301,-1258.350101,-11399.171507,-919.314598
425.902624,-3404.947333,-9474.636058,-1225.752797
425.902946,-5107.421000,-7254.018232,-1762.019645
425.903269,-5181.441594,-6365.771101,-2757.943793
425.903591,-4811.338623,-5329.482782,-3524.039291
425.903914,-3182.885551,-6883.915261,-3217.601092
425.904236,-1258.350101,-8364.327145,-2681.334243
425.904559,518.144159,-10214.842000,-1608.800546
425.904881,1480.411884,-11325.150913,-459.657299
425.905204,2072.576638,-11251.130318,-459.657299
425.905526,1702.473667,-9844.739029,-1072.533697
425.905849,740.205942,-9104.533087,-2604.724693
425.906171,296.082377,-8734.430116,-2987.772442
425.906494,-296.082377,-9252.574275,-2374.896044
425.906816,-1332.370696,-9770.718434,-459.657299
425.907139,-1924.535449,-9918.759623,0.000000
425.907461,-2812.782580,-8882.471304,153.219100
425.907784,-3478.967927,-7846.182985,-1455.581446
425.908106,-3256.906145,-7550.100608,-2145.067394
425.908429,-2516.700203,-7624.121203,-2221.676944
425.908751,-1332.370696,-7476.080014,-1072.533697
425.909074,1258.350101,-8068.244768,-919.314598
425.909396,2738.761985,-9474.636058,76.609550
425.909719,3330.926739,-11177.109724,153.219100
425.910041,2516.700203,-12065.356855,-383.047749
425.910364,1110.308913,-12361.439231,-995.924147
425.910686,-222.061783,-12213.398043,-1608.800546
425.911009,-1998.556043,-11991.336260,-1762.019645
425.911331,-4071.132681,-9918.759623,-1302.362347
425.911654,-5847.626942,-7105.977043,-1532.190996
425.911976,-5921.647536,-5773.606348,-2987.772442
425.912299,-4515.256246,-5477.523971,-4749.792088
425.912621,-1998.556043,-6661.853478,-3217.601092
425.912944,-1332.370696,-8216.285956,-2987.772442
425.913266,0.000000,-9844.739029,-1762.019645
425.913589,814.226536,-11399.171507,-919.314598
425.913911,1332.370696,-11917.315666,-2068.457845
425.914234,814.226536,-10510.924376,-2221.676944
425.914556,1184.329507,-9696.697840,-3677.258390
425.914879,1776.494261,-9474.636058,-3907.087040
425.915201,1702.473667,-10140.821405,-2451.505594
425.915524,666.185348,-10288.862594,-383.047749
425.915846,-592.164754,-9400.615463,919.314598
425.916169,-1036.288319,-8956.491898,-1225.752797
425.916492,-888.247130,-8364.327145,-2528.115143
425.916814,-592.164754,-8142.265362,-2451.505594
425.917137,0.000000,-8364.327145,-1685.410096
425.917459,1036.288319,-8734.430116,-459.657299
425.917782,2738.761985,-9474.636058,0.000000
425.918104,4293.194464,-9918.759623,0.000000
425.918427,4885.359217,-10732.986159,-689.485948
425.918749,4145.153275,-11547.212695,-995.924147
425.919072,2664.741391,-11399.171507,-306.438199
425.919394,888.247130,-11251.130318,-383.047749
425.919717,-1406.391290,-11325.150913,-306.438199
425.920040,-4293.194464,-9918.759623,-766.095498
425.920362,-5921.647536,-7476.080014,-2374.896044
425.920685,-5921.647536,-5255.462188,-3753.867940
425.921007,-3701.029710,-6069.688724,-3753.867940
425.921330,-1406.391290,-6661.853478,-2681.334243
425.921652,-592.164754,-7772.162391,-1225.752797
425.921975,592.164754,-9474.636058,-306.438199
425.922297,1258.350101,-10732.986159,-459.657299
425.922620,1554.432478,-10955.047942,-1991.848295
425.922942,1332.370696,-9622.677246,-3370.820191
425.923265,888.247130,-9474.636058,-3447.429741
425.923588,1480.411884,-9844.739029,-3140.991542
425.923910,1850.514855,-10584.944971,-1608.800546
425.924233,888.247130,-10732.986159,612.876398
425.924555,-296.082377,-9474.636058,1225.752797
425.924878,-1184.329507,-8438.347739,-536.266849
425.925200,-2294.638420,-7328.038826,-2221.676944
425.925523,-2442.679609,-7179.997637,-1838.629195
425.925845,-2294.638420,-7698.141797,-536.266849
425.926168,-1184.329507,-7772.162391,-842.705048
425.926490,1332.370696,-8586.388927,-383.047749
425.926813,2812.782580,-9252.574275,-383.047749
425.927136,3552.988522,-10436.903782,-766.095498
425.927458,2886.803174,-12065.356855,-995.924147
425.927781,1184.329507,-11843.295072,-766.095498
425.928103,-666.185348,-11325.150913,-842.705048
425.928426,-2738.761985,-11843.295072,-2221.676944
425.928748,-5403.503377,-10807.006753,-2221.676944
425.929071,-7031.956449,-8512.368333,-2987.772442
425.929393,-7624.121203,-6957.935855,-3983.696590
425.929716,-5403.503377,-6217.729913,-4443.353888
425.930038,-3552.988522,-6809.894666,-3753.867940
425.930361,-2072.576638,-8734.430116,-2451.505594
425.930684,-888.247130,-9992.780217,-536.266849
425.931006,0.000000,-11325.150913,-612.876398
425.931329,592.164754,-10955.047942,-1915.238745
425.931651,1702.473667,-9252.574275,-2987.772442
425.931974,1480.411884,-8586.388927,-3447.429741
425.932296,2072.576638,-8882.471304,-2987.772442
425.932619,2812.782580,-9696.697840,-2068.457845
425.932941,2072.576638,-10362.883188,-1072.533697
425.933264,444.123565,-10436.903782,-306.438199
425.933586,-1332.370696,-9474.636058,-766.095498
425.933909,-2664.741391,-8660.409521,-2757.943793
425.934232,-1924.535449,-9104.533087,-3140.991542
425.934554,-1036.288319,-8586.388927,-1991.848295
425.934877,814.226536,-8142.265362,-842.705048
425.935199,2220.617826,-8364.327145,229.828649
425.935522,4367.215058,-9548.656652,612.876398
425.935844,5107.421000,-10140.821405,-383.047749
425.936167,4515.256246,-10214.842000,-689.485948
425.936489,2664.741391,-10362.883188,-459.657299
425.936812,296.082377,-10658.965565,-1378.971896
425.937135,-2294.638420,-11251.130318,-1302.362347
425.937457,-4589.276840,-10436.903782,-1225.752797
425.937780,-6217.729913,-8882.471304,-2068.457845
425.938102,-5181.441594,-7254.018232,-3217.601092
425.938425,-3997.112087,-6291.750507,-3830.477490
425.938747,-1480.411884,-6217.729913,-2757.943793
425.939070,-814.226536,-7624.121203,-2068.457845
425.939392,148.041188,-9696.697840,-1225.752797
425.939715,1850.514855,-11177.109724,-1685.410096
425.940037,2368.659014,-11103.089130,-2145.067394
425.940360,1702.473667,-11029.068536,-2987.772442
425.940683,1702.473667,-10140.821405,-2221.676944
425.941005,1924.535449,-10807.006753,-1838.629195
425.941328,2886.803174,-11103.089130,-306.438199
425.941650,2368.659014,-10732.986159,536.266849
425.941973,666.185348,-9252.574275,383.047749
425.942295,-592.164754,-7994.224174,0.000000
425.942618,-1258.350101,-6809.894666,-1532.190996
425.942940,-740.205942,-6883.915261,-2451.505594
425.943263,370.102971,-7476.080014,-1685.410096
425.943585,1850.514855,-7772.162391,-153.219100
425.943908,2664.741391,-8734.430116,1072.533697
425.944231,3108.864956,-10288.862594,1225.752797
425.944553,2368.659014,-11399.171507,153.219100
425.944876,592.164754,-11547.212695,-1302.362347
425.945198,-740.205942,-11325.150913,-3217.601092
425.945521,-2146.597232,-10658.965565,-3370.820191
425.945843,-3849.070898,-10288.862594,-2681.334243
425.946166,-5995.668130,-9326.594869,-1072.533697
425.946488,-7105.977043,-8216.285956,-383.047749
425.946811,-7476.080014,-7550.100608,-2221.676944
425.947133,-5625.565159,-6883.915261,-4366.744339
425.947456,-4219.173869,-6735.874072,-4749.792088
425.947779,-2294.638420,-8068.244768,-3064.381992
425.948101,518.144159,-9104.533087,-1378.971896
425.948424,2886.803174,-9548.656652,-459.657299
425.948746,3256.906145,-9104.533087,-1608.800546
425.949069,3108.864956,-10362.883188,-1762.019645
425.949391,2072.576638,-11547.212695,-2068.457845
425.949714,1110.308913,-11621.233289,-2911.162892
425.950036,740.205942,-11621.233289,-2221.676944
425.950359,0.000000,-10881.027347,0.000000
425.950681,-1110.308913,-9178.553681,689.485948
425.951004,-2368.659014,-7031.956449,-536.266849
425.951327,-2072.576638,-6513.812290,-2068.457845
425.951649,-1406.391290,-6735.874072,-2374.896044
425.951972,-1184.329507,-7698.141797,-1685.410096
425.952294,0.000000,-9104.533087,-459.657299
425.952617,740.205942,-9696.697840,229.828649
425.952939,2072.576638,-10732.986159,229.828649
425.953262,2368.659014,-11029.068536,-842.705048
425.953584,1258.350101,-11103.089130,-2221.676944
425.953907,-592.164754,-9918.759623,-3140.991542
425.954229,-2294.638420,-10436.903782,-3753.867940
425.954552,-4071.132681,-11399.171507,-3447.429741
425.954875,-5921.647536,-11473.192101,-2604.724693
425.955197,-5847.626942,-9992.780217,-2374.896044
425.955520,-5477.523971,-7476.080014,-3447.429741
425.955842,-3552.988522,-6291.750507,-3907.087040
425.956165,-1628.453072,-6217.729913,-3600.648841
425.956487,74.020594,-7179.997637,-2145.067394
425.956810,1406.391290,-8660.409521,-459.657299
425.957132,2442.679609,-10584.944971,-536.266849
425.957455,3478.967927,-10436.903782,-2145.067394
425.957777,4145.153275,-10584.944971,-2911.162892
425.958100,5181.441594,-11473.192101,-1378.971896
425.958423,5403.503377,-10955.047942,-229.828649
425.958745,5033.400406,-10140.821405,383.047749
425.959068,4145.153275,-9030.512492,842.705048
425.959390,2294.638420,-7550.100608,-229.828649
425.959713,814.226536,-7476.080014,-1532.190996
425.960035,-296.082377,-7772.162391,-2451.505594
425.960358,-1110.308913,-8364.327145,-1762.019645
425.960680,-1258.350101,-9178.553681,-612.876398
425.961003,0.000000,-9474.636058,0.000000
425.961325,666.185348,-9992.780217,-153.219100
425.961648,814.226536,-10066.800811,-689.485948
425.961971,-296.082377,-9474.636058,-995.924147
425.962293,-1850.514855,-9030.512492,-1608.800546
425.962616,-2738.761985,-9326.594869,-1608.800546
425.962938,-3701.029710,-10658.965565,-2604.724693
425.963261,-5477.523971,-11621.233289,-2221.676944
425.963583,-6809.894666,-10955.047942,-1149.143247
425.963906,-6513.812290,-9178.553681,-919.314598
425.964228,-5181.441594,-6883.915261,-2374.896044
425.964551,-2664.741391,-6439.791695,-3140.991542
425.964874,0.000000,-6143.709319,-2681.334243
425.965196,1702.473667,-7031.956449,-1378.971896
425.965519,3108.864956,-8438.347739,-229.828649
425.965841,4293.194464,-10214.842000,-306.438199
425.966164,4441.235652,-10732.986159,-1455.581446
425.966486,3330.926739,-11547.212695,-1762.019645
425.966809,2738.761985,-11473.192101,-1532.190996
425.967131,2072.576638,-11621.233289,-1149.143247
425.967454,1850.514855,-11325.150913,-842.705048
425.967776,148.041188,-9696.697840,-306.438199
425.968099,-1480.411884,-7254.018232,0.000000
425.968422,-2664.741391,-7031.956449,-1532.190996
425.968744,-4071.132681,-6883.915261,-3140.991542
425.969067,-4367.215058,-7698.141797,-3447.429741
425.969389,-3849.070898,-9178.553681,-3064.381992
425.969712,-2516.700203,-9474.636058,-2068.457845
425.970034,-1258.350101,-10881.027347,-1149.143247
425.970357,-370.102971,-11103.089130,-842.705048
425.970679,-666.185348,-11029.068536,-1378.971896
425.971002,-1776.494261,-10362.883188,-2451.505594
425.971324,-2368.659014,-9474.636058,-3294.210641
425.971647,-3478.967927,-9474.636058,-2987.772442
425.971970,-4219.173869,-9770.718434,-2834.553343
425.972292,-4515.256246,-9400.615463,-2298.286494
425.972615,-3849.070898,-8364.327145,-1302.362347
425.972937,-2294.638420,-7772.162391,-1608.800546
425.973260,-222.061783,-7105.977043,-2451.505594
425.973582,888.247130,-7476.080014,-2221.676944
425.973905,1702.473667,-7772.162391,-1378.971896
425.974227,2738.761985,-9030.512492,-383.047749
425.974550,3849.070898,-10140.821405,-689.485948
425.974872,4811.338623,-10881.027347,-1149.143247
425.975195,5107.421000,-10807.006753,-2068.457845
425.975518,4885.359217,-10955.047942,-1302.362347
425.975840,4441.235652,-11547.212695,-919.314598
425.976163,3256.906145,-11843.295072,-766.095498
425.976485,1110.308913,-10881.027347,-383.047749
425.976808,-888.247130,-9474.636058,-612.876398
425.977130,-2368.659014,-8290.306550,-1608.800546
425.977453,-2738.761985,-6809.894666,-2757.943793
425.977775,-2664.741391,-6883.915261,-2681.334243
425.978098,-1554.432478,-7624.121203,-919.314598
425.978420,-444.123565,-8216.285956,-153.219100
425.978743,666.185348,-9474.636058,0.000000
425.979066,592.164754,-10584.944971,229.828649
425.979388,-592.164754,-10288.862594,0.000000
425.979711,-1924.535449,-9400.615463,-1378.971896
425.980033,-2220.617826,-9030.512492,-3217.601092
425.980356,-2442.679609,-10288.862594,-3447.429741
425.980678,-2442.679609,-10732.986159,-2221.676944
425.981001,-3478.967927,-9844.739029,-383.047749
425.981323,-3849.070898,-8364.327145,536.266849
425.981646,-2294.638420,-8290.306550,-1302.362347
425.981968,-740.205942,-8068.244768,-3447.429741
425.982291,148.041188,-7402.059420,-3677.258390
425.982614,1036.288319,-8068.244768,-1762.019645
425.982936,1332.370696,-9178.553681,0.000000
425.983259,2146.597232,-9696.697840,383.047749
425.983581,2516.700203,-9474.636058,-229.828649
425.983904,2516.700203,-9844.739029,-2298.286494
425.984226,2590.720797,-10436.903782,-2145.067394
425.984549,2368.659014,-11103.089130,-1762.019645
425.984871,1406.391290,-11325.150913,-689.485948
425.985194,-518.144159,-9844.739029,1225.752797
425.985516,-1776.494261,-8956.491898,229.828649
425.985839,-3478.967927,-7105.977043,-1532.190996
425.986162,-3849.070898,-6661.853478,-4213.525239
425.986484,-3923.091493,-7402.059420,-5056.230287
425.986807,-2442.679609,-9474.636058,-2451.505594
425.987129,74.020594,-11621.233289,0.000000
425.987452,1776.494261,-11843.295072,153.219100
425.987774,2442.679609,-11473.192101,-153.219100
425.988097,1406.391290,-9770.718434,-229.828649
425.988419,-296.082377,-7994.224174,-1762.019645
425.988742,-1924.535449,-7698.141797,-2757.943793
425.989065,-2590.720797,-9474.636058,-3907.087040
425.989387,-3256.906145,-10658.965565,-3064.381992
425.989710,-4737.318029,-10140.821405,-766.095498
425.990032,-5181.441594,-8290.306550,0.000000
425.990355,-3849.070898,-7624.121203,-1608.800546
425.990677,-2072.576638,-6439.791695,-3830.477490
425.991000,-444.123565,-6513.812290,-4519.963438
425.991322,74.020594,-7624.121203,-2681.334243
425.991645,444.123565,-9474.636058,-689.485948
425.991967,1480.411884,-10288.862594,-536.266849
425.992290,2664.741391,-10140.821405,-2681.334243
425.992613,2886.803174,-11399.171507,-3524.039291
425.992935,2516.700203,-11917.315666,-2911.162892
425.993258,1924.535449,-11695.253884,-1915.238745
425.993580,1184.329507,-11325.150913,-1072.533697
425.993903,148.041188,-10140.821405,-612.876398
425.994225,-888.247130,-8808.450710,-1838.629195
425.994548,-2664.741391,-6957.935855,-2068.457845
425.994870,-3330.926739,-7179.997637,-2528.115143
425.995193,-2516.700203,-8068.244768,-2451.505594
425.995515,-296.082377,-9474.636058,-1685.410096
425.995838,1850.514855,-10214.842000,-229.828649
425.996161,3849.070898,-10584.944971,919.314598
425.996483,4219.173869,-10732.986159,1225.752797
425.996806,2960.823768,-9622.677246,383.047749
425.997128,740.205942,-7550.100608,-1072.533697
425.997451,-1332.370696,-7846.182985,-2834.553343
425.997773,-2442.679609,-10436.903782,-3447.429741
425.998096,-3923.091493,-11843.295072,-2681.334243
425.998418,-6291.750507,-10658.965565,-1225.752797
425.998741,-5995.668130,-9770.718434,306.438199
425.999063,-4885.359217,-8364.327145,0.000000
425.999386,-2368.659014,-6809.894666,-3140.991542
425.999709,-1332.370696,-5107.421000,-4519.963438
426.000031,-1036.288319,-6217.729913,-2987.772442
426.000354,0.000000,-9104.533087,-689.485948
426.000676,592.164754,-10436.903782,-459.657299
426.000999,370.102971,-10807.006753,-1225.752797
426.001321,962.267725,-11325.150913,-2374.896044
426.001644,1702.473667,-11621.233289,-2221.676944
426.001966,2368.659014,-11843.295072,-1685.410096
426.002289,2146.597232,-11177.109724,-306.438199
426.002611,1184.329507,-9992.780217,689.485948
426.002934,0.000000,-8734.430116,612.876398
426.003257,-1406.391290,-7031.956449,-153.219100
426.003579,-2368.659014,-6217.729913,-2451.505594
426.003902,-1628.453072,-7846.182985,-3294.210641
426.004224,-148.041188,-9474.636058,-1455.581446
426.004547,1554.432478,-9918.759623,1608.800546
426.004869,2590.720797,-10214.842000,1685.410096
426.005192,3034.844362,-10140.821405,1455.581446
426.005514,2738.761985,-9178.553681,0.000000
426.005837,962.267725,-7772.162391,-2221.676944
426.006159,-1110.308913,-7920.203579,-4213.525239
426.006482,-2368.659014,-9918.759623,-3753.867940
426.006805,-4219.173869,-11029.068536,-2451.505594
426.007127,-5699.585753,-11769.274478,-1072.533697
426.007450,-5699.585753,-10658.965565,-383.047749
426.007772,-4885.359217,-8438.347739,-2374.896044
426.008095,-2960.823768,-6217.729913,-4903.011187
426.008417,-1406.391290,-6069.688724,-5056.230287
426.008740,148.041188,-8068.244768,-3217.601092
426.009062,1258.350101,-8956.491898,-1225.752797
426.009385,1554.432478,-8438.347739,0.000000
426.009707,2072.576638,-9326.594869,-1838.629195
426.010030,2442.679609,-11843.295072,-3370.820191
426.010353,3256.906145,-13027.624579,-2757.943793
426.010675,2664.741391,-12361.439231,-1991.848295
426.010998,2590.720797,-11695.253884,-306.438199
426.011320,2442.679609,-9992.780217,1225.752797
426.011643,2220.617826,-7846.182985,-459.657299
426.011965,296.082377,-6439.791695,-2374.896044
426.012288,-1332.370696,-6883.915261,-2757.943793
426.012610,-2146.597232,-8734.430116,-2374.896044
426.012933,-1332.370696,-10140.821405,-1685.410096
426.013256,148.041188,-9622.677246,-919.314598
426.013578,2146.597232,-10881.027347,-306.438199
426.013901,2886.803174,-11399.171507,0.000000
426.014223,1850.514855,-10362.883188,383.047749
426.014546,-740.205942,-8290.306550,-766.095498
426.014868,-2886.803174,-7846.182985,-2834.553343
426.015191,-4515.256246,-9474.636058,-4366.744339
426.015513,-5921.647536,-10288.862594,-3753.867940
426.015836,-7328.038826,-9770.718434,-1915.238745
426.016158,-7624.121203,-8586.388927,-1915.238745
426.016481,-5625.565159,-8808.450710,-2298.286494
426.016804,-3108.864956,-7476.080014,-2987.772442
426.017126,-1776.494261,-7179.997637,-3600.648841
426.017449,-1036.288319,-7476.080014,-3140.991542
426.017771,814.226536,-9030.512492,-2374.896044
426.018094,2886.803174,-10214.842000,-1685.410096
426.018416,3552.988522,-9992.780217,-1302.362347
426.018739,3330.926739,-10955.047942,-919.314598
426.019061,3256.906145,-12065.356855,153.219100
426.019384,3034.844362,-11917.315666,-306.438199
426.019706,2368.659014,-10955.047942,76.609550
426.020028,962.267725,-9844.739029,383.047749
426.020351,-444.123565,-7254.018232,76.609550
426.020673,-666.185348,-6143.709319,0.000000
426.020996,-1184.329507,-5625.565159,-766.095498
426.021318,-1776.494261,-6439.791695,-689.485948
426.021640,-1258.350101,-7920.203579,-306.438199
426.021963,740.205942,-9696.697840,-766.095498
426.022285,1850.514855,-11843.295072,-1149.143247
426.022607,1850.514855,-12805.562797,-229.828649
426.022930,740.205942,-11843.295072,229.828649
426.023252,-592.164754,-10066.800811,-2221.676944
426.023575,-1480.411884,-9918.759623,-3677.258390
426.023897,-3108.864956,-10510.924376,-4596.572988
426.024219,-5255.462188,-10807.006753,-2834.553343
426.024542,-7031.956449,-10140.821405,-1991.848295
426.024864,-6957.935855,-8512.368333,-1838.629195
426.025186,-4663.297435,-7846.182985,-2451.505594
426.025509,-1702.473667,-6143.709319,-2987.772442
426.025831,296.082377,-6365.771101,-2834.553343
426.026154,1332.370696,-6587.832884,-1455.581446
426.026476,3034.844362,-7550.100608,-306.438199
426.026798,3997.112087,-9326.594869,-612.876398
426.027121,3997.112087,-10436.903782,-1378.971896
426.027443,3404.947333,-10955.047942,-1455.581446
426.027765,2590.720797,-11177.109724,-2068.457845
426.028088,2886.803174,-11843.295072,-2298.286494
426.028410,2960.823768,-11991.336260,-1608.800546
426.028733,1702.473667,-11103.089130,0.000000
426.029055,0.000000,-8956.491898,0.000000
426.029377,-1776.494261,-7254.018232,-1608.800546
426.029700,-2590.720797,-7179.997637,-3217.601092
426.030022,-2146.597232,-8438.347739,-3370.820191
426.030344,-1258.350101,-9696.697840,-2068.457845
426.030667,666.185348,-10066.800811,383.047749
426.030989,2442.679609,-10288.862594,1072.533697
426.031311,3552.988522,-10362.883188,306.438199
426.031634,3034.844362,-10732.986159,0.000000
426.031956,1480.411884,-10214.842000,-612.876398
426.032279,-370.102971,-8882.471304,-1532.190996
426.032601,-2516.700203,-9252.574275,-2528.115143
426.032923,-4145.153275,-9474.636058,-2451.505594
426.033246,-5773.606348,-8660.409521,-1915.238745
426.033568,-7179.997637,-7254.018232,-2145.067394
426.033890,-5477.523971,-8068.244768,-3064.381992
426.034213,-3478.967927,-7328.038826,-4366.744339
426.034535,-2368.659014,-7624.121203,-4290.134789
426.034858,-962.267725,-8882.471304,-2987.772442
426.035180,888.247130,-10436.903782,-1378.971896
426.035502,2664.741391,-10584.944971,-1302.362347
426.035825,3775.050304,-11029.068536,-2451.505594
426.036147,3330.926739,-11473.192101,-2145.067394
426.036469,2812.782580,-11399.171507,-1455.581446
426.036792,2072.576638,-11251.130318,-1302.362347
426.037114,888.247130,-10955.047942,-536.266849
426.037437,-1258.350101,-9326.594869,459.657299
426.037759,-2812.782580,-8068.244768,0.000000
426.038081,-3701.029710,-7179.997637,-1378.971896
426.038404,-3108.864956,-6883.915261,-2298.286494
426.038726,-2368.659014,-7179.997637,-1991.848295
426.039048,-1258.350101,-7698.141797,-459.657299
426.039371,0.000000,-9178.553681,76.609550
426.039693,2590.720797,-10955.047942,-306.438199
426.040016,3997.112087,-12065.356855,-842.705048
426.040338,3404.947333,-11621.233289,-689.485948
426.040660,1110.308913,-10066.800811,-536.266849
426.040983,-1332.370696,-9400.615463,-1455.581446
426.041305,-2960.823768,-9992.780217,-3294.210641
426.041627,-4663.297435,-10584.944971,-3600.648841
426.041950,-6587.832884,-9622.677246,-2528.115143
426.042272,-8068.244768,-6883.915261,-1685.410096
426.042595,-6365.771101,-7031.956449,-2221.676944
426.042917,-3627.009116,-6143.709319,-3217.601092
426.043239,-1628.453072,-7476.080014,-3447.429741
426.043562,-740.205942,-7550.100608,-2374.896044
426.043884,888.247130,-9030.512492,-1225.752797
426.044206,2664.741391,-10658.965565,-1378.971896
426.044529,4219.173869,-9918.759623,-2451.505594
426.044851,4071.132681,-10955.047942,-2145.067394
426.045174,4071.132681,-11177.109724,-995.924147
426.045496,3997.112087,-11547.212695,-612.876398
426.045818,3552.988522,-10658.965565,-689.485948
426.046141,2516.700203,-9548.656652,0.000000
426.046463,1110.308913,-8586.388927,153.219100
426.046785,-148.041188,-6957.935855,-306.438199
426.047108,-1036.288319,-6439.791695,-1225.752797
426.047430,-814.226536,-7179.997637,-1915.238745
426.047753,74.020594,-8216.285956,-1378.971896
426.048075,2368.659014,-9474.636058,-919.314598
426.048397,3404.947333,-10658.965565,76.609550
426.048720,4071.132681,-11695.253884,459.657299
426.049042,3627.009116,-11695.253884,-459.657299
426.049364,1776.494261,-10066.800811,-1378.971896
426.049687,-592.164754,-10140.821405,-2834.553343
426.050009,-2220.617826,-10732.986159,-3447.429741
426.050331,-4293.194464,-10881.027347,-3064.381992
426.050654,-6365.771101,-9918.759623,-2068.457845
426.050976,-7402.059420,-7920.203579,-1838.629195
426.051299,-5477.523971,-7476.080014,-2834.553343
426.051621,-2738.761985,-6291.750507,-4060.306139
426.051943,-740.205942,-6809.894666,-3983.696590
426.052266,666.185348,-7846.182985,-1991.848295
426.052588,1702.473667,-8808.450710,-153.219100
426.052910,2590.720797,-9622.677246,-459.657299
426.053233,2442.679609,-10066.800811,-1685.410096
426.053555,2368.659014,-11325.150913,-2451.505594
426.053878,1406.391290,-11547.212695,-1838.629195
426.054200,666.185348,-10807.006753,-1532.190996
426.054522,0.000000,-10807.006753,-919.314598
426.054845,-888.247130,-10140.821405,919.314598
426.055167,-1702.473667,-8956.491898,842.705048
426.055489,-3849.070898,-6143.709319,-1302.362347
426.055812,-4663.297435,-6217.729913,-2834.553343
426.056134,-4145.153275,-8290.306550,-2987.772442
426.056457,-2516.700203,-10066.800811,-1608.800546
426.056779,-1184.329507,-10584.944971,0.000000
426.057101,222.061783,-10584.944971,153.219100
426.057424,1332.370696,-10807.006753,0.000000
426.057746,1332.370696,-10436.903782,-766.095498
426.058068,296.082377,-10066.800811,-1838.629195
426.058391,-1776.494261,-9770.718434,-1991.848295
426.058713,-3330.926739,-10214.842000,-1991.848295
426.059036,-5033.400406,-10066.800811,-1838.629195
426.059358,-6365.771101,-9178.553681,-1915.238745
426.059680,-6587.832884,-7846.182985,-2221.676944
426.060003,-4589.276840,-7105.977043,-2987.772442
426.060325,-2146.597232,-6587.832884,-3217.601092
426.060647,-296.082377,-6883.915261,-2528.115143
426.060970,1110.308913,-7698.141797,-1685.410096
426.061292,2664.741391,-8882.471304,-995.924147
426.061615,3923.091493,-9992.780217,-1225.752797
426.061937,4145.153275,-10584.944971,-2451.505594
426.062259,3627.009116,-11473.192101,-2757.943793
426.062582,3404.947333,-11473.192101,-2298.286494
426.062904,3108.864956,-11547.212695,-1378.971896
426.063226,2294.638420,-11547.212695,-459.657299
426.063549,1110.308913,-11029.068536,-383.047749
426.063871,-740.205942,-8734.430116,-842.705048
426.064194,-1036.288319,-7328.038826,-2221.676944
426.064516,-1036.288319,-6809.894666,-2911.162892
426.064838,0.000000,-7476.080014,-2374.896044
426.065161,2146.597232,-8882.471304,-995.924147
426.065483,3627.009116,-9844.739029,0.000000
426.065805,4959.379811,-11103.089130,766.095498
426.066128,5329.482782,-11399.171507,306.438199
426.066450,4367.215058,-11399.171507,-229.828649
426.066772,2368.659014,-9844.739029,-536.266849
426.067095,296.082377,-9326.594869,-1455.581446
426.067417,-1332.370696,-9326.594869,-2068.457845
426.067740,-3775.050304,-8956.491898,-2068.457845
426.068062,-5625.565159,-8068.244768,-1608.800546
426.068384,-6735.874072,-6513.812290,-1991.848295
426.068707,-4811.338623,-7402.059420,-3294.210641
426.069029,-3478.967927,-7624.121203,-3830.477490
426.069351,-2516.700203,-8216.285956,-3294.210641
426.069674,-1850.514855,-8882.471304,-2451.505594
426.069996,-370.102971,-9622.677246,-1378.971896
426.070319,888.247130,-9548.656652,-1685.410096
426.070641,1480.411884,-10214.842000,-3140.991542
426.070963,1036.288319,-10510.924376,-3217.601092
426.071286,814.226536,-11325.150913,-2451.505594
426.071608,592.164754,-11991.336260,-995.924147
426.071930,148.041188,-12213.398043,-459.657299
426.072253,-1110.308913,-10510.924376,76.609550
426.072575,-1850.514855,-8290.306550,-229.828649
426.072898,-2294.638420,-6661.853478,-1378.971896
426.073220,-2664.741391,-6365.771101,-1838.629195
426.073542,-2368.659014,-6883.915261,-919.314598
426.073865,-814.226536,-7846.182985,-229.828649
426.074187,370.102971,-9252.574275,153.219100
426.074509,1924.535449,-11177.109724,229.828649
426.074832,2516.700203,-11917.315666,229.828649
426.075154,1776.494261,-11473.192101,306.438199
426.075477,740.205942,-10807.006753,-1149.143247
426.075799,-518.144159,-9918.759623,-2757.943793
426.076121,-2812.782580,-9622.677246,-3217.601092
426.076444,-4885.359217,-9548.656652,-2757.943793
426.076766,-6513.812290,-9104.533087,-2221.676944
426.077088,-6809.894666,-8364.327145,-2145.067394
426.077411,-5033.400406,-7624.121203,-3524.039291
426.077733,-2886.803174,-7624.121203,-3217.601092
426.078056,-1554.432478,-7476.080014,-2604.724693
426.078378,-148.041188,-7698.141797,-1378.971896
426.078700,1554.432478,-8364.327145,-1532.190996
426.079023,3182.885551,-8734.430116,-2298.286494
426.079345,3478.967927,-9548.656652,-2298.286494
426.079667,2812.782580,-10066.800811,-1685.410096
426.079990,2368.659014,-10881.027347,-919.314598
426.080312,2072.576638,-11843.295072,-919.314598
426.080635,1184.329507,-11695.253884,-689.485948
426.080957,296.082377,-9992.780217,153.219100
426.081279,-740.205942,-7846.182985,-612.876398
426.081602,-814.226536,-7105.977043,-1915.238745
426.081924,-1110.308913,-7105.977043,-2221.676944
426.082246,-444.123565,-8142.265362,-1915.238745
426.082569,592.164754,-9622.677246,-1225.752797
426.082891,1850.514855,-10658.965565,-1072.533697
426.083213,3034.844362,-11843.295072,-153.219100
426.083536,3849.070898,-11917.315666,0.000000
426.083858,3108.864956,-11621.233289,-459.657299
426.084181,1406.391290,-10066.800811,-689.485948
426.084503,74.020594,-9474.636058,-1991.848295
426.084825,-1998.556043,-8882.471304,-2374.896044
426.085148,-4589.276840,-8586.388927,-1991.848295
426.085470,-6735.874072,-7624.121203,-1762.019645
426.085792,-7254.018232,-6291.750507,-2221.676944
426.086115,-5181.441594,-7550.100608,-3447.429741
426.086437,-2664.741391,-7105.977043,-3140.991542
426.086760,-1480.411884,-7624.121203,-2681.334243
426.087082,74.020594,-8882.471304,-2221.676944
426.087404,2220.617826,-10066.800811,-1302.362347
426.087727,3775.050304,-11029.068536,-1532.190996
426.088049,3478.967927,-11103.089130,-2604.724693
426.088371,2812.782580,-11177.109724,-2451.505594
426.088694,1924.535449,-11029.068536,-2221.676944
426.089016,1184.329507,-11547.212695,-1532.190996
426.089339,518.144159,-11843.295072,-153.219100
426.089661,-592.164754,-10510.924376,-229.828649
426.089983,-1850.514855,-7920.203579,153.219100
426.090306,-2368.659014,-6143.709319,-1225.752797
426.090628,-2442.679609,-6735.874072,-1838.629195
426.090950,-1554.432478,-7328.038826,-1455.581446
426.091273,-666.185348,-8364.327145,-766.095498
426.091595,518.144159,-9548.656652,0.000000
426.091918,2294.638420,-10955.047942,536.266849
426.092240,3108.864956,-11621.233289,0.000000
426.092562,2590.720797,-11621.233289,-612.876398
426.092885,1628.453072,-11177.109724,-1685.410096
426.093207,-592.164754,-10584.944971,-2221.676944
426.093529,-2368.659014,-9696.697840,-2221.676944
426.093852,-4441.235652,-8956.491898,-2374.896044
426.094174,-5625.565159,-8438.347739,-2681.334243
426.094497,-5477.523971,-7846.182985,-2757.943793
426.094819,-4959.379811,-6735.874072,-3064.381992
426.095141,-3627.009116,-6735.874072,-2757.943793
426.095464,-2368.659014,-7402.059420,-2451.505594
426.095786,-444.123565,-8438.347739,-2068.457845
426.096108,888.247130,-9326.594869,-1532.190996
426.096431,2368.659014,-9844.739029,-2068.457845
426.096753,2516.700203,-10436.903782,-2757.943793
426.097076,2664.741391,-11103.089130,-2528.115143
426.097398,2368.659014,-11103.089130,-1991.848295
426.097720,2072.576638,-11621.233289,-1532.190996
426.098043,1406.391290,-11251.130318,-229.828649
426.098365,1110.308913,-11177.109724,-536.266849
426.098687,222.061783,-8956.491898,-459.657299
426.099010,222.061783,-7550.100608,-842.705048
426.099332,444.123565,-7105.977043,-1378.971896
426.099654,740.205942,-7402.059420,-1302.362347
426.099977,1406.391290,-8068.244768,-383.047749
426.100299,1554.432478,-9030.512492,0.000000
426.100622,1850.514855,-10436.903782,76.609550
426.100944,1850.514855,-11029.068536,-383.047749
426.101266,1110.308913,-11103.089130,-766.095498
426.101589,0.000000,-10584.944971,-1378.971896
426.101911,-1628.453072,-9844.739029,-1685.410096
426.102233,-2812.782580,-10066.800811,-2987.772442
426.102556,-4811.338623,-9622.677246,-2451.505594
426.102878,-6291.750507,-8068.244768,-2221.676944
426.103201,-7105.977043,-6809.894666,-3600.648841
426.103523,-6661.853478,-7179.997637,-4136.915689
426.103845,-4589.276840,-7994.224174,-4366.744339
426.104168,-2516.700203,-8882.471304,-3753.867940
426.104490,-444.123565,-9696.697840,-2451.505594
426.104812,1480.411884,-9696.697840,-842.705048
426.105135,3404.947333,-9992.780217,-306.438199
426.105457,3849.070898,-9844.739029,-1915.238745
426.105780,2886.803174,-9918.759623,-1532.190996
426.106102,1332.370696,-9770.718434,-1149.143247
426.106424,740.205942,-10214.842000,-1225.752797
426.106747,444.123565,-10732.986159,-842.705048
426.107069,148.041188,-10214.842000,-229.828649
426.107391,-888.247130,-7772.162391,383.047749
426.107714,-1110.308913,-7031.956449,-306.438199
426.108036,-740.205942,-6883.915261,-1455.581446
426.108359,-370.102971,-7698.141797,-1915.238745
426.108681,0.000000,-7920.203579,-1149.143247
426.109003,148.041188,-9918.759623,-1378.971896
426.109326,1332.370696,-12213.398043,-612.876398
426.109648,2072.576638,-12213.398043,-459.657299
426.109970,1406.391290,-11547.212695,-1072.533697
426.110293,0.000000,-10658.965565,-2221.676944
426.110615,-1110.308913,-10807.006753,-2604.724693
426.110938,-2738.761985,-9770.718434,-2451.505594
426.111260,-5181.441594,-9030.512492,-2834.553343
426.111582,-6809.894666,-8438.347739,-2374.896044
426.111905,-7179.997637,-7179.997637,-1915.238745
426.112227,-5403.503377,-6587.832884,-3983.696590
426.112549,-3182.885551,-6661.853478,-3140.991542
426.112872,-1406.391290,-7476.080014,-2221.676944
426.113194,1110.308913,-8586.388927,-995.924147
426.113517,2960.823768,-9030.512492,-306.438199
426.113839,4367.215058,-10066.800811,-919.314598
426.114161,4145.153275,-10140.821405,-1302.362347
426.114484,3997.112087,-10807.006753,-2145.067394
426.114806,2886.803174,-10955.047942,-1762.019645
426.115128,1998.556043,-11621.233289,-995.924147
426.115451,814.226536,-10881.027347,-689.485948
426.115773,0.000000,-9622.677246,-919.314598
426.116095,0.000000,-8660.409521,-919.314598
426.116418,-518.144159,-7476.080014,-1225.752797
426.116740,-518.144159,-7476.080014,-1991.848295
426.117063,-222.061783,-7994.224174,-1302.362347
426.117385,296.082377,-9104.533087,-1149.143247
426.117707,962.267725,-10214.842000,-919.314598
426.118030,1184.329507,-10881.027347,-919.314598
426.118352,1628.453072,-10510.924376,-383.047749
426.118674,1702.473667,-9992.780217,-1225.752797
426.118997,1110.308913,-9474.636058,-2221.676944
426.119319,296.082377,-10140.821405,-2068.457845
426.119642,-1850.514855,-10214.842000,-1532.190996
426.119964,-4441.235652,-9548.656652,-1532.190996
426.120286,-6069.688724,-8216.285956,-1838.629195
426.120609,-6291.750507,-7254.018232,-2834.553343
426.120931,-4811.338623,-6735.874072,-4060.306139
426.121253,-3330.926739,-6735.874072,-3064.381992
426.121576,-1628.453072,-7254.018232,-2604.724693
426.121898,370.102971,-8808.450710,-1991.848295
426.122221,2368.659014,-10066.800811,-1685.410096
426.122543,3627.009116,-10584.944971,-1762.019645
426.122865,3182.885551,-10955.047942,-1532.190996
426.123188,2368.659014,-11103.089130,-2145.067394
426.123510,1628.453072,-10881.027347,-2221.676944
426.123832,814.226536,-10881.027347,-1991.848295
426.124155,0.000000,-10732.986159,-1302.362347
426.124477,-1258.350101,-9622.677246,0.000000
426.124800,-1406.391290,-8290.306550,0.000000
426.125122,-2220.617826,-7105.977043,-1378.971896
426.125444,-1998.556043,-7550.100608,-1685.410096
426.125767,-1480.411884,-8364.327145,-1762.019645
426.126089,-592.164754,-8438.347739,-995.924147
426.126411,518.144159,-9622.677246,-919.314598
426.126734,1702.473667,-10214.842000,-536.266849
426.127056,1998.556043,-10881.027347,-229.828649
426.127378,1184.329507,-10584.944971,-1072.533697
426.127701,222.061783,-10881.027347,-1302.362347
426.128023,-888.247130,-10955.047942,-2298.286494
426.128346,-2516.700203,-9992.780217,-2374.896044
426.128668,-4367.215058,-9252.574275,-2068.457845
426.128990,-5551.544565,-8586.388927,-1838.629195
426.129313,-5255.462188,-8290.306550,-1915.238745
426.129635,-5255.462188,-7476.080014,-2987.772442
426.129957,-3701.029710,-7254.018232,-2528.115143
426.130280,-2146.597232,-6735.874072,-2604.724693
426.130602,74.020594,-7476.080014,-2145.067394
426.130925,1998.556043,-8956.491898,-1685.410096
426.131247,3701.029710,-9992.780217,-1838.629195
426.131569,4219.173869,-10140.821405,-1762.019645
426.131892,3701.029710,-10658.965565,-1685.410096
426.132214,3256.906145,-11325.150913,-1149.143247
426.132536,1924.535449,-11399.171507,-1608.800546
426.132859,444.123565,-11029.068536,-1762.019645
426.133181,-1332.370696,-10140.821405,-766.095498
426.133504,-2516.700203,-8956.491898,-842.705048
426.133826,-2886.803174,-7846.182985,-1838.629195
426.134148,-2664.741391,-7328.038826,-2528.115143
426.134471,-1258.350101,-7920.203579,-2068.457845
426.134793,0.000000,-9252.574275,-1915.238745
426.135115,1332.370696,-10584.944971,-536.266849
426.135438,2294.638420,-11399.171507,459.657299
426.135760,2738.761985,-10732.986159,-383.047749
426.136082,2442.679609,-9992.780217,-1455.581446
426.136405,1184.329507,-9252.574275,-995.924147
426.136727,0.000000,-9030.512492,-1838.629195
426.137050,-2294.638420,-9178.553681,-2068.457845
426.137372,-4145.153275,-8956.491898,-1532.190996
426.137694,-5181.441594,-8660.409521,-1685.410096
426.138017,-5403.503377,-7846.182985,-2604.724693
426.138339,-3627.009116,-8142.265362,-3140.991542
426.138661,-2146.597232,-6883.915261,-2681.334243
426.138984,-222.061783,-7846.182985,-2451.505594
426.139306,1184.329507,-8364.327145,-2604.724693
426.139629,3034.844362,-9400.615463,-1915.238745
426.139951,4293.194464,-10362.883188,-1762.019645
426.140273,3997.112087,-10955.047942,-1915.238745
426.140596,3478.967927,-11325.150913,-1915.238745
426.140918,2812.782580,-11991.336260,-1685.410096
426.141240,2368.659014,-12065.356855,-1302.362347
426.141563,1480.411884,-11843.295072,0.000000
426.141885,222.061783,-9918.759623,306.438199
426.142208,0.000000,-7698.141797,0.000000
426.142530,-666.185348,-5921.647536,-1838.629195
426.142852,-518.144159,-6365.771101,-1838.629195
426.143175,-444.123565,-7105.977043,-612.876398
426.143497,0.000000,-7772.162391,229.828649
426.143819,592.164754,-9474.636058,383.047749
426.144142,1850.514855,-10732.986159,536.266849
426.144464,2294.638420,-10658.965565,0.000000
426.144786,1406.391290,-10510.924376,-306.438199
426.145109,148.041188,-9622.677246,-536.266849
426.145431,-1850.514855,-9474.636058,-1838.629195
426.145754,-3330.926739,-9252.574275,-2451.505594
426.146076,-4959.379811,-9474.636058,-2528.115143
426.146398,-5995.668130,-9326.594869,-2987.772442
426.146721,-6661.853478,-9030.512492,-3064.381992
426.147043,-6661.853478,-9178.553681,-2374.896044
426.147365,-4959.379811,-8660.409521,-1532.190996
426.147688,-3108.864956,-7920.203579,-2221.676944
426.148010,-1628.453072,-7254.018232,-2298.286494
426.148333,-370.102971,-7476.080014,-1762.019645
426.148655,1036.288319,-8142.265362,-1072.533697
426.148977,1702.473667,-9030.512492,-1991.848295
426.149300,2072.576638,-10807.006753,-2374.896044
426.149622,1628.453072,-12287.418637,-1378.971896
426.149944,962.267725,-12583.501014,-919.314598
426.150267,0.000000,-12583.501014,-229.828649
426.150589,-1406.391290,-10362.883188,-383.047749
426.150912,-1776.494261,-8068.244768,-1302.362347
426.151234,-1924.535449,-6587.832884,-2834.553343
426.151556,-1480.411884,-6143.709319,-2528.115143
426.151879,-296.082377,-6957.935855,-1302.362347
426.152201,740.205942,-8586.388927,-1302.362347
426.152523,1776.494261,-9918.759623,-229.828649
426.152846,2738.761985,-11399.171507,-153.219100
426.153168,2738.761985,-11917.315666,-459.657299
426.153490,1628.453072,-11251.130318,-459.657299
426.153813,0.000000,-9770.718434,-1072.533697
426.154135,-1628.453072,-9030.512492,-2681.334243
426.154458,-2664.741391,-9030.512492,-3294.210641
426.154780,-3923.091493,-8882.471304,-3294.210641
426.155102,-4737.318029,-9178.553681,-3294.210641
426.155425,-4589.276840,-9326.594869,-3064.381992
426.155747,-3923.091493,-8586.388927,-1915.238745
426.156069,-2368.659014,-7550.100608,-1915.238745
426.156392,-888.247130,-7328.038826,-3753.867940
426.156714,1184.329507,-8216.285956,-3140.991542
426.157037,3182.885551,-9178.553681,-2757.943793
426.157359,4589.276840,-9474.636058,-2681.334243
426.157681,4885.359217,-10362.883188,-2374.896044
426.158004,4811.338623,-11029.068536,-995.924147
426.158326,4589.276840,-11695.253884,-1149.143247
426.158648,3552.988522,-11917.315666,-1915.238745
426.158971,1924.535449,-11769.274478,-1302.362347
426.159293,-740.205942,-10140.821405,-153.219100
426.159616,-1776.494261,-7772.162391,-995.924147
426.159938,-1332.370696,-6661.853478,-1838.629195
426.160260,-888.247130,-6291.750507,-2298.286494
426.160583,444.123565,-7328.038826,-2374.896044
426.160905,1110.308913,-8660.409521,0.000000
426.161227,2294.638420,-9992.780217,229.828649
426.161550,2812.782580,-11399.171507,689.485948
426.161872,2368.659014,-11103.089130,459.657299
426.162194,1110.308913,-10362.883188,-536.266849
426.162517,-962.267725,-9622.677246,-1762.019645
426.162839,-2664.741391,-8734.430116,-2528.115143
426.163162,-3997.112087,-8660.409521,-2451.505594
426.163484,-5773.606348,-9326.594869,-2221.676944
426.163806,-6217.729913,-9326.594869,-1762.019645
426.164129,-6217.729913,-8808.450710,-1991.848295
426.164451,-5773.606348,-9548.656652,-2834.553343
426.164773,-4515.256246,-9252.574275,-2145.067394
426.165096,-3108.864956,-7846.182985,-2145.067394
426.165418,-1480.411884,-6883.915261,-2221.676944
426.165741,962.267725,-7254.018232,-2451.505594
426.166063,2294.638420,-9104.533087,-1608.800546
426.166385,2368.659014,-10140.821405,-1072.533697
426.166708,2072.576638,-11177.109724,0.000000
426.167030,1406.391290,-12731.542202,-689.485948
426.167352,1258.350101,-13027.624579,-536.266849
426.167675,1184.329507,-12065.356855,0.000000
426.167997,-666.185348,-9104.533087,536.266849
426.168320,-1850.514855,-6439.791695,153.219100
426.168642,-1332.370696,-5477.523971,-1149.143247
426.168964,-444.123565,-5181.441594,-1762.019645
426.169287,-370.102971,-7031.956449,-2068.457845
426.169609,518.144159,-9844.739029,-1455.581446
426.169931,1258.350101,-11769.274478,-306.438199
426.170254,2442.679609,-12731.542202,229.828649
426.170576,2442.679609,-12361.439231,0.000000
426.170898,1258.350101,-11029.068536,-459.657299
426.171221,-296.082377,-9474.636058,-1991.848295
426.171543,-2072.576638,-8512.368333,-3064.381992
426.171866,-3256.906145,-9030.512492,-3217.601092
426.172188,-4515.256246,-9252.574275,-3064.381992
426.172510,-5033.400406,-9104.533087,-2298.286494
426.172833,-5477.523971,-8364.327145,-2068.457845
426.173155,-4367.215058,-8290.306550,-2298.286494
426.173477,-2664.741391,-7179.997637,-3064.381992
426.173800,-666.185348,-7254.018232,-3677.258390
426.174122,1628.453072,-7772.162391,-2834.553343
426.174445,3923.091493,-8512.368333,-2451.505594
426.174767,4737.318029,-9770.718434,-2145.067394
426.175089,5033.400406,-10955.047942,-689.485948
426.175412,4885.359217,-11695.253884,-689.485948
426.175734,4441.235652,-12065.356855,-2068.457845
426.176056,3478.967927,-12509.480420,-1225.752797
426.176379,1036.288319,-11695.253884,-306.438199
426.176701,-1332.370696,-9474.636058,229.828649
426.177024,-1850.514855,-6587.832884,-536.266849
426.177346,-1776.494261,-5255.462188,-2298.286494
426.177668,-1036.288319,-5995.668130,-2757.943793
426.177991,0.000000,-7624.121203,-1838.629195
426.178313,444.123565,-9104.533087,-689.485948
426.178635,1258.350101,-10584.944971,0.000000
426.178958,1702.473667,-12139.377449,229.828649
426.179280,1036.288319,-11399.171507,-536.266849
426.179603,0.000000,-10510.924376,-1532.190996
426.179925,-1924.535449,-9474.636058,-2681.334243
426.180247,-3034.844362,-9474.636058,-3217.601092
426.180570,-3552.988522,-9696.697840,-2757.943793
426.180892,-4441.235652,-9326.594869,-2221.676944
426.181214,-4811.338623,-8808.450710,-1685.410096
426.181537,-4515.256246,-8882.471304,-2298.286494
426.181859,-3627.009116,-8512.368333,-1991.848295
426.182181,-2812.782580,-8142.265362,-1991.848295
426.182504,-2220.617826,-6883.915261,-1838.629195
426.182826,-962.267725,-6365.771101,-2068.457845
426.183149,962.267725,-7846.182985,-1532.190996
426.183471,1998.556043,-9178.553681,-1302.362347
426.183793,2072.576638,-9770.718434,-1608.800546
426.184116,1924.535449,-11103.089130,-1685.410096
426.184438,1924.535449,-12213.398043,-1149.143247
426.184760,1332.370696,-12805.562797,-995.924147
426.185083,0.000000,-11843.295072,-459.657299
426.185405,-2220.617826,-9770.718434,0.000000
426.185728,-3701.029710,-7254.018232,-1072.533697
426.186050,-3256.906145,-6513.812290,-2834.553343
426.186372,-2738.761985,-5921.647536,-2451.505594
426.186695,-2368.659014,-6513.812290,-1225.752797
426.187017,-296.082377,-9696.697840,-919.314598
426.187339,1554.432478,-11325.150913,153.219100
426.187662,3330.926739,-12287.418637,766.095498
426.187984,3627.009116,-11769.274478,383.047749
426.188307,2516.700203,-10584.944971,-536.266849
426.188629,962.267725,-8956.491898,-995.924147
426.188951,-518.144159,-8290.306550,-2068.457845
426.189274,-1850.514855,-8438.347739,-2681.334243
426.189596,-3182.885551,-9326.594869,-2068.457845
426.189918,-3627.009116,-9252.574275,-1608.800546
426.190241,-3256.906145,-8882.471304,-2374.896044
426.190563,-2368.659014,-9252.574275,-2221.676944
426.190885,-1036.288319,-8142.265362,-1991.848295
426.191208,-148.041188,-7402.059420,-2681.334243
426.191530,444.123565,-7476.080014,-2911.162892
426.191853,1628.453072,-8142.265362,-1915.238745
426.192175,2516.700203,-9178.553681,-2834.553343
426.192497,2146.597232,-10288.862594,-3907.087040
426.192820,1332.370696,-12509.480420,-1991.848295
426.193142,592.164754,-13323.706956,-842.705048
426.193464,888.247130,-12805.562797,-1378.971896
426.193787,148.041188,-11917.315666,-1685.410096
426.194109,-1258.350101,-9474.636058,-612.876398
426.194432,-2368.659014,-6809.894666,-1685.410096
426.194754,-2146.597232,-5847.626942,-2681.334243
426.195076,-1480.411884,-5255.462188,-2604.724693
426.195399,-222.061783,-7179.997637,-2298.286494
426.195721,1332.370696,-9696.697840,-1455.581446
426.196043,2590.720797,-11695.253884,306.438199
426.196366,3478.967927,-12657.521608,1149.143247
426.196688,3182.885551,-12213.398043,1225.752797
426.197011,1850.514855,-10807.006753,153.219100
426.197333,-370.102971,-8512.368333,-536.266849
426.197655,-2072.576638,-7772.162391,-2451.505594
426.197978,-2960.823768,-8068.244768,-2987.772442
426.198300,-3997.112087,-8364.327145,-1838.629195
426.198622,-3627.009116,-7920.203579,-995.924147
426.198945,-3849.070898,-7920.203579,-1685.410096
426.199267,-3034.844362,-9178.553681,-2068.457845
426.199589,-1702.473667,-10214.842000,-1991.848295
426.199912,-1332.370696,-9104.533087,-2451.505594
426.200234,-740.205942,-7846.182985,-2681.334243
426.200557,370.102971,-8290.306550,-2604.724693
426.200879,1184.329507,-9178.553681,-1991.848295
426.201201,666.185348,-9918.759623,-2451.505594
426.201524,148.041188,-11325.150913,-2374.896044
426.201846,0.000000,-12287.418637,-1991.848295
426.202168,0.000000,-12435.459826,-1991.848295
426.202491,-1628.453072,-11621.233289,-919.314598
426.202813,-2738.761985,-9474.636058,0.000000
426.203136,-2590.720797,-7179.997637,-1225.752797
426.203458,-2368.659014,-5033.400406,-3064.381992
426.203780,-1332.370696,-6069.688724,-3140.991542
426.204103,0.000000,-7846.182985,-1762.019645
426.204425,1554.432478,-9992.780217,306.438199
426.204747,3108.864956,-11547.212695,1225.752797
426.205070,4515.256246,-11991.336260,1302.362347
426.205392,4737.318029,-11843.295072,995.924147
426.205715,4219.173869,-10140.821405,0.000000
426.206037,2442.679609,-8068.244768,-2068.457845
426.206359,1036.288319,-7994.224174,-2834.553343
426.206682,-592.164754,-8438.347739,-2298.286494
426.207004,-2664.741391,-8512.368333,-1302.362347
426.207326,-4737.318029,-9178.553681,-1149.143247
426.207649,-5995.668130,-9178.553681,-766.095498
426.207971,-4959.379811,-9326.594869,-2987.772442
426.208293,-3034.844362,-8734.430116,-5056.230287
426.208616,-2146.597232,-8956.491898,-3983.696590
426.208938,-962.267725,-8734.430116,-1532.190996
426.209261,74.020594,-7254.018232,-766.095498
426.209583,1628.453072,-8142.265362,-3064.381992
426.209905,2442.679609,-10066.800811,-3983.696590
426.210228,1850.514855,-12361.439231,-3983.696590
426.210550,74.020594,-13619.789333,-3217.601092
426.210872,-962.267725,-13767.830521,-1225.752797
426.211195,-1480.411884,-12657.521608,0.000000
426.211517,-1184.329507,-9326.594869,-842.705048
426.211840,-1110.308913,-5921.647536,-1991.848295
426.212162,-1036.288319,-5329.482782,-2451.505594
426.212484,-814.226536,-5995.668130,-1532.190996
426.212807,0.000000,-7624.121203,-383.047749
426.213129,1036.288319,-9474.636058,306.438199
426.213451,2442.679609,-10658.965565,306.438199
426.213774,4071.132681,-11029.068536,383.047749
426.214096,4293.194464,-10510.924376,612.876398
426.214419,3478.967927,-10584.944971,0.000000
426.214741,1924.535449,-10140.821405,-229.828649
426.215063,0.000000,-9178.553681,-842.705048
426.215386,-2960.823768,-8512.368333,-1378.971896
426.215708,-5329.482782,-8734.430116,-2374.896044
426.216030,-6661.853478,-9252.574275,-3524.039291
426.216353,-5995.668130,-9178.553681,-2604.724693
426.216675,-5625.565159,-7994.224174,-3600.648841
426.216997,-3478.967927,-8438.347739,-4060.306139
426.217320,-1924.535449,-9992.780217,-2987.772442
426.217642,-1036.288319,-9770.718434,-1378.971896
426.217965,-814.226536,-8882.471304,-1915.238745
426.218287,296.082377,-9178.553681,-3447.429741
426.218609,444.123565,-9400.615463,-3064.381992
426.218932,592.164754,-9548.656652,-2528.115143
426.219254,-518.144159,-10362.883188,-1915.238745
426.219576,-518.144159,-11769.274478,-842.705048
426.219899,-296.082377,-12139.377449,-306.438199
426.220221,-370.102971,-9918.759623,-229.828649
426.220544,-962.267725,-7254.018232,-1302.362347
426.220866,-592.164754,-6365.771101,-1915.238745
426.221188,296.082377,-6735.874072,-766.095498
426.221511,1110.308913,-8364.327145,459.657299
426.221833,740.205942,-9252.574275,153.219100
426.222155,962.267725,-9104.533087,459.657299
426.222478,1480.411884,-9548.656652,76.609550
426.222800,2294.638420,-9918.759623,0.000000
426.223122,2368.659014,-10732.986159,153.219100
426.223445,666.185348,-10436.903782,-1302.362347
426.223767,-518.144159,-10732.986159,-1378.971896
426.224089,-2072.576638,-10362.883188,-995.924147
426.224412,-4663.297435,-9474.636058,-1991.848295
426.224734,-6957.935855,-8734.430116,-2451.505594
426.225057,-8216.285956,-7402.059420,-3524.039291
426.225379,-8586.388927,-7179.997637,-4443.353888
426.225701,-7031.956449,-7105.977043,-4749.792088
426.226024,-4219.173869,-7920.203579,-3907.087040
426.226346,-1998.556043,-8660.409521,-2221.676944
426.226668,-370.102971,-9326.594869,-1762.019645
426.226991,592.164754,-9474.636058,-1991.848295
426.227313,666.185348,-10510.924376,-2834.553343
426.227635,0.000000,-11177.109724,-2757.943793
426.227958,-962.267725,-10658.965565,-2528.115143
426.228280,-1554.432478,-9844.739029,-3064.381992
426.228603,-1480.411884,-10362.883188,-2221.676944
426.228925,-1184.329507,-11177.109724,-306.438199
426.229247,-1924.535449,-10584.944971,919.314598
426.229570,-3552.988522,-8216.285956,536.266849
426.229892,-3701.029710,-7328.038826,-995.924147
426.230214,-2812.782580,-6883.915261,-1532.190996
426.230537,-2812.782580,-7031.956449,-1302.362347
426.230859,-2072.576638,-7476.080014,-153.219100
426.231181,0.000000,-8364.327145,-766.095498
426.231504,2220.617826,-10362.883188,-1991.848295
426.231826,3849.070898,-12361.439231,-766.095498
426.232149,3404.947333,-12953.603985,0.000000
426.232471,888.247130,-11325.150913,-459.657299
426.232793,-2146.597232,-9474.636058,-2604.724693
426.233116,-5551.544565,-8438.347739,-4213.525239
426.233438,-8808.450710,-8512.368333,-4749.792088
426.233760,-10881.027347,-8956.491898,-5745.716235
426.234083,-13545.768739,-9474.636058,-4673.182538
426.234405,-13397.727550,-11399.171507,-3140.991542
426.234727,-11103.089130,-12139.377449,-2374.896044
426.235050,-7328.038826,-10955.047942,-1685.410096
426.235372,-4367.215058,-8586.388927,-1838.629195
426.235694,-1998.556043,-5847.626942,-306.438199
426.236017,814.226536,-3256.906145,-1225.752797
426.236339,2220.617826,-2220.617826,-2451.505594
426.236662,3108.864956,-3923.091493,-2528.115143
426.236984,3849.070898,-8290.306550,-2987.772442
426.237306,4515.256246,-13619.789333,-2298.286494
426.237629,4663.297435,-16654.633695,0.000000
426.237951,2812.782580,-15470.304188,1225.752797
426.238273,814.226536,-13323.706956,306.438199
426.238596,-1480.411884,-10807.006753,383.047749
426.238918,-4145.153275,-7402.059420,0.000000
426.239240,-6809.894666,-4811.338623,-2834.553343
426.239563,-8290.306550,-4145.153275,-3983.696590
426.239885,-7328.038826,-7846.182985,-2757.943793
426.240208,-5625.565159,-10732.986159,-459.657299
426.240530,-4145.153275,-11769.274478,1838.629195
426.240852,-2146.597232,-10807.006753,1915.238745
426.241175,-296.082377,-9844.739029,229.828649
426.241497,1480.411884,-8512.368333,-2221.676944
426.241819,1628.453072,-6291.750507,-3907.087040
426.242142,962.267725,-5255.462188,-3983.696590
426.242464,0.000000,-5551.544565,-3140.991542
426.242786,0.000000,-7179.997637,-3447.429741
426.243109,0.000000,-10066.800811,-4366.744339
426.243431,-814.226536,-14285.974681,-3983.696590
426.243753,-1924.535449,-16802.674883,-1991.848295
426.244076,-3330.926739,-16580.613101,-229.828649
426.244398,-3997.112087,-14211.954086,153.219100
426.244721,-4145.153275,-9548.656652,-383.047749
426.245043,-3627.009116,-5403.503377,-1072.533697
426.245365,-3404.947333,-2516.700203,-1072.533697
426.245688,-3256.906145,-1702.473667,153.219100
426.246010,-2664.741391,-3627.009116,306.438199
426.246332,-1258.350101,-6735.874072,0.000000
426.246655,222.061783,-9844.739029,-612.876398
426.246977,592.164754,-11769.274478,-536.266849
426.247299,222.061783,-12287.418637,-1149.143247
426.247622,-962.267725,-11473.192101,-1762.019645
426.247944,-1702.473667,-10732.986159,-2911.162892
426.248267,-2368.659014,-9548.656652,-3370.820191
426.248589,-2886.803174,-9474.636058,-3677.258390
426.248911,-3404.947333,-10288.862594,-3600.648841
426.249234,-3775.050304,-11843.295072,-2145.067394
426.249556,-4441.235652,-12139.377449,-1072.533697
426.249878,-4811.338623,-10436.903782,-766.095498
426.250201,-5329.482782,-7920.203579,-1225.752797
426.250523,-5625.565159,-5625.565159,-2145.067394
426.250845,-5995.668130,-3923.091493,-2298.286494
426.251168,-5995.668130,-4145.153275,-3064.381992
426.251490,-5477.523971,-5847.626942,-2911.162892
426.251813,-4441.235652,-8364.327145,-3064.381992
426.252135,-3552.988522,-10881.027347,-2757.943793
426.252457,-3108.864956,-13027.624579,-1991.848295
426.252780,-2368.659014,-14211.954086,-2068.457845
426.253102,-1998.556043,-13767.830521,-2374.896044
426.253424,-1628.453072,-12361.439231,-2987.772442
426.253747,-1850.514855,-10658.965565,-3140.991542
426.254069,-1776.494261,-9178.553681,-2757.943793
426.254391,-1332.370696,-8882.471304,-1915.238745
426.254714,-962.267725,-8734.430116,-1378.971896
426.255036,-666.185348,-9178.553681,-459.657299
426.255358,-666.185348,-9104.533087,76.609550
426.255681,-740.205942,-8660.409521,76.609550
426.256003,-370.102971,-7624.121203,-459.657299
426.256326,-1258.350101,-6365.771101,-459.657299
426.256648,-1776.494261,-6291.750507,-1455.581446
426.256970,-2072.576638,-6883.915261,-2068.457845
426.257293,-1850.514855,-8438.347739,-2374.896044
426.257615,-1628.453072,-10362.883188,-2145.067394
426.257937,-1480.411884,-11991.336260,-1762.019645
426.258260,-1258.350101,-13767.830521,-1225.752797
426.258582,-1258.350101,-13249.686362,-766.095498
426.258904,-1036.288319,-11695.253884,-1149.143247
426.259227,-962.267725,-9992.780217,-1532.190996
426.259549,-1110.308913,-8216.285956,-919.314598
426.259872,-1406.391290,-7254.018232,-536.266849
426.260194,-3256.906145,-6587.832884,-306.438199
426.260516,-4145.153275,-6957.935855,-612.876398
426.260839,-4737.318029,-7254.018232,-1302.362347
426.261161,-4737.318029,-7328.038826,-1915.238745
426.261483,-4589.276840,-7476.080014,-2528.115143
426.261806,-3997.112087,-8290.306550,-2911.162892
426.262128,-3478.967927,-9030.512492,-2068.457845
426.262450,-3701.029710,-8882.471304,-1608.800546
426.262773,-3997.112087,-9104.533087,-2298.286494
426.263095,-3627.009116,-10510.924376,-3600.648841
426.263417,-2442.679609,-11843.295072,-3677.258390
426.263740,-2220.617826,-12139.377449,-2528.115143
426.264062,-1628.453072,-11251.130318,-459.657299
426.264385,-370.102971,-10658.965565,0.000000
426.264707,370.102971,-9474.636058,-306.438199
426.265029,296.082377,-7846.182985,612.876398
426.265352,-1184.329507,-7402.059420,842.705048
426.265674,-2220.617826,-7624.121203,76.609550
426.265996,-2738.761985,-7624.121203,-383.047749
426.266319,-3108.864956,-7179.997637,-383.047749
426.266641,-2590.720797,-8438.347739,0.000000
426.266963,-1924.535449,-9104.533087,-383.047749
426.267286,-1554.432478,-9696.697840,-689.485948
426.267608,-1258.350101,-9400.615463,-1532.190996
426.267931,-1332.370696,-10140.821405,-2604.724693
426.268253,-888.247130,-12139.377449,-2987.772442
426.268575,-1036.288319,-12879.583391,-3064.381992
426.268898,-1998.556043,-12509.480420,-2757.943793
426.269220,-2368.659014,-12583.501014,-2451.505594
426.269542,-1924.535449,-13249.686362,-2068.457845
426.269865,-2072.576638,-11991.336260,-995.924147
426.270187,-2664.741391,-10436.903782,766.095498
426.270509,-2516.700203,-8734.430116,76.609550
426.270832,-1702.473667,-7846.182985,0.000000
426.271154,-518.144159,-6957.935855,766.095498
426.271477,814.226536,-6587.832884,995.924147
426.271799,2220.617826,-7031.956449,689.485948
426.272121,2812.782580,-7624.121203,1915.238745
426.272444,3108.864956,-8364.327145,1532.190996
426.272766,3034.844362,-10066.800811,995.924147
426.273088,2590.720797,-11177.109724,995.924147
426.273411,1776.494261,-11029.068536,383.047749
426.273733,1702.473667,-10436.903782,919.314598
426.274055,1480.411884,-10214.842000,919.314598
426.274378,1036.288319,-10140.821405,1532.190996
426.274700,0.000000,-9548.656652,2221.676944
426.275022,-666.185348,-8290.306550,2374.896044
426.275345,-1480.411884,-7846.182985,1838.629195
426.275667,-1702.473667,-8216.285956,1378.971896
426.275990,-1998.556043,-8142.265362,1915.238745
426.276312,-2590.720797,-7624.121203,2374.896044
426.276634,-1998.556043,-8216.285956,3140.991542
426.276957,-1258.350101,-8216.285956,2451.505594
426.277279,-1850.514855,-8438.347739,2298.286494
426.277601,-1554.432478,-9696.697840,2221.676944
426.277924,-1258.350101,-9844.739029,2451.505594
426.278246,-740.205942,-9918.759623,2145.067394
426.278568,-1480.411884,-10214.842000,2987.772442
426.278891,-1776.494261,-10584.944971,3064.381992
426.279213,-2146.597232,-11103.089130,2604.724693
426.279536,-2590.720797,-11251.130318,2221.676944
426.279858,-2738.761985,-11399.171507,2068.457845
426.280180,-2664.741391,-10510.924376,2374.896044
426.280503,-2072.576638,-9844.739029,2068.457845
426.280825,-1850.514855,-9252.574275,2604.724693
426.281147,-1110.308913,-8956.491898,2681.334243
426.281470,-962.267725,-8808.450710,2221.676944
426.281792,-1480.411884,-8808.450710,1608.800546
426.282114,-2294.638420,-9104.533087,689.485948
426.282437,-2886.803174,-9474.636058,612.876398
426.282759,-3256.906145,-9696.697840,0.000000
426.283082,-3330.926739,-9548.656652,-612.876398
426.283404,-3182.885551,-9474.636058,-995.924147
426.283726,-2516.700203,-9474.636058,-842.705048
426.284049,-2516.700203,-9326.594869,-766.095498
426.284371,-2368.659014,-9918.759623,-536.266849
426.284693,-1850.514855,-10066.800811,-536.266849
426.285016,-1406.391290,-10140.821405,-306.438199
426.285338,-296.082377,-9548.656652,76.609550
426.285660,1258.350101,-9030.512492,842.705048
426.285983,3034.844362,-7920.203579,919.314598
426.286305,4737.318029,-6587.832884,536.266849
426.286627,6439.791695,-5551.544565,383.047749
426.286950,7105.977043,-5107.421000,-689.485948
426.287272,7772.162391,-6143.709319,-1608.800546
426.287595,5921.647536,-8438.347739,-2604.724693
426.287917,1850.514855,-10288.862594,-2451.505594
426.288239,-2442.679609,-11325.150913,-1149.143247
426.288562,-6143.709319,-11029.068536,-2604.724693
426.288884,-7772.162391,-11843.295072,-5439.278036
426.289206,-6883.915261,-12213.398043,-6052.154434
426.289529,-5551.544565,-11843.295072,-5822.325785
426.289851,-2220.617826,-12435.459826,-4749.792088
426.290173,1184.329507,-13323.706956,-1915.238745
426.290496,4219.173869,-14137.933492,1225.752797
426.290818,6217.729913,-13101.645173,612.876398
426.291141,6957.935855,-11029.068536,459.657299
426.291463,5551.544565,-9030.512492,2221.676944
426.291785,5625.565159,-5995.668130,2374.896044
426.292108,5255.462188,-3330.926739,1149.143247
426.292430,3330.926739,-3330.926739,153.219100
426.292752,74.020594,-4959.379811,842.705048
426.293075,-3627.009116,-6957.935855,842.705048
426.293397,-6587.832884,-9326.594869,-1608.800546
426.293719,-8216.285956,-12657.521608,-3140.991542
426.294042,-8956.491898,-13915.871710,-3753.867940
426.294364,-8364.327145,-14804.118840,-4213.525239
426.294686,-7179.997637,-14804.118840,-3907.087040
426.295009,-5403.503377,-14952.160028,-612.876398
426.295331,-4663.297435,-13249.686362,153.219100
426.295654,-3775.050304,-10362.883188,-995.924147
426.295976,-2886.803174,-7476.080014,-1378.971896
426.296298,-2516.700203,-7105.977043,-153.219100
426.296621,-1850.514855,-8660.409521,2221.676944
426.296943,-1554.432478,-9326.594869,4366.744339
426.297265,-1628.453072,-8882.471304,5592.497135
426.297588,-1036.288319,-7994.224174,6281.983084
426.297910,-518.144159,-7994.224174,7048.078582
426.298232,-666.185348,-7550.100608,6894.859482
426.298555,-1036.288319,-5921.647536,5822.325785
426.298877,-740.205942,-4885.359217,4519.963438
426.299200,814.226536,-4885.359217,2911.162892
426.299522,2738.761985,-5921.647536,1685.410096
426.299844,3034.844362,-6883.915261,612.876398
426.300167,3849.070898,-9918.759623,919.314598
426.300489,3923.091493,-12361.439231,2298.286494
426.300811,3701.029710,-12953.603985,2298.286494
426.301134,3256.906145,-12361.439231,1072.533697
426.301456,2294.638420,-11769.274478,-229.828649
426.301778,296.082377,-11251.130318,-536.266849
426.302101,-2072.576638,-9844.739029,536.266849
426.302423,-5107.421000,-8364.327145,3140.991542
426.302746,-7105.977043,-6513.812290,3140.991542
426.303068,-7476.080014,-7476.080014,842.705048
426.303390,-5921.647536,-9918.759623,153.219100
426.303713,-3404.947333,-9770.718434,229.828649
426.304035,-370.102971,-10436.903782,229.828649
426.304357,4367.215058,-11251.130318,1149.143247
426.304680,8216.285956,-10436.903782,1685.410096
426.305002,10510.924376,-10140.821405,1455.581446
426.305324,9770.718434,-9326.594869,1149.143247
426.305647,9622.677246,-7698.141797,2757.943793
426.305969,10584.944971,-6291.750507,459.657299
426.306291,10510.924376,-7254.018232,-5515.887586
426.306614,8364.327145,-13693.809927,-4136.915689
426.306936,4441.235652,-14582.057057,1072.533697
426.307259,-2368.659014,-10732.986159,2451.505594
426.307581,-8660.409521,-11843.295072,995.924147
426.307903,-10955.047942,-13323.706956,-536.266849
426.308226,-14211.954086,-13397.727550,-7048.078582
426.308548,-17690.922014,-10436.903782,-7048.078582
426.308870,-20059.581028,-8290.306550,1608.800546
426.309193,-17987.004391,-3775.050304,2528.115143
426.309515,-11103.089130,-4589.276840,-4213.525239
426.309837,-2960.823768,-6365.771101,-4979.620737
426.310160,2886.803174,-6957.935855,-4903.011187
426.310482,6069.688724,-9400.615463,-4826.401637
426.310805,8586.388927,-11325.150913,2528.115143
426.311127,10658.965565,-7105.977043,5898.935335
426.311449,9918.759623,-3256.906145,-3830.477490
426.311772,9548.656652,-7179.997637,-8503.660028
426.312094,7772.162391,-14285.974681,-2757.943793
426.312416,2294.638420,-13323.706956,612.876398
426.312739,-5403.503377,-12213.398043,1378.971896
426.313061,-8956.491898,-14211.954086,4826.401637
426.313383,-10288.862594,-10881.027347,3677.258390
426.313706,-8808.450710,-7031.956449,-4596.572988
426.314028,-8660.409521,-5329.482782,-7354.516781
426.314351,-6291.750507,-8216.285956,-2604.724693
426.314673,-1480.411884,-6809.894666,1532.190996
426.314995,3701.029710,-2812.782580,995.924147
426.315318,5477.523971,-2960.823768,-459.657299
426.315640,5625.565159,-7254.018232,-2681.334243
426.315962,6587.832884,-11325.150913,-6358.592633
426.316285,5847.626942,-12583.501014,-6971.469032
426.316607,3256.906145,-14359.995275,-5898.935335
426.316929,1850.514855,-15692.365970,-2757.943793
426.317252,888.247130,-17024.736666,-2681.334243
426.317574,-1554.432478,-16654.633695,-1991.848295
426.317896,-4071.132681,-16728.654289,-1915.238745
426.318219,-7328.038826,-13915.871710,-3064.381992
426.318541,-7698.141797,-12287.418637,-1838.629195
426.318864,-5921.647536,-6957.935855,536.266849
426.319186,-3478.967927,-1850.514855,0.000000
426.319508,296.082377,-962.267725,-229.828649
426.319831,5921.647536,-3108.864956,1302.362347
426.320153,7698.141797,-3404.947333,536.266849
426.320475,6513.812290,-4811.338623,-383.047749
426.320798,3849.070898,-8956.491898,1532.190996
426.321120,3108.864956,-12139.377449,1072.533697
426.321442,3404.947333,-12953.603985,-3370.820191
426.321765,2664.741391,-13693.809927,-6358.592633
426.322087,1480.411884,-14359.995275,-4213.525239
426.322410,-2442.679609,-13101.645173,76.609550
426.322732,-5551.544565,-11769.274478,2681.334243
426.323054,-7624.121203,-10436.903782,1072.533697
426.323377,-5995.668130,-10214.842000,-2451.505594
426.323699,-3034.844362,-9400.615463,-4366.744339
426.324021,592.164754,-8882.471304,-1149.143247
426.324344,3034.844362,-8068.244768,4060.306139
426.324666,4515.256246,-6217.729913,8273.831378
426.324989,4441.235652,-2738.761985,8197.221829
426.325311,4515.256246,296.082377,4749.792088
426.325633,4737.318029,-1332.370696,-1072.533697
426.325956,3404.947333,-6365.771101,-4979.620737
426.326278,1332.370696,-11251.130318,-1915.238745
426.326600,-2960.823768,-9548.656652,2451.505594
426.326923,-8142.265362,-9252.574275,2298.286494
426.327245,-9622.677246,-13101.645173,229.828649
426.327567,-8586.388927,-14730.098246,-4673.182538
426.327890,-8808.450710,-11177.109724,-9806.022374
426.328212,-7994.224174,-10658.965565,-8503.660028
426.328535,-5033.400406,-12657.521608,-1685.410096
426.328857,-2368.659014,-11473.192101,1455.581446
426.329179,-1036.288319,-9622.677246,766.095498
426.329502,-740.205942,-7550.100608,-1991.848295
426.329824,1036.288319,-7772.162391,-4979.620737
426.330146,2812.782580,-8290.306550,-4979.620737
426.330469,3034.844362,-8068.244768,-1225.752797
426.330791,2220.617826,-7550.100608,1149.143247
426.331113,2886.803174,-7402.059420,919.314598
426.331436,4811.338623,-8364.327145,-306.438199
426.331758,4663.297435,-9622.677246,-1915.238745
426.332081,3478.967927,-10881.027347,-2374.896044
426.332403,3256.906145,-11473.192101,-1302.362347
426.332725,4219.173869,-11029.068536,-1608.800546
426.333048,4589.276840,-10807.006753,-1302.362347
426.333370,4811.338623,-11695.253884,-2757.943793
426.333692,4663.297435,-11843.295072,-3830.477490
