#time,accel_x,accel_y,accel_z
170.487115,0.000000,-9474.636058,-1608.800546
170.487437,-518.144159,-9400.615463,-1532.190996
170.487759,-592.164754,-9400.615463,-1225.752797
170.488081,-592.164754,-9474.636058,-1302.362347
170.488402,-592.164754,-9326.594869,-1685.410096
170.488724,-592.164754,-9326.594869,-1378.971896
170.489046,-592.164754,-9474.636058,-1532.190996
170.489368,-444.123565,-9326.594869,-1455.581446
170.489690,-592.164754,-9252.574275,-1455.581446
170.490012,-666.185348,-9252.574275,-1532.190996
170.490333,-518.144159,-9400.615463,-1915.238745
170.490655,-666.185348,-9474.636058,-1532.190996
170.490977,-592.164754,-9770.718434,-1685.410096
170.491299,-518.144159,-9622.677246,-1378.971896
170.491621,-518.144159,-9474.636058,-1532.190996
170.491943,-296.082377,-9252.574275,-1532.190996
170.492264,-444.123565,-8734.430116,-995.924147
170.492586,-444.123565,-9104.533087,-1762.019645
170.492908,-296.082377,-9474.636058,-1455.581446
170.493230,-518.144159,-9474.636058,-1302.362347
170.493552,-740.205942,-9474.636058,-1762.019645
170.493874,0.000000,-9548.656652,-1072.533697
170.494196,-296.082377,-9326.594869,-1302.362347
170.494517,-222.061783,-9326.594869,-1302.362347
170.494839,0.000000,-9326.594869,-1455.581446
170.495161,0.000000,-9326.594869,-1608.800546
170.495483,-148.041188,-9548.656652,-1302.362347
170.495805,-148.041188,-9326.594869,-1149.143247
170.496127,-296.082377,-9400.615463,-1455.581446
170.496448,-222.061783,-9400.615463,-1532.190996
170.496770,-148.041188,-9474.636058,-1608.800546
170.497092,-148.041188,-9252.574275,-1149.143247
170.497414,-148.041188,-9178.553681,-1455.581446
170.497736,0.000000,-9400.615463,-1455.581446
170.498058,0.000000,-9548.656652,-1378.971896
170.498379,-296.082377,-9326.594869,-1302.362347
170.498701,-222.061783,-9474.636058,-1455.581446
170.499023,-222.061783,-9104.533087,-1149.143247
170.499345,-222.061783,-9326.594869,-1762.019645
170.499667,-222.061783,-9474.636058,-1608.800546
170.499989,-444.123565,-9326.594869,-1302.362347
170.500310,-296.082377,-9252.574275,-1378.971896
170.500632,0.000000,-9622.677246,-1532.190996
170.500954,-148.041188,-9252.574275,-1378.971896
170.501276,-296.082377,-9326.594869,-1838.629195
170.501598,-592.164754,-9252.574275,-1532.190996
170.501920,-518.144159,-9474.636058,-1302.362347
170.502241,-666.185348,-9400.615463,-1149.143247
170.502563,-1036.288319,-9400.615463,-1149.143247
170.502885,-592.164754,-9622.677246,-1302.362347
170.503207,-814.226536,-9474.636058,-1378.971896
170.503529,-592.164754,-9474.636058,-1302.362347
170.503851,-370.102971,-9252.574275,-1608.800546
170.504172,-296.082377,-9474.636058,-1608.800546
170.504494,-666.185348,-8882.471304,-1608.800546
170.504816,-444.123565,-9400.615463,-1455.581446
170.505138,-518.144159,-9474.636058,-1302.362347
170.505460,-888.247130,-9844.739029,-1532.190996
170.505782,-740.205942,-9474.636058,-842.705048
170.506104,-1110.308913,-9474.636058,-1149.143247
170.506425,-148.041188,-9178.553681,-1608.800546
170.506747,592.164754,-9178.553681,-1915.238745
170.507069,1332.370696,-9474.636058,-1685.410096
170.507391,1036.288319,-9622.677246,-919.314598
170.507713,444.123565,-9400.615463,-766.095498
170.508035,0.000000,-8882.471304,-689.485948
170.508356,-296.082377,-8956.491898,-1608.800546
170.508678,-814.226536,-9178.553681,-1838.629195
170.509000,-1332.370696,-8660.409521,-1838.629195
170.509322,-1036.288319,-7920.203579,-1378.971896
170.509644,0.000000,-9104.533087,-1302.362347
170.509966,370.102971,-10362.883188,-1378.971896
170.510287,0.000000,-10214.842000,-689.485948
170.510609,-148.041188,-9696.697840,-1225.752797
170.510931,962.267725,-9696.697840,-2068.457845
170.511253,2442.679609,-10807.006753,-2298.286494
170.511575,1554.432478,-10140.821405,-919.314598
170.511897,1406.391290,-8586.388927,-306.438199
170.512218,2368.659014,-8512.368333,-766.095498
170.512540,3701.029710,-9474.636058,-1455.581446
170.512862,4071.132681,-9326.594869,-612.876398
170.513184,3034.844362,-8438.347739,-229.828649
170.513506,2886.803174,-8438.347739,0.000000
170.513828,3552.988522,-8734.430116,-1072.533697
170.514149,3256.906145,-9474.636058,-995.924147
170.514471,2812.782580,-8586.388927,-536.266849
170.514793,2886.803174,-7772.162391,-1762.019645
170.515115,3849.070898,-8956.491898,-2604.724693
170.515437,4589.276840,-10732.986159,-2145.067394
170.515759,4071.132681,-10807.006753,-1149.143247
170.516080,3404.947333,-10362.883188,-1455.581446
170.516402,3775.050304,-10436.903782,-1838.629195
170.516724,3775.050304,-10584.944971,-1838.629195
170.517046,2886.803174,-9696.697840,-2451.505594
170.517368,2220.617826,-8882.471304,-2068.457845
170.517690,1998.556043,-8512.368333,-1685.410096
170.518012,2368.659014,-8512.368333,-1685.410096
170.518333,3034.844362,-8734.430116,-2068.457845
170.518655,3108.864956,-8882.471304,-1532.190996
170.518977,3849.070898,-9474.636058,-1762.019645
170.519299,4663.297435,-9474.636058,-1532.190996
170.519621,5107.421000,-8808.450710,-995.924147
170.519943,4959.379811,-8068.244768,-995.924147
170.520264,4589.276840,-8438.347739,-2221.676944
170.520586,3923.091493,-9474.636058,-2911.162892
170.520908,2368.659014,-10732.986159,-2757.943793
170.521230,444.123565,-12435.459826,-1838.629195
170.521552,-1110.308913,-13323.706956,-612.876398
170.521874,-1924.535449,-13397.727550,0.000000
170.522195,-2516.700203,-12583.501014,153.219100
170.522517,-2368.659014,-11325.150913,306.438199
170.522839,-2072.576638,-9770.718434,383.047749
170.523161,-1258.350101,-8660.409521,1149.143247
170.523483,-592.164754,-7846.182985,2145.067394
170.523805,0.000000,-7105.977043,2451.505594
170.524126,74.020594,-5995.668130,1685.410096
170.524448,0.000000,-5625.565159,612.876398
170.524770,-814.226536,-5625.565159,-1302.362347
170.525092,-592.164754,-5773.606348,-3140.991542
170.525414,-592.164754,-5921.647536,-4136.915689
170.525736,444.123565,-6735.874072,-4903.011187
170.526057,1850.514855,-8142.265362,-5362.668486
170.526379,2146.597232,-9770.718434,-5286.058936
170.526701,1258.350101,-11399.171507,-4673.182538
170.527023,-518.144159,-12065.356855,-4060.306139
170.527345,-2738.761985,-13323.706956,-3677.258390
170.527667,-5033.400406,-13693.809927,-3064.381992
170.527988,-6661.853478,-13471.748144,-1838.629195
170.528310,-7179.997637,-13397.727550,-383.047749
170.528632,-6957.935855,-11843.295072,919.314598
170.528954,-4811.338623,-9770.718434,2298.286494
170.529276,-2590.720797,-7550.100608,3677.258390
170.529598,-148.041188,-6069.688724,4443.353888
170.529920,814.226536,-4441.235652,3677.258390
170.530241,148.041188,-3775.050304,2681.334243
170.530563,-1554.432478,-4219.173869,2374.896044
170.530885,-3256.906145,-4219.173869,842.705048
170.531207,-3627.009116,-4663.297435,-3524.039291
170.531529,-2590.720797,-5773.606348,-7354.516781
170.531851,-740.205942,-8808.450710,-9422.974625
170.532172,1332.370696,-12435.459826,-9806.022374
170.532494,2368.659014,-14952.160028,-7737.564530
170.532816,2072.576638,-16580.613101,-5822.325785
170.533138,1184.329507,-17542.880825,-5975.544884
170.533460,0.000000,-16802.674883,-6281.983084
170.533782,-1776.494261,-15396.283594,-5362.668486
170.534103,-2960.823768,-14137.933492,-2298.286494
170.534425,-1628.453072,-12657.521608,1302.362347
170.534747,1110.308913,-10732.986159,4366.744339
170.535069,3478.967927,-8808.450710,7354.516781
170.535391,5181.441594,-5847.626942,9269.755526
170.535713,6735.874072,-4219.173869,7967.393179
170.536034,7179.997637,-2442.679609,7048.078582
170.536356,4219.173869,-1998.556043,7431.126331
170.536678,-814.226536,-518.144159,7277.907231
170.537000,-3627.009116,74.020594,2221.676944
170.537322,-3404.947333,-1776.494261,-5745.716235
170.537644,-1258.350101,-2812.782580,-10495.508323
170.537965,1406.391290,-5551.544565,-12257.527968
170.538287,2146.597232,-10881.027347,-11568.042020
170.538609,2146.597232,-19097.313304,-7814.174080
170.538931,1850.514855,-23982.672521,-5286.058936
170.539253,1036.288319,-23612.569550,-7890.783629
170.539575,-1110.308913,-20503.704593,-10342.289223
170.539896,-2590.720797,-17468.860231,-6894.859482
170.540218,-3775.050304,-13249.686362,-2298.286494
170.540540,-2664.741391,-6735.874072,536.266849
170.540862,-222.061783,-3849.070898,3677.258390
170.541184,1924.535449,-5255.462188,7660.954980
170.541506,1850.514855,-4589.276840,9729.412825
170.541828,370.102971,-2812.782580,8656.879127
170.542149,0.000000,-1850.514855,8120.612279
170.542471,888.247130,-1702.473667,6052.154434
170.542793,888.247130,-2146.597232,2221.676944
170.543115,-592.164754,-2294.638420,-995.924147
170.543437,0.000000,-5033.400406,-3140.991542
170.543759,2664.741391,-8660.409521,-6971.469032
170.544080,5403.503377,-11251.130318,-12487.356617
170.544402,6291.750507,-13249.686362,-15245.300410
170.544724,6735.874072,-19319.375086,-11644.651570
170.545046,5551.544565,-25018.960840,-7507.735880
170.545368,1628.453072,-25389.063811,-7354.516781
170.545690,-4663.297435,-22132.157666,-7890.783629
170.546011,-7846.182985,-19245.354492,-4443.353888
170.546333,-8142.265362,-14508.036463,-1072.533697
170.546655,-7920.203579,-6661.853478,-1225.752797
170.546977,-5625.565159,-1480.411884,1149.143247
170.547299,-1998.556043,-1110.308913,8120.612279
170.547621,-592.164754,-740.205942,12334.137518
170.547942,-2590.720797,592.164754,13100.233016
170.548264,-5181.441594,0.000000,10035.851024
170.548586,-5773.606348,-2072.576638,5209.449386
170.548908,-6587.832884,-2368.659014,153.219100
170.549230,-6217.729913,-2294.638420,-3140.991542
170.549552,-1628.453072,-2368.659014,-5515.887586
170.549873,4737.318029,-2738.761985,-10035.851024
170.550195,7920.203579,-7772.162391,-13253.452115
170.550517,8142.265362,-16284.530724,-10725.336972
170.550839,6513.812290,-24352.775492,-6511.811733
170.551161,3256.906145,-27239.578666,-8044.002729
170.551483,-2738.761985,-26203.290347,-9882.631924
170.551804,-6069.688724,-23982.672521,-5132.839837
170.552126,-6069.688724,-17098.757260,153.219100
170.552448,-5773.606348,-4959.379811,-383.047749
170.552770,-4515.256246,1628.453072,306.438199
170.553092,-1184.329507,1702.473667,6971.469032
170.553414,222.061783,222.061783,11491.432470
170.553735,-1184.329507,0.000000,10648.727422
170.554057,-3034.844362,-1184.329507,9806.022374
170.554379,-2812.782580,-3701.029710,8273.831378
170.554701,-2590.720797,-4737.318029,4060.306139
170.555023,-2590.720797,-4071.132681,-1302.362347
170.555353,1036.288319,-3182.885551,-6665.030833
170.555675,5625.565159,-7105.977043,-10801.946522
170.555997,7624.121203,-10658.965565,-10725.336972
170.556318,6291.750507,-13841.851115,-10189.070123
170.556640,4367.215058,-21095.869347,-11108.384721
170.556962,3701.029710,-28423.908173,-9422.974625
170.557284,1406.391290,-28794.011144,-10265.679673
170.557606,-3701.029710,-25389.063811,-9806.022374
170.557928,-5995.668130,-21317.931130,-1991.848295
170.558250,-3997.112087,-14656.077652,4826.401637
170.558571,-1480.411884,-4071.132681,3217.601092
170.558893,1332.370696,3256.906145,3370.820191
170.559215,5403.503377,2960.823768,7660.954980
170.559537,6439.791695,1036.288319,10112.460574
170.559859,2960.823768,0.000000,12793.794817
170.560181,-2516.700203,-518.144159,15628.348159
170.560503,-4145.153275,-3923.091493,10035.851024
170.560824,-4145.153275,-5995.668130,76.609550
170.561146,-4441.235652,-370.102971,-6511.811733
170.561468,-3182.885551,2294.638420,-9499.584175
170.561790,1406.391290,-3108.864956,-9959.241474
170.562112,3256.906145,-11695.253884,-11031.775171
170.562434,1850.514855,-20503.704593,-9729.412825
170.562756,1110.308913,-25907.207970,-7354.516781
170.563077,370.102971,-27165.558071,-9116.536426
170.563399,-1776.494261,-25611.125593,-10801.946522
170.563721,-3627.009116,-21317.931130,-7354.516781
170.564043,-3997.112087,-13989.892304,536.266849
170.564365,-2960.823768,-4885.359217,2757.943793
170.564687,-1184.329507,-1184.329507,3600.648841
170.565009,740.205942,-74.020594,7354.516781
170.565330,1036.288319,370.102971,9652.803275
170.565652,814.226536,3034.844362,8197.221829
170.565974,3108.864956,2664.741391,5132.839837
170.566296,2812.782580,-3404.947333,6741.640382
170.566618,-2294.638420,-6217.729913,10725.336972
170.566940,-5921.647536,-3923.091493,4826.401637
170.567262,-2368.659014,-8216.285956,-9039.926876
170.567583,3997.112087,-9474.636058,-15245.300410
170.567905,4515.256246,-6661.853478,-14709.033562
170.568227,3034.844362,-11621.233289,-13023.623466
170.568549,3775.050304,-22872.363608,-8963.317327
170.568871,5773.606348,-27609.681637,-7048.078582
170.569193,2220.617826,-25241.022622,-10035.851024
170.569515,-4737.318029,-24204.734303,-9959.241474
170.569836,-8290.306550,-21910.095883,-3983.696590
170.570158,-7994.224174,-14508.036463,-1991.848295
170.570480,-4737.318029,-3552.988522,-2145.067394
170.570802,-666.185348,1480.411884,3140.991542
170.571124,2590.720797,444.123565,9806.022374
170.571446,1110.308913,-1554.432478,13559.890315
170.571768,-4219.173869,0.000000,14479.204912
170.572089,-4737.318029,2442.679609,7890.783629
170.572411,-1998.556043,0.000000,-1532.190996
170.572733,-2294.638420,-4737.318029,-2374.896044
170.573055,-4663.297435,-2664.741391,919.314598
170.573377,-2516.700203,-3034.844362,-4213.525239
170.573699,4441.235652,-7624.121203,-9959.241474
170.574020,9252.574275,-11991.336260,-12257.527968
170.574342,7994.224174,-16950.716072,-13559.890315
170.574664,4515.256246,-22798.343014,-10112.460574
170.574986,2442.679609,-25537.104999,-5286.058936
170.575308,-296.082377,-25463.084405,-6818.249932
170.575630,-2516.700203,-20725.766376,-6511.811733
170.575952,-4737.318029,-15322.262999,229.828649
170.576273,-6291.750507,-6661.853478,1378.971896
170.576595,-6217.729913,-1258.350101,1532.190996
170.576917,-1924.535449,296.082377,6128.763984
170.577239,1850.514855,1850.514855,8733.488677
170.577561,1998.556043,4145.153275,8810.098227
170.577883,962.267725,1110.308913,8886.707777
170.578205,-962.267725,-3330.926739,9806.022374
170.578526,-2664.741391,-6217.729913,6511.811733
170.578848,-2664.741391,-4293.194464,-1685.410096
170.579170,1110.308913,-5847.626942,-10955.165621
170.579492,5699.585753,-8364.327145,-12257.527968
170.579814,6217.729913,-10066.800811,-8733.488677
170.580136,3478.967927,-14804.118840,-8580.269578
170.580458,2368.659014,-24130.713709,-6894.859482
170.580779,2590.720797,-28423.908173,-7201.297681
170.581101,-1850.514855,-26351.331535,-11031.775171
170.581423,-6365.771101,-22132.157666,-9652.803275
170.581745,-5995.668130,-19097.313304,-306.438199
170.582067,-3404.947333,-11251.130318,4366.744339
170.582389,-1998.556043,-1628.453072,4366.744339
170.582711,296.082377,2146.597232,6665.030833
170.583032,2590.720797,370.102971,10342.289223
170.583354,1850.514855,1184.329507,8580.269578
170.583676,-592.164754,1406.391290,7201.297681
170.583998,-2072.576638,-518.144159,8656.879127
170.584320,-1554.432478,-4589.276840,7814.174080
170.584642,-4737.318029,-6735.874072,1991.848295
170.584964,-6217.729913,-1850.514855,-2911.162892
170.585285,-2294.638420,1406.391290,-9269.755526
170.585607,2590.720797,-5033.400406,-15475.129060
170.585929,2812.782580,-18431.127956,-14402.595362
170.586251,1184.329507,-23686.590144,-7814.174080
170.586573,296.082377,-24500.816680,-4903.011187
170.586895,0.000000,-25537.104999,-6818.249932
170.587217,-1110.308913,-25685.146187,-6358.592633
170.587538,-3478.967927,-18727.210333,-4060.306139
170.587860,-5107.421000,-8956.491898,-2604.724693
170.588182,-4219.173869,-3552.988522,612.876398
170.588504,0.000000,-1258.350101,5439.278036
170.588826,2294.638420,2812.782580,7507.735880
170.589148,1332.370696,2886.803174,8886.707777
170.589470,1776.494261,1258.350101,9806.022374
170.589791,2368.659014,-1702.473667,6281.983084
170.590113,962.267725,-5477.523971,3830.477490
170.590435,-1702.473667,-6809.894666,4443.353888
170.590757,-1850.514855,-7105.977043,-995.924147
170.591079,592.164754,-9844.739029,-7890.783629
170.591401,5551.544565,-6069.688724,-11644.651570
170.591723,6735.874072,-6143.709319,-14402.595362
170.592044,6365.771101,-16358.551318,-14019.547613
170.592366,5329.482782,-26351.331535,-7660.954980
170.592688,3256.906145,-27017.516883,-5209.449386
170.593010,-2516.700203,-22946.384202,-8886.707777
170.593332,-5329.482782,-23316.487173,-6435.202183
170.593654,-5403.503377,-19763.498651,-1225.752797
170.593976,-6069.688724,-8068.244768,-1608.800546
170.594297,-4737.318029,1776.494261,0.000000
170.594619,0.000000,2664.741391,6665.030833
170.594941,2442.679609,-666.185348,10342.289223
170.595263,-1850.514855,-666.185348,12563.966167
170.595585,-4663.297435,1110.308913,10725.336972
170.595907,-2886.803174,-888.247130,2757.943793
170.596229,-1036.288319,-5255.462188,-689.485948
170.596550,-2516.700203,-4959.379811,459.657299
170.596872,-2294.638420,-3330.926739,-2911.162892
170.597194,2738.761985,-4071.132681,-9499.584175
170.597516,9770.718434,-9474.636058,-12563.966167
170.597838,11103.089130,-15618.345376,-12947.013916
170.598160,7698.141797,-22576.281231,-9652.803275
170.598482,3182.885551,-24278.754898,-4366.744339
170.598803,-444.123565,-26055.249158,-5362.668486
170.599125,-3701.029710,-23242.466579,-7201.297681
170.599447,-5329.482782,-17320.819043,-3753.867940
170.599769,-6809.894666,-7254.018232,-1378.971896
170.600091,-7624.121203,-1110.308913,-612.876398
170.600413,-4515.256246,-296.082377,5592.497135
170.600735,-1850.514855,-1258.350101,10572.117872
170.601056,-1702.473667,0.000000,8963.317327
170.601378,-1924.535449,666.185348,7354.516781
170.601700,-888.247130,-1554.432478,5898.935335
170.602022,-1924.535449,-4737.318029,4673.182538
170.602344,-2516.700203,-4219.173869,1532.190996
170.602666,-3182.885551,-3552.988522,-4443.353888
170.602987,-222.061783,-6069.688724,-8120.612279
170.603309,3997.112087,-9326.594869,-10035.851024
170.603631,3330.926739,-14211.954086,-13636.499864
170.603953,1924.535449,-21910.095883,-12334.137518
170.604275,2664.741391,-28719.990550,-5132.839837
170.604597,296.082377,-27757.722825,-3983.696590
170.604919,-4441.235652,-21836.075289,-6128.763984
170.605240,-4959.379811,-18505.148550,-2757.943793
170.605562,-3775.050304,-13397.727550,1302.362347
170.605884,-4515.256246,-5033.400406,689.485948
170.606206,-3182.885551,444.123565,4136.915689
170.606528,1258.350101,222.061783,9806.022374
170.606850,3997.112087,444.123565,10265.679673
170.607172,2368.659014,1998.556043,9039.926876
170.607493,0.000000,-666.185348,9882.631924
170.607815,-1036.288319,-3627.009116,7660.954980
170.608137,-3849.070898,-4293.194464,2451.505594
170.608459,-5921.647536,74.020594,-2834.553343
170.608781,-2812.782580,592.164754,-7814.174080
170.609103,1998.556043,-5329.482782,-13253.452115
170.609425,3034.844362,-14730.098246,-13406.671215
170.609746,2368.659014,-21317.931130,-7890.783629
170.610068,1998.556043,-25018.960840,-4673.182538
170.610390,222.061783,-26129.269753,-5592.497135
170.610712,-2294.638420,-25389.063811,-6511.811733
170.611034,-4219.173869,-18579.169144,-4749.792088
170.611356,-4589.276840,-10140.821405,-3140.991542
170.611678,-3182.885551,-3701.029710,-383.047749
170.611999,-296.082377,-444.123565,4290.134789
170.612321,1776.494261,2294.638420,7354.516781
170.612643,1924.535449,888.247130,9652.803275
170.612965,2960.823768,-814.226536,8733.488677
170.613287,3552.988522,-3404.947333,4519.963438
170.613609,2664.741391,-4737.318029,4060.306139
170.613931,0.000000,-4441.235652,5286.058936
170.614252,-444.123565,-6439.791695,153.219100
170.614574,2960.823768,-9030.512492,-8810.098227
170.614896,6883.915261,-7402.059420,-14019.547613
170.615218,7550.100608,-6735.874072,-13559.890315
170.615540,7920.203579,-14656.077652,-11644.651570
170.615862,7031.956449,-27461.640448,-7277.907231
170.616184,4885.359217,-28053.805202,-5362.668486
170.616505,-740.205942,-22946.384202,-8044.002729
170.616827,-4663.297435,-22576.281231,-6971.469032
170.617149,-5551.544565,-19911.539840,-2221.676944
170.617471,-6883.915261,-8586.388927,-1685.410096
170.617793,-5033.400406,1776.494261,-1225.752797
170.618115,-592.164754,2442.679609,4673.182538
170.618437,1258.350101,-2960.823768,11261.603821
170.618758,-3775.050304,-3552.988522,12947.013916
170.619080,-8512.368333,444.123565,11338.213370
170.619402,-5625.565159,888.247130,3447.429741
170.619724,-1702.473667,-3552.988522,-3677.258390
170.620046,-3182.885551,-5033.400406,-1762.019645
170.620368,-5255.462188,-1258.350101,0.000000
170.620690,-1184.329507,-2072.576638,-5822.325785
170.621011,6735.874072,-8438.347739,-12947.013916
170.621333,10066.800811,-16358.551318,-15475.129060
170.621655,6513.812290,-21317.931130,-12334.137518
170.621977,2368.659014,-24352.775492,-5515.887586
170.622299,-1036.288319,-26499.372724,-2528.115143
170.622621,-3034.844362,-24204.734303,-5669.106685
170.622943,-4219.173869,-17468.860231,-4060.306139
170.623264,-5551.544565,-8808.450710,-1532.190996
170.623586,-6735.874072,-2220.617826,-842.705048
170.623908,-4663.297435,-370.102971,4290.134789
170.624230,-296.082377,0.000000,10418.898773
170.624552,-592.164754,2664.741391,9806.022374
170.624874,-888.247130,888.247130,7660.954980
170.625196,-2294.638420,-3775.050304,7354.516781
170.625517,-4071.132681,-6587.832884,6358.592633
170.625839,-3923.091493,-4293.194464,1762.019645
170.626161,-1924.535449,-2146.597232,-6052.154434
170.626483,2590.720797,-5551.544565,-9576.193725
170.626805,6439.791695,-7550.100608,-8733.488677
170.627127,4515.256246,-10658.965565,-10878.556072
170.627449,3404.947333,-20059.581028,-10801.946522
170.627770,4293.194464,-28423.908173,-6741.640382
170.628092,666.185348,-28423.908173,-6894.859482
170.628414,-6217.729913,-24056.693115,-7814.174080
170.628736,-7772.162391,-20651.745782,-2528.115143
170.629058,-5107.421000,-15100.201217,1532.190996
170.629380,-3627.009116,-4589.276840,459.657299
170.629702,-2072.576638,2146.597232,3294.210641
170.630023,1332.370696,1554.432478,10035.851024
170.630345,3330.926739,1332.370696,10955.165621
170.630667,2738.761985,1776.494261,9193.145976
170.630989,444.123565,-888.247130,8733.488677
170.631311,-148.041188,-4737.318029,8580.269578
170.631633,-2664.741391,-6291.750507,3524.039291
170.631954,-5255.462188,-2590.720797,-1991.848295
170.632276,-2812.782580,1850.514855,-6205.373534
170.632598,2812.782580,-1554.432478,-13176.842566
170.632920,5477.523971,-11843.295072,-16471.053207
170.633242,4811.338623,-22206.178260,-10342.289223
170.633564,4589.276840,-26351.331535,-5362.668486
170.633886,2960.823768,-26869.475695,-5975.544884
170.634207,592.164754,-27461.640448,-5592.497135
170.634529,-1924.535449,-22502.260637,-4366.744339
170.634851,-4367.215058,-12139.377449,-4136.915689
170.635173,-4441.235652,-4071.132681,-2911.162892
170.635495,-1628.453072,-962.267725,1915.238745
170.635817,962.267725,2220.617826,6665.030833
170.636139,370.102971,1776.494261,9193.145976
170.636460,1110.308913,0.000000,10955.165621
170.636782,1776.494261,-3108.864956,7048.078582
170.637104,1628.453072,-4885.359217,3140.991542
170.637426,-666.185348,-6143.709319,4290.134789
170.637748,-2146.597232,-5033.400406,1991.848295
170.638070,74.020594,-8808.450710,-7277.907231
170.638392,4441.235652,-8068.244768,-11951.089769
170.638713,6735.874072,-5107.421000,-12717.185267
170.639035,7476.080014,-11843.295072,-13789.718964
170.639357,7105.977043,-25167.002028,-10112.460574
170.639679,6587.832884,-28645.969955,-5362.668486
170.640001,1924.535449,-24426.796086,-7431.126331
170.640323,-3034.844362,-22650.301825,-7354.516781
170.640645,-5329.482782,-22206.178260,-1149.143247
170.640966,-6957.935855,-11325.150913,0.000000
170.641288,-6883.915261,1850.514855,-2451.505594
170.641610,-2516.700203,5403.503377,1149.143247
170.641932,148.041188,-1850.514855,8580.269578
170.642254,-2664.741391,-3108.864956,13100.233016
170.642576,-7920.203579,222.061783,12334.137518
170.642898,-6809.894666,666.185348,6435.202183
170.643219,-2664.741391,-4145.153275,-612.876398
170.643541,-3034.844362,-4811.338623,-2068.457845
170.643863,-6217.729913,-1776.494261,-1991.848295
170.644185,-3182.885551,-296.082377,-5362.668486
170.644507,5847.626942,-3775.050304,-11644.651570
170.644829,9918.759623,-14434.015869,-14862.252661
170.645151,6735.874072,-21688.034101,-12257.527968
170.645472,2442.679609,-24278.754898,-5515.887586
170.645794,-296.082377,-25759.166782,-4213.525239
170.646116,-3330.926739,-26869.475695,-6588.421283
170.646438,-3923.091493,-21614.013506,-4366.744339
170.646760,-5625.565159,-11325.150913,-1225.752797
170.647082,-6587.832884,-1702.473667,-2374.896044
170.647404,-4441.235652,-222.061783,3140.991542
170.647725,-518.144159,0.000000,10035.851024
170.648047,0.000000,3108.864956,9422.974625
170.648369,-740.205942,1554.432478,7584.345430
170.648691,-962.267725,-3108.864956,7048.078582
170.649013,-2220.617826,-6957.935855,6358.592633
170.649335,-3330.926739,-6661.853478,3907.087040
170.649657,-2294.638420,-3182.885551,-2757.943793
170.649978,1850.514855,-4811.338623,-9193.145976
170.650300,6883.915261,-7550.100608,-9806.022374
170.650622,6735.874072,-9622.677246,-10418.898773
170.650944,4515.256246,-16580.613101,-11568.042020
170.651266,4737.318029,-27017.516883,-7431.126331
170.651588,3330.926739,-30052.361245,-5898.935335
170.651910,-2664.741391,-25241.022622,-7660.954980
170.652231,-6439.791695,-21762.054695,-4749.792088
170.652553,-5625.565159,-18209.066173,1149.143247
170.652875,-4145.153275,-8734.430116,919.314598
170.653197,-3552.988522,444.123565,2298.286494
170.653519,-518.144159,3256.906145,7814.174080
170.653841,2738.761985,3034.844362,9346.365076
170.654163,2886.803174,2590.720797,8503.660028
170.654484,666.185348,370.102971,9269.755526
170.654806,-1776.494261,-3701.029710,9729.412825
170.655128,-2886.803174,-6957.935855,5209.449386
170.655450,-4441.235652,-4811.338623,-995.924147
170.655771,-3330.926739,2072.576638,-5515.887586
170.656093,1480.411884,1258.350101,-10955.165621
170.656415,5181.441594,-7772.162391,-14938.862211
170.656736,5329.482782,-20059.581028,-10495.508323
170.657058,4811.338623,-26055.249158,-4903.011187
170.657380,2738.761985,-26943.496289,-4673.182538
170.657701,0.000000,-27831.743419,-6128.763984
170.658023,-2812.782580,-24352.775492,-4749.792088
170.658345,-4219.173869,-14952.160028,-4290.134789
170.658666,-4811.338623,-4293.194464,-3600.648841
170.658988,-2368.659014,-370.102971,383.047749
170.659310,296.082377,2664.741391,5822.325785
170.659631,-222.061783,2146.597232,8886.707777
170.659953,-1184.329507,0.000000,10265.679673
170.660275,222.061783,-2220.617826,6971.469032
170.660597,1924.535449,-5181.441594,2757.943793
170.660918,740.205942,-6957.935855,4903.011187
170.661240,-1628.453072,-4737.318029,5132.839837
170.661562,-1110.308913,-7179.997637,-4443.353888
170.661883,3256.906145,-8068.244768,-11338.213370
170.662205,7254.018232,-5477.523971,-13483.280765
170.662527,7920.203579,-10288.862594,-15398.519510
170.662848,7550.100608,-23686.590144,-11491.432470
170.663170,6291.750507,-29608.237680,-4290.134789
170.663492,2146.597232,-25315.043216,-5439.278036
170.663813,-3627.009116,-22502.260637,-7967.393179
170.664135,-6217.729913,-23316.487173,-3907.087040
170.664457,-8290.306550,-14434.015869,-2068.457845
170.664778,-9474.636058,-518.144159,-3830.477490
170.665100,-5773.606348,5107.421000,1455.581446
170.665422,-518.144159,-222.061783,8273.831378
170.665743,-1110.308913,-2738.761985,11797.870669
170.666065,-6217.729913,-888.247130,12947.013916
170.666387,-6883.915261,740.205942,8810.098227
170.666708,-2146.597232,-3478.967927,1455.581446
170.667030,-1406.391290,-6143.709319,-2145.067394
170.667352,-5329.482782,-2368.659014,-842.705048
170.667674,-3552.988522,296.082377,-2451.505594
170.667995,5181.441594,-1332.370696,-9806.022374
170.668317,11695.253884,-11843.295072,-16241.224558
170.668639,9548.656652,-19245.354492,-14709.033562
170.668960,4737.318029,-24426.796086,-6052.154434
170.669282,888.247130,-26943.496289,-1225.752797
170.669604,-2368.659014,-27387.619854,-4366.744339
170.669925,-4737.318029,-22946.384202,-5132.839837
170.670247,-6365.771101,-13323.706956,-3370.820191
170.670569,-7402.059420,-1924.535449,-3447.429741
170.670890,-6217.729913,1258.350101,766.095498
170.671212,-2294.638420,1258.350101,9499.584175
170.671534,0.000000,1406.391290,11108.384721
170.671855,0.000000,518.144159,7431.126331
170.672177,-814.226536,-3701.029710,6511.811733
170.672499,-666.185348,-5699.585753,7584.345430
170.672820,-888.247130,-3552.988522,3600.648841
170.673142,-518.144159,-1850.514855,-2451.505594
170.673464,1776.494261,-4219.173869,-7814.174080
170.673785,5477.523971,-7772.162391,-8656.879127
170.674107,5329.482782,-9844.739029,-10112.460574
170.674429,3997.112087,-15618.345376,-10955.165621
170.674750,3923.091493,-27165.558071,-7507.735880
170.675072,3330.926739,-31310.711347,-5362.668486
170.675394,-1184.329507,-25537.104999,-7584.345430
170.675716,-4737.318029,-20799.786970,-5592.497135
170.676037,-4737.318029,-18209.066173,612.876398
170.676359,-3627.009116,-8660.409521,2221.676944
170.676681,-3775.050304,1406.391290,1991.848295
170.677002,-1332.370696,3775.050304,5745.716235
170.677324,1850.514855,370.102971,9806.022374
170.677646,666.185348,-518.144159,9422.974625
170.677967,-2072.576638,444.123565,9422.974625
170.678289,-2368.659014,-1924.535449,9039.926876
170.678611,-666.185348,-7105.977043,4213.525239
170.678932,-2146.597232,-5181.441594,-1378.971896
170.679254,-3330.926739,2368.659014,-4366.744339
170.679576,1110.308913,1332.370696,-9422.974625
170.679897,6365.771101,-8660.409521,-13406.671215
170.680219,5773.606348,-20503.704593,-12027.699319
170.680541,3404.947333,-25611.125593,-7584.345430
170.680862,1554.432478,-26425.352129,-5515.887586
170.681184,-518.144159,-28423.908173,-5209.449386
170.681506,-3034.844362,-24944.940245,-4443.353888
170.681827,-4293.194464,-14063.912898,-3677.258390
170.682149,-5329.482782,-4293.194464,-3217.601092
170.682471,-2886.803174,-1702.473667,383.047749
170.682793,-1110.308913,370.102971,6128.763984
170.683114,-1702.473667,2072.576638,8963.317327
170.683436,-1776.494261,888.247130,10572.117872
170.683758,-148.041188,-1480.411884,7048.078582
170.684079,444.123565,-4737.318029,1838.629195
170.684401,0.000000,-6883.915261,3140.991542
170.684723,-1480.411884,-4589.276840,4519.963438
170.685044,-814.226536,-6439.791695,-2757.943793
170.685366,3775.050304,-7920.203579,-9576.193725
170.685688,8290.306550,-5699.585753,-13253.452115
170.686009,9104.533087,-10732.986159,-16164.615008
170.686331,8438.347739,-22724.322419,-11338.213370
170.686653,6513.812290,-28201.846390,-4136.915689
170.686974,1332.370696,-24500.816680,-4673.182538
170.687296,-4515.256246,-22132.157666,-7201.297681
170.687618,-6957.935855,-22724.322419,-3524.039291
170.687939,-9178.553681,-14582.057057,-2528.115143
170.688261,-10214.842000,-592.164754,-3753.867940
170.688583,-6143.709319,4737.318029,1532.190996
170.688904,-740.205942,444.123565,8580.269578
170.689226,-1184.329507,-1850.514855,12027.699319
170.689548,-7105.977043,-740.205942,13100.233016
170.689870,-7550.100608,296.082377,9806.022374
170.690191,-2220.617826,-2664.741391,-229.828649
170.690513,74.020594,-5329.482782,-4979.620737
170.690835,-2960.823768,-3256.906145,-2221.676944
170.691156,-1776.494261,-222.061783,-1072.533697
170.691478,7105.977043,-3923.091493,-8197.221829
170.691800,14582.057057,-13767.830521,-15398.519510
170.692121,12287.418637,-18135.045579,-13406.671215
170.692443,6661.853478,-21169.889941,-6358.592633
170.692765,1036.288319,-26351.331535,-2451.505594
170.693086,-2812.782580,-27831.743419,-3830.477490
170.693408,-6069.688724,-21836.075289,-5132.839837
170.693730,-7105.977043,-11769.274478,-5209.449386
170.694051,-7402.059420,-3034.844362,-3447.429741
170.694373,-7031.956449,-1406.391290,1685.410096
170.694695,-4441.235652,-1258.350101,9499.584175
170.695016,-2072.576638,1258.350101,11108.384721
170.695338,0.000000,1480.411884,5898.935335
170.695660,148.041188,-3552.988522,4519.963438
170.695981,-370.102971,-5699.585753,7124.688131
170.696303,-2146.597232,-3775.050304,4213.525239
170.696625,-1036.288319,-3552.988522,-3370.820191
170.696947,3478.967927,-5847.626942,-8273.831378
170.697268,6291.750507,-9030.512492,-9039.926876
170.697590,6513.812290,-10066.800811,-9729.412825
170.697912,4959.379811,-16728.654289,-9882.631924
170.698233,6069.688724,-26943.496289,-7048.078582
170.698555,4885.359217,-27313.599260,-6665.030833
170.698877,-666.185348,-23242.466579,-7584.345430
170.699198,-6439.791695,-21243.910535,-3447.429741
170.699520,-6513.812290,-16580.613101,1455.581446
170.699842,-5921.647536,-6661.853478,0.000000
170.700163,-4737.318029,0.000000,306.438199
170.700485,-1998.556043,-666.185348,6281.983084
170.700807,74.020594,-2442.679609,11951.089769
170.701128,-1628.453072,1480.411884,11031.775171
170.701450,-962.267725,1258.350101,9039.926876
170.701772,814.226536,-3701.029710,6205.373534
170.702093,592.164754,-5995.668130,3600.648841
170.702415,-3627.009116,148.041188,689.485948
170.702737,-4293.194464,2886.803174,-3140.991542
170.703058,1406.391290,-2368.659014,-8656.879127
170.703380,4959.379811,-10288.862594,-14479.204912
170.703702,4071.132681,-19837.519246,-13100.233016
170.704024,3701.029710,-24870.919651,-6894.859482
170.704345,3182.885551,-25463.084405,-4136.915689
170.704667,518.144159,-26129.269753,-5898.935335
170.704989,-2442.679609,-21910.095883,-4060.306139
170.705310,-4515.256246,-14211.954086,-1378.971896
170.705632,-5329.482782,-6365.771101,-2681.334243
170.705954,-4145.153275,-2072.576638,-919.314598
170.706275,-1332.370696,0.000000,5439.278036
170.706597,-1184.329507,1776.494261,8963.317327
170.706919,-296.082377,148.041188,9959.241474
170.707240,666.185348,-2294.638420,8197.221829
170.707562,888.247130,-4737.318029,4519.963438
170.707884,-222.061783,-5551.544565,4290.134789
170.708205,-1184.329507,-4737.318029,1685.410096
170.708527,-296.082377,-7105.977043,-6128.763984
170.708849,3627.009116,-5921.647536,-10035.851024
170.709170,7994.224174,-5403.503377,-12334.137518
170.709492,9548.656652,-12953.603985,-14325.985813
170.709814,8512.368333,-24056.693115,-9882.631924
170.710135,6069.688724,-26647.413912,-4903.011187
170.710457,962.267725,-23982.672521,-7507.735880
170.710779,-4219.173869,-23242.466579,-8350.440928
170.711100,-5847.626942,-22502.260637,-4596.572988
170.711422,-8438.347739,-12879.583391,-4443.353888
170.711744,-8438.347739,-1554.432478,-3524.039291
170.712066,-4589.276840,1776.494261,3370.820191
170.712387,-296.082377,-1628.453072,8580.269578
170.712709,-2442.679609,-3627.009116,11261.603821
170.713031,-6883.915261,-1480.411884,13330.061665
170.713352,-6069.688724,1480.411884,8273.831378
170.713674,-814.226536,-370.102971,-2068.457845
170.713996,592.164754,-4515.256246,-3677.258390
170.714317,-2368.659014,-2442.679609,842.705048
170.714639,-962.267725,-1998.556043,-1915.238745
170.714961,6809.894666,-7328.038826,-9193.145976
170.715282,14434.015869,-14063.912898,-14555.814462
170.715604,12731.542202,-17172.777854,-14019.547613
170.715926,6143.709319,-20207.622217,-6741.640382
170.716247,370.102971,-24500.816680,-689.485948
170.716569,-2516.700203,-24648.857869,-4213.525239
170.716891,-6069.688724,-19837.519246,-8273.831378
170.717212,-8068.244768,-12435.459826,-6205.373534
170.717534,-9400.615463,-5403.503377,-2298.286494
170.717856,-8808.450710,-2368.659014,2834.553343
170.718177,-5255.462188,-1332.370696,8886.707777
170.718499,-2368.659014,-444.123565,10572.117872
170.718821,-1332.370696,0.000000,7277.907231
170.719143,-1258.350101,-1258.350101,5822.325785
170.719464,-1702.473667,-2072.576638,5592.497135
170.719786,-1406.391290,-2738.761985,2145.067394
170.720108,-296.082377,-3701.029710,-2298.286494
170.720429,2368.659014,-6217.729913,-6435.202183
170.720751,6291.750507,-9622.677246,-7124.688131
170.721073,8438.347739,-11695.253884,-8733.488677
170.721394,8142.265362,-16654.633695,-10265.679673
170.721716,6735.874072,-25018.960840,-7201.297681
170.722038,4811.338623,-25759.166782,-5209.449386
170.722359,-740.205942,-22132.157666,-6511.811733
170.722681,-5773.606348,-19763.498651,-4366.744339
170.723003,-6365.771101,-16062.468941,229.828649
170.723324,-6439.791695,-7550.100608,229.828649
170.723646,-5847.626942,-1554.432478,0.000000
170.723968,-2960.823768,-3701.029710,5822.325785
170.724289,-1924.535449,-5033.400406,11797.870669
170.724611,-3404.947333,2072.576638,12334.137518
170.724933,-1184.329507,2294.638420,7354.516781
170.725254,1998.556043,-3849.070898,3524.039291
170.725576,444.123565,-4293.194464,4136.915689
170.725898,-4737.318029,2294.638420,2681.334243
170.726220,-5329.482782,740.205942,-2834.553343
170.726541,1998.556043,-6069.688724,-9116.536426
170.726863,5033.400406,-10658.965565,-15015.471761
170.727185,3923.091493,-17838.963202,-13636.499864
170.727506,4219.173869,-24870.919651,-5286.058936
170.727828,4515.256246,-25611.125593,-3140.991542
170.728150,1110.308913,-24056.693115,-7354.516781
170.728471,-2516.700203,-20651.745782,-4979.620737
170.728793,-4071.132681,-15396.283594,-1149.143247
170.729115,-5477.523971,-7772.162391,-3064.381992
170.729436,-5107.421000,-2738.761985,-2221.676944
170.729758,-2442.679609,-814.226536,5898.935335
170.730080,-962.267725,222.061783,10342.289223
170.730401,74.020594,370.102971,9576.193725
170.730723,1110.308913,-1332.370696,8350.440928
170.731045,666.185348,-3108.864956,6052.154434
170.731366,-148.041188,-4737.318029,4903.011187
170.731688,-740.205942,-5107.421000,1149.143247
170.732010,-666.185348,-6735.874072,-6205.373534
170.732331,3108.864956,-5403.503377,-9116.536426
170.732653,7476.080014,-5255.462188,-11031.775171
170.732975,8956.491898,-14137.933492,-13330.061665
170.733297,7920.203579,-23908.651927,-10725.336972
170.733618,5773.606348,-25167.002028,-6281.983084
170.733940,1480.411884,-23686.590144,-7660.954980
170.734262,-3923.091493,-23760.610738,-7737.564530
170.734583,-6291.750507,-21688.034101,-4903.011187
170.734905,-7994.224174,-13175.665768,-4519.963438
170.735227,-7402.059420,-2516.700203,-3753.867940
170.735548,-3182.885551,888.247130,3140.991542
170.735870,148.041188,-1406.391290,7737.564530
170.736192,-2146.597232,-4219.173869,11031.775171
170.736513,-6365.771101,-1258.350101,13713.109414
170.736835,-5403.503377,2146.597232,7814.174080
170.737157,-592.164754,148.041188,-2145.067394
170.737478,740.205942,-3849.070898,-2451.505594
170.737800,-2146.597232,-2072.576638,1149.143247
170.738122,-1480.411884,-3034.844362,-2298.286494
170.738443,5995.668130,-7772.162391,-9039.926876
170.738765,13323.706956,-13471.748144,-14096.157163
170.739087,11547.212695,-16506.592507,-13866.328514
170.739408,5551.544565,-19837.519246,-8350.440928
170.739730,962.267725,-24574.837274,-1838.629195
170.740052,-2294.638420,-24796.899057,-4903.011187
170.740374,-5477.523971,-20503.704593,-8580.269578
170.740695,-7698.141797,-14211.954086,-4903.011187
170.741017,-9548.656652,-6957.935855,-1608.800546
170.741339,-8364.327145,-2664.741391,1915.238745
170.741660,-4737.318029,-1480.411884,7584.345430
170.741982,-1628.453072,0.000000,10112.460574
170.742304,-666.185348,0.000000,8044.002729
170.742625,-1332.370696,-1332.370696,6358.592633
170.742947,-1702.473667,-2072.576638,6205.373534
170.743269,-1184.329507,-3034.844362,2911.162892
170.743590,-1110.308913,-3775.050304,-1991.848295
170.743912,1036.288319,-6217.729913,-6281.983084
170.744234,4811.338623,-9992.780217,-7124.688131
170.744555,7328.038826,-11103.089130,-8120.612279
170.744877,7105.977043,-16506.592507,-10189.070123
170.745199,6217.729913,-25759.166782,-7967.393179
170.745520,4959.379811,-25907.207970,-5822.325785
170.745842,740.205942,-21910.095883,-7201.297681
170.746164,-4811.338623,-20207.622217,-5362.668486
170.746485,-5403.503377,-17616.901420,536.266849
170.746807,-6661.853478,-9178.553681,1685.410096
170.747129,-6735.874072,-1554.432478,612.876398
170.747450,-3404.947333,-2664.741391,5056.230287
170.747772,-888.247130,-4737.318029,10955.165621
170.748094,-2368.659014,1332.370696,11184.994271
170.748416,-2072.576638,3404.947333,8886.707777
170.748737,740.205942,-2294.638420,5745.716235
170.749059,222.061783,-5329.482782,4290.134789
170.749381,-4589.276840,1036.288319,2757.943793
170.749702,-6291.750507,1776.494261,-3064.381992
170.750024,0.000000,-4959.379811,-8656.879127
170.750346,4663.297435,-10066.800811,-14249.376263
170.750667,4219.173869,-17246.798449,-14479.204912
170.750989,3923.091493,-24500.816680,-6588.421283
170.751311,4811.338623,-25241.022622,-2298.286494
170.751632,1776.494261,-24574.837274,-6665.030833
170.751954,-1924.535449,-20725.766376,-6205.373534
170.752276,-3775.050304,-15100.201217,-1455.581446
170.752597,-4515.256246,-7772.162391,-2068.457845
170.752919,-4071.132681,-2738.761985,-1532.190996
170.753241,-2368.659014,-444.123565,5592.497135
170.753562,-1258.350101,1332.370696,9346.365076
170.753884,148.041188,370.102971,8963.317327
170.754206,1554.432478,-1924.535449,7967.393179
170.754527,740.205942,-3478.967927,6281.983084
170.754849,-148.041188,-4441.235652,6665.030833
170.755171,0.000000,-4737.318029,1762.019645
170.755493,962.267725,-7105.977043,-6435.202183
170.755814,3701.029710,-5921.647536,-9729.412825
170.756136,7550.100608,-4885.359217,-10955.165621
170.756458,9252.574275,-13175.665768,-12717.185267
170.756780,8586.388927,-22872.363608,-10572.117872
170.757101,6291.750507,-25611.125593,-7124.688131
170.757423,1924.535449,-23834.631332,-8197.221829
170.757745,-3404.947333,-23760.610738,-9269.755526
170.758067,-5699.585753,-22946.384202,-5822.325785
170.758388,-7920.203579,-14508.036463,-4519.963438
170.758710,-8068.244768,-3701.029710,-2987.772442
170.759032,-4737.318029,1332.370696,2757.943793
170.759354,-518.144159,-1628.453072,7354.516781
170.759675,-2146.597232,-4145.153275,10418.898773
170.759997,-6513.812290,-2072.576638,13253.452115
170.760319,-5921.647536,1776.494261,8963.317327
170.760641,-296.082377,296.082377,-1149.143247
170.760962,1554.432478,-5107.421000,-3294.210641
170.761284,-1776.494261,-3404.947333,1532.190996
170.761606,-2220.617826,-2664.741391,-995.924147
170.761928,4811.338623,-6809.894666,-8656.879127
170.762249,13027.624579,-13323.706956,-14479.204912
170.762571,11843.295072,-16284.530724,-15321.909960
170.762893,5551.544565,-18949.272115,-8197.221829
170.763215,740.205942,-23982.672521,-1302.362347
170.763536,-2072.576638,-25685.146187,-4673.182538
170.763858,-5107.421000,-21243.910535,-8580.269578
170.764180,-7772.162391,-14582.057057,-6128.763984
170.764502,-9474.636058,-7698.141797,-1915.238745
170.764823,-8660.409521,-3404.947333,2068.457845
170.765145,-5625.565159,-740.205942,8503.660028
170.765467,-2590.720797,1110.308913,10342.289223
170.765789,-666.185348,1628.453072,7584.345430
170.766110,-1554.432478,370.102971,6128.763984
170.766432,-3034.844362,-1776.494261,6511.811733
170.766754,-2738.761985,-3997.112087,4366.744339
170.767076,-1924.535449,-2664.741391,-689.485948
170.767397,-444.123565,-6291.750507,-6588.421283
170.767719,4293.194464,-9030.512492,-6741.640382
170.768041,7254.018232,-10066.800811,-7890.783629
170.768363,6661.853478,-14730.098246,-10801.946522
170.768684,6513.812290,-23538.548956,-8350.440928
170.769006,5625.565159,-26129.269753,-5286.058936
170.769328,296.082377,-22058.137072,-6588.421283
170.769650,-5477.523971,-19837.519246,-5209.449386
170.769971,-5847.626942,-18505.148550,-306.438199
170.770293,-6217.729913,-11103.089130,842.705048
170.770615,-6661.853478,-2960.823768,459.657299
170.770937,-3923.091493,-1850.514855,5898.935335
170.771258,0.000000,-3552.988522,9882.631924
170.771580,370.102971,592.164754,10878.556072
170.771902,-148.041188,3997.112087,10342.289223
170.772224,814.226536,-1554.432478,7048.078582
170.772545,962.267725,-6365.771101,4673.182538
170.772867,-3330.926739,-666.185348,2451.505594
170.773189,-5625.565159,1924.535449,-2911.162892
170.773511,-296.082377,-3627.009116,-7814.174080
170.773832,4959.379811,-8882.471304,-13253.452115
170.774154,4811.338623,-16506.592507,-14785.643111
170.774476,4515.256246,-23464.528361,-8273.831378
170.774798,5403.503377,-26425.352129,-3217.601092
170.775119,2738.761985,-26425.352129,-6511.811733
170.775441,-2220.617826,-23020.404796,-6741.640382
170.775763,-4737.318029,-16506.592507,-2298.286494
170.776085,-4885.359217,-8660.409521,-2451.505594
170.776406,-4663.297435,-2960.823768,-2911.162892
170.776728,-2812.782580,0.000000,3753.867940
170.777050,-1184.329507,592.164754,8963.317327
170.777372,-148.041188,-296.082377,10112.460574
170.777693,1998.556043,-1184.329507,8656.879127
170.778015,2442.679609,-2886.803174,5515.887586
170.778337,1332.370696,-3701.029710,4826.401637
170.778659,0.000000,-5033.400406,3217.601092
170.778980,-666.185348,-6439.791695,-4213.525239
170.779302,2072.576638,-7994.224174,-9729.412825
170.779624,6809.894666,-4737.318029,-11721.261119
170.779945,9548.656652,-10732.986159,-13866.328514
170.780267,9770.718434,-21391.951724,-11797.870669
170.780589,7254.018232,-26055.249158,-6665.030833
170.780911,3923.091493,-23686.590144,-6052.154434
170.781232,-1850.514855,-22576.281231,-9039.926876
170.781554,-5255.462188,-23168.445985,-6052.154434
170.781876,-8216.285956,-16876.695478,-4213.525239
170.782198,-9474.636058,-5033.400406,-4519.963438
170.782519,-6809.894666,1628.453072,1378.971896
170.782841,-1702.473667,-962.267725,7354.516781
170.783163,-1554.432478,-2960.823768,11184.994271
170.783485,-6143.709319,-2368.659014,13176.842566
170.783806,-6809.894666,1702.473667,11491.432470
170.784128,-2368.659014,1776.494261,2298.286494
170.784450,1258.350101,-2738.761985,-4060.306139
170.784772,-2220.617826,-3182.885551,0.000000
170.785093,-4367.215058,-1628.453072,306.438199
170.785415,222.061783,-4885.359217,-6358.592633
170.785737,9252.574275,-12287.418637,-13789.718964
170.786059,10881.027347,-16580.613101,-16317.834107
170.786380,5921.647536,-19097.313304,-11261.603821
170.786702,518.144159,-24204.734303,-2834.553343
170.787024,-2294.638420,-26351.331535,-2604.724693
170.787346,-4737.318029,-21910.095883,-6971.469032
170.787667,-6587.832884,-15470.304188,-6358.592633
170.787989,-8438.347739,-8068.244768,-2681.334243
170.788311,-9252.574275,-3849.070898,1072.533697
170.788633,-6217.729913,-2294.638420,7354.516781
170.788954,-2516.700203,740.205942,10955.165621
170.789276,0.000000,1480.411884,8427.050478
170.789598,-370.102971,0.000000,6894.859482
170.789920,-1258.350101,-3108.864956,7124.688131
170.790241,-2738.761985,-4441.235652,6588.421283
170.790563,-1480.411884,-1554.432478,459.657299
170.790885,814.226536,-4071.132681,-7967.393179
170.791207,4441.235652,-8586.388927,-8044.002729
170.791528,6809.894666,-9474.636058,-6588.421283
170.791850,5847.626942,-14359.995275,-10572.117872
170.792172,5773.606348,-23908.651927,-9193.145976
170.792494,5625.565159,-28275.866984,-6052.154434
170.792815,1110.308913,-24352.775492,-6971.469032
170.793137,-6143.709319,-20725.766376,-6741.640382
170.793459,-6439.791695,-18801.230927,-229.828649
170.793781,-5625.565159,-11917.315666,1072.533697
170.794102,-4959.379811,-3034.844362,-536.266849
170.794424,-3701.029710,-148.041188,5745.716235
170.794746,-222.061783,-2146.597232,10572.117872
170.795068,444.123565,-296.082377,10801.946522
170.795389,518.144159,2220.617826,9346.365076
170.795711,296.082377,-592.164754,7660.954980
170.796033,296.082377,-4441.235652,6971.469032
170.796355,-1554.432478,-2368.659014,3677.258390
170.796676,-4219.173869,2146.597232,-4596.572988
170.796998,-962.267725,-1776.494261,-8044.002729
170.797320,4737.318029,-7105.977043,-10878.556072
170.797642,5033.400406,-16062.468941,-14096.157163
170.797963,3552.988522,-23538.548956,-9346.365076
170.798285,5551.544565,-25315.043216,-4213.525239
170.798607,4219.173869,-26425.352129,-6665.030833
170.798929,-444.123565,-25092.981434,-7967.393179
170.799250,-3923.091493,-18949.272115,-1838.629195
170.799572,-4737.318029,-9474.636058,-766.095498
170.799894,-3182.885551,-1924.535449,-2987.772442
170.800216,-1480.411884,148.041188,1225.752797
170.800537,-814.226536,740.205942,8427.050478
170.800859,-1554.432478,-518.144159,11184.994271
170.801181,-888.247130,-518.144159,9806.022374
170.801503,814.226536,-2146.597232,7124.688131
170.801824,1480.411884,-3552.988522,4213.525239
170.802146,-296.082377,-5329.482782,2757.943793
170.802468,-1628.453072,-5477.523971,-2757.943793
170.802790,666.185348,-7698.141797,-8120.612279
170.803111,6587.832884,-5699.585753,-10725.336972
170.803433,9178.553681,-10362.883188,-14632.424012
170.803755,8956.491898,-19911.539840,-13636.499864
170.804077,6513.812290,-26129.269753,-7048.078582
170.804398,3701.029710,-25018.960840,-6052.154434
170.804720,-1332.370696,-23686.590144,-9729.412825
170.805042,-4589.276840,-23612.569550,-7507.735880
170.805364,-8364.327145,-17616.901420,-3524.039291
170.805685,-9992.780217,-6883.915261,-3677.258390
170.806007,-7994.224174,888.247130,0.000000
170.806329,-2442.679609,444.123565,5975.544884
170.806650,-888.247130,-1332.370696,10035.851024
170.806972,-5107.421000,-2368.659014,12257.527968
170.807294,-7402.059420,296.082377,12947.013916
170.807616,-3997.112087,666.185348,5056.230287
170.807937,0.000000,-2960.823768,-2451.505594
170.808259,-1628.453072,-3923.091493,-1762.019645
170.808581,-3627.009116,-1554.432478,-612.876398
170.808903,148.041188,-2368.659014,-5898.935335
170.809224,9474.636058,-9844.739029,-12947.013916
170.809546,12139.377449,-15988.448347,-16241.224558
170.809868,7846.182985,-19763.498651,-11184.994271
170.810190,2590.720797,-23686.590144,-3524.039291
170.810511,-1332.370696,-26721.434506,-3217.601092
170.810833,-4589.276840,-24870.919651,-6511.811733
170.811155,-6217.729913,-18579.169144,-5975.544884
170.811477,-8364.327145,-9104.533087,-2911.162892
170.811798,-8660.409521,-2886.803174,766.095498
170.812120,-5625.565159,-1480.411884,7201.297681
170.812442,-2220.617826,1036.288319,10955.165621
170.812764,444.123565,2294.638420,8273.831378
170.813085,1036.288319,222.061783,6435.202183
170.813407,0.000000,-2812.782580,8580.269578
170.813729,-1998.556043,-3256.906145,8273.831378
170.814051,-1850.514855,-1702.473667,1608.800546
170.814372,814.226536,-3627.009116,-7354.516781
170.814694,4441.235652,-7328.038826,-10265.679673
170.815016,6069.688724,-9474.636058,-8350.440928
170.815338,4589.276840,-13175.665768,-8886.707777
170.815659,4441.235652,-21465.972318,-8733.488677
170.815981,4959.379811,-28719.990550,-7354.516781
170.816303,3478.967927,-26351.331535,-8886.707777
170.816625,-1702.473667,-21836.075289,-8656.879127
170.816946,-5033.400406,-20355.663405,-1762.019645
170.817268,-4515.256246,-15026.180623,3677.258390
170.817590,-3552.988522,-4737.318029,2681.334243
170.817912,-2368.659014,1110.308913,3677.258390
170.818233,222.061783,148.041188,8120.612279
170.818555,1332.370696,-148.041188,9652.803275
170.818877,444.123565,1184.329507,9576.193725
170.819199,-740.205942,1258.350101,9422.974625
170.819520,-370.102971,-3256.906145,9269.755526
170.819842,-1702.473667,-5107.421000,4519.963438
170.820164,-4737.318029,-740.205942,-2757.943793
170.820486,-3775.050304,2220.617826,-8120.612279
170.820807,2072.576638,-2294.638420,-13100.233016
170.821129,4441.235652,-12805.562797,-15398.519510
170.821451,2590.720797,-23760.610738,-10801.946522
170.821773,2442.679609,-27683.702231,-5515.887586
170.822094,1776.494261,-27831.743419,-5975.544884
170.822416,0.000000,-27905.764013,-7737.564530
170.822738,-3034.844362,-22428.240043,-5286.058936
170.823060,-4515.256246,-12435.459826,-3064.381992
170.823381,-4441.235652,-3256.906145,-1378.971896
170.823703,-1924.535449,-370.102971,2757.943793
170.824025,-370.102971,3182.885551,7354.516781
170.824347,-888.247130,3182.885551,8810.098227
170.824668,-1110.308913,74.020594,9806.022374
170.824990,222.061783,-1998.556043,6665.030833
170.825312,1406.391290,-3775.050304,3064.381992
170.825634,0.000000,-6217.729913,4519.963438
170.825955,-2294.638420,-4959.379811,3907.087040
170.826277,-1184.329507,-8290.306550,-5209.449386
170.826599,4071.132681,-8364.327145,-13100.233016
170.826921,7772.162391,-7920.203579,-16317.834107
170.827242,9104.533087,-13767.830521,-15704.957709
170.827564,7846.182985,-25167.002028,-8886.707777
170.827886,5847.626942,-29386.175897,-2834.553343
170.828208,444.123565,-23982.672521,-5745.716235
170.828529,-4071.132681,-21614.013506,-7967.393179
170.828851,-6291.750507,-21095.869347,-4979.620737
170.829173,-9030.512492,-11769.274478,-3217.601092
170.829495,-9178.553681,518.144159,-1991.848295
170.829816,-5033.400406,4293.194464,4826.401637
170.830138,148.041188,0.000000,10648.727422
170.830460,-1850.514855,-1480.411884,12257.527968
170.830782,-6291.750507,592.164754,12487.356617
170.831103,-5033.400406,2146.597232,8120.612279
170.831425,-1258.350101,-2146.597232,-1838.629195
170.831747,-1184.329507,-5773.606348,-3294.210641
170.832068,-3552.988522,-3108.864956,-383.047749
170.832390,-518.144159,-1258.350101,-4213.525239
170.832712,9030.512492,-8364.327145,-11951.089769
170.833034,14063.912898,-15544.324782,-14709.033562
170.833355,11177.109724,-19615.457463,-11184.994271
170.833677,5329.482782,-23686.590144,-4826.401637
170.833999,222.061783,-26499.372724,-1991.848295
170.834321,-3034.844362,-24648.857869,-4673.182538
170.834642,-4885.359217,-17690.922014,-6128.763984
170.834964,-6957.935855,-9178.553681,-4443.353888
170.835286,-8808.450710,-2664.741391,-612.876398
170.835608,-6883.915261,-1406.391290,5822.325785
170.835929,-3923.091493,-296.082377,10955.165621
170.836251,-1406.391290,1110.308913,9882.631924
170.836573,-370.102971,444.123565,4903.011187
170.836895,296.082377,-3182.885551,5745.716235
170.837216,-666.185348,-3701.029710,7354.516781
170.837538,-1554.432478,-2738.761985,2834.553343
170.837860,-888.247130,-4071.132681,-4903.011187
170.838182,2294.638420,-7920.203579,-9269.755526
170.838503,5255.462188,-11251.130318,-9959.241474
170.838825,4959.379811,-13249.686362,-11031.775171
170.839147,4811.338623,-20429.683999,-10265.679673
170.839469,6069.688724,-28794.011144,-6665.030833
170.839790,4811.338623,-26129.269753,-6588.421283
170.840112,-814.226536,-20651.745782,-7660.954980
170.840434,-4737.318029,-19393.395680,-3907.087040
170.840756,-5255.462188,-15766.386565,1455.581446
170.841077,-6069.688724,-6291.750507,1302.362347
170.841399,-5995.668130,666.185348,2681.334243
170.841721,-2590.720797,0.000000,7584.345430
170.842043,148.041188,-2368.659014,9576.193725
170.842364,-592.164754,444.123565,9499.584175
170.842686,-1036.288319,962.267725,9422.974625
170.843008,1258.350101,-3552.988522,8810.098227
170.843330,148.041188,-4737.318029,4290.134789
170.843651,-5477.523971,370.102971,0.000000
170.843973,-5921.647536,3627.009116,-5209.449386
170.844295,518.144159,-2368.659014,-13023.623466
170.844617,4145.153275,-12213.398043,-17850.025103
170.844938,2368.659014,-20873.807564,-12334.137518
170.845260,1184.329507,-26573.393318,-4060.306139
170.845582,518.144159,-26869.475695,-3524.039291
170.845904,-444.123565,-26795.455100,-7048.078582
170.846225,-2664.741391,-22280.198854,-6052.154434
170.846547,-4219.173869,-13693.809927,-3753.867940
170.846869,-5181.441594,-4885.359217,-2681.334243
170.847191,-2590.720797,-888.247130,2068.457845
170.847512,-222.061783,2368.659014,7201.297681
170.847834,0.000000,3256.906145,8810.098227
170.848156,-148.041188,222.061783,9193.145976
170.848478,1332.370696,-2516.700203,7660.954980
170.848799,2146.597232,-3627.009116,4749.792088
170.849121,962.267725,-4959.379811,4519.963438
170.849443,-592.164754,-5329.482782,3753.867940
170.849765,-222.061783,-8142.265362,-4060.306139
170.850086,3256.906145,-6365.771101,-10342.289223
170.850408,7624.121203,-5181.441594,-15398.519510
170.850730,9474.636058,-13027.624579,-15551.738609
170.851052,8586.388927,-25463.084405,-9882.631924
170.851373,5921.647536,-29016.072926,-4136.915689
170.851695,1036.288319,-26055.249158,-5362.668486
170.852017,-3923.091493,-23686.590144,-6588.421283
170.852339,-6217.729913,-22428.240043,-4443.353888
170.852660,-8216.285956,-11843.295072,-4519.963438
170.852982,-8068.244768,592.164754,-3983.696590
170.853304,-4145.153275,3330.926739,4290.134789
170.853626,-370.102971,-518.144159,11491.432470
170.853947,-2072.576638,-1628.453072,13023.623466
170.854269,-5477.523971,-370.102971,12334.137518
170.854591,-3997.112087,518.144159,6894.859482
170.854913,-444.123565,-2146.597232,-1072.533697
170.855234,-444.123565,-3997.112087,-2528.115143
170.855556,-4145.153275,-2294.638420,0.000000
170.855878,-1850.514855,-1776.494261,-3370.820191
170.856200,6735.874072,-6957.935855,-11031.775171
170.856521,12435.459826,-13989.892304,-16241.224558
170.856843,10436.903782,-20947.828159,-12793.794817
170.857165,6661.853478,-26055.249158,-4749.792088
170.857487,1480.411884,-26499.372724,-1838.629195
170.857808,-1924.535449,-24278.754898,-4443.353888
170.858130,-3552.988522,-19467.416275,-5209.449386
170.858452,-6439.791695,-11621.233289,-4290.134789
170.858774,-8068.244768,-2368.659014,-2604.724693
170.859096,-7179.997637,74.020594,3907.087040
170.859418,-3923.091493,-370.102971,10572.117872
170.859740,-1776.494261,0.000000,10418.898773
170.860062,-1184.329507,1036.288319,6358.592633
170.860383,-666.185348,-2590.720797,5592.497135
170.860705,-592.164754,-4293.194464,8044.002729
170.861027,-1184.329507,-2590.720797,3753.867940
170.861349,-1184.329507,-1850.514855,-4213.525239
170.861671,740.205942,-6143.709319,-8886.707777
170.861993,4293.194464,-9474.636058,-9269.755526
170.862315,4885.359217,-11843.295072,-11491.432470
170.862637,4959.379811,-20577.725188,-11261.603821
170.862959,4515.256246,-29756.278868,-6358.592633
170.863280,3182.885551,-27387.619854,-4826.401637
170.863602,-2368.659014,-21317.931130,-7660.954980
170.863924,-5847.626942,-19763.498651,-4290.134789
170.864246,-5625.565159,-16062.468941,153.219100
170.864568,-6291.750507,-4737.318029,0.000000
170.864890,-6439.791695,1480.411884,2145.067394
170.865212,-3627.009116,-222.061783,9269.755526
170.865534,-888.247130,-2516.700203,12027.699319
170.865856,-1110.308913,444.123565,8120.612279
170.866177,-1110.308913,444.123565,7124.688131
170.866499,-148.041188,-3256.906145,7814.174080
170.866821,0.000000,-4293.194464,5439.278036
170.867143,-3478.967927,0.000000,-1378.971896
170.867465,-3552.988522,1036.288319,-6128.763984
170.867787,2886.803174,-1850.514855,-10648.727422
170.868109,6365.771101,-11177.109724,-15704.957709
170.868431,4737.318029,-22650.301825,-13100.233016
170.868753,3552.988522,-25611.125593,-6052.154434
170.869074,3404.947333,-26351.331535,-5132.839837
170.869396,518.144159,-27461.640448,-6971.469032
170.869718,-3404.947333,-23760.610738,-3907.087040
170.870040,-5921.647536,-13619.789333,-2451.505594
170.870362,-6291.750507,-3256.906145,-4213.525239
170.870684,-2812.782580,0.000000,0.000000
170.871006,-444.123565,1554.432478,7201.297681
170.871328,-740.205942,1924.535449,9959.241474
170.871650,-666.185348,-444.123565,10801.946522
170.871971,1110.308913,-3108.864956,8810.098227
170.872293,2812.782580,-3552.988522,4060.306139
170.872615,2442.679609,-3997.112087,2604.724693
170.872937,0.000000,-4737.318029,1225.752797
170.873259,-296.082377,-6809.894666,-4519.963438
170.873581,3478.967927,-7920.203579,-9806.022374
170.873903,7994.224174,-8068.244768,-14632.424012
170.874225,9696.697840,-14656.077652,-15628.348159
170.874547,7846.182985,-26055.249158,-9499.584175
170.874868,4885.359217,-28423.908173,-3677.258390
170.875190,592.164754,-23686.590144,-5822.325785
170.875512,-2886.803174,-21539.992912,-7967.393179
170.875834,-4737.318029,-20577.725188,-4826.401637
170.876156,-8068.244768,-11399.171507,-3217.601092
170.876478,-9474.636058,-592.164754,-1072.533697
170.876800,-5329.482782,2220.617826,4673.182538
170.877122,74.020594,-1110.308913,9346.365076
170.877444,-962.267725,-1628.453072,10878.556072
170.877765,-4145.153275,222.061783,12257.527968
170.878087,-3108.864956,962.267725,8886.707777
170.878409,296.082377,-2812.782580,1532.190996
170.878731,-666.185348,-4219.173869,-1225.752797
170.879053,-3256.906145,-1998.556043,-2451.505594
170.879375,-666.185348,-1628.453072,-6281.983084
170.879697,7476.080014,-5921.647536,-11874.480219
170.880019,11547.212695,-14359.995275,-14019.547613
170.880341,8512.368333,-21910.095883,-9576.193725
170.880662,4145.153275,-24352.775492,-3600.648841
170.880984,-518.144159,-24204.734303,-4060.306139
170.881306,-4441.235652,-23686.590144,-6818.249932
170.881628,-6735.874072,-19689.478057,-5669.106685
170.881950,-8512.368333,-9474.636058,-3830.477490
170.882272,-9400.615463,-1184.329507,-1838.629195
170.882594,-6365.771101,-888.247130,5745.716235
170.882916,-2960.823768,-962.267725,11568.042020
170.883238,-1924.535449,0.000000,9652.803275
170.883559,-1406.391290,74.020594,5975.544884
170.883881,296.082377,-2738.761985,5286.058936
170.884203,962.267725,-3701.029710,5669.106685
170.884525,-222.061783,-2886.803174,3447.429741
170.884847,-666.185348,-3478.967927,-1991.848295
170.885169,666.185348,-7698.141797,-7507.735880
170.885491,5329.482782,-9178.553681,-9576.193725
170.885813,5773.606348,-12435.459826,-13176.842566
170.886135,5625.565159,-21688.034101,-12334.137518
170.886456,5255.462188,-29608.237680,-5745.716235
170.886778,3701.029710,-25315.043216,-3907.087040
170.887100,-1850.514855,-20725.766376,-7124.688131
170.887422,-4589.276840,-20503.704593,-4060.306139
170.887744,-5699.585753,-15988.448347,153.219100
170.888066,-7402.059420,-4959.379811,-1072.533697
170.888388,-6883.915261,518.144159,1991.848295
170.888710,-2220.617826,-1776.494261,9269.755526
170.889032,296.082377,-1998.556043,10878.556072
170.889353,222.061783,2220.617826,9269.755526
170.889675,-814.226536,222.061783,8580.269578
170.889997,-592.164754,-4515.256246,8580.269578
170.890319,-962.267725,-4441.235652,4903.011187
170.890641,-3256.906145,222.061783,-4136.915689
170.890963,-3330.926739,-888.247130,-8886.707777
170.891285,2812.782580,-2590.720797,-9346.365076
170.891607,4737.318029,-9548.656652,-12947.013916
170.891929,4515.256246,-21021.848753,-11644.651570
170.892250,4367.215058,-26647.413912,-5745.716235
170.892572,4737.318029,-26203.290347,-6128.763984
170.892894,962.267725,-24722.878463,-9116.536426
170.893216,-2812.782580,-22428.240043,-3830.477490
170.893538,-4811.338623,-14730.098246,689.485948
170.893860,-5255.462188,-4145.153275,-995.924147
170.894182,-3330.926739,1554.432478,536.266849
170.894504,-814.226536,1628.453072,6281.983084
170.894826,-888.247130,1184.329507,8580.269578
170.895147,-592.164754,814.226536,8886.707777
170.895469,-296.082377,-814.226536,8580.269578
170.895791,1258.350101,-2960.823768,6741.640382
170.896113,1628.453072,-5255.462188,4903.011187
170.896435,222.061783,-5181.441594,383.047749
170.896757,-296.082377,-7402.059420,-7048.078582
170.897079,2960.823768,-6661.853478,-9806.022374
170.897401,7254.018232,-7920.203579,-12487.356617
170.897723,8216.285956,-15914.427753,-14479.204912
170.898044,6513.812290,-25981.228564,-10035.851024
170.898366,4367.215058,-27017.516883,-5822.325785
170.898688,444.123565,-23686.590144,-8503.660028
170.899010,-3108.864956,-22724.322419,-8886.707777
170.899332,-5921.647536,-20651.745782,-3677.258390
170.899654,-8660.409521,-11029.068536,-2221.676944
170.899976,-8586.388927,-1480.411884,-1302.362347
170.900298,-4441.235652,1480.411884,4060.306139
170.900620,-666.185348,-1036.288319,8810.098227
170.900941,-2220.617826,-1480.411884,10725.336972
170.901263,-5033.400406,370.102971,11721.261119
170.901585,-3849.070898,814.226536,8580.269578
170.901907,-370.102971,-2886.803174,2374.896044
170.902229,-1110.308913,-4737.318029,0.000000
170.902551,-3627.009116,-3034.844362,-1915.238745
170.902873,-444.123565,-1628.453072,-6128.763984
170.903195,7550.100608,-5255.462188,-11338.213370
170.903516,10807.006753,-13101.645173,-14096.157163
170.903838,7994.224174,-20133.601622,-10265.679673
170.904160,4367.215058,-24870.919651,-4826.401637
170.904482,0.000000,-25463.084405,-5286.058936
170.904804,-3997.112087,-25315.043216,-7354.516781
170.905126,-6143.709319,-21317.931130,-4903.011187
170.905448,-8364.327145,-11547.212695,-2374.896044
170.905770,-9030.512492,-2516.700203,-995.924147
170.906092,-6069.688724,-814.226536,4290.134789
170.906413,-1924.535449,-962.267725,10112.460574
170.906735,-592.164754,962.267725,9652.803275
170.907057,-1110.308913,740.205942,7048.078582
170.907379,0.000000,-1850.514855,7660.954980
170.907701,222.061783,-2368.659014,5975.544884
170.908023,0.000000,-2960.823768,2145.067394
170.908345,74.020594,-4219.173869,-2757.943793
170.908667,2294.638420,-8068.244768,-7890.783629
170.908989,5995.668130,-10362.883188,-9193.145976
170.909310,7476.080014,-12213.398043,-10495.508323
170.909632,6365.771101,-19023.292709,-10572.117872
170.909954,5107.421000,-27313.599260,-7124.688131
170.910276,2664.741391,-25611.125593,-5975.544884
170.910598,-2220.617826,-21317.931130,-7814.174080
170.910920,-5255.462188,-19541.436869,-4749.792088
170.911242,-6217.729913,-16580.613101,612.876398
170.911564,-7254.018232,-7105.977043,1838.629195
170.911886,-6439.791695,0.000000,2528.115143
170.912207,-1924.535449,0.000000,7124.688131
170.912529,1554.432478,-1332.370696,9882.631924
170.912851,1110.308913,2220.617826,9422.974625
170.913173,-1258.350101,1406.391290,9806.022374
170.913495,-2294.638420,-1702.473667,10418.898773
170.913817,-1998.556043,-3478.967927,4366.744339
170.914139,-2516.700203,-1480.411884,-5209.449386
170.914461,-2294.638420,-1258.350101,-10495.508323
170.914783,3108.864956,-2960.823768,-10342.289223
170.915104,5699.585753,-10436.903782,-11261.603821
170.915426,5181.441594,-21021.848753,-8733.488677
170.915748,3849.070898,-26351.331535,-5286.058936
170.916070,3923.091493,-23908.651927,-7354.516781
170.916392,222.061783,-24056.693115,-12180.918418
170.916714,-2812.782580,-23686.590144,-6511.811733
170.917036,-5551.544565,-15766.386565,536.266849
170.917358,-6069.688724,-4589.276840,536.266849
170.917680,-3034.844362,518.144159,1915.238745
170.918001,666.185348,444.123565,5745.716235
170.918323,-370.102971,-222.061783,8044.002729
170.918645,-2368.659014,-740.205942,9269.755526
170.918967,-1702.473667,-370.102971,9193.145976
170.919289,1258.350101,-1258.350101,5515.887586
170.919611,1480.411884,-4367.215058,2451.505594
170.919933,-148.041188,-6291.750507,1302.362347
170.920255,-1110.308913,-7254.018232,-5975.544884
170.920577,2960.823768,-8364.327145,-11414.822920
170.920898,8512.368333,-10362.883188,-13100.233016
170.921220,9400.615463,-16580.613101,-13100.233016
170.921542,6661.853478,-24796.899057,-9346.365076
170.921864,3923.091493,-25389.063811,-5745.716235
170.922186,814.226536,-23168.445985,-8427.050478
170.922508,-3182.885551,-22872.363608,-9422.974625
170.922830,-6735.874072,-20059.581028,-4443.353888
170.923152,-9770.718434,-10807.006753,-1072.533697
170.923474,-8956.491898,-2516.700203,-229.828649
170.923795,-4589.276840,0.000000,5132.839837
170.924117,0.000000,-1110.308913,8963.317327
170.924439,-1406.391290,-444.123565,10418.898773
170.924761,-3923.091493,1332.370696,12487.356617
170.925083,-3775.050304,1184.329507,10418.898773
170.925405,-2072.576638,-2294.638420,3140.991542
170.925727,-1480.411884,-4071.132681,-1149.143247
170.926049,-2072.576638,-3034.844362,-4366.744339
170.926371,1258.350101,-1924.535449,-7048.078582
170.926692,7698.141797,-5403.503377,-10342.289223
170.927014,10658.965565,-13323.706956,-12257.527968
170.927336,8438.347739,-20725.766376,-9346.365076
170.927658,4737.318029,-23390.507767,-5056.230287
170.927980,-222.061783,-23686.590144,-6894.859482
170.928302,-4367.215058,-24130.713709,-8810.098227
170.928624,-6883.915261,-20429.683999,-4979.620737
170.928946,-8068.244768,-10658.965565,-2451.505594
170.929268,-8438.347739,-2442.679609,-1225.752797
170.929589,-5329.482782,-1554.432478,5439.278036
170.929911,-2220.617826,-2220.617826,10418.898773
170.930233,-1110.308913,222.061783,8656.879127
170.930555,-1998.556043,-518.144159,6281.983084
170.930877,148.041188,-1036.288319,7507.735880
170.931199,1110.308913,-666.185348,5669.106685
170.931521,592.164754,-2812.782580,2451.505594
170.931843,666.185348,-4885.359217,-1915.238745
170.932165,2516.700203,-8660.409521,-7737.564530
170.932486,6143.709319,-10955.047942,-9729.412825
170.932808,8216.285956,-12879.583391,-10572.117872
170.933130,7031.956449,-18801.230927,-10189.070123
170.933452,5847.626942,-26351.331535,-7354.516781
170.933774,3256.906145,-24722.878463,-5975.544884
170.934096,-962.267725,-21910.095883,-8120.612279
170.934418,-5403.503377,-20873.807564,-5592.497135
170.934740,-7254.018232,-16654.633695,383.047749
170.935062,-8364.327145,-7476.080014,1225.752797
170.935383,-6365.771101,-1258.350101,2145.067394
170.935705,-2368.659014,-888.247130,7201.297681
170.936027,592.164754,-1258.350101,10189.070123
170.936349,0.000000,3108.864956,9806.022374
170.936671,-1184.329507,1036.288319,9422.974625
170.936993,-2146.597232,-2368.659014,10112.460574
170.937315,-2516.700203,-3701.029710,5056.230287
170.937637,-3182.885551,-814.226536,-4519.963438
170.937959,-2220.617826,-1628.453072,-10495.508323
170.938280,3478.967927,-4219.173869,-10801.946522
170.938602,5699.585753,-10584.944971,-11108.384721
170.938924,5181.441594,-20133.601622,-8733.488677
170.939246,3775.050304,-25907.207970,-5209.449386
170.939568,4145.153275,-24056.693115,-6818.249932
170.939890,666.185348,-23686.590144,-11261.603821
170.940212,-3034.844362,-22428.240043,-7277.907231
170.940534,-4885.359217,-16876.695478,842.705048
170.940856,-5847.626942,-5995.668130,1455.581446
170.941177,-3775.050304,222.061783,2298.286494
170.941499,-740.205942,1554.432478,5669.106685
170.941821,-444.123565,1184.329507,7584.345430
170.942143,-1480.411884,592.164754,8733.488677
170.942465,-1850.514855,148.041188,8503.660028
170.942787,0.000000,-1036.288319,7201.297681
170.943109,888.247130,-3552.988522,4903.011187
170.943431,0.000000,-5995.668130,995.924147
170.943753,0.000000,-8068.244768,-6971.469032
170.944074,2812.782580,-7698.141797,-11338.213370
170.944396,7179.997637,-9104.533087,-12487.356617
170.944718,8956.491898,-16580.613101,-13253.452115
170.945040,6291.750507,-24130.713709,-10112.460574
170.945362,3849.070898,-24056.693115,-6588.421283
170.945684,518.144159,-22502.260637,-9269.755526
170.946006,-2516.700203,-23464.528361,-9959.241474
170.946328,-5921.647536,-21391.951724,-4596.572988
170.946650,-9252.574275,-11917.315666,-1455.581446
170.946971,-8290.306550,-2960.823768,229.828649
170.947293,-3478.967927,0.000000,4903.011187
170.947615,444.123565,-1554.432478,8120.612279
170.947937,-1850.514855,-740.205942,10112.460574
170.948259,-4737.318029,1406.391290,12257.527968
170.948581,-3849.070898,1702.473667,9729.412825
170.948903,-1332.370696,-1850.514855,3217.601092
170.949225,-1258.350101,-3997.112087,383.047749
170.949546,-2368.659014,-2960.823768,-2681.334243
170.949868,740.205942,-3404.947333,-6665.030833
170.950190,7846.182985,-5847.626942,-9729.412825
170.950512,10955.047942,-12953.603985,-12410.747068
170.950834,8808.450710,-20281.642811,-10418.898773
170.951156,4959.379811,-22724.322419,-6128.763984
170.951478,888.247130,-23686.590144,-7048.078582
170.951800,-3256.906145,-24426.796086,-9806.022374
170.952122,-5921.647536,-22132.157666,-5975.544884
170.952443,-8068.244768,-13397.727550,-1608.800546
170.952765,-9030.512492,-4589.276840,-459.657299
170.953087,-6365.771101,-2368.659014,4596.572988
170.953409,-2294.638420,-2368.659014,9806.022374
170.953731,-666.185348,592.164754,8963.317327
170.954053,-1036.288319,1406.391290,6894.859482
170.954375,592.164754,370.102971,8503.660028
170.954697,1332.370696,0.000000,7507.735880
170.955019,518.144159,-2220.617826,4213.525239
170.955340,-666.185348,-4515.256246,-536.266849
170.955662,1110.308913,-8068.244768,-7354.516781
170.955984,4885.359217,-10732.986159,-10265.679673
170.956306,6735.874072,-12509.480420,-11031.775171
170.956628,5329.482782,-17394.839637,-10801.946522
170.956950,4367.215058,-25685.146187,-7660.954980
170.957272,2368.659014,-25537.104999,-5975.544884
170.957594,-1776.494261,-21910.095883,-8503.660028
170.957916,-6069.688724,-20059.581028,-7048.078582
170.958238,-7328.038826,-18209.066173,-1149.143247
170.958560,-8660.409521,-9992.780217,2068.457845
170.958881,-7328.038826,-2368.659014,2911.162892
170.959203,-2590.720797,-592.164754,7124.688131
170.959525,1776.494261,-518.144159,10112.460574
170.959847,2368.659014,2368.659014,10189.070123
170.960169,740.205942,2368.659014,8963.317327
170.960491,-740.205942,-592.164754,9729.412825
170.960813,-1998.556043,-2146.597232,8197.221829
170.961135,-3627.009116,-592.164754,0.000000
170.961457,-2590.720797,-740.205942,-10035.851024
170.961779,1332.370696,-3330.926739,-12947.013916
170.962101,4811.338623,-8512.368333,-13559.890315
170.962423,3775.050304,-18653.189738,-10342.289223
170.962745,1480.411884,-27535.661042,-5056.230287
170.963066,1998.556043,-26351.331535,-5286.058936
170.963388,666.185348,-23834.631332,-12104.308868
170.963710,-1776.494261,-24204.734303,-11414.822920
170.964032,-3552.988522,-19911.539840,-2987.772442
170.964354,-4663.297435,-8956.491898,1685.410096
170.964676,-2368.659014,148.041188,3524.039291
170.964998,1258.350101,1850.514855,6511.811733
170.965320,2442.679609,1258.350101,7660.954980
170.965642,444.123565,0.000000,8273.831378
170.965964,-222.061783,444.123565,8733.488677
170.966286,740.205942,74.020594,7124.688131
170.966608,1332.370696,-2664.741391,5362.668486
170.966930,-814.226536,-5033.400406,4903.011187
170.967252,-1480.411884,-6809.894666,-2145.067394
170.967573,1554.432478,-9104.533087,-13330.061665
170.967895,5995.668130,-10140.821405,-16624.272307
170.968217,6957.935855,-13101.645173,-13406.671215
170.968539,4737.318029,-21317.931130,-9422.974625
170.968861,1628.453072,-27979.784608,-6665.030833
170.969183,-148.041188,-25907.207970,-7967.393179
170.969505,-2368.659014,-23464.528361,-11721.261119
170.969827,-4737.318029,-21688.034101,-8733.488677
170.970149,-7328.038826,-15692.365970,-1838.629195
170.970471,-6735.874072,-6587.832884,2068.457845
170.970793,-3478.967927,1036.288319,5515.887586
170.971115,1480.411884,1406.391290,9039.926876
170.971437,2072.576638,0.000000,10112.460574
170.971759,-2220.617826,1554.432478,11108.384721
170.972080,-4367.215058,3923.091493,10112.460574
170.972402,-3627.009116,1184.329507,4749.792088
170.972724,-2590.720797,-3997.112087,1532.190996
170.973046,-2072.576638,-4145.153275,229.828649
170.973368,74.020594,-3034.844362,-7201.297681
170.973690,5699.585753,-4589.276840,-12640.575717
170.974012,9992.780217,-9918.759623,-10572.117872
170.974334,8734.430116,-16876.695478,-8733.488677
170.974656,3849.070898,-25537.104999,-7354.516781
170.974978,-296.082377,-26721.434506,-6665.030833
170.975300,-4071.132681,-25092.981434,-8350.440928
170.975622,-6217.729913,-23094.425390,-7814.174080
170.975944,-6957.935855,-15544.324782,-1532.190996
170.976265,-7105.977043,-3775.050304,842.705048
170.976587,-5403.503377,1258.350101,3294.210641
170.976909,-1850.514855,-962.267725,10265.679673
170.977231,-296.082377,-444.123565,11951.089769
170.977553,-2368.659014,1554.432478,7431.126331
170.977875,-2664.741391,2368.659014,7354.516781
170.978197,-1110.308913,1332.370696,6281.983084
170.978519,-444.123565,-2368.659014,2528.115143
170.978841,-1776.494261,-4811.338623,689.485948
170.979163,296.082377,-5107.421000,-4979.620737
170.979485,4367.215058,-11473.192101,-10725.336972
170.979807,7550.100608,-16506.592507,-12180.918418
170.980129,5921.647536,-19319.375086,-10801.946522
170.980451,3256.906145,-23982.672521,-8580.269578
170.980772,1406.391290,-26869.475695,-7507.735880
170.981094,518.144159,-24130.713709,-8656.879127
170.981416,-2738.761985,-20503.704593,-9193.145976
170.981738,-5995.668130,-18357.107362,-2911.162892
170.982060,-7254.018232,-12657.521608,4213.525239
170.982382,-5995.668130,-3923.091493,5132.839837
170.982704,-2146.597232,814.226536,6665.030833
170.983026,2294.638420,1036.288319,9652.803275
170.983348,3478.967927,3330.926739,9346.365076
170.983670,444.123565,3108.864956,9652.803275
170.983992,-2516.700203,1480.411884,12793.794817
170.984314,-4737.318029,-1184.329507,9729.412825
170.984636,-4219.173869,-3330.926739,-1915.238745
170.984958,-2072.576638,-4441.235652,-12027.699319
170.985279,1998.556043,-3923.091493,-13483.280765
170.985601,5995.668130,-7105.977043,-12180.918418
170.985923,6365.771101,-17320.819043,-9193.145976
170.986245,3627.009116,-26573.393318,-5515.887586
170.986567,2294.638420,-25759.166782,-6741.640382
170.986889,-518.144159,-23686.590144,-12793.794817
170.987211,-3404.947333,-24796.899057,-12104.308868
170.987533,-4811.338623,-20059.581028,-4673.182538
170.987855,-5107.421000,-9400.615463,689.485948
170.988177,-2960.823768,-518.144159,4596.572988
170.988499,518.144159,1036.288319,8656.879127
170.988821,2516.700203,962.267725,8963.317327
170.989143,0.000000,1258.350101,8580.269578
170.989464,-1628.453072,2516.700203,9346.365076
170.989786,-518.144159,2960.823768,7431.126331
170.990108,370.102971,-962.267725,3830.477490
170.990430,-592.164754,-5699.585753,3830.477490
170.990752,-296.082377,-6365.771101,-995.924147
170.991074,2812.782580,-9770.718434,-10955.165621
170.991396,7328.038826,-11991.336260,-14709.033562
170.991718,9252.574275,-14582.057057,-13253.452115
170.992040,7328.038826,-20281.642811,-11184.994271
170.992362,3552.988522,-25537.104999,-7967.393179
170.992684,888.247130,-24574.837274,-7354.516781
170.993006,-2072.576638,-22946.384202,-11568.042020
170.993328,-5403.503377,-21910.095883,-9729.412825
170.993650,-9252.574275,-17024.736666,-2374.896044
170.993971,-9326.594869,-7994.224174,1225.752797
170.994293,-4811.338623,0.000000,3983.696590
170.994615,296.082377,296.082377,7967.393179
170.994937,296.082377,-370.102971,10265.679673
170.995259,-3997.112087,1480.411884,12870.404366
170.995581,-5773.606348,5255.462188,11568.042020
170.995903,-3775.050304,3330.926739,3677.258390
170.996225,-1628.453072,-4071.132681,-536.266849
170.996547,-2146.597232,-4515.256246,-459.657299
170.996869,-1036.288319,-4293.194464,-5745.716235
170.997191,5181.441594,-6735.874072,-9959.241474
170.997513,11251.130318,-11843.295072,-10112.460574
170.997835,9770.718434,-17024.736666,-10112.460574
170.998157,4663.297435,-22946.384202,-8733.488677
170.998478,444.123565,-25241.022622,-6818.249932
170.998800,-2812.782580,-25315.043216,-9499.584175
170.999122,-4959.379811,-22132.157666,-9039.926876
170.999444,-5699.585753,-16432.571912,-2221.676944
170.999766,-6217.729913,-6217.729913,1685.410096
171.000088,-6217.729913,-1480.411884,4596.572988
171.000410,-2812.782580,-2072.576638,9882.631924
171.000732,-666.185348,0.000000,11108.384721
171.001054,-1998.556043,3182.885551,6665.030833
171.001376,-1998.556043,3182.885551,6971.469032
171.001698,-1406.391290,1850.514855,8044.002729
171.002020,-444.123565,-1776.494261,5439.278036
171.002342,-814.226536,-4219.173869,459.657299
171.002663,1702.473667,-6735.874072,-6665.030833
171.002985,5181.441594,-12583.501014,-9806.022374
171.003307,7698.141797,-16136.489536,-10648.727422
171.003629,5033.400406,-17320.819043,-9806.022374
171.003951,2664.741391,-22502.260637,-8580.269578
171.004273,2220.617826,-25833.187376,-7584.345430
171.004595,370.102971,-23168.445985,-9729.412825
171.004917,-3182.885551,-20281.642811,-9806.022374
171.005239,-6069.688724,-19097.313304,-2451.505594
171.005561,-5921.647536,-13841.851115,4596.572988
171.005883,-4811.338623,-4737.318029,5515.887586
171.006205,-1998.556043,592.164754,6818.249932
171.006527,1924.535449,814.226536,9729.412825
171.006849,2812.782580,3404.947333,9499.584175
171.007170,0.000000,3256.906145,8733.488677
171.007492,-3108.864956,1480.411884,11874.480219
171.007814,-3849.070898,-592.164754,10189.070123
171.008136,-2960.823768,-3256.906145,-383.047749
171.008458,-1110.308913,-3997.112087,-10265.679673
171.008780,2146.597232,-3701.029710,-11951.089769
171.009102,5255.462188,-6957.935855,-10648.727422
171.009424,4663.297435,-17246.798449,-9882.631924
171.009746,2072.576638,-25833.187376,-6588.421283
171.010068,1258.350101,-25833.187376,-7584.345430
171.010390,0.000000,-23834.631332,-13559.890315
171.010712,-2146.597232,-24204.734303,-12947.013916
171.011034,-3478.967927,-20503.704593,-4903.011187
171.011356,-3923.091493,-10732.986159,1762.019645
171.011677,-2294.638420,-2072.576638,4979.620737
171.011999,518.144159,740.205942,7201.297681
171.012321,1776.494261,518.144159,7890.783629
171.012643,-296.082377,666.185348,7354.516781
171.012965,-2442.679609,2368.659014,8273.831378
171.013287,-814.226536,3256.906145,7201.297681
171.013609,1480.411884,-666.185348,3983.696590
171.013931,592.164754,-6143.709319,3217.601092
171.014253,-296.082377,-7179.997637,0.000000
171.014575,2072.576638,-10288.862594,-9576.193725
171.014897,6661.853478,-13027.624579,-14862.252661
171.015219,9400.615463,-14582.057057,-13789.718964
171.015541,6809.894666,-18061.024985,-11797.870669
171.015862,3627.009116,-24056.693115,-8427.050478
171.016184,1110.308913,-24870.919651,-7277.907231
171.016506,-1554.432478,-23686.590144,-11338.213370
171.016828,-5033.400406,-21688.034101,-10418.898773
171.017150,-8956.491898,-18431.127956,-3600.648841
171.017472,-10140.821405,-9622.677246,689.485948
171.017794,-7105.977043,-1184.329507,3447.429741
171.018116,-1702.473667,1332.370696,7277.907231
171.018438,-444.123565,666.185348,8963.317327
171.018760,-3775.050304,1554.432478,11108.384721
171.019082,-6069.688724,4737.318029,12487.356617
171.019404,-4515.256246,4293.194464,5592.497135
171.019726,-1628.453072,-3182.885551,-536.266849
171.020048,-814.226536,-5403.503377,-842.705048
171.020369,-592.164754,-4663.297435,-4826.401637
171.020691,3997.112087,-6809.894666,-9193.145976
171.021013,10584.944971,-10955.047942,-9729.412825
171.021335,10288.862594,-16358.551318,-10342.289223
171.021657,5181.441594,-22428.240043,-9116.536426
171.021979,592.164754,-24870.919651,-6741.640382
171.022301,-2072.576638,-24796.899057,-8656.879127
171.022623,-5255.462188,-21614.013506,-8427.050478
171.022945,-5995.668130,-16950.716072,-2068.457845
171.023267,-7254.018232,-7031.956449,2374.896044
171.023589,-7254.018232,-1184.329507,4060.306139
171.023911,-3849.070898,-1850.514855,9116.536426
171.024233,-814.226536,-962.267725,10418.898773
171.024555,-1628.453072,2146.597232,6818.249932
171.024876,-1776.494261,3034.844362,7124.688131
171.025198,-296.082377,1776.494261,8350.440928
171.025520,962.267725,-2072.576638,5822.325785
171.025842,148.041188,-4145.153275,1991.848295
171.026164,1850.514855,-5773.606348,-5515.887586
171.026486,5329.482782,-11843.295072,-11414.822920
171.026808,7772.162391,-16136.489536,-11797.870669
171.027130,5255.462188,-17912.983796,-9193.145976
171.027452,2442.679609,-22502.260637,-7124.688131
171.027774,2294.638420,-25463.084405,-7124.688131
171.028096,1554.432478,-24426.796086,-9806.022374
171.028418,-2146.597232,-21243.910535,-10035.851024
171.028740,-5551.544565,-19023.292709,-2834.553343
171.029062,-5551.544565,-13249.686362,4826.401637
171.029383,-4293.194464,-4959.379811,5056.230287
171.029705,-1924.535449,0.000000,6665.030833
171.030027,1184.329507,1258.350101,9499.584175
171.030349,2590.720797,2590.720797,8503.660028
171.030671,518.144159,1554.432478,8350.440928
171.030993,-2738.761985,0.000000,11184.994271
171.031315,-4367.215058,-1184.329507,10572.117872
171.031637,-3330.926739,-2146.597232,919.314598
171.031959,-962.267725,-3478.967927,-9422.974625
171.032281,1998.556043,-3701.029710,-12947.013916
171.032603,4441.235652,-6883.915261,-11414.822920
171.032925,3701.029710,-16062.468941,-8886.707777
171.033247,1036.288319,-24944.940245,-5975.544884
171.033568,444.123565,-26351.331535,-6894.859482
171.033890,-148.041188,-23686.590144,-12793.794817
171.034212,-1480.411884,-23538.548956,-13483.280765
171.034534,-2960.823768,-20281.642811,-5975.544884
171.034856,-3997.112087,-12065.356855,2145.067394
171.035178,-2738.761985,-2516.700203,5822.325785
171.035500,-296.082377,1332.370696,6741.640382
171.035822,1332.370696,1628.453072,7048.078582
171.036144,0.000000,1110.308913,7354.516781
171.036466,-2886.803174,1554.432478,8197.221829
171.036788,-2738.761985,2590.720797,8350.440928
171.037110,0.000000,0.000000,6205.373534
171.037432,74.020594,-3923.091493,4290.134789
171.037754,-740.205942,-6217.729913,0.000000
171.038075,1628.453072,-9474.636058,-9652.803275
171.038397,5477.523971,-10807.006753,-14709.033562
171.038719,8586.388927,-13397.727550,-14249.376263
171.039041,7105.977043,-18505.148550,-11568.042020
171.039363,3923.091493,-24500.816680,-8503.660028
171.039685,1184.329507,-25092.981434,-8044.002729
171.040007,-1036.288319,-24500.816680,-12104.308868
171.040329,-3404.947333,-22946.384202,-11491.432470
171.040651,-7402.059420,-19467.416275,-4290.134789
171.040973,-8808.450710,-10436.903782,1072.533697
171.041295,-5995.668130,-962.267725,3907.087040
171.041617,74.020594,1184.329507,6128.763984
171.041939,1480.411884,-1184.329507,8427.050478
171.042261,-3627.009116,-518.144159,12257.527968
171.042582,-7550.100608,5181.441594,13636.499864
171.042904,-6069.688724,5477.523971,4366.744339
171.043226,-1776.494261,-2368.659014,-2681.334243
171.043548,0.000000,-5033.400406,-689.485948
171.043870,-296.082377,-3478.967927,-3370.820191
171.044192,2886.803174,-7105.977043,-8963.317327
171.044514,10658.965565,-12509.480420,-9193.145976
171.044836,11473.192101,-15100.201217,-10495.508323
171.045158,5477.523971,-19763.498651,-11261.603821
171.045480,222.061783,-26055.249158,-7660.954980
171.045802,-2146.597232,-27313.599260,-7890.783629
171.046124,-4885.359217,-22650.301825,-10265.679673
171.046446,-6069.688724,-17764.942608,-4136.915689
171.046767,-6365.771101,-10066.800811,2451.505594
171.047089,-6957.935855,-3330.926739,4673.182538
171.047411,-5033.400406,-444.123565,8273.831378
171.047733,-1110.308913,222.061783,10725.336972
171.048055,74.020594,2664.741391,7354.516781
171.048377,-1184.329507,4367.215058,6588.421283
171.048699,-1776.494261,3849.070898,8810.098227
171.049021,-1258.350101,-148.041188,7507.735880
171.049343,-592.164754,-4441.235652,2145.067394
171.049665,1184.329507,-5699.585753,-5592.497135
171.049987,4293.194464,-11029.068536,-10648.727422
171.050309,7550.100608,-16284.530724,-10801.946522
171.050631,6735.874072,-17912.983796,-8810.098227
171.050953,3849.070898,-21317.931130,-7354.516781
171.051274,2812.782580,-24870.919651,-6358.592633
171.051596,1258.350101,-23242.466579,-8503.660028
171.051918,-2294.638420,-20947.828159,-9806.022374
171.052240,-5995.668130,-18653.189738,-4213.525239
171.052562,-6217.729913,-14730.098246,4136.915689
171.052884,-5255.462188,-7105.977043,6281.983084
171.053206,-2590.720797,-888.247130,7354.516781
171.053528,666.185348,1998.556043,10418.898773
171.053850,3256.906145,3849.070898,9729.412825
171.054172,1776.494261,3034.844362,7584.345430
171.054494,-1702.473667,1036.288319,10878.556072
171.054816,-4441.235652,518.144159,12717.185267
171.055138,-4071.132681,-1110.308913,2757.943793
171.055460,-1554.432478,-4145.153275,-9193.145976
171.055781,1702.473667,-4293.194464,-12640.575717
171.056103,4811.338623,-6735.874072,-12563.966167
171.056425,4959.379811,-16358.551318,-10112.460574
171.056747,2368.659014,-26055.249158,-4903.011187
171.057069,666.185348,-27017.516883,-5975.544884
171.057391,0.000000,-23464.528361,-12563.966167
171.057713,-1850.514855,-23760.610738,-14096.157163
171.058035,-3478.967927,-21317.931130,-7354.516781
171.058357,-4515.256246,-12731.542202,536.266849
171.058679,-3034.844362,-2368.659014,4596.572988
171.059001,-444.123565,666.185348,6971.469032
171.059323,1776.494261,-148.041188,7354.516781
171.059644,0.000000,0.000000,6818.249932
171.059966,-3404.947333,592.164754,8733.488677
171.060288,-2072.576638,3775.050304,7814.174080
171.060610,1184.329507,2368.659014,3140.991542
171.060932,1628.453072,-5403.503377,1302.362347
171.061254,-666.185348,-6735.874072,1532.190996
171.061576,592.164754,-8660.409521,-6358.592633
171.061898,5847.626942,-14582.057057,-14709.033562
171.062220,10140.821405,-16654.633695,-15092.081311
171.062542,8438.347739,-16728.654289,-12717.185267
171.062864,4293.194464,-21317.931130,-9652.803275
171.063185,1628.453072,-25611.125593,-6971.469032
171.063507,-740.205942,-24426.796086,-9882.631924
171.063829,-4219.173869,-19985.560434,-12257.527968
171.064151,-7772.162391,-18135.045579,-6435.202183
171.064473,-9844.739029,-12287.418637,459.657299
171.064795,-7994.224174,-4293.194464,4366.744339
171.065117,-3108.864956,888.247130,6894.859482
171.065439,-962.267725,370.102971,9576.193725
171.065761,-2368.659014,1110.308913,12410.747068
171.066083,-6217.729913,5181.441594,12717.185267
171.066405,-5995.668130,6069.688724,5592.497135
171.066727,-1628.453072,-1110.308913,-919.314598
171.067048,0.000000,-5033.400406,-1225.752797
171.067370,0.000000,-5625.565159,-3753.867940
171.067692,3330.926739,-8660.409521,-7967.393179
171.068014,10807.006753,-12213.398043,-9422.974625
171.068336,11991.336260,-14952.160028,-10801.946522
171.068658,7105.977043,-19837.519246,-9729.412825
171.068980,1332.370696,-25167.002028,-6281.983084
171.069302,-1406.391290,-25241.022622,-6971.469032
171.069624,-4737.318029,-20207.622217,-9652.803275
171.069946,-5403.503377,-16876.695478,-4903.011187
171.070268,-6513.812290,-10584.944971,2145.067394
171.070590,-7476.080014,-3182.885551,5439.278036
171.070911,-6217.729913,-592.164754,9193.145976
171.071233,-2146.597232,-740.205942,10955.165621
171.071555,-666.185348,1036.288319,7277.907231
171.071877,-1998.556043,3404.947333,5669.106685
171.072199,-1776.494261,3404.947333,7890.783629
171.072521,-592.164754,-518.144159,8273.831378
171.072843,148.041188,-3701.029710,2221.676944
171.073165,1628.453072,-6365.771101,-6052.154434
171.073487,5107.421000,-10658.965565,-10801.946522
171.073809,7698.141797,-15988.448347,-11338.213370
171.074131,6291.750507,-19541.436869,-8656.879127
171.074452,3256.906145,-22724.322419,-6128.763984
171.074774,2146.597232,-23464.528361,-7048.078582
171.075096,1406.391290,-22872.363608,-10265.679673
171.075418,-2368.659014,-21614.013506,-9652.803275
171.075740,-6735.874072,-19541.436869,-2604.724693
171.076062,-7550.100608,-13249.686362,4519.963438
171.076384,-5107.421000,-6143.709319,4903.011187
171.076706,-1998.556043,-1628.453072,6511.811733
171.077028,740.205942,518.144159,9422.974625
171.077350,1998.556043,2886.803174,9116.536426
171.077672,1702.473667,1628.453072,8503.660028
171.077994,-370.102971,148.041188,11031.775171
171.078315,-2368.659014,-740.205942,10955.165621
171.078637,-2812.782580,-1184.329507,2528.115143
171.078959,-1924.535449,-2072.576638,-7201.297681
171.079281,888.247130,-3182.885551,-11491.432470
171.079603,4589.276840,-6957.935855,-12180.918418
171.079925,3552.988522,-16580.613101,-10572.117872
171.080247,666.185348,-25241.022622,-6741.640382
171.080569,-296.082377,-25685.146187,-6818.249932
171.080891,0.000000,-23390.507767,-12487.356617
171.081213,-962.267725,-23834.631332,-13789.718964
171.081535,-2960.823768,-20651.745782,-6894.859482
171.081856,-4293.194464,-12731.542202,383.047749
171.082178,-3478.967927,-3552.988522,4519.963438
171.082500,-888.247130,-222.061783,6511.811733
171.082822,1258.350101,0.000000,6971.469032
171.083144,296.082377,0.000000,7048.078582
171.083466,-3182.885551,1036.288319,9729.412825
171.083788,-1850.514855,4219.173869,9806.022374
171.084110,1406.391290,2664.741391,4673.182538
171.084432,1850.514855,-4441.235652,1762.019645
171.084754,0.000000,-5699.585753,2068.457845
171.085076,962.267725,-8290.306550,-6128.763984
171.085398,6365.771101,-13545.768739,-14709.033562
171.085719,9992.780217,-15914.427753,-15245.300410
171.086041,8216.285956,-16580.613101,-12257.527968
171.086363,3997.112087,-21910.095883,-9039.926876
171.086685,740.205942,-26277.310941,-7124.688131
171.087007,-1924.535449,-25463.084405,-10878.556072
171.087329,-4737.318029,-21762.054695,-13023.623466
171.087651,-7624.121203,-19023.292709,-6894.859482
171.087973,-9104.533087,-12509.480420,383.047749
171.088295,-6735.874072,-3997.112087,4519.963438
171.088617,-2368.659014,740.205942,6971.469032
171.088939,0.000000,814.226536,9422.974625
171.089260,-2812.782580,2072.576638,12180.918418
171.089582,-5847.626942,5107.421000,11261.603821
171.089904,-5995.668130,4811.338623,4443.353888
171.090226,-666.185348,-1628.453072,-919.314598
171.090548,0.000000,-4515.256246,-919.314598
171.090870,740.205942,-5329.482782,-3524.039291
171.091192,4441.235652,-9474.636058,-8044.002729
171.091514,11029.068536,-12435.459826,-10112.460574
171.091836,11177.109724,-13323.706956,-10112.460574
171.092158,6217.729913,-19837.519246,-9422.974625
171.092480,518.144159,-26129.269753,-6894.859482
171.092802,-2738.761985,-25759.166782,-7354.516781
171.093123,-5551.544565,-19837.519246,-9422.974625
171.093445,-5551.544565,-16654.633695,-5209.449386
171.093767,-6365.771101,-11769.274478,2528.115143
171.094089,-7550.100608,-3997.112087,6281.983084
171.094411,-6439.791695,148.041188,8963.317327
171.094733,-2220.617826,444.123565,10112.460574
171.095055,-148.041188,962.267725,7124.688131
171.095377,-2146.597232,4737.318029,6894.859482
171.095699,-2738.761985,4811.338623,7737.564530
171.096021,-1036.288319,-370.102971,6971.469032
171.096343,148.041188,-5181.441594,2374.896044
171.096664,1480.411884,-7031.956449,-5209.449386
171.096986,4219.173869,-10510.924376,-10418.898773
171.097308,8068.244768,-15544.324782,-11338.213370
171.097630,7402.059420,-18875.251521,-9422.974625
171.097952,3997.112087,-22354.219448,-7124.688131
171.098274,1850.514855,-23464.528361,-6205.373534
171.098596,592.164754,-22872.363608,-9039.926876
171.098918,-3034.844362,-22206.178260,-9882.631924
171.099240,-6883.915261,-20429.683999,-4366.744339
171.099562,-7105.977043,-13767.830521,2604.724693
171.099884,-5033.400406,-5921.647536,4290.134789
171.100206,-1776.494261,-1332.370696,6971.469032
171.100527,1184.329507,888.247130,10801.946522
171.100849,1850.514855,2960.823768,10035.851024
171.101171,814.226536,2738.761985,9269.755526
171.101493,-1480.411884,1628.453072,10878.556072
171.101815,-3478.967927,296.082377,9652.803275
171.102137,-3182.885551,-1924.535449,1608.800546
171.102459,-888.247130,-3330.926739,-7507.735880
171.102781,2368.659014,-3923.091493,-13023.623466
171.103103,6217.729913,-8216.285956,-13100.233016
171.103425,6587.832884,-17616.901420,-9269.755526
171.103747,2886.803174,-24130.713709,-4903.011187
171.104069,222.061783,-23316.487173,-6818.249932
171.104390,-592.164754,-22724.322419,-13176.842566
171.104712,-2072.576638,-24722.878463,-13942.938064
171.105034,-4737.318029,-21317.931130,-7737.564530
171.105356,-6217.729913,-12139.377449,0.000000
171.105678,-4145.153275,-2960.823768,4979.620737
171.106000,222.061783,-518.144159,7354.516781
171.106322,2368.659014,666.185348,7277.907231
171.106644,-296.082377,370.102971,7584.345430
171.106966,-2738.761985,1406.391290,10725.336972
171.107288,-1480.411884,4737.318029,7890.783629
171.107610,740.205942,1924.535449,2451.505594
171.107931,592.164754,-4959.379811,2068.457845
171.108253,-592.164754,-5181.441594,1838.629195
171.108575,1406.391290,-9474.636058,-9193.145976
171.108897,6957.935855,-14952.160028,-15398.519510
171.109219,10584.944971,-16950.716072,-13942.938064
171.109541,7698.141797,-17912.983796,-11797.870669
171.109863,2516.700203,-22946.384202,-8886.707777
171.110185,0.000000,-25092.981434,-7354.516781
171.110507,-1406.391290,-23390.507767,-11644.651570
171.110829,-4145.153275,-20207.622217,-12640.575717
171.111151,-7254.018232,-18061.024985,-4596.572988
171.111473,-8734.430116,-11843.295072,2145.067394
171.111794,-6217.729913,-4959.379811,5362.668486
171.112116,-1924.535449,-1184.329507,8197.221829
171.112438,444.123565,0.000000,10495.508323
171.112760,-1776.494261,3923.091493,11951.089769
171.113082,-3849.070898,6069.688724,10035.851024
171.113404,-3923.091493,4293.194464,4136.915689
171.113726,-1258.350101,-1406.391290,1302.362347
171.114048,-1184.329507,-3256.906145,306.438199
171.114370,814.226536,-6587.832884,-6358.592633
171.114692,5329.482782,-11399.171507,-11338.213370
171.115014,10732.986159,-13397.727550,-9959.241474
171.115335,9474.636058,-14582.057057,-8656.879127
171.115657,4811.338623,-21317.931130,-7277.907231
171.115979,296.082377,-25092.981434,-5745.716235
171.116301,-3034.844362,-21762.054695,-9116.536426
171.116623,-5403.503377,-17172.777854,-10955.165621
171.116945,-6069.688724,-16358.551318,-3983.696590
171.117267,-7328.038826,-10214.842000,4596.572988
171.117589,-7772.162391,-2812.782580,7354.516781
171.117911,-4885.359217,740.205942,10035.851024
171.118233,-814.226536,-888.247130,9729.412825
171.118555,-148.041188,0.000000,7507.735880
171.118877,-2146.597232,4737.318029,7584.345430
171.119198,-1628.453072,5995.668130,7737.564530
171.119520,666.185348,-74.020594,6665.030833
171.119842,814.226536,-4811.338623,2604.724693
171.120164,518.144159,-7179.997637,-5975.544884
171.120486,3627.009116,-11029.068536,-12487.356617
171.120808,7846.182985,-16654.633695,-13713.109414
171.121130,6735.874072,-21762.054695,-10265.679673
171.121452,2294.638420,-24352.775492,-6894.859482
171.121774,-222.061783,-23020.404796,-6052.154434
171.122096,-1184.329507,-21688.034101,-10035.851024
171.122418,-3552.988522,-21317.931130,-11108.384721
171.122739,-6883.915261,-19245.354492,-4826.401637
171.123061,-7624.121203,-12065.356855,1915.238745
171.123383,-4737.318029,-6291.750507,5439.278036
171.123705,-444.123565,-3478.967927,9039.926876
171.124027,2812.782580,-888.247130,11108.384721
171.124349,2590.720797,2294.638420,11031.775171
171.124671,1924.535449,4367.215058,10035.851024
171.124993,518.144159,2368.659014,8120.612279
171.125315,-2590.720797,0.000000,7507.735880
171.125637,-4589.276840,-888.247130,3294.210641
171.125959,-2220.617826,-4515.256246,-7507.735880
171.126281,2738.761985,-7698.141797,-15321.909960
171.126602,7105.977043,-10510.924376,-14709.033562
171.126924,6217.729913,-15766.386565,-8427.050478
171.127246,1702.473667,-24056.693115,-4673.182538
171.127568,-518.144159,-26055.249158,-6205.373534
171.127890,-1628.453072,-22872.363608,-13253.452115
171.128212,-2960.823768,-21762.054695,-15321.909960
171.128534,-4811.338623,-19837.519246,-8350.440928
171.128856,-5699.585753,-12065.356855,1149.143247
171.129178,-4367.215058,-2738.761985,5515.887586
171.129500,-740.205942,370.102971,9116.536426
171.129822,2812.782580,-740.205942,9576.193725
171.130144,962.267725,0.000000,8656.879127
171.130465,-2368.659014,3108.864956,9422.974625
171.130787,-1258.350101,6439.791695,7354.516781
171.131109,1480.411884,2072.576638,2451.505594
171.131431,2220.617826,-5329.482782,2145.067394
171.131753,-148.041188,-5921.647536,1532.190996
171.132075,370.102971,-9696.697840,-7967.393179
171.132397,6365.771101,-17024.736666,-14862.252661
171.132719,10288.862594,-18949.272115,-14402.595362
171.133041,8438.347739,-17394.839637,-12257.527968
171.133363,4663.297435,-21317.931130,-8197.221829
171.133685,1406.391290,-23760.610738,-5439.278036
171.134006,-814.226536,-21465.972318,-9422.974625
171.134328,-4293.194464,-17468.860231,-11797.870669
171.134650,-7920.203579,-16580.613101,-5439.278036
171.134972,-9844.739029,-11695.253884,2145.067394
171.135294,-8290.306550,-5625.565159,5592.497135
171.135616,-3627.009116,-296.082377,8656.879127
171.135938,-296.082377,74.020594,9576.193725
171.136260,-592.164754,1998.556043,10878.556072
171.136582,-2516.700203,5033.400406,9806.022374
171.136904,-3923.091493,4219.173869,6358.592633
171.137226,-2368.659014,-1850.514855,2987.772442
171.137548,-2294.638420,-4959.379811,-689.485948
171.137869,-592.164754,-7402.059420,-8197.221829
171.138191,3701.029710,-10584.944971,-12640.575717
171.138513,8808.450710,-11843.295072,-10648.727422
171.138835,9252.574275,-15322.262999,-9499.584175
171.139157,5181.441594,-22798.343014,-7277.907231
171.139479,1184.329507,-25092.981434,-5898.935335
171.139801,-2220.617826,-21984.116477,-9499.584175
171.140123,-5699.585753,-18727.210333,-11491.432470
171.140445,-6069.688724,-16728.654289,-4596.572988
171.140767,-6957.935855,-9252.574275,2528.115143
171.141089,-7402.059420,-1998.556043,5515.887586
171.141410,-4589.276840,-666.185348,9499.584175
171.141732,-592.164754,-2294.638420,10342.289223
171.142054,-740.205942,-1332.370696,7967.393179
171.142376,-1702.473667,2886.803174,7967.393179
171.142698,-592.164754,4737.318029,6894.859482
171.143020,1258.350101,-370.102971,5209.449386
171.143342,1184.329507,-5107.421000,2757.943793
171.143664,518.144159,-6291.750507,-4213.525239
171.143986,3552.988522,-10140.821405,-11721.261119
171.144308,7550.100608,-15692.365970,-12640.575717
171.144630,6735.874072,-19393.395680,-9959.241474
171.144952,2590.720797,-22428.240043,-8120.612279
171.145273,148.041188,-23464.528361,-6741.640382
171.145595,-370.102971,-22502.260637,-8503.660028
171.145917,-3034.844362,-21984.116477,-10495.508323
171.146239,-6439.791695,-19541.436869,-4903.011187
171.146561,-7105.977043,-13693.809927,2451.505594
171.146883,-5477.523971,-6217.729913,4366.744339
171.147205,-1184.329507,-1628.453072,6971.469032
171.147527,1998.556043,222.061783,10342.289223
171.147849,2738.761985,2812.782580,10342.289223
171.148171,1110.308913,2960.823768,9652.803275
171.148493,-1480.411884,1258.350101,10955.165621
171.148814,-3997.112087,-74.020594,9959.241474
171.149136,-4367.215058,-2146.597232,2374.896044
171.149458,-2442.679609,-3775.050304,-8273.831378
171.149780,1258.350101,-3997.112087,-13636.499864
171.150102,5033.400406,-7105.977043,-13330.061665
171.150424,5329.482782,-15322.262999,-9193.145976
171.150746,2664.741391,-23982.672521,-6205.373534
171.151068,0.000000,-25315.043216,-6665.030833
171.151390,-148.041188,-23242.466579,-12410.747068
171.151712,-1702.473667,-24352.775492,-14325.985813
171.152034,-4145.153275,-21465.972318,-7584.345430
171.152356,-5329.482782,-12879.583391,536.266849
171.152677,-3256.906145,-3256.906145,5362.668486
171.152999,0.000000,148.041188,7507.735880
171.153321,2738.761985,-222.061783,8580.269578
171.153643,740.205942,148.041188,8273.831378
171.153965,-2146.597232,1036.288319,9882.631924
171.154287,-888.247130,4663.297435,9039.926876
171.154609,1554.432478,2442.679609,3983.696590
171.154931,1480.411884,-4293.194464,2987.772442
171.155253,-740.205942,-5403.503377,2374.896044
171.155575,0.000000,-8364.327145,-8120.612279
171.155897,5033.400406,-13915.871710,-15168.690860
171.156218,9178.553681,-15988.448347,-14709.033562
171.156540,7846.182985,-17764.942608,-12487.356617
171.156862,3775.050304,-23908.651927,-9422.974625
171.157184,1332.370696,-26499.372724,-6665.030833
171.157506,-370.102971,-23834.631332,-10418.898773
171.157828,-3849.070898,-19763.498651,-12563.966167
171.158150,-7550.100608,-18061.024985,-4903.011187
171.158472,-9474.636058,-11399.171507,1455.581446
171.158794,-7698.141797,-3034.844362,4213.525239
171.159116,-2368.659014,1258.350101,7737.564530
171.159438,592.164754,444.123565,9422.974625
171.159760,-1924.535449,740.205942,12104.308868
171.160081,-4515.256246,4589.276840,12410.747068
171.160403,-4737.318029,4959.379811,6894.859482
171.160725,-2146.597232,-2294.638420,1149.143247
171.161047,-1924.535449,-5181.441594,76.609550
171.161369,-592.164754,-5033.400406,-5898.935335
171.161691,2590.720797,-7550.100608,-11261.603821
171.162013,9696.697840,-10510.924376,-10572.117872
171.162335,11029.068536,-13693.809927,-10495.508323
171.162657,6365.771101,-21169.889941,-9729.412825
171.162979,1628.453072,-25389.063811,-6358.592633
171.163300,-1850.514855,-24574.837274,-8886.707777
171.163622,-5181.441594,-22058.137072,-11261.603821
171.163944,-6439.791695,-18579.169144,-4903.011187
171.164266,-7624.121203,-10510.924376,1991.848295
171.164588,-7476.080014,-1850.514855,3677.258390
171.164910,-4737.318029,0.000000,8733.488677
171.165232,-888.247130,-1258.350101,11261.603821
171.165554,-1110.308913,222.061783,8427.050478
171.165876,-2294.638420,3108.864956,7967.393179
171.166197,-1110.308913,4293.194464,8580.269578
171.166519,888.247130,1406.391290,5669.106685
171.166841,1184.329507,-4737.318029,1838.629195
171.167163,1406.391290,-5181.441594,-3983.696590
171.167485,3849.070898,-9696.697840,-10342.289223
171.167807,7698.141797,-15766.386565,-11951.089769
171.168129,7179.997637,-17912.983796,-9729.412825
171.168451,3923.091493,-20725.766376,-9422.974625
171.168773,1554.432478,-24944.940245,-9039.926876
171.169095,814.226536,-25167.002028,-9346.365076
171.169416,-2368.659014,-23538.548956,-10572.117872
171.169738,-6957.935855,-20059.581028,-5439.278036
171.170060,-8290.306550,-15396.283594,2987.772442
171.170382,-7031.956449,-7254.018232,5286.058936
171.170704,-3627.009116,-1258.350101,5592.497135
171.171026,444.123565,814.226536,9193.145976
171.171348,2886.803174,2664.741391,10572.117872
171.171670,1850.514855,3701.029710,9116.536426
171.171992,-592.164754,1998.556043,11031.775171
171.172313,-3182.885551,592.164754,12410.747068
171.172635,-3552.988522,-1258.350101,4903.011187
171.172957,-2072.576638,-3627.009116,-7354.516781
171.173279,666.185348,-3997.112087,-13176.842566
171.173601,5551.544565,-5995.668130,-13176.842566
171.173923,5847.626942,-13619.789333,-10648.727422
171.174245,2960.823768,-24204.734303,-6435.202183
171.174567,592.164754,-27609.681637,-5515.887586
171.174889,296.082377,-23982.672521,-12334.137518
171.175210,-2072.576638,-23834.631332,-15475.129060
171.175532,-3849.070898,-23464.528361,-8273.831378
171.175854,-5329.482782,-15100.201217,919.314598
171.176176,-4219.173869,-3256.906145,4979.620737
171.176498,-962.267725,1406.391290,7201.297681
171.176820,2220.617826,1258.350101,9116.536426
171.177142,1998.556043,2072.576638,8580.269578
171.177464,-1850.514855,1998.556043,8580.269578
171.177786,-1628.453072,4145.153275,9499.584175
171.178108,1110.308913,1998.556043,7048.078582
171.178429,740.205942,-3330.926739,4903.011187
171.178751,-962.267725,-4811.338623,3140.991542
171.179073,148.041188,-7624.121203,-7431.126331
171.179395,4885.359217,-11251.130318,-16088.005458
171.179717,8956.491898,-14211.954086,-15168.690860
171.180039,7624.121203,-17616.901420,-11644.651570
171.180361,3775.050304,-23982.672521,-7967.393179
171.180683,1332.370696,-26795.455100,-7354.516781
171.181005,-370.102971,-25167.002028,-11338.213370
171.181326,-2812.782580,-22428.240043,-13176.842566
171.181648,-6661.853478,-19319.375086,-6358.592633
171.181970,-8586.388927,-12139.377449,1149.143247
171.182292,-6809.894666,-3182.885551,4136.915689
171.182614,-1332.370696,1406.391290,7201.297681
171.182936,1480.411884,296.082377,9346.365076
171.183258,-1850.514855,0.000000,12104.308868
171.183580,-5107.421000,4441.235652,13483.280765
171.183902,-4589.276840,6587.832884,7507.735880
171.184224,-1924.535449,-1036.288319,536.266849
171.184545,-1554.432478,-5107.421000,919.314598
171.184867,-814.226536,-4441.235652,-3064.381992
171.185189,2072.576638,-7179.997637,-11261.603821
171.185511,9400.615463,-11843.295072,-11721.261119
171.185833,11029.068536,-13693.809927,-9959.241474
171.186155,6365.771101,-18579.169144,-10189.070123
171.186477,1332.370696,-25981.228564,-8427.050478
171.186799,-1184.329507,-27165.558071,-8580.269578
171.187121,-4293.194464,-23168.445985,-11874.480219
171.187442,-6513.812290,-19319.375086,-7354.516781
171.187764,-7476.080014,-13027.624579,1762.019645
171.188086,-7846.182985,-3997.112087,4673.182538
171.188408,-5625.565159,740.205942,6818.249932
171.188730,-1036.288319,0.000000,10572.117872
171.189052,0.000000,666.185348,8580.269578
171.189374,-1998.556043,2886.803174,7660.954980
171.189696,-2368.659014,5107.421000,9652.803275
171.190018,-1036.288319,2738.761985,7431.126331
171.190340,74.020594,-4293.194464,2451.505594
171.190661,296.082377,-5773.606348,-2528.115143
171.190983,2294.638420,-8660.409521,-10035.851024
171.191305,5921.647536,-14878.139434,-12027.699319
171.191627,8068.244768,-18505.148550,-9806.022374
171.191949,4885.359217,-20799.786970,-8886.707777
171.192271,1776.494261,-24722.878463,-8427.050478
171.192593,222.061783,-25018.960840,-8273.831378
171.192915,-1998.556043,-22798.343014,-10801.946522
171.193237,-5847.626942,-20133.601622,-8197.221829
171.193558,-7476.080014,-16802.674883,1149.143247
171.193880,-7328.038826,-8586.388927,5975.544884
171.194202,-4293.194464,-1406.391290,6741.640382
171.194524,-740.205942,1406.391290,9652.803275
171.194846,2368.659014,2220.617826,10878.556072
171.195168,2442.679609,4441.235652,8963.317327
171.195490,444.123565,2590.720797,9499.584175
171.195812,-2664.741391,1480.411884,12717.185267
171.196134,-4663.297435,444.123565,8963.317327
171.196456,-3034.844362,-2072.576638,-4443.353888
171.196777,74.020594,-3923.091493,-13636.499864
171.197099,4441.235652,-4885.359217,-14325.985813
171.197421,5625.565159,-10658.965565,-11031.775171
171.197743,3256.906145,-22280.198854,-6281.983084
171.198065,296.082377,-29312.155303,-4443.353888
171.198387,0.000000,-25685.146187,-9806.022374
171.198709,-1924.535449,-23686.590144,-15934.786358
171.199031,-3701.029710,-23242.466579,-11644.651570
171.199353,-4737.318029,-17024.736666,-1915.238745
171.199674,-3701.029710,-5033.400406,3907.087040
171.199996,-592.164754,1184.329507,6894.859482
171.200318,3330.926739,592.164754,8886.707777
171.200640,3182.885551,296.082377,8197.221829
171.200962,-740.205942,296.082377,8656.879127
171.201284,-2146.597232,4367.215058,10189.070123
171.201606,1036.288319,3775.050304,5898.935335
171.201928,2368.659014,-2960.823768,2374.896044
171.202250,0.000000,-5773.606348,3447.429741
171.202572,-296.082377,-6587.832884,-2604.724693
171.202893,3478.967927,-11177.109724,-13559.890315
171.203215,9252.574275,-15914.427753,-16394.443657
171.203537,9104.533087,-17320.819043,-13483.280765
171.203859,5107.421000,-21391.951724,-10265.679673
171.204181,1406.391290,-26499.372724,-7277.907231
171.204503,0.000000,-26425.352129,-8580.269578
171.204825,-2738.761985,-22576.281231,-12180.918418
171.205147,-5329.482782,-19541.436869,-8656.879127
171.205469,-7994.224174,-14285.974681,-995.924147
171.205790,-7328.038826,-6883.915261,3140.991542
171.206112,-3256.906145,0.000000,6741.640382
171.206434,1184.329507,3182.885551,9499.584175
171.206756,148.041188,1924.535449,11108.384721
171.207078,-3108.864956,3256.906145,13176.842566
171.207400,-5033.400406,5995.668130,9959.241474
171.207722,-4367.215058,1480.411884,2604.724693
171.208044,-3330.926739,-4737.318029,76.609550
171.208366,-1776.494261,-5477.523971,-2451.505594
171.208688,74.020594,-7105.977043,-10189.070123
171.209009,6143.709319,-9770.718434,-12104.308868
171.209331,9622.677246,-12731.542202,-9269.755526
171.209653,7550.100608,-18653.189738,-8963.317327
171.209975,2368.659014,-25167.002028,-8733.488677
171.210297,-1110.308913,-25685.146187,-8350.440928
171.210619,-4737.318029,-23020.404796,-11261.603821
171.210941,-6291.750507,-20503.704593,-7431.126331
171.211263,-6587.832884,-14211.954086,1225.752797
171.211585,-6883.915261,-4219.173869,4136.915689
171.211906,-5699.585753,1554.432478,6435.202183
171.212228,-1702.473667,-592.164754,11338.213370
171.212550,-370.102971,518.144159,10342.289223
171.212872,-2516.700203,3330.926739,6894.859482
171.213194,-2960.823768,4441.235652,8197.221829
171.213516,-1554.432478,2368.659014,8733.488677
171.213838,-1036.288319,-2812.782580,5439.278036
171.214160,-814.226536,-4959.379811,-919.314598
171.214482,1924.535449,-7698.141797,-9729.412825
171.214803,6069.688724,-13027.624579,-12717.185267
171.215125,7920.203579,-16358.551318,-11338.213370
171.215447,4145.153275,-20577.725188,-9269.755526
171.215769,1702.473667,-25833.187376,-8273.831378
171.216091,740.205942,-26055.249158,-8733.488677
171.216413,-1184.329507,-23686.590144,-11644.651570
171.216735,-4959.379811,-21614.013506,-8886.707777
171.217057,-7179.997637,-18431.127956,153.219100
171.217379,-6513.812290,-9844.739029,4826.401637
171.217701,-3849.070898,-1406.391290,5209.449386
171.218022,222.061783,888.247130,8427.050478
171.218344,3108.864956,1110.308913,11184.994271
171.218666,1776.494261,3923.091493,10035.851024
171.218988,-888.247130,4663.297435,9652.803275
171.219310,-2664.741391,1924.535449,10955.165621
171.219632,-3775.050304,-1554.432478,7584.345430
171.219954,-3330.926739,-3404.947333,-2451.505594
171.220276,-222.061783,-4959.379811,-11721.261119
171.220598,5181.441594,-5477.523971,-14325.985813
171.220919,8290.306550,-10288.862594,-11261.603821
171.221241,6513.812290,-19541.436869,-7890.783629
171.221563,2812.782580,-27535.661042,-6205.373534
171.221885,1998.556043,-25759.166782,-9039.926876
171.222207,74.020594,-24648.857869,-14172.766713
171.222529,-2664.741391,-25018.960840,-12180.918418
171.222851,-4811.338623,-19467.416275,-2221.676944
171.223173,-5033.400406,-7105.977043,3064.381992
171.223495,-1924.535449,592.164754,5362.668486
171.223817,2220.617826,518.144159,8273.831378
171.224138,2960.823768,1702.473667,9576.193725
171.224460,-592.164754,2072.576638,8733.488677
171.224782,-2590.720797,4589.276840,10189.070123
171.225104,-296.082377,3923.091493,6741.640382
171.225426,1480.411884,-1924.535449,2298.286494
171.225748,-666.185348,-6069.688724,2221.676944
171.226070,74.020594,-6809.894666,-2911.162892
171.226392,3034.844362,-11991.336260,-12793.794817
171.226714,8216.285956,-15988.448347,-14402.595362
171.227035,9030.512492,-17024.736666,-12257.527968
171.227357,5995.668130,-20503.704593,-11414.822920
171.227679,2220.617826,-25167.002028,-8273.831378
171.228001,592.164754,-25241.022622,-8656.879127
171.228323,-1924.535449,-22280.198854,-11951.089769
171.228645,-5699.585753,-19911.539840,-7737.564530
171.228967,-8956.491898,-15248.242405,995.924147
171.229289,-8586.388927,-6883.915261,4443.353888
171.229611,-4737.318029,518.144159,6128.763984
171.229933,0.000000,2072.576638,8197.221829
171.230254,-518.144159,740.205942,10265.679673
171.230576,-3034.844362,3478.967927,12487.356617
171.230898,-4589.276840,5921.647536,10112.460574
171.231220,-4515.256246,1332.370696,4596.572988
171.231542,-3627.009116,-4737.318029,1991.848295
171.231864,-1850.514855,-4811.338623,-4290.134789
171.232186,592.164754,-5995.668130,-12334.137518
171.232508,6957.935855,-8660.409521,-12180.918418
171.232830,9548.656652,-12731.542202,-7967.393179
171.233151,6365.771101,-20355.663405,-7890.783629
171.233473,1554.432478,-25833.187376,-7890.783629
171.233795,-962.267725,-25241.022622,-9652.803275
171.234117,-4071.132681,-23168.445985,-13023.623466
171.234439,-6217.729913,-20799.786970,-7814.174080
171.234761,-6957.935855,-13619.789333,919.314598
171.235083,-6809.894666,-3478.967927,3830.477490
171.235405,-5033.400406,370.102971,6894.859482
171.235727,-1258.350101,-1406.391290,11261.603821
171.236049,-962.267725,-444.123565,9499.584175
171.236370,-3182.885551,1406.391290,7124.688131
171.236692,-2812.782580,4367.215058,9116.536426
171.237014,-518.144159,2960.823768,6741.640382
171.237336,1036.288319,-2368.659014,3753.867940
171.237658,814.226536,-4663.297435,229.828649
171.237980,2368.659014,-7846.182985,-8886.707777
171.238302,5255.462188,-14285.974681,-12793.794817
171.238624,8068.244768,-17912.983796,-11108.384721
171.238946,5107.421000,-20429.683999,-10648.727422
171.239267,2146.597232,-24204.734303,-9806.022374
171.239589,518.144159,-25611.125593,-8273.831378
171.239911,-592.164754,-23686.590144,-10418.898773
171.240233,-5033.400406,-20873.807564,-9039.926876
171.240555,-7772.162391,-17912.983796,-689.485948
171.240877,-7772.162391,-10955.047942,4979.620737
171.241199,-4811.338623,-2960.823768,5439.278036
171.241521,-148.041188,592.164754,7890.783629
171.241843,3256.906145,1850.514855,10495.508323
171.242165,2812.782580,4367.215058,10725.336972
171.242486,666.185348,5551.544565,11568.042020
171.242808,-1628.453072,3701.029710,10878.556072
171.243130,-2442.679609,-666.185348,6052.154434
171.243452,-1998.556043,-3108.864956,-2374.896044
171.243774,592.164754,-5255.462188,-12257.527968
171.244096,4811.338623,-7031.956449,-14709.033562
171.244418,7920.203579,-11177.109724,-10342.289223
171.244740,6661.853478,-19615.457463,-7277.907231
171.245062,2368.659014,-26129.269753,-5592.497135
171.245383,666.185348,-25463.084405,-9193.145976
171.245705,-1184.329507,-24500.816680,-15245.300410
171.246027,-3923.091493,-23316.487173,-12947.013916
171.246349,-5403.503377,-18505.148550,-2374.896044
171.246671,-5107.421000,-7772.162391,3907.087040
171.246993,-2146.597232,0.000000,5898.935335
171.247315,1628.453072,518.144159,9193.145976
171.247637,2442.679609,1258.350101,9499.584175
171.247959,-666.185348,1406.391290,8044.002729
171.248281,-1702.473667,4589.276840,9269.755526
171.248602,222.061783,4145.153275,6358.592633
171.248924,518.144159,-1850.514855,3447.429741
171.249246,-592.164754,-5477.523971,3753.867940
171.249568,-592.164754,-7550.100608,-3907.087040
171.249890,2368.659014,-12435.459826,-14325.985813
171.250212,7179.997637,-16062.468941,-15015.471761
171.250534,7624.121203,-17838.963202,-12027.699319
171.250856,4737.318029,-22354.219448,-10725.336972
171.251178,1702.473667,-25907.207970,-8427.050478
171.251499,740.205942,-24204.734303,-8886.707777
171.251821,-2072.576638,-21614.013506,-12410.747068
171.252143,-5107.421000,-19837.519246,-7431.126331
171.252465,-8216.285956,-14878.139434,383.047749
171.252787,-8512.368333,-6735.874072,3217.601092
171.253109,-4663.297435,-296.082377,5898.935335
171.253431,370.102971,1480.411884,8963.317327
171.253753,666.185348,74.020594,10265.679673
171.254075,-2368.659014,2368.659014,12717.185267
171.254396,-4441.235652,5107.421000,12104.308868
171.254718,-4293.194464,2738.761985,6128.763984
171.255040,-4219.173869,-3182.885551,2374.896044
171.255362,-2812.782580,-3849.070898,-2757.943793
171.255684,-1480.411884,-5477.523971,-11797.870669
171.256006,3182.885551,-7550.100608,-13023.623466
171.256328,6809.894666,-11769.274478,-8963.317327
171.256650,5625.565159,-18727.210333,-8810.098227
171.256972,1554.432478,-25685.146187,-8656.879127
171.257294,-296.082377,-26277.310941,-9039.926876
171.257615,-3627.009116,-23242.466579,-12563.966167
171.257937,-5255.462188,-21391.951724,-8733.488677
171.258259,-5847.626942,-15692.365970,1302.362347
171.258581,-5995.668130,-4219.173869,4979.620737
171.258903,-4737.318029,2146.597232,5286.058936
171.259225,0.000000,-296.082377,9806.022374
171.259547,1998.556043,-370.102971,9882.631924
171.259869,-296.082377,1850.514855,7737.564530
171.260191,-518.144159,4441.235652,9806.022374
171.260512,1184.329507,2146.597232,10342.289223
171.260834,814.226536,-2294.638420,5975.544884
171.261156,-740.205942,-3627.009116,306.438199
171.261478,1036.288319,-5403.503377,-9269.755526
171.261800,5699.585753,-10584.944971,-15092.081311
171.262122,8734.430116,-16580.613101,-13483.280765
171.262444,5551.544565,-21095.869347,-9193.145976
171.262766,1702.473667,-26425.352129,-6894.859482
171.263088,-592.164754,-28053.805202,-7354.516781
171.263409,-2072.576638,-25685.146187,-11414.822920
171.263731,-4441.235652,-22576.281231,-11568.042020
171.264053,-6439.791695,-17838.963202,-4673.182538
171.264375,-6439.791695,-11621.233289,2757.943793
171.264697,-3552.988522,-3108.864956,5898.935335
171.265019,1184.329507,814.226536,8886.707777
171.265341,4737.318029,1924.535449,10572.117872
171.265662,2368.659014,1998.556043,11874.480219
171.265984,222.061783,4811.338623,11797.870669
171.266306,-592.164754,4959.379811,8580.269578
171.266628,-1998.556043,-888.247130,3907.087040
171.266950,-3923.091493,-2442.679609,2145.067394
171.267272,-1332.370696,-2960.823768,-6818.249932
171.267594,3404.947333,-8660.409521,-16854.100956
171.267915,8068.244768,-13693.809927,-14632.424012
171.268237,7328.038826,-16654.633695,-7277.907231
171.268559,2664.741391,-24278.754898,-5439.278036
171.268881,-518.144159,-28794.011144,-6511.811733
171.269203,-1184.329507,-26129.269753,-11874.480219
171.269525,-3330.926739,-21169.889941,-14709.033562
171.269846,-4959.379811,-17838.963202,-6894.859482
171.270168,-5699.585753,-10807.006753,3907.087040
171.270490,-4367.215058,-1776.494261,6894.859482
171.270812,-666.185348,1998.556043,8427.050478
171.271134,2442.679609,962.267725,10725.336972
171.271456,1924.535449,1110.308913,8733.488677
171.271778,-296.082377,3997.112087,8044.002729
171.272099,-370.102971,6143.709319,7737.564530
171.272421,-444.123565,1184.329507,5362.668486
171.272743,-2368.659014,-4737.318029,3140.991542
171.273065,-1850.514855,-6587.832884,-1915.238745
171.273387,444.123565,-10732.986159,-14479.204912
171.273709,5181.441594,-16284.530724,-17620.196454
171.274031,7031.956449,-19171.333898,-11491.432470
171.274352,4515.256246,-21910.095883,-8197.221829
