#time,accel_x,accel_y,accel_z
532.591145,-592.164754,-9400.615463,-1378.971896
532.591468,-370.102971,-9178.553681,-1685.410096
532.591790,-296.082377,-9326.594869,-1762.019645
532.592113,-148.041188,-9326.594869,-1532.190996
532.592435,-370.102971,-9474.636058,-1608.800546
532.592758,-370.102971,-9696.697840,-1378.971896
532.593080,-370.102971,-9696.697840,-1072.533697
532.593403,-518.144159,-9548.656652,-1532.190996
532.593725,-444.123565,-9474.636058,-1378.971896
532.594048,-222.061783,-9252.574275,-1455.581446
532.594370,-222.061783,-9252.574275,-1455.581446
532.594693,0.000000,-9252.574275,-1762.019645
532.595015,-444.123565,-9474.636058,-1838.629195
532.595338,-666.185348,-9622.677246,-1455.581446
532.595660,-814.226536,-9622.677246,-1608.800546
532.595983,-740.205942,-9622.677246,-1302.362347
532.596305,-444.123565,-9104.533087,-1762.019645
532.596628,-148.041188,-8808.450710,-995.924147
532.596950,-296.082377,-9030.512492,-1225.752797
532.597273,-296.082377,-8956.491898,-1378.971896
532.597595,-444.123565,-9178.553681,-1455.581446
532.597918,-444.123565,-9548.656652,-1378.971896
532.598240,-518.144159,-9252.574275,-842.705048
532.598563,-740.205942,-9400.615463,-1378.971896
532.598885,-444.123565,-9326.594869,-1302.362347
532.599208,-222.061783,-9030.512492,-1225.752797
532.599530,0.000000,-9030.512492,-1378.971896
532.599853,-296.082377,-8808.450710,-1149.143247
532.600175,-296.082377,-9030.512492,-1378.971896
532.600498,-518.144159,-9400.615463,-1532.190996
532.600820,-740.205942,-9696.697840,-1532.190996
532.601143,-518.144159,-9474.636058,-1608.800546
532.601465,-370.102971,-9252.574275,-1762.019645
532.601788,0.000000,-8586.388927,-1455.581446
532.602110,0.000000,-9178.553681,-1532.190996
532.602433,-148.041188,-9030.512492,-1762.019645
532.602755,-444.123565,-9400.615463,-1838.629195
532.603078,-666.185348,-9400.615463,-1915.238745
532.603400,-370.102971,-9844.739029,-2528.115143
532.603723,-592.164754,-9696.697840,-1991.848295
532.604045,-666.185348,-9474.636058,-1762.019645
532.604368,-518.144159,-9400.615463,-1915.238745
532.604690,-592.164754,-9474.636058,-2145.067394
532.605013,-222.061783,-9400.615463,-2145.067394
532.605335,0.000000,-9400.615463,-1762.019645
532.605658,-518.144159,-9622.677246,-2068.457845
532.605980,-444.123565,-9696.697840,-2068.457845
532.606303,-370.102971,-9844.739029,-1838.629195
532.606625,-370.102971,-9474.636058,-2068.457845
532.606948,-666.185348,-9622.677246,-1915.238745
532.607270,-148.041188,-9474.636058,-1838.629195
532.607593,-370.102971,-9178.553681,-2068.457845
532.607915,-370.102971,-9474.636058,-1915.238745
532.608238,-370.102971,-9400.615463,-1838.629195
532.608560,-370.102971,-9104.533087,-1608.800546
532.608883,-296.082377,-9474.636058,-1838.629195
532.609205,-296.082377,-9548.656652,-1685.410096
532.609528,-222.061783,-9548.656652,-1838.629195
532.609850,-518.144159,-9474.636058,-1608.800546
532.610173,-814.226536,-9326.594869,-1455.581446
532.610495,0.000000,-9400.615463,-1991.848295
532.610818,-222.061783,-9400.615463,-1685.410096
532.611140,-444.123565,-9474.636058,-1608.800546
532.611463,-592.164754,-9326.594869,-1378.971896
532.611785,-444.123565,-9326.594869,-1378.971896
532.612108,-296.082377,-9178.553681,-1455.581446
532.612430,-444.123565,-9400.615463,-1455.581446
532.612753,-444.123565,-9178.553681,-1378.971896
532.613075,-444.123565,-8956.491898,-1532.190996
532.613398,-444.123565,-9030.512492,-1378.971896
532.613720,-148.041188,-9400.615463,-1455.581446
532.614043,-518.144159,-9030.512492,-1302.362347
532.614365,-444.123565,-9474.636058,-1225.752797
532.614688,-370.102971,-9548.656652,-1455.581446
532.615010,0.000000,-9400.615463,-1225.752797
532.615333,1480.411884,-9474.636058,-1685.410096
532.615655,2664.741391,-9770.718434,-1838.629195
532.615978,2664.741391,-9178.553681,-612.876398
532.616300,1628.453072,-8512.368333,0.000000
532.616623,740.205942,-8660.409521,-842.705048
532.616945,-222.061783,-9030.512492,-2068.457845
532.617268,-1628.453072,-9474.636058,-2068.457845
532.617590,-3034.844362,-9770.718434,-1838.629195
532.617913,-3701.029710,-9696.697840,-2374.896044
532.618235,-2812.782580,-9326.594869,-2681.334243
532.618558,-148.041188,-9992.780217,-2451.505594
532.618880,2368.659014,-11177.109724,-1915.238745
532.619203,2960.823768,-10510.924376,0.000000
532.619525,2072.576638,-9030.512492,76.609550
532.619848,1554.432478,-8956.491898,-919.314598
532.620170,2220.617826,-9770.718434,-2221.676944
532.620493,2516.700203,-10140.821405,-2451.505594
532.620815,1998.556043,-9104.533087,-1225.752797
532.621138,222.061783,-7550.100608,153.219100
532.621460,444.123565,-7328.038826,-842.705048
532.621783,1850.514855,-8956.491898,-2528.115143
532.622105,1258.350101,-10214.842000,-2451.505594
532.622428,-444.123565,-9548.656652,-536.266849
532.622750,-1110.308913,-9104.533087,-1915.238745
532.623073,-222.061783,-9474.636058,-3907.087040
532.623395,444.123565,-9622.677246,-3064.381992
532.623718,740.205942,-10362.883188,-1149.143247
532.624040,370.102971,-10510.924376,-689.485948
532.624363,2072.576638,-9918.759623,-1915.238745
532.624685,2812.782580,-9178.553681,-2145.067394
532.625008,3404.947333,-10584.944971,-995.924147
532.625330,3330.926739,-11251.130318,-612.876398
532.625653,2368.659014,-9030.512492,-1378.971896
532.625975,2220.617826,-7328.038826,-1225.752797
532.626298,2738.761985,-7994.224174,-1072.533697
532.626620,2664.741391,-8734.430116,-1532.190996
532.626943,1776.494261,-7994.224174,-1532.190996
532.627265,1036.288319,-8290.306550,-1608.800546
532.627588,2072.576638,-9918.759623,-1225.752797
532.627910,2886.803174,-10732.986159,-1378.971896
532.628233,3034.844362,-9770.718434,-1991.848295
532.628555,2368.659014,-9548.656652,-2145.067394
532.628878,3256.906145,-10066.800811,-1149.143247
532.629200,4071.132681,-9474.636058,-995.924147
532.629523,3849.070898,-9030.512492,-1991.848295
532.629845,2738.761985,-9326.594869,-1608.800546
532.630168,2812.782580,-9770.718434,-919.314598
532.630490,3108.864956,-9474.636058,-689.485948
532.630813,2960.823768,-9178.553681,-1685.410096
532.631135,2368.659014,-9178.553681,-1762.019645
532.631458,1850.514855,-8808.450710,-459.657299
532.631780,1184.329507,-7698.141797,-766.095498
532.632103,222.061783,-8142.265362,-1915.238745
532.632425,-666.185348,-8956.491898,-2068.457845
532.632748,-740.205942,-10214.842000,-2068.457845
532.633070,-1036.288319,-10584.944971,-1455.581446
532.633393,-444.123565,-11473.192101,-1685.410096
532.633715,444.123565,-12435.459826,-1685.410096
532.634038,1332.370696,-11991.336260,-842.705048
532.634360,1480.411884,-10807.006753,-459.657299
532.634683,2072.576638,-9548.656652,0.000000
532.635005,1924.535449,-8882.471304,-842.705048
532.635328,1998.556043,-7994.224174,-842.705048
532.635650,1850.514855,-7698.141797,-766.095498
532.635973,2146.597232,-7624.121203,-919.314598
532.636295,1776.494261,-7179.997637,-766.095498
532.636618,2590.720797,-7772.162391,-995.924147
532.636940,2146.597232,-7624.121203,-612.876398
532.637263,1850.514855,-7698.141797,-1608.800546
532.637585,1850.514855,-8142.265362,-2451.505594
532.637908,1776.494261,-9326.594869,-1838.629195
532.638230,1406.391290,-9622.677246,-1608.800546
532.638553,1036.288319,-10140.821405,-2145.067394
532.638875,592.164754,-10732.986159,-2604.724693
532.639198,444.123565,-11399.171507,-2298.286494
532.639520,74.020594,-11695.253884,-1378.971896
532.639843,0.000000,-11177.109724,-1455.581446
532.640165,296.082377,-10807.006753,-1685.410096
532.640488,814.226536,-10658.965565,-1455.581446
532.640810,1036.288319,-9622.677246,0.000000
532.641133,1110.308913,-8290.306550,306.438199
532.641455,1776.494261,-7328.038826,-459.657299
532.641778,3256.906145,-6957.935855,-1762.019645
532.642100,4737.318029,-6735.874072,-2681.334243
532.642423,5773.606348,-7550.100608,-2451.505594
532.642745,5921.647536,-9030.512492,-1532.190996
532.643068,5477.523971,-9992.780217,-1838.629195
532.643390,4737.318029,-10881.027347,-2451.505594
532.643713,3775.050304,-12509.480420,-2987.772442
532.644035,1924.535449,-13323.706956,-2987.772442
532.644358,666.185348,-13027.624579,-2221.676944
532.644680,0.000000,-11325.150913,-1225.752797
532.645003,-74.020594,-9474.636058,-459.657299
532.645325,222.061783,-8512.368333,0.000000
532.645648,0.000000,-7031.956449,0.000000
532.645970,296.082377,-5921.647536,-306.438199
532.646293,814.226536,-5551.544565,-459.657299
532.646615,1332.370696,-5329.482782,-383.047749
532.646938,1998.556043,-6217.729913,-306.438199
532.647260,1776.494261,-7698.141797,-995.924147
532.647583,1332.370696,-8660.409521,-1685.410096
532.647905,962.267725,-10510.924376,-2221.676944
532.648228,962.267725,-11547.212695,-2681.334243
532.648550,0.000000,-11177.109724,-2757.943793
532.648873,-666.185348,-11843.295072,-3600.648841
532.649195,-1332.370696,-11917.315666,-3064.381992
532.649518,-1258.350101,-12065.356855,-2987.772442
532.649840,-1480.411884,-11843.295072,-2451.505594
532.650163,-1850.514855,-11621.233289,-1302.362347
532.650485,-1776.494261,-11251.130318,-1072.533697
532.650807,-1332.370696,-11177.109724,-306.438199
532.651130,-370.102971,-9770.718434,689.485948
532.651452,74.020594,-8216.285956,919.314598
532.651775,1924.535449,-6735.874072,536.266849
532.652097,4441.235652,-5477.523971,0.000000
532.652420,6291.750507,-4959.379811,-229.828649
532.652742,7328.038826,-5033.400406,0.000000
532.653065,7994.224174,-5255.462188,-153.219100
532.653387,7994.224174,-7254.018232,-1991.848295
532.653710,7624.121203,-10658.965565,-3600.648841
532.654032,5773.606348,-12953.603985,-2681.334243
532.654355,2886.803174,-13027.624579,-1608.800546
532.654677,-296.082377,-12509.480420,-1608.800546
532.655000,-2812.782580,-12213.398043,-1685.410096
532.655322,-4663.297435,-11769.274478,-2911.162892
532.655645,-6143.709319,-10214.842000,-2911.162892
532.655967,-7031.956449,-8956.491898,-1762.019645
532.656290,-6957.935855,-6957.935855,-1838.629195
532.656612,-4663.297435,-8068.244768,-1762.019645
532.656935,-740.205942,-8216.285956,-995.924147
532.657257,2812.782580,-7476.080014,-1685.410096
532.657580,6809.894666,-10214.842000,-2604.724693
532.657902,9992.780217,-10807.006753,-536.266849
532.658225,12509.480420,-10214.842000,536.266849
532.658547,13915.871710,-8586.388927,-612.876398
532.658870,13915.871710,-7624.121203,-383.047749
532.659192,12361.439231,-7698.141797,153.219100
532.659515,9844.739029,-9326.594869,-2068.457845
532.659837,5625.565159,-10807.006753,-2221.676944
532.660160,1184.329507,-11695.253884,-995.924147
532.660482,-2442.679609,-11843.295072,-536.266849
532.660805,-5773.606348,-11843.295072,383.047749
532.661127,-9252.574275,-11769.274478,0.000000
532.661449,-10436.903782,-9622.677246,383.047749
532.661772,-10436.903782,-5107.421000,306.438199
532.662094,-9252.574275,-4145.153275,-1378.971896
532.662416,-4071.132681,-5551.544565,-2757.943793
532.662739,1258.350101,-6883.915261,-3677.258390
532.663061,5403.503377,-7698.141797,-3447.429741
532.663384,9474.636058,-9992.780217,-2451.505594
532.663706,11695.253884,-12361.439231,-1762.019645
532.664028,12805.562797,-11325.150913,-2298.286494
532.664351,10510.924376,-9918.759623,-3830.477490
532.664673,5625.565159,-9400.615463,-4366.744339
532.664995,1110.308913,-9696.697840,-4826.401637
532.665318,-2072.576638,-9474.636058,-5362.668486
532.665640,-3997.112087,-10066.800811,-3753.867940
532.665962,-6587.832884,-11843.295072,-1532.190996
532.666285,-6883.915261,-13397.727550,2068.457845
532.666607,-6291.750507,-10955.047942,4366.744339
532.666929,-4737.318029,-8660.409521,766.095498
532.667252,-2738.761985,-8438.347739,-536.266849
532.667574,1628.453072,-8660.409521,306.438199
532.667897,6735.874072,-6217.729913,-995.924147
532.668219,11251.130318,-5255.462188,-3064.381992
532.668541,14211.954086,-8142.265362,-2451.505594
532.668864,14063.912898,-12139.377449,689.485948
532.669186,10732.986159,-12361.439231,1838.629195
532.669508,6217.729913,-12509.480420,-2145.067394
532.669831,666.185348,-12805.562797,-6205.373534
532.670153,-2812.782580,-13989.892304,-6435.202183
532.670475,-6365.771101,-10436.903782,-2068.457845
532.670798,-10807.006753,-5403.503377,-1225.752797
532.671120,-10140.821405,-6439.791695,-2987.772442
532.671442,-6883.915261,-6957.935855,-1608.800546
532.671765,-3701.029710,-9326.594869,-1532.190996
532.672087,-3108.864956,-9696.697840,383.047749
532.672410,-2146.597232,-8808.450710,2757.943793
532.672732,444.123565,-7179.997637,1685.410096
532.673054,3849.070898,-5921.647536,229.828649
532.673377,5181.441594,-5921.647536,-1685.410096
532.673699,4145.153275,-6069.688724,-4213.525239
532.674021,3330.926739,-9474.636058,-3753.867940
532.674344,3997.112087,-11695.253884,-1455.581446
532.674666,5403.503377,-11769.274478,-3294.210641
532.674988,6069.688724,-12953.603985,-4749.792088
532.675311,6439.791695,-13545.768739,-2834.553343
532.675633,5329.482782,-12953.603985,689.485948
532.675955,3108.864956,-10807.006753,1532.190996
532.676278,740.205942,-9844.739029,-306.438199
532.676600,-1332.370696,-9918.759623,-2757.943793
532.676923,-2146.597232,-10214.842000,0.000000
532.677245,-1110.308913,-9622.677246,2681.334243
532.677567,1628.453072,-8882.471304,2068.457845
532.677890,5551.544565,-7328.038826,766.095498
532.678212,9030.512492,-6143.709319,2451.505594
532.678534,10288.862594,-5181.441594,3294.210641
532.678857,8734.430116,-4811.338623,1532.190996
532.679179,6365.771101,-4959.379811,-1838.629195
532.679501,4145.153275,-5699.585753,-4443.353888
532.679824,1702.473667,-7846.182985,-4903.011187
532.680146,-1480.411884,-10584.944971,-6588.421283
532.680468,-5181.441594,-13323.706956,-6435.202183
532.680791,-6587.832884,-14063.912898,-3217.601092
532.681113,-4589.276840,-13767.830521,-2145.067394
532.681436,-2960.823768,-13545.768739,-5975.544884
532.681758,-2294.638420,-13027.624579,-6052.154434
532.682080,-2886.803174,-11399.171507,-1762.019645
532.682403,-370.102971,-10288.862594,842.705048
532.682725,3552.988522,-11103.089130,306.438199
532.683047,5995.668130,-10140.821405,-612.876398
532.683370,6735.874072,-7846.182985,612.876398
532.683692,6661.853478,-7179.997637,3830.477490
532.684014,7994.224174,-7105.977043,6052.154434
532.684337,9770.718434,-5921.647536,3677.258390
532.684659,10288.862594,-4367.215058,-1762.019645
532.684981,11029.068536,-5403.503377,-1915.238745
532.685304,10584.944971,-6661.853478,153.219100
532.685626,7031.956449,-7105.977043,1302.362347
532.685949,1998.556043,-9548.656652,-459.657299
532.686271,-2960.823768,-11325.150913,-3677.258390
532.686593,-7698.141797,-11251.130318,-5515.887586
532.686916,-10436.903782,-11547.212695,-7354.516781
532.687238,-11103.089130,-12805.562797,-8656.879127
532.687560,-8586.388927,-15396.283594,-8120.612279
532.687883,-5625.565159,-13101.645173,-4060.306139
532.688205,-4959.379811,-9178.553681,612.876398
532.688527,-4663.297435,-9104.533087,1072.533697
532.688850,-2960.823768,-10658.965565,-1838.629195
532.689172,-1924.535449,-10955.047942,-4673.182538
532.689494,-1850.514855,-8068.244768,-3600.648841
532.689817,74.020594,-6957.935855,459.657299
532.690139,4145.153275,-6661.853478,2757.943793
532.690462,7846.182985,-5625.565159,2068.457845
532.690784,9844.739029,-3775.050304,1532.190996
532.691106,11029.068536,-5403.503377,383.047749
532.691429,11177.109724,-9992.780217,0.000000
532.691751,8512.368333,-11991.336260,-306.438199
532.692073,2960.823768,-11103.089130,-1225.752797
532.692396,-518.144159,-11103.089130,-1378.971896
532.692718,-370.102971,-11325.150913,-2221.676944
532.693040,370.102971,-11769.274478,-4673.182538
532.693363,-1554.432478,-11177.109724,-5286.058936
532.693685,-3552.988522,-9844.739029,-1838.629195
532.694007,-3627.009116,-12065.356855,-536.266849
532.694330,-3775.050304,-15100.201217,-919.314598
532.694652,-5329.482782,-14285.974681,-842.705048
532.694975,-6957.935855,-8956.491898,-1302.362347
532.695297,-5477.523971,-4589.276840,-1838.629195
532.695619,296.082377,-4885.359217,-1685.410096
532.695942,4663.297435,-5625.565159,-2528.115143
532.696264,5847.626942,-4885.359217,-1072.533697
532.696586,6513.812290,-5403.503377,2145.067394
532.696909,7772.162391,-7179.997637,1838.629195
532.697231,6809.894666,-9030.512492,-2681.334243
532.697553,3182.885551,-9622.677246,-3600.648841
532.697876,0.000000,-9992.780217,-1915.238745
532.698198,296.082377,-11177.109724,-2145.067394
532.698520,1332.370696,-11029.068536,-3677.258390
532.698843,148.041188,-9770.718434,-2604.724693
532.699165,-518.144159,-9474.636058,-229.828649
532.699488,444.123565,-13101.645173,612.876398
532.699810,1184.329507,-15618.345376,612.876398
532.700132,-1110.308913,-15248.242405,612.876398
532.700455,-2146.597232,-11695.253884,2068.457845
532.700777,222.061783,-7179.997637,2145.067394
532.701099,4071.132681,-3997.112087,-1149.143247
532.701422,6439.791695,-2146.597232,-2757.943793
532.701744,6439.791695,-1554.432478,-306.438199
532.702066,5477.523971,-3182.885551,1455.581446
532.702389,3404.947333,-7772.162391,-995.924147
532.702711,-1258.350101,-11695.253884,-3370.820191
532.703033,-5033.400406,-13545.768739,-4290.134789
532.703356,-6809.894666,-13397.727550,-5669.106685
532.703678,-7105.977043,-11991.336260,-6741.640382
532.704001,-7328.038826,-9918.759623,-5898.935335
532.704323,-7402.059420,-9992.780217,-4060.306139
532.704645,-7105.977043,-11843.295072,-1302.362347
532.704968,-5847.626942,-13619.789333,0.000000
532.705290,-4515.256246,-13397.727550,-1225.752797
532.705612,-2072.576638,-11843.295072,-2681.334243
532.705935,444.123565,-9104.533087,-612.876398
532.706257,2738.761985,-6513.812290,2451.505594
532.706579,4811.338623,-3627.009116,3830.477490
532.706902,6069.688724,-1480.411884,2757.943793
532.707224,5033.400406,-296.082377,306.438199
532.707546,2442.679609,-1850.514855,-2681.334243
532.707869,-592.164754,-5995.668130,-4826.401637
532.708191,-3552.988522,-10066.800811,-6205.373534
532.708514,-4441.235652,-13471.748144,-6358.592633
532.708836,-4293.194464,-14285.974681,-5592.497135
532.709158,-4959.379811,-14582.057057,-6741.640382
532.709481,-5033.400406,-17690.922014,-6358.592633
532.709803,-5847.626942,-18579.169144,-3447.429741
532.710125,-5847.626942,-16876.695478,-919.314598
532.710448,-4515.256246,-13915.871710,-2221.676944
532.710770,-370.102971,-11843.295072,-2834.553343
532.711092,4071.132681,-9474.636058,-536.266849
532.711415,7772.162391,-5995.668130,3294.210641
532.711737,9178.553681,-3108.864956,5515.887586
532.712059,9400.615463,-814.226536,4749.792088
532.712382,9178.553681,-1480.411884,2451.505594
532.712704,6365.771101,-2516.700203,306.438199
532.713027,1110.308913,-4219.173869,-766.095498
532.713349,-2812.782580,-6957.935855,-1838.629195
532.713671,-3849.070898,-9326.594869,-4826.401637
532.713994,-4441.235652,-10214.842000,-7201.297681
532.714316,-6069.688724,-11621.233289,-6205.373534
532.714638,-5995.668130,-14211.954086,-4519.963438
532.714961,-7105.977043,-17320.819043,-3217.601092
532.715283,-6957.935855,-19023.292709,-2911.162892
532.715605,-5033.400406,-17542.880825,-2987.772442
532.715928,-1998.556043,-14952.160028,-2451.505594
532.716250,1776.494261,-11621.233289,306.438199
532.716572,4441.235652,-5773.606348,3983.696590
532.716895,6735.874072,-1184.329507,5056.230287
532.717217,9622.677246,1332.370696,2298.286494
532.717540,10584.944971,222.061783,383.047749
532.717862,7846.182985,-1702.473667,1838.629195
532.718184,2368.659014,-2812.782580,2681.334243
532.718507,-444.123565,-6735.874072,-306.438199
532.718829,-2664.741391,-9474.636058,-4519.963438
532.719151,-4367.215058,-11843.295072,-6358.592633
532.719474,-5403.503377,-13397.727550,-5362.668486
532.719796,-7550.100608,-14359.995275,-4060.306139
532.720118,-7402.059420,-15618.345376,-2834.553343
532.720441,-5551.544565,-16876.695478,-3140.991542
532.720763,-2294.638420,-17172.777854,-3294.210641
532.721085,1258.350101,-16654.633695,-2451.505594
532.721408,2812.782580,-13101.645173,0.000000
532.721730,4219.173869,-7994.224174,2068.457845
532.722053,5403.503377,-3330.926739,2221.676944
532.722375,5181.441594,-444.123565,995.924147
532.722697,2294.638420,0.000000,383.047749
532.723020,-2442.679609,-1850.514855,383.047749
532.723342,-4737.318029,-3182.885551,-1991.848295
532.723664,-5551.544565,-5773.606348,-5592.497135
532.723987,-4811.338623,-10362.883188,-6588.421283
532.724309,-4737.318029,-13397.727550,-5056.230287
532.724631,-6143.709319,-15470.304188,-2604.724693
532.724954,-7846.182985,-14952.160028,-1455.581446
532.725276,-7179.997637,-15692.365970,-3447.429741
532.725598,-5921.647536,-15766.386565,-6205.373534
532.725921,-1924.535449,-15026.180623,-5362.668486
532.726243,2368.659014,-13471.748144,-2298.286494
532.726566,6439.791695,-11103.089130,-689.485948
532.726888,10510.924376,-9252.574275,3370.820191
532.727210,11325.150913,-5625.565159,5515.887586
532.727533,8364.327145,-2294.638420,4443.353888
532.727855,4145.153275,-2368.659014,2145.067394
532.728177,296.082377,-962.267725,-153.219100
532.728500,-2960.823768,-814.226536,-2757.943793
532.728822,-6809.894666,-3330.926739,-4443.353888
532.729144,-9326.594869,-7031.956449,-3447.429741
532.729467,-9918.759623,-10066.800811,-3830.477490
532.729789,-7179.997637,-15174.221811,-5669.106685
532.730111,-5847.626942,-16210.510130,-4366.744339
532.730434,-5403.503377,-17320.819043,-3217.601092
532.730756,-3627.009116,-15692.365970,-3217.601092
532.731079,962.267725,-15766.386565,-3217.601092
532.731401,4589.276840,-12879.583391,-2451.505594
532.731723,7031.956449,-7920.203579,-1608.800546
532.732046,8290.306550,-6217.729913,-766.095498
532.732368,7920.203579,-5477.523971,1685.410096
532.732690,6291.750507,-5329.482782,2298.286494
532.733013,2812.782580,-4885.359217,2451.505594
532.733335,-222.061783,-4811.338623,1532.190996
532.733657,-1628.453072,-5329.482782,-1455.581446
532.733980,-3997.112087,-4811.338623,-3370.820191
532.734302,-7105.977043,-5181.441594,-3217.601092
532.734624,-7402.059420,-8808.450710,-2528.115143
532.734947,-6883.915261,-11843.295072,-1915.238745
532.735269,-4959.379811,-13841.851115,-2451.505594
532.735592,-2146.597232,-15692.365970,-4596.572988
532.735914,3034.844362,-18431.127956,-4903.011187
532.736236,7920.203579,-18875.251521,-2757.943793
532.736559,10066.800811,-14582.057057,306.438199
532.736881,9400.615463,-10214.842000,2374.896044
532.737203,8068.244768,-6439.791695,1455.581446
532.737526,4515.256246,-4145.153275,-689.485948
532.737848,0.000000,-3701.029710,-1838.629195
532.738170,-4071.132681,-3108.864956,-1838.629195
532.738493,-6143.709319,-5107.421000,-2757.943793
532.738815,-6143.709319,-6661.853478,-2604.724693
532.739137,-6291.750507,-8290.306550,-383.047749
532.739460,-7994.224174,-7550.100608,153.219100
532.739782,-8512.368333,-9548.656652,-2221.676944
532.740105,-7772.162391,-11473.192101,-4903.011187
532.740427,-5181.441594,-12287.418637,-5056.230287
532.740749,-1776.494261,-13545.768739,-5669.106685
532.741072,2516.700203,-15026.180623,-3983.696590
532.741394,6661.853478,-14508.036463,-306.438199
532.741716,9622.677246,-11991.336260,2451.505594
532.742039,11473.192101,-9474.636058,2068.457845
532.742361,10214.842000,-8364.327145,383.047749
532.742683,4663.297435,-5699.585753,1532.190996
532.743006,74.020594,-3330.926739,2374.896044
532.743328,-2516.700203,-3034.844362,536.266849
532.743650,-3478.967927,-3478.967927,-1915.238745
532.743973,-6809.894666,-2368.659014,-1149.143247
532.744295,-10510.924376,-3478.967927,-612.876398
532.744618,-10955.047942,-9696.697840,-919.314598
532.744940,-10288.862594,-13989.892304,-2374.896044
532.745262,-9104.533087,-15396.283594,-4290.134789
532.745585,-5551.544565,-14508.036463,-5286.058936
532.745907,222.061783,-15026.180623,-6205.373534
532.746229,4811.338623,-14211.954086,-4136.915689
532.746552,6957.935855,-11991.336260,-612.876398
532.746874,7698.141797,-9696.697840,919.314598
532.747196,7846.182985,-9770.718434,-1302.362347
532.747519,6143.709319,-8882.471304,-3983.696590
532.747841,2368.659014,-7402.059420,-1685.410096
532.748163,-222.061783,-6735.874072,459.657299
532.748486,-1184.329507,-5995.668130,-459.657299
532.748808,-2516.700203,-5477.523971,-689.485948
532.749131,-4589.276840,-5107.421000,612.876398
532.749453,-7402.059420,-6365.771101,76.609550
532.749775,-8290.306550,-10066.800811,-2145.067394
532.750098,-7772.162391,-13101.645173,-3217.601092
532.750420,-4071.132681,-12879.583391,-3983.696590
532.750742,1776.494261,-13989.892304,-5362.668486
532.751065,7994.224174,-15396.283594,-2757.943793
532.751387,10214.842000,-13323.706956,1072.533697
532.751709,9326.594869,-9030.512492,2068.457845
532.752032,8290.306550,-9178.553681,229.828649
532.752354,5773.606348,-9844.739029,-2834.553343
532.752676,1036.288319,-8142.265362,-4749.792088
532.752999,-4219.173869,-5995.668130,-3064.381992
532.753321,-5773.606348,-5699.585753,-1225.752797
532.753644,-4885.359217,-5699.585753,-1915.238745
532.753966,-6661.853478,-4737.318029,-2374.896044
532.754288,-9474.636058,-5403.503377,-1762.019645
532.754611,-11695.253884,-9104.533087,-689.485948
532.754933,-12435.459826,-11621.233289,-3064.381992
532.755255,-9844.739029,-11843.295072,-4596.572988
532.755578,-3849.070898,-12583.501014,-5515.887586
532.755900,4071.132681,-13101.645173,-4596.572988
532.756222,10362.883188,-13101.645173,0.000000
532.756545,13841.851115,-10584.944971,4596.572988
532.756867,14211.954086,-7476.080014,4060.306139
532.757189,12361.439231,-6809.894666,919.314598
532.757512,8216.285956,-6809.894666,-1532.190996
532.757834,2072.576638,-7698.141797,-1991.848295
532.758157,-2442.679609,-6735.874072,-612.876398
532.758479,-3849.070898,-7031.956449,-1608.800546
532.758801,-5403.503377,-5329.482782,-1225.752797
532.759124,-8438.347739,-3627.009116,-612.876398
532.759446,-9326.594869,-6809.894666,-1532.190996
532.759768,-10066.800811,-11473.192101,-2528.115143
532.760091,-10658.965565,-13767.830521,-3524.039291
532.760413,-8142.265362,-13841.851115,-4519.963438
532.760735,-2516.700203,-15100.201217,-5592.497135
532.761058,2960.823768,-14952.160028,-3217.601092
532.761380,7328.038826,-12435.459826,-612.876398
532.761702,9030.512492,-9548.656652,689.485948
532.762025,10584.944971,-8142.265362,383.047749
532.762347,9326.594869,-6957.935855,-1991.848295
532.762670,4589.276840,-7105.977043,-2221.676944
532.762992,222.061783,-7105.977043,-306.438199
532.763314,-2294.638420,-7846.182985,-536.266849
532.763637,-3997.112087,-7402.059420,-1532.190996
532.763959,-6069.688724,-6365.771101,-1149.143247
532.764281,-9548.656652,-6217.729913,-919.314598
532.764603,-10066.800811,-8734.430116,-1378.971896
532.764926,-8734.430116,-11473.192101,-2145.067394
532.765248,-6587.832884,-12435.459826,-2068.457845
532.765570,-2368.659014,-12213.398043,-2987.772442
532.765893,3552.988522,-13249.686362,-4290.134789
532.766215,8290.306550,-13915.871710,-1762.019645
532.766537,9770.718434,-11325.150913,2911.162892
532.766859,9844.739029,-7772.162391,2681.334243
532.767182,8586.388927,-6217.729913,-612.876398
532.767504,6069.688724,-6291.750507,-3600.648841
532.767826,2072.576638,-7105.977043,-3600.648841
532.768148,-2072.576638,-7105.977043,-1762.019645
532.768471,-4293.194464,-7698.141797,-306.438199
532.768793,-6809.894666,-7179.997637,-2298.286494
532.769115,-9474.636058,-7105.977043,-2145.067394
532.769438,-11473.192101,-8438.347739,-1838.629195
532.769760,-12583.501014,-10658.965565,-3217.601092
532.770082,-10807.006753,-12361.439231,-3600.648841
532.770404,-5921.647536,-12805.562797,-2987.772442
532.770727,1406.391290,-11843.295072,-4136.915689
532.771049,8882.471304,-12583.501014,-2987.772442
532.771371,13027.624579,-13397.727550,1378.971896
532.771694,14434.015869,-10288.862594,5132.839837
532.772016,13841.851115,-6661.853478,2604.724693
532.772338,10807.006753,-4885.359217,-1608.800546
532.772660,6735.874072,-7179.997637,-2757.943793
532.772983,1628.453072,-7476.080014,-689.485948
532.773305,-2960.823768,-7105.977043,-459.657299
532.773627,-5995.668130,-5847.626942,-2374.896044
532.773950,-9104.533087,-6143.709319,-2834.553343
532.774272,-11473.192101,-9252.574275,-1915.238745
532.774594,-12435.459826,-11325.150913,-1838.629195
532.774916,-13249.686362,-13323.706956,-3600.648841
532.775239,-11251.130318,-14434.015869,-4136.915689
532.775561,-4367.215058,-14582.057057,-4673.182538
532.775883,3627.009116,-13915.871710,-4213.525239
532.776205,9252.574275,-13249.686362,-2221.676944
532.776528,11843.295072,-10362.883188,2451.505594
532.776850,12435.459826,-7698.141797,4136.915689
532.777172,12287.418637,-6217.729913,689.485948
532.777495,8290.306550,-6069.688724,-1991.848295
532.777817,2368.659014,-5551.544565,-2604.724693
532.778139,-2516.700203,-6069.688724,-1455.581446
532.778461,-4589.276840,-6883.915261,-919.314598
532.778784,-6661.853478,-6291.750507,-2145.067394
532.779106,-8734.430116,-7254.018232,-1608.800546
532.779428,-10732.986159,-8660.409521,-919.314598
532.779751,-12435.459826,-10807.006753,-1608.800546
532.780073,-12435.459826,-11695.253884,-2528.115143
532.780395,-9030.512492,-14137.933492,-5056.230287
532.780717,-1702.473667,-14730.098246,-6511.811733
532.781040,8216.285956,-14656.077652,-4826.401637
532.781362,14508.036463,-13027.624579,536.266849
532.781684,15322.262999,-9030.512492,6358.592633
532.782007,13693.809927,-5107.421000,6128.763984
532.782329,10288.862594,-3552.988522,76.609550
532.782651,5255.462188,-5329.482782,-3907.087040
532.782973,0.000000,-6883.915261,-3983.696590
532.783296,-4515.256246,-6587.832884,-3064.381992
532.783618,-7846.182985,-5403.503377,-2068.457845
532.783940,-9622.677246,-5921.647536,459.657299
532.784263,-11843.295072,-8290.306550,536.266849
532.784585,-12213.398043,-10362.883188,-2068.457845
532.784907,-12953.603985,-13471.748144,-4979.620737
532.785229,-11621.233289,-13545.768739,-5515.887586
532.785552,-4811.338623,-14434.015869,-7431.126331
532.785874,3701.029710,-15766.386565,-5362.668486
532.786196,10066.800811,-14804.118840,-766.095498
532.786518,12213.398043,-11547.212695,3600.648841
532.786841,12139.377449,-6587.832884,3983.696590
532.787163,11399.171507,-4737.318029,-383.047749
532.787485,8290.306550,-5625.565159,-4290.134789
532.787808,3034.844362,-7624.121203,-3907.087040
532.788130,-1924.535449,-8512.368333,-689.485948
532.788452,-3627.009116,-8882.471304,-229.828649
532.788774,-4737.318029,-6069.688724,-1072.533697
532.789097,-7698.141797,-5033.400406,-1072.533697
532.789419,-10584.944971,-7772.162391,-1072.533697
532.789741,-11621.233289,-11399.171507,-2068.457845
532.790064,-9992.780217,-12953.603985,-3064.381992
532.790386,-6883.915261,-14137.933492,-5592.497135
532.790708,-148.041188,-15248.242405,-5822.325785
532.791030,7105.977043,-15914.427753,-1762.019645
532.791353,10881.027347,-13619.789333,2528.115143
532.791675,11325.150913,-9326.594869,4903.011187
532.791997,11103.089130,-5181.441594,1838.629195
532.792320,9696.697840,-3627.009116,-3064.381992
532.792642,5329.482782,-4959.379811,-3370.820191
532.792964,1110.308913,-6365.771101,-842.705048
532.793286,-1628.453072,-6661.853478,0.000000
532.793609,-2664.741391,-6587.832884,-919.314598
532.793931,-5625.565159,-6069.688724,-612.876398
532.794253,-10436.903782,-7476.080014,-536.266849
532.794575,-13397.727550,-10510.924376,-306.438199
532.794898,-14137.933492,-11547.212695,-2068.457845
532.795220,-11843.295072,-11843.295072,-4596.572988
532.795542,-6883.915261,-13397.727550,-6665.030833
532.795865,1036.288319,-13471.748144,-4443.353888
532.796187,8290.306550,-13693.809927,-842.705048
532.796509,11769.274478,-11621.233289,3447.429741
532.796831,13397.727550,-8216.285956,5132.839837
532.797154,12657.521608,-4441.235652,766.095498
532.797476,9252.574275,-4293.194464,-3753.867940
532.797798,3997.112087,-7179.997637,-2681.334243
532.798121,-148.041188,-7698.141797,-612.876398
532.798443,-3404.947333,-6513.812290,-1685.410096
532.798765,-5033.400406,-5107.421000,-2681.334243
532.799087,-8660.409521,-7179.997637,-2145.067394
532.799410,-12287.418637,-10807.006753,-306.438199
532.799732,-14211.954086,-12361.439231,0.000000
532.800054,-14063.912898,-12657.521608,-3907.087040
532.800377,-10362.883188,-13101.645173,-6128.763984
532.800699,-2368.659014,-14063.912898,-5822.325785
532.801021,5255.462188,-12731.542202,-2451.505594
532.801343,10140.821405,-12213.398043,1225.752797
532.801666,13175.665768,-10658.965565,4290.134789
532.801988,14656.077652,-7254.018232,3217.601092
532.802310,13101.645173,-4367.215058,-1378.971896
532.802632,7254.018232,-5181.441594,-3217.601092
532.802955,1332.370696,-6661.853478,-2374.896044
532.803277,-2960.823768,-8438.347739,-2604.724693
532.803599,-5625.565159,-7698.141797,-3217.601092
532.803922,-8068.244768,-6661.853478,-2451.505594
532.804244,-11769.274478,-7624.121203,-2681.334243
532.804566,-13989.892304,-9770.718434,-2451.505594
532.804888,-12657.521608,-12509.480420,-3294.210641
532.805211,-10955.047942,-13841.851115,-4060.306139
532.805533,-6883.915261,-14359.995275,-5056.230287
532.805855,1110.308913,-13545.768739,-5439.278036
532.806178,8586.388927,-12583.501014,-1991.848295
532.806500,14063.912898,-11843.295072,2681.334243
532.806822,15692.365970,-8068.244768,4673.182538
532.807144,14211.954086,-3330.926739,3370.820191
532.807467,10807.006753,-2812.782580,-306.438199
532.807789,5699.585753,-6217.729913,-2221.676944
532.808111,1110.308913,-8068.244768,-1762.019645
532.808434,-2960.823768,-7772.162391,-2911.162892
532.808756,-6809.894666,-7402.059420,-3217.601092
532.809078,-10807.006753,-7254.018232,-1838.629195
532.809400,-11695.253884,-9474.636058,-1532.190996
532.809723,-11991.336260,-10436.903782,-3600.648841
532.810045,-12657.521608,-13027.624579,-4979.620737
532.810367,-9252.574275,-14359.995275,-3753.867940
532.810689,-2220.617826,-15692.365970,-4903.011187
532.811012,5181.441594,-14137.933492,-4673.182538
532.811334,10510.924376,-13693.809927,0.000000
532.811656,11843.295072,-12065.356855,5056.230287
532.811979,12361.439231,-5551.544565,5209.449386
532.812301,10584.944971,-1776.494261,-229.828649
532.812623,7031.956449,-2960.823768,-3140.991542
532.812945,2812.782580,-6365.771101,-2451.505594
532.813268,-814.226536,-8068.244768,-842.705048
532.813590,-2664.741391,-8586.388927,-153.219100
532.813912,-4293.194464,-8068.244768,-919.314598
532.814235,-7698.141797,-8808.450710,-995.924147
532.814557,-11103.089130,-9622.677246,-536.266849
532.814879,-13027.624579,-11621.233289,-2451.505594
532.815201,-12731.542202,-11621.233289,-3294.210641
532.815524,-8586.388927,-13397.727550,-6052.154434
532.815846,-814.226536,-14434.015869,-6281.983084
532.816168,7031.956449,-15174.221811,-2528.115143
532.816491,10732.986159,-13915.871710,3830.477490
532.816813,10140.821405,-8512.368333,8427.050478
532.817135,8882.471304,-3330.926739,4366.744339
532.817457,6957.935855,-2960.823768,-3217.601092
532.817780,3849.070898,-5551.544565,-5515.887586
532.818102,-592.164754,-5699.585753,-2604.724693
532.818424,-4219.173869,-4811.338623,-612.876398
532.818747,-3849.070898,-6217.729913,-995.924147
532.819069,-4737.318029,-7846.182985,-612.876398
532.819391,-8364.327145,-9844.739029,-1608.800546
532.819713,-12879.583391,-12805.562797,-612.876398
532.820036,-14211.954086,-13323.706956,-1991.848295
532.820358,-11621.233289,-13027.624579,-6358.592633
532.820680,-4811.338623,-13323.706956,-9269.755526
532.821002,2664.741391,-12657.521608,-5439.278036
532.821325,8216.285956,-12731.542202,1225.752797
532.821647,11621.233289,-9992.780217,5592.497135
532.821969,12583.501014,-5699.585753,4060.306139
532.822292,11251.130318,-3923.091493,-383.047749
532.822614,7550.100608,-6291.750507,-2298.286494
532.822936,2886.803174,-7994.224174,-2221.676944
532.823258,-1480.411884,-7846.182985,-2451.505594
532.823581,-4441.235652,-6587.832884,-3217.601092
532.823903,-6513.812290,-5477.523971,-2451.505594
532.824225,-8734.430116,-7328.038826,-1455.581446
532.824548,-9474.636058,-10658.965565,-2298.286494
532.824870,-10214.842000,-12879.583391,-3524.039291
532.825192,-10510.924376,-14434.015869,-3983.696590
532.825514,-6069.688724,-15248.242405,-4826.401637
532.825837,1110.308913,-14285.974681,-5132.839837
532.826159,6291.750507,-12657.521608,-2298.286494
532.826481,9992.780217,-10955.047942,2374.896044
532.826804,12435.459826,-8364.327145,3753.867940
532.827126,11991.336260,-4293.194464,1915.238745
532.827448,7994.224174,-3701.029710,-536.266849
532.827770,3627.009116,-6069.688724,-689.485948
532.828093,296.082377,-6809.894666,-2834.553343
532.828415,-1110.308913,-7402.059420,-5515.887586
532.828737,-3775.050304,-7105.977043,-4749.792088
532.829059,-8216.285956,-6957.935855,-1455.581446
532.829382,-10066.800811,-8956.491898,-383.047749
532.829704,-11473.192101,-11473.192101,-2681.334243
532.830026,-12287.418637,-12879.583391,-5439.278036
532.830349,-10732.986159,-14063.912898,-6052.154434
532.830671,-4589.276840,-15322.262999,-6281.983084
532.830993,2886.803174,-15100.201217,-4826.401637
532.831315,8364.327145,-13619.789333,0.000000
532.831638,11029.068536,-11769.274478,5669.106685
532.831960,11547.212695,-5477.523971,5439.278036
532.832282,10732.986159,-1702.473667,76.609550
532.832605,7105.977043,-2886.803174,-2451.505594
532.832927,2960.823768,-4959.379811,-2145.067394
532.833249,-444.123565,-5773.606348,-1072.533697
532.833571,-2368.659014,-6957.935855,-1302.362347
532.833894,-3552.988522,-9104.533087,-995.924147
532.834216,-5181.441594,-10584.944971,-995.924147
532.834538,-6957.935855,-11695.253884,-1455.581446
532.834861,-9474.636058,-11991.336260,-2604.724693
532.835183,-10140.821405,-12435.459826,-3370.820191
532.835505,-7476.080014,-12805.562797,-4596.572988
532.835827,-1480.411884,-13175.665768,-6128.763984
532.836150,3552.988522,-13101.645173,-5515.887586
532.836472,5995.668130,-12953.603985,459.657299
532.836794,6365.771101,-10436.903782,5592.497135
532.837116,5773.606348,-6957.935855,3217.601092
532.837439,3627.009116,-3997.112087,-1685.410096
532.837761,1184.329507,-4663.297435,-2298.286494
532.838083,-1332.370696,-5625.565159,-1685.410096
532.838406,-1776.494261,-6883.915261,-1149.143247
532.838728,-2664.741391,-5921.647536,-459.657299
532.839050,-4145.153275,-6439.791695,-153.219100
532.839372,-5033.400406,-9918.759623,0.000000
532.839695,-6883.915261,-12435.459826,-383.047749
532.840017,-9548.656652,-13767.830521,-2145.067394
532.840339,-8586.388927,-12879.583391,-3600.648841
532.840662,-3552.988522,-12065.356855,-5898.935335
532.840984,1924.535449,-12583.501014,-4366.744339
532.841306,4071.132681,-10881.027347,1225.752797
532.841628,4145.153275,-8660.409521,4213.525239
532.841951,5329.482782,-7254.018232,2145.067394
532.842273,6883.915261,-6513.812290,-2068.457845
532.842595,5403.503377,-6143.709319,-3677.258390
532.842918,1998.556043,-6365.771101,-2068.457845
532.843240,1036.288319,-7994.224174,0.000000
532.843562,74.020594,-7179.997637,0.000000
532.843884,-2516.700203,-5847.626942,-842.705048
532.844207,-6217.729913,-5995.668130,-2145.067394
532.844529,-8438.347739,-9030.512492,-4366.744339
532.844851,-8882.471304,-12583.501014,-5286.058936
532.845173,-7105.977043,-13915.871710,-3447.429741
532.845496,-3775.050304,-14137.933492,-3217.601092
532.845818,1628.453072,-14730.098246,-3907.087040
532.846140,6143.709319,-14063.912898,-1225.752797
532.846463,8216.285956,-11843.295072,2068.457845
532.846785,8882.471304,-8660.409521,2604.724693
532.847107,7994.224174,-4737.318029,0.000000
532.847429,5847.626942,-2960.823768,-2068.457845
532.847752,2886.803174,-5329.482782,-1762.019645
532.848074,814.226536,-6883.915261,-536.266849
532.848396,0.000000,-7698.141797,-2834.553343
532.848719,-2294.638420,-8364.327145,-3830.477490
532.849041,-3849.070898,-8808.450710,-1072.533697
532.849363,-7402.059420,-9696.697840,-2298.286494
532.849685,-8882.471304,-12213.398043,-4366.744339
532.850008,-10066.800811,-12731.542202,-5132.839837
532.850330,-8438.347739,-13693.809927,-4443.353888
532.850652,-4071.132681,-14656.077652,-6435.202183
532.850975,1998.556043,-13915.871710,-4749.792088
532.851297,5847.626942,-12953.603985,-995.924147
532.851619,7254.018232,-11177.109724,2757.943793
532.851941,7031.956449,-7772.162391,4903.011187
532.852264,5921.647536,-4737.318029,689.485948
532.852586,3849.070898,-2812.782580,-3753.867940
532.852908,2146.597232,-4293.194464,-2757.943793
532.853230,666.185348,-5403.503377,0.000000
532.853553,-962.267725,-5403.503377,153.219100
532.853875,-2590.720797,-6587.832884,-689.485948
532.854197,-4589.276840,-9474.636058,-689.485948
532.854520,-6365.771101,-12509.480420,-1532.190996
532.854842,-8438.347739,-12361.439231,-2528.115143
532.855164,-9622.677246,-12657.521608,-3753.867940
532.855486,-7550.100608,-13027.624579,-5056.230287
532.855809,-1776.494261,-13323.706956,-4826.401637
532.856131,2590.720797,-11769.274478,-2911.162892
532.856453,4589.276840,-10214.842000,0.000000
532.856776,6143.709319,-8660.409521,2451.505594
532.857098,7402.059420,-6661.853478,1685.410096
532.857420,6143.709319,-5329.482782,-995.924147
532.857742,2664.741391,-6143.709319,-1302.362347
532.858065,-296.082377,-7179.997637,-153.219100
532.858387,-1628.453072,-7105.977043,-383.047749
532.858709,-2664.741391,-6513.812290,-1225.752797
532.859032,-4145.153275,-6587.832884,-1225.752797
532.859354,-5033.400406,-9400.615463,-1685.410096
532.859676,-5699.585753,-11399.171507,-1991.848295
532.859998,-5255.462188,-12509.480420,-1838.629195
532.860321,-3923.091493,-13249.686362,-3447.429741
532.860643,0.000000,-13471.748144,-5439.278036
532.860965,3552.988522,-13397.727550,-3753.867940
532.861288,5329.482782,-11029.068536,0.000000
532.861610,5255.462188,-8068.244768,2451.505594
532.861932,5773.606348,-6957.935855,766.095498
532.862254,5551.544565,-7994.224174,-1915.238745
532.862577,2738.761985,-8734.430116,-2681.334243
532.862899,-1258.350101,-7328.038826,-842.705048
532.863221,-3182.885551,-7476.080014,-306.438199
532.863540,-2220.617826,-7476.080014,-1838.629195
532.863862,-2220.617826,-6809.894666,-2528.115143
532.864184,-6217.729913,-6809.894666,-2145.067394
532.864507,-9030.512492,-8734.430116,-612.876398
532.864829,-10510.924376,-10214.842000,-2528.115143
532.865151,-8290.306550,-12435.459826,-5515.887586
532.865473,-3330.926739,-13915.871710,-6205.373534
532.865796,1924.535449,-14952.160028,-5822.325785
532.866118,5255.462188,-14359.995275,-2221.676944
532.866440,7254.018232,-12435.459826,4290.134789
532.866762,8142.265362,-9030.512492,4826.401637
532.867085,8512.368333,-4589.276840,-612.876398
532.867407,7179.997637,-3330.926739,-3983.696590
532.867729,4441.235652,-4589.276840,-2221.676944
532.868051,1776.494261,-6069.688724,-153.219100
532.868373,74.020594,-6883.915261,0.000000
532.868696,-1258.350101,-8512.368333,-766.095498
532.869018,-3849.070898,-9622.677246,-229.828649
532.869340,-7328.038826,-9770.718434,-383.047749
532.869662,-11621.233289,-9474.636058,-2604.724693
532.869985,-12213.398043,-10955.047942,-4673.182538
532.870307,-7920.203579,-13545.768739,-5515.887586
532.870629,-2368.659014,-13545.768739,-4903.011187
532.870951,2812.782580,-12805.562797,-3447.429741
532.871273,6735.874072,-13175.665768,0.000000
532.871596,8512.368333,-11325.150913,3600.648841
532.871918,9104.533087,-7402.059420,2528.115143
532.872240,7920.203579,-5403.503377,-1838.629195
532.872562,4589.276840,-5551.544565,-3447.429741
532.872885,962.267725,-7698.141797,-1378.971896
532.873207,-1480.411884,-7920.203579,76.609550
532.873529,-2960.823768,-7402.059420,-229.828649
532.873851,-4515.256246,-8512.368333,-1991.848295
532.874173,-5773.606348,-10140.821405,-689.485948
532.874496,-7105.977043,-10584.944971,-1149.143247
532.874818,-8290.306550,-11251.130318,-2145.067394
532.875140,-7698.141797,-11769.274478,-2757.943793
532.875462,-4071.132681,-12139.377449,-3447.429741
532.875785,1110.308913,-11917.315666,-4749.792088
532.876107,5107.421000,-11251.130318,-3140.991542
532.876429,6513.812290,-10658.965565,1302.362347
532.876751,7105.977043,-9400.615463,4749.792088
532.877073,7846.182985,-6439.791695,2068.457845
532.877396,6291.750507,-5773.606348,-2528.115143
532.877718,2812.782580,-7031.956449,-2451.505594
532.878040,-666.185348,-7476.080014,-1072.533697
532.878362,-3404.947333,-7179.997637,-842.705048
532.878685,-5033.400406,-6735.874072,-2298.286494
532.879007,-7179.997637,-7476.080014,-2604.724693
532.879329,-8660.409521,-8586.388927,-2604.724693
532.879651,-10362.883188,-9474.636058,-2221.676944
532.879974,-10955.047942,-11177.109724,-3140.991542
532.880296,-7476.080014,-13693.809927,-3447.429741
532.880618,-2146.597232,-13693.809927,-4290.134789
532.880940,2294.638420,-11029.068536,-3447.429741
532.881262,5847.626942,-10066.800811,-766.095498
532.881585,8068.244768,-10214.842000,3294.210641
532.881907,9474.636058,-7476.080014,2681.334243
532.882229,9030.512492,-3849.070898,-1455.581446
532.882551,6439.791695,-4663.297435,-3524.039291
532.882874,3627.009116,-7402.059420,-2374.896044
532.883196,444.123565,-8808.450710,-995.924147
532.883518,-2072.576638,-8734.430116,-1455.581446
532.883840,-4145.153275,-9252.574275,-2374.896044
532.884162,-6957.935855,-9326.594869,-2757.943793
532.884485,-7846.182985,-9696.697840,-3294.210641
532.884807,-8734.430116,-10066.800811,-3907.087040
532.885129,-8512.368333,-12953.603985,-3294.210641
532.885451,-4515.256246,-14730.098246,-3524.039291
532.885774,1480.411884,-13471.748144,-5056.230287
532.886096,5921.647536,-11843.295072,-3447.429741
532.886418,7698.141797,-10955.047942,1378.971896
532.886740,8364.327145,-9104.533087,4519.963438
532.887062,8734.430116,-5403.503377,536.266849
532.887385,7698.141797,-4515.256246,-3600.648841
532.887707,4589.276840,-6365.771101,-3830.477490
532.888029,-148.041188,-7031.956449,-1378.971896
532.888351,-3552.988522,-7476.080014,-536.266849
532.888674,-5403.503377,-8882.471304,-1915.238745
532.888996,-6883.915261,-9918.759623,-3370.820191
532.889318,-7105.977043,-11843.295072,-3524.039291
532.889640,-8956.491898,-10066.800811,-2681.334243
532.889963,-9474.636058,-11917.315666,-2221.676944
532.890285,-6439.791695,-13767.830521,-2451.505594
532.890607,-740.205942,-12287.418637,-4136.915689
532.890929,3404.947333,-11251.130318,-4749.792088
532.891251,6365.771101,-10436.903782,383.047749
532.891574,7846.182985,-9918.759623,3983.696590
532.891896,9252.574275,-5699.585753,1685.410096
532.892218,8734.430116,-4219.173869,-1072.533697
532.892540,6439.791695,-5477.523971,-536.266849
532.892863,2368.659014,-7179.997637,0.000000
532.893185,-1628.453072,-8512.368333,-383.047749
532.893507,-4293.194464,-8068.244768,919.314598
532.893829,-5699.585753,-6661.853478,-612.876398
532.894151,-7402.059420,-8068.244768,-4443.353888
532.894474,-9622.677246,-11473.192101,-3830.477490
532.894796,-11991.336260,-12065.356855,-306.438199
532.895118,-11843.295072,-11029.068536,-766.095498
532.895440,-7846.182985,-11325.150913,-3677.258390
532.895763,0.000000,-13101.645173,-5898.935335
532.896085,5551.544565,-13249.686362,-4213.525239
532.896407,8512.368333,-11103.089130,689.485948
532.896729,9918.759623,-8142.265362,5209.449386
532.897051,11103.089130,-5403.503377,3370.820191
532.897374,10436.903782,-5625.565159,-1838.629195
532.897696,5625.565159,-6217.729913,-2221.676944
532.898018,74.020594,-7105.977043,-153.219100
532.898340,-2664.741391,-8512.368333,-1915.238745
532.898663,-2664.741391,-9104.533087,-1915.238745
532.898985,-3997.112087,-8734.430116,-2298.286494
532.899307,-6439.791695,-9548.656652,-766.095498
532.899629,-9844.739029,-10584.944971,-383.047749
532.899951,-11769.274478,-11325.150913,-1455.581446
532.900274,-9178.553681,-12731.542202,-5822.325785
532.900596,-3256.906145,-13175.665768,-8120.612279
532.900918,2072.576638,-12953.603985,-6741.640382
532.901240,6143.709319,-11843.295072,-1225.752797
532.901563,8586.388927,-10510.924376,4136.915689
532.901885,9918.759623,-7772.162391,4749.792088
532.902207,10510.924376,-3923.091493,-766.095498
532.902529,7994.224174,-3701.029710,-5209.449386
532.902852,3182.885551,-6291.750507,-3600.648841
532.903174,-592.164754,-8734.430116,459.657299
532.903496,-4071.132681,-8586.388927,0.000000
532.903818,-6513.812290,-7994.224174,-2451.505594
532.904140,-8660.409521,-8364.327145,-2757.943793
532.904463,-8734.430116,-10658.965565,-2987.772442
532.904785,-10066.800811,-10140.821405,-3753.867940
532.905107,-10214.842000,-12361.439231,-3370.820191
532.905429,-6439.791695,-13767.830521,-2145.067394
532.905752,814.226536,-13471.748144,-3524.039291
532.906074,6291.750507,-11621.233289,-3677.258390
532.906396,9252.574275,-10584.944971,0.000000
532.906718,11029.068536,-9474.636058,2911.162892
532.907040,12361.439231,-5033.400406,1838.629195
532.907363,10288.862594,-3627.009116,-689.485948
532.907685,5477.523971,-5921.647536,-1302.362347
532.908007,444.123565,-7550.100608,-2068.457845
532.908329,-3182.885551,-8364.327145,-2528.115143
532.908652,-5551.544565,-7772.162391,-3370.820191
532.908974,-7254.018232,-8734.430116,-3907.087040
532.909296,-8068.244768,-12435.459826,-2451.505594
532.909618,-10510.924376,-10955.047942,-153.219100
532.909940,-11843.295072,-12287.418637,0.000000
532.910263,-9844.739029,-13471.748144,-2451.505594
532.910585,-3552.988522,-12657.521608,-6665.030833
532.910907,2368.659014,-12065.356855,-8044.002729
532.911229,5773.606348,-11547.212695,-2298.286494
532.911552,7994.224174,-9770.718434,5669.106685
532.911874,9696.697840,-5181.441594,5132.839837
532.912196,9992.780217,-3108.864956,-1302.362347
532.912518,6291.750507,-5847.626942,-2374.896044
532.912841,1628.453072,-7920.203579,-995.924147
532.913163,-2738.761985,-8660.409521,-919.314598
532.913485,-4663.297435,-7920.203579,-1455.581446
532.913807,-3997.112087,-9104.533087,-2221.676944
532.914129,-4737.318029,-9992.780217,-1762.019645
532.914452,-7994.224174,-10362.883188,-842.705048
532.914774,-11621.233289,-11843.295072,-536.266849
532.915096,-11251.130318,-12213.398043,-2451.505594
532.915418,-7476.080014,-12953.603985,-5132.839837
532.915741,-2220.617826,-12879.583391,-6665.030833
532.916063,2886.803174,-12139.377449,-3983.696590
532.916385,5551.544565,-10955.047942,2221.676944
532.916707,8068.244768,-7920.203579,5592.497135
532.917029,9992.780217,-4145.153275,2145.067394
532.917352,9474.636058,-3256.906145,-2221.676944
532.917674,5847.626942,-5329.482782,-1991.848295
532.917996,1998.556043,-7402.059420,-612.876398
532.918318,-1924.535449,-7698.141797,-229.828649
532.918641,-3478.967927,-8586.388927,-1915.238745
532.918963,-4811.338623,-9474.636058,-1915.238745
532.919285,-6883.915261,-11251.130318,-1915.238745
532.919607,-8438.347739,-11843.295072,-1455.581446
532.919929,-9918.759623,-11769.274478,-1532.190996
532.920252,-8290.306550,-12361.439231,-2834.553343
532.920574,-2220.617826,-12509.480420,-4903.011187
532.920896,4145.153275,-11991.336260,-4749.792088
532.921218,7105.977043,-10955.047942,-1302.362347
532.921541,8438.347739,-7920.203579,3294.210641
532.921863,10066.800811,-5477.523971,4213.525239
532.922185,10140.821405,-4145.153275,383.047749
532.922507,7402.059420,-6217.729913,-2374.896044
532.922830,2442.679609,-7179.997637,-995.924147
532.923152,-666.185348,-6217.729913,-919.314598
532.923474,-2294.638420,-7772.162391,-2987.772442
532.923796,-4071.132681,-9030.512492,-3064.381992
532.924118,-7105.977043,-10362.883188,-1762.019645
532.924441,-10658.965565,-9992.780217,-2451.505594
532.924763,-11473.192101,-11621.233289,-3983.696590
532.925085,-10436.903782,-14063.912898,-5132.839837
532.925407,-6439.791695,-15100.201217,-5669.106685
532.925730,-1184.329507,-14582.057057,-6435.202183
532.926052,5033.400406,-13249.686362,-2987.772442
532.926374,10288.862594,-11991.336260,2374.896044
532.926696,13545.768739,-7920.203579,5056.230287
532.927018,12583.501014,-2442.679609,3217.601092
532.927341,9030.512492,-296.082377,229.828649
532.927663,4071.132681,-3627.009116,-612.876398
532.927985,0.000000,-7105.977043,-842.705048
532.928307,-4071.132681,-7402.059420,-2374.896044
532.928630,-4663.297435,-8290.306550,-3753.867940
532.928952,-5329.482782,-9400.615463,-2298.286494
532.929274,-8660.409521,-10955.047942,-766.095498
532.929596,-11177.109724,-12953.603985,-766.095498
532.929918,-12361.439231,-13397.727550,-4213.525239
532.930241,-11843.295072,-13915.871710,-5898.935335
532.930563,-7328.038826,-14137.933492,-8963.317327
532.930885,-148.041188,-13175.665768,-8963.317327
532.931207,4737.318029,-13323.706956,-3830.477490
532.931530,7994.224174,-11103.089130,3294.210641
532.931852,10510.924376,-7920.203579,5745.716235
532.932174,10584.944971,-5255.462188,1685.410096
532.932496,7920.203579,-4441.235652,-1991.848295
532.932818,3182.885551,-5255.462188,-1685.410096
532.933141,-296.082377,-6217.729913,-536.266849
532.933463,-1850.514855,-5995.668130,0.000000
532.933785,-3330.926739,-6217.729913,-1302.362347
532.934107,-4737.318029,-7402.059420,0.000000
532.934430,-7179.997637,-9844.739029,459.657299
532.934752,-8660.409521,-12879.583391,-1149.143247
532.935074,-9030.512492,-14434.015869,-3524.039291
532.935396,-7105.977043,-14582.057057,-4290.134789
532.935719,-2146.597232,-14285.974681,-5515.887586
532.936041,3256.906145,-11991.336260,-4060.306139
532.936363,6513.812290,-10288.862594,459.657299
532.936685,8068.244768,-7254.018232,3064.381992
532.937007,8512.368333,-4367.215058,1838.629195
532.937330,6809.894666,-4959.379811,-459.657299
532.937652,3478.967927,-7402.059420,-1685.410096
532.937974,-296.082377,-8660.409521,-2145.067394
532.938296,-2442.679609,-7254.018232,-1762.019645
532.938619,-2886.803174,-7031.956449,-1608.800546
532.938941,-4589.276840,-6513.812290,-306.438199
532.939263,-7698.141797,-7254.018232,-1762.019645
532.939585,-10140.821405,-9770.718434,-2221.676944
532.939907,-10510.924376,-12213.398043,-3217.601092
532.940230,-8290.306550,-14656.077652,-3830.477490
532.940552,-3627.009116,-14804.118840,-4673.182538
532.940874,2368.659014,-13693.809927,-4443.353888
532.941196,6809.894666,-13027.624579,76.609550
532.941519,10066.800811,-9548.656652,5286.058936
532.941841,11991.336260,-4737.318029,4826.401637
532.942163,10732.986159,-2072.576638,459.657299
532.942485,7624.121203,-3701.029710,-1149.143247
532.942807,3330.926739,-6809.894666,-383.047749
532.943130,-370.102971,-7476.080014,-1378.971896
532.943452,-1850.514855,-8364.327145,-2604.724693
532.943774,-2146.597232,-9326.594869,-2834.553343
532.944096,-4145.153275,-9918.759623,-2451.505594
532.944419,-6809.894666,-11917.315666,-1838.629195
532.944741,-9622.677246,-11769.274478,-995.924147
532.945063,-11621.233289,-11843.295072,-3217.601092
532.945385,-9992.780217,-12805.562797,-6205.373534
532.945708,-4663.297435,-12805.562797,-7890.783629
532.946030,0.000000,-12657.521608,-7354.516781
532.946352,4219.173869,-12065.356855,-1532.190996
532.946674,7698.141797,-10436.903782,4903.011187
532.946996,9474.636058,-6439.791695,4979.620737
532.947319,8512.368333,-2886.803174,-536.266849
532.947641,4589.276840,-3627.009116,-2451.505594
532.947963,444.123565,-5403.503377,-766.095498
532.948285,-592.164754,-7772.162391,-1991.848295
532.948608,-1406.391290,-7698.141797,-3677.258390
532.948930,-2738.761985,-8142.265362,-2451.505594
532.949252,-4737.318029,-9770.718434,459.657299
532.949574,-5329.482782,-12953.603985,-919.314598
532.949896,-6587.832884,-13915.871710,-2374.896044
532.950219,-7105.977043,-14359.995275,-4060.306139
532.950541,-4515.256246,-13915.871710,-5515.887586
532.950863,-444.123565,-12065.356855,-5286.058936
532.951185,2812.782580,-10955.047942,-1302.362347
532.951508,4145.153275,-9474.636058,2911.162892
532.951830,5403.503377,-6291.750507,3140.991542
532.952152,6217.729913,-3997.112087,383.047749
532.952474,4737.318029,-4145.153275,-2298.286494
532.952796,1332.370696,-6735.874072,-1915.238745
532.953119,-962.267725,-7920.203579,-1149.143247
532.953441,-2072.576638,-7994.224174,-1915.238745
532.953763,-2664.741391,-7698.141797,-2451.505594
532.954085,-4885.359217,-8290.306550,-2145.067394
532.954408,-7105.977043,-10436.903782,-3140.991542
532.954730,-9474.636058,-11473.192101,-2987.772442
532.955052,-9030.512492,-13767.830521,-3294.210641
532.955374,-5995.668130,-14656.077652,-3600.648841
532.955696,-1184.329507,-13471.748144,-4519.963438
532.956019,2812.782580,-12287.418637,-2834.553343
532.956341,5255.462188,-10881.027347,1302.362347
532.956663,6513.812290,-8068.244768,3983.696590
532.956985,7920.203579,-4737.318029,2145.067394
532.957308,6957.935855,-3256.906145,-1455.581446
532.957630,4071.132681,-5403.503377,-995.924147
532.957952,1332.370696,-6661.853478,229.828649
532.958274,-296.082377,-6883.915261,-1149.143247
532.958597,-1332.370696,-8216.285956,-2374.896044
532.958919,-3182.885551,-8586.388927,-1991.848295
532.959241,-5033.400406,-9548.656652,-1532.190996
532.959563,-6883.915261,-10584.944971,-3600.648841
532.959885,-8290.306550,-13175.665768,-3447.429741
532.960208,-7698.141797,-15692.365970,-3294.210641
532.960530,-3775.050304,-16062.468941,-4979.620737
532.960852,1776.494261,-15100.201217,-5592.497135
532.961174,5847.626942,-12583.501014,-459.657299
532.961497,7105.977043,-9030.512492,3524.039291
532.961819,7846.182985,-4737.318029,4596.572988
532.962141,7476.080014,-2590.720797,1225.752797
532.962463,4737.318029,-3182.885551,-1072.533697
532.962785,444.123565,-4885.359217,-766.095498
532.963108,-2738.761985,-5329.482782,-1225.752797
532.963430,-2294.638420,-6735.874072,-2834.553343
532.963753,-1332.370696,-8364.327145,-2757.943793
532.964075,-3034.844362,-8808.450710,-1378.971896
532.964397,-4959.379811,-10510.924376,-1378.971896
532.964720,-7920.203579,-11177.109724,-2911.162892
532.965042,-8290.306550,-14359.995275,-4826.401637
532.965365,-7476.080014,-15544.324782,-5975.544884
532.965687,-4367.215058,-14508.036463,-7354.516781
532.966009,0.000000,-13249.686362,-4903.011187
532.966332,4737.318029,-11325.150913,76.609550
532.966654,7476.080014,-8956.491898,3907.087040
532.966977,9326.594869,-5329.482782,3600.648841
532.967299,7846.182985,-3330.926739,0.000000
532.967621,3849.070898,-3330.926739,-1302.362347
532.967944,222.061783,-4663.297435,-229.828649
532.968266,-3256.906145,-5551.544565,-1532.190996
532.968589,-4367.215058,-6883.915261,-3600.648841
532.968911,-5329.482782,-8216.285956,-3217.601092
532.969234,-5403.503377,-9548.656652,-995.924147
532.969556,-6883.915261,-10881.027347,-1762.019645
532.969878,-7402.059420,-12953.603985,-3600.648841
532.970201,-6661.853478,-15914.427753,-4519.963438
532.970523,-4219.173869,-16876.695478,-4749.792088
532.970846,-370.102971,-14952.160028,-6588.421283
532.971168,3330.926739,-12435.459826,-4979.620737
532.971490,5995.668130,-10807.006753,0.000000
532.971813,8660.409521,-8068.244768,2298.286494
532.972135,8512.368333,-5255.462188,1225.752797
532.972458,5921.647536,-4367.215058,306.438199
532.972780,2368.659014,-5921.647536,536.266849
532.973102,-148.041188,-6883.915261,-842.705048
532.973425,-962.267725,-7105.977043,-2298.286494
532.973747,-2368.659014,-6217.729913,-1838.629195
532.974070,-3627.009116,-6439.791695,-383.047749
532.974392,-5181.441594,-8512.368333,-1455.581446
532.974715,-5625.565159,-11695.253884,-2911.162892
532.975037,-6883.915261,-13767.830521,-5286.058936
532.975359,-5329.482782,-15988.448347,-5362.668486
532.975682,-1554.432478,-17172.777854,-5056.230287
532.976004,2590.720797,-14952.160028,-3447.429741
532.976327,4441.235652,-11991.336260,306.438199
532.976649,5403.503377,-7698.141797,3677.258390
532.976971,7105.977043,-4367.215058,2911.162892
532.977294,6069.688724,-2442.679609,-689.485948
532.977616,2886.803174,-3775.050304,-306.438199
532.977939,-296.082377,-5181.441594,1685.410096
532.978261,-1628.453072,-5403.503377,459.657299
532.978583,-1480.411884,-7031.956449,-1532.190996
532.978906,-2294.638420,-9252.574275,-1378.971896
532.979228,-4589.276840,-9178.553681,-306.438199
532.979551,-7402.059420,-9474.636058,-842.705048
532.979873,-8734.430116,-10140.821405,-2451.505594
532.980196,-8142.265362,-11843.295072,-3907.087040
532.980518,-4737.318029,-13841.851115,-5209.449386
532.980840,-518.144159,-14656.077652,-5669.106685
532.981163,3034.844362,-14063.912898,-3753.867940
532.981485,5625.565159,-12435.459826,1685.410096
532.981808,7254.018232,-9918.759623,4596.572988
532.982130,7772.162391,-6661.853478,2145.067394
532.982452,4885.359217,-3478.967927,-1225.752797
532.982775,1036.288319,-3182.885551,-459.657299
532.983097,-1332.370696,-5107.421000,-536.266849
532.983420,-1776.494261,-6143.709319,-2911.162892
532.983742,-2960.823768,-6809.894666,-2911.162892
532.984064,-4441.235652,-7994.224174,-1072.533697
532.984387,-5181.441594,-11029.068536,0.000000
532.984709,-6883.915261,-12805.562797,-1915.238745
532.985032,-8364.327145,-13619.789333,-4366.744339
532.985354,-6587.832884,-14508.036463,-4979.620737
532.985677,-1924.535449,-13915.871710,-6818.249932
532.985999,3256.906145,-12953.603985,-6052.154434
532.986321,5625.565159,-10807.006753,76.609550
532.986644,7031.956449,-8438.347739,3753.867940
532.986966,8438.347739,-5699.585753,1532.190996
532.987289,7550.100608,-5699.585753,-1915.238745
532.987611,3478.967927,-8364.327145,-1225.752797
532.987933,-814.226536,-9104.533087,-766.095498
532.988256,-3108.864956,-7476.080014,-1685.410096
532.988578,-2664.741391,-6661.853478,-2451.505594
532.988901,-3108.864956,-6587.832884,-2451.505594
532.989223,-5033.400406,-6735.874072,-689.485948
532.989545,-8512.368333,-8290.306550,-1455.581446
532.989868,-9696.697840,-10436.903782,-2757.943793
532.990190,-8068.244768,-13249.686362,-4673.182538
532.990513,-3923.091493,-15322.262999,-5745.716235
532.990835,-296.082377,-13693.809927,-5745.716235
532.991158,2812.782580,-13101.645173,-2298.286494
532.991480,5181.441594,-11029.068536,2911.162892
532.991802,7772.162391,-7179.997637,3217.601092
532.992125,8068.244768,-4737.318029,-612.876398
532.992447,4959.379811,-5995.668130,-2451.505594
532.992770,74.020594,-8586.388927,-536.266849
532.993092,-3849.070898,-7846.182985,306.438199
532.993414,-4737.318029,-6587.832884,-1455.581446
532.993737,-4515.256246,-7179.997637,-3140.991542
532.994059,-5403.503377,-7105.977043,-2757.943793
532.994382,-7402.059420,-8068.244768,-1762.019645
532.994704,-10510.924376,-10214.842000,-1302.362347
532.995026,-11621.233289,-13693.809927,-2221.676944
532.995349,-10658.965565,-14804.118840,-3524.039291
532.995671,-7254.018232,-13249.686362,-5515.887586
532.995994,-2960.823768,-10510.924376,-5669.106685
532.996316,2368.659014,-9474.636058,-3294.210641
532.996639,7402.059420,-10510.924376,229.828649
532.996961,9178.553681,-8660.409521,1991.848295
532.997283,7994.224174,-7179.997637,1532.190996
532.997606,4145.153275,-7550.100608,-919.314598
532.997928,-370.102971,-7105.977043,-1532.190996
532.998251,-3997.112087,-6439.791695,-1762.019645
532.998573,-4811.338623,-6587.832884,-3983.696590
532.998895,-5181.441594,-8068.244768,-4213.525239
532.999218,-6291.750507,-9178.553681,-153.219100
532.999540,-9474.636058,-9844.739029,383.047749
532.999863,-10362.883188,-11991.336260,-919.314598
533.000185,-9622.677246,-14137.933492,-2987.772442
533.000507,-8290.306550,-14285.974681,-4213.525239
533.000830,-5477.523971,-11769.274478,-4903.011187
533.001152,-962.267725,-9178.553681,-3140.991542
533.001475,3552.988522,-8808.450710,0.000000
533.001797,7031.956449,-7179.997637,2298.286494
533.002120,8586.388927,-4959.379811,1149.143247
533.002442,8808.450710,-5181.441594,459.657299
533.002764,7105.977043,-6809.894666,-612.876398
533.003087,370.102971,-7550.100608,-995.924147
533.003409,-6143.709319,-9030.512492,612.876398
533.003732,-9104.533087,-9104.533087,0.000000
533.004054,-8364.327145,-7105.977043,-4673.182538
533.004376,-7624.121203,-7772.162391,-8733.488677
533.004699,-9252.574275,-9844.739029,-5975.544884
533.005021,-11251.130318,-12065.356855,459.657299
533.005344,-9770.718434,-13323.706956,0.000000
533.005666,-6291.750507,-15544.324782,-2681.334243
533.005988,-4737.318029,-14656.077652,-4060.306139
533.006311,-4737.318029,-11103.089130,-2451.505594
533.006633,-3330.926739,-7031.956449,0.000000
533.006956,2072.576638,-4515.256246,459.657299
533.007278,7328.038826,-3997.112087,-995.924147
533.007601,10362.883188,-4589.276840,-1378.971896
533.007923,10140.821405,-5921.647536,1608.800546
533.008245,8512.368333,-7624.121203,3830.477490
533.008568,5329.482782,-10362.883188,1608.800546
533.008890,592.164754,-12139.377449,-1685.410096
533.009213,-4663.297435,-10732.986159,-3983.696590
533.009535,-8808.450710,-8956.491898,-5898.935335
533.009857,-9918.759623,-9918.759623,-7354.516781
533.010180,-9326.594869,-12657.521608,-6052.154434
533.010502,-8364.327145,-12805.562797,-4366.744339
533.010825,-6587.832884,-12361.439231,-1685.410096
533.011147,-4219.173869,-12361.439231,-689.485948
533.011469,-2072.576638,-13323.706956,-1608.800546
533.011792,-2294.638420,-12953.603985,-2834.553343
533.012114,-3923.091493,-10436.903782,-1072.533697
533.012437,-4293.194464,-5699.585753,1378.971896
533.012759,-2220.617826,-3478.967927,1149.143247
533.013082,666.185348,-2368.659014,76.609550
533.013404,2442.679609,-4071.132681,-306.438199
533.013726,2516.700203,-5699.585753,-766.095498
533.014049,2368.659014,-9178.553681,-919.314598
533.014371,1406.391290,-12509.480420,-689.485948
533.014694,592.164754,-12953.603985,-2374.896044
533.015016,-888.247130,-10732.986159,-4749.792088
533.015338,-3552.988522,-10288.862594,-5822.325785
533.015661,-7254.018232,-11399.171507,-4060.306139
533.015983,-9918.759623,-12657.521608,-2298.286494
533.016306,-9474.636058,-12287.418637,-3064.381992
533.016628,-6735.874072,-10658.965565,-3294.210641
533.016950,-3552.988522,-9918.759623,-2604.724693
533.017273,-1332.370696,-9030.512492,-383.047749
533.017595,0.000000,-6957.935855,3294.210641
533.017918,1258.350101,-4737.318029,3830.477490
533.018240,2072.576638,-3552.988522,459.657299
533.018563,888.247130,-3404.947333,-1838.629195
533.018885,-2886.803174,-5995.668130,-1455.581446
533.019207,-6883.915261,-9400.615463,-383.047749
533.019530,-8586.388927,-11399.171507,-919.314598
533.019852,-7105.977043,-12731.542202,-2834.553343
533.020175,-3997.112087,-12287.418637,-4903.011187
533.020497,-1628.453072,-12361.439231,-4979.620737
533.020819,-222.061783,-11103.089130,-3217.601092
533.021142,1036.288319,-9918.759623,-1608.800546
533.021464,1924.535449,-9252.574275,-2451.505594
533.021787,2220.617826,-9918.759623,-2987.772442
533.022109,814.226536,-10140.821405,-3370.820191
533.022431,-1702.473667,-9622.677246,-2374.896044
533.022754,-3182.885551,-9844.739029,-689.485948
533.023076,-3330.926739,-9992.780217,766.095498
533.023399,-3478.967927,-8290.306550,612.876398
533.023721,-3775.050304,-5033.400406,-612.876398
533.024044,-4145.153275,-4071.132681,-1838.629195
533.024366,-3552.988522,-5551.544565,-2604.724693
533.024688,-3256.906145,-7772.162391,-2221.676944
533.025011,-3404.947333,-8734.430116,-1915.238745
533.025333,-3034.844362,-9992.780217,-1991.848295
533.025656,-2220.617826,-12657.521608,-2987.772442
533.025978,-1924.535449,-13027.624579,-3217.601092
533.026300,-2072.576638,-12731.542202,-3217.601092
533.026623,-1850.514855,-12435.459826,-3370.820191
533.026945,-592.164754,-12213.398043,-2834.553343
533.027268,0.000000,-11769.274478,-766.095498
533.027590,-1998.556043,-9252.574275,1225.752797
533.027912,-3775.050304,-7402.059420,1302.362347
533.028235,-4219.173869,-6587.832884,-536.266849
533.028557,-3034.844362,-6143.709319,-1455.581446
533.028880,-2146.597232,-6069.688724,-1532.190996
533.029202,-1258.350101,-4959.379811,-1149.143247
533.029525,0.000000,-5625.565159,-1149.143247
533.029847,1850.514855,-7476.080014,-1072.533697
533.030169,2590.720797,-9400.615463,-1685.410096
533.030492,814.226536,-10584.944971,-2374.896044
533.030814,-2146.597232,-11399.171507,-3217.601092
533.031137,-3997.112087,-12287.418637,-4366.744339
533.031459,-4737.318029,-13249.686362,-5132.839837
533.031781,-5477.523971,-13619.789333,-4596.572988
533.032104,-6291.750507,-12509.480420,-2451.505594
533.032426,-7105.977043,-9770.718434,-766.095498
533.032749,-6439.791695,-8586.388927,-1225.752797
533.033071,-4737.318029,-7772.162391,-1225.752797
533.033394,-3478.967927,-7179.997637,-1072.533697
533.033716,-2886.803174,-5773.606348,0.000000
533.034038,-1258.350101,-5107.421000,153.219100
533.034361,962.267725,-5181.441594,1072.533697
533.034683,3627.009116,-6809.894666,0.000000
533.035006,5033.400406,-9622.677246,-1532.190996
533.035328,4367.215058,-12435.459826,-1149.143247
533.035650,1776.494261,-13323.706956,76.609550
533.035973,-1480.411884,-12805.562797,-766.095498
533.036295,-4737.318029,-12509.480420,-3370.820191
533.036618,-7031.956449,-13027.624579,-4213.525239
533.036940,-9844.739029,-10732.986159,-4519.963438
533.037262,-11917.315666,-9622.677246,-4136.915689
533.037585,-12879.583391,-7772.162391,-2374.896044
533.037907,-9918.759623,-9326.594869,-1608.800546
533.038230,-7254.018232,-7994.224174,-1378.971896
533.038552,-3997.112087,-6957.935855,-1455.581446
533.038875,-1110.308913,-6069.688724,-1302.362347
533.039197,1776.494261,-5329.482782,-536.266849
533.039519,2960.823768,-5921.647536,306.438199
533.039842,3775.050304,-6365.771101,-1072.533697
533.040164,3775.050304,-8216.285956,-2987.772442
533.040487,3182.885551,-11251.130318,-2604.724693
533.040809,1702.473667,-12583.501014,-1302.362347
533.041131,-1184.329507,-12287.418637,-766.095498
533.041454,-3256.906145,-11917.315666,-1302.362347
533.041776,-4145.153275,-11251.130318,-1225.752797
533.042099,-5847.626942,-9400.615463,-1378.971896
533.042421,-7402.059420,-7920.203579,-1762.019645
533.042743,-7550.100608,-7624.121203,-1608.800546
533.043066,-5699.585753,-8512.368333,-2068.457845
533.043388,-3997.112087,-9474.636058,-306.438199
533.043711,-2738.761985,-9030.512492,1455.581446
533.044033,-1554.432478,-7846.182985,1685.410096
533.044356,0.000000,-8142.265362,0.000000
533.044678,3034.844362,-7402.059420,-1685.410096
533.045000,4219.173869,-6809.894666,-2528.115143
533.045323,4219.173869,-7105.977043,-3983.696590
533.045645,3775.050304,-8290.306550,-3677.258390
533.045968,2368.659014,-9548.656652,-2681.334243
533.046290,74.020594,-10288.862594,-2834.553343
533.046612,-2886.803174,-12583.501014,-4136.915689
533.046935,-6365.771101,-14359.995275,-3677.258390
533.047257,-8586.388927,-14878.139434,-3140.991542
533.047580,-9696.697840,-13027.624579,-2604.724693
533.047902,-9252.574275,-10881.027347,-2068.457845
533.048224,-7328.038826,-8734.430116,-1378.971896
533.048547,-5255.462188,-7105.977043,-1455.581446
533.048869,-3404.947333,-4737.318029,-383.047749
533.049192,-1776.494261,-4071.132681,0.000000
533.049514,-740.205942,-5551.544565,-536.266849
533.049837,-444.123565,-8142.265362,-995.924147
533.050159,-740.205942,-9770.718434,-995.924147
533.050481,-1036.288319,-10881.027347,-1532.190996
533.050804,-296.082377,-11843.295072,-2528.115143
533.051126,518.144159,-12805.562797,-2757.943793
533.051449,814.226536,-12435.459826,-1608.800546
533.051771,518.144159,-10955.047942,-383.047749
533.052093,-962.267725,-9696.697840,-153.219100
533.052416,-2294.638420,-9252.574275,-1225.752797
533.052738,-3849.070898,-8882.471304,-1991.848295
533.053061,-5773.606348,-7402.059420,-2221.676944
533.053383,-6513.812290,-5699.585753,-2451.505594
533.053705,-6883.915261,-5847.626942,-2451.505594
533.054028,-6217.729913,-6513.812290,-1532.190996
533.054350,-4811.338623,-6957.935855,-2068.457845
533.054673,-4515.256246,-7476.080014,-3064.381992
533.054995,-3923.091493,-9548.656652,-3753.867940
533.055318,-4441.235652,-11399.171507,-3370.820191
533.055640,-4219.173869,-12139.377449,-3524.039291
533.055962,-4071.132681,-11843.295072,-4060.306139
533.056285,-3552.988522,-12065.356855,-4136.915689
533.056607,-2516.700203,-11769.274478,-3064.381992
533.056930,-1850.514855,-10658.965565,-1685.410096
533.057252,-888.247130,-10140.821405,-1532.190996
533.057574,370.102971,-10140.821405,-995.924147
533.057897,1184.329507,-9474.636058,76.609550
533.058219,1628.453072,-8068.244768,766.095498
533.058542,1776.494261,-6809.894666,995.924147
533.058864,1850.514855,-5847.626942,0.000000
533.059186,1776.494261,-5921.647536,-229.828649
533.059509,1184.329507,-6809.894666,0.000000
533.059831,148.041188,-8142.265362,-1072.533697
533.060154,-370.102971,-9622.677246,-1455.581446
533.060476,0.000000,-11547.212695,-1991.848295
533.060799,-296.082377,-12805.562797,-1991.848295
533.061121,-1184.329507,-12657.521608,-1915.238745
533.061443,-2072.576638,-11917.315666,-1608.800546
533.061766,-3034.844362,-11177.109724,-1532.190996
533.062088,-3775.050304,-9844.739029,-1608.800546
533.062411,-4515.256246,-9252.574275,-1991.848295
533.062733,-4811.338623,-8882.471304,-2221.676944
533.063055,-4737.318029,-8586.388927,-1302.362347
533.063378,-4515.256246,-8586.388927,-229.828649
533.063700,-4219.173869,-8068.244768,383.047749
533.064023,-4737.318029,-7254.018232,-306.438199
533.064345,-4737.318029,-6439.791695,-842.705048
533.064668,-4885.359217,-5477.523971,-2145.067394
533.064990,-4367.215058,-6587.832884,-3294.210641
533.065313,-3849.070898,-7994.224174,-2834.553343
533.065635,-3775.050304,-8438.347739,-2451.505594
533.065958,-3478.967927,-10214.842000,-2221.676944
533.066280,-2516.700203,-12435.459826,-2451.505594
533.066603,-1998.556043,-13471.748144,-1608.800546
533.066925,-2442.679609,-12509.480420,-612.876398
533.067248,-2368.659014,-10732.986159,-612.876398
533.067570,-1850.514855,-9622.677246,-1455.581446
533.067893,-2220.617826,-8216.285956,-995.924147
533.068215,-2960.823768,-7402.059420,0.000000
533.068538,-3701.029710,-7105.977043,536.266849
533.068860,-3627.009116,-7179.997637,-153.219100
533.069182,-3849.070898,-7105.977043,-995.924147
533.069505,-3701.029710,-7698.141797,-1762.019645
533.069827,-3108.864956,-8956.491898,-1225.752797
533.070150,-2886.803174,-9844.739029,-1302.362347
533.070472,-1776.494261,-9474.636058,-2374.896044
533.070795,-444.123565,-9770.718434,-3217.601092
533.071117,0.000000,-11399.171507,-4060.306139
533.071440,74.020594,-12287.418637,-3294.210641
533.071762,-592.164754,-12583.501014,-2757.943793
533.072085,-1110.308913,-12731.542202,-2987.772442
533.072407,-592.164754,-13027.624579,-2451.505594
533.072730,-296.082377,-12509.480420,-1991.848295
533.073052,-814.226536,-11103.089130,-229.828649
533.073375,-888.247130,-9622.677246,459.657299
533.073697,-148.041188,-8364.327145,153.219100
533.074020,814.226536,-7031.956449,459.657299
533.074342,1110.308913,-5995.668130,842.705048
533.074665,1628.453072,-6661.853478,842.705048
533.074987,2146.597232,-7254.018232,842.705048
533.075310,2738.761985,-7846.182985,536.266849
533.075632,2960.823768,-9400.615463,0.000000
533.075955,3182.885551,-11177.109724,-536.266849
533.076277,2886.803174,-12583.501014,306.438199
533.076599,2590.720797,-12139.377449,459.657299
533.076922,2368.659014,-11769.274478,0.000000
533.077244,2072.576638,-11917.315666,612.876398
533.077567,1776.494261,-11547.212695,1762.019645
533.077889,888.247130,-9770.718434,2068.457845
533.078212,222.061783,-7994.224174,2451.505594
533.078534,0.000000,-7624.121203,1991.848295
533.078857,0.000000,-7550.100608,2834.553343
533.079179,-1258.350101,-7031.956449,3677.258390
533.079502,-2146.597232,-7105.977043,4213.525239
533.079824,-2590.720797,-7846.182985,3907.087040
533.080147,-3108.864956,-8142.265362,2987.772442
533.080469,-3330.926739,-8216.285956,2987.772442
533.080792,-3552.988522,-8364.327145,2987.772442
533.081114,-3478.967927,-8808.450710,2834.553343
533.081437,-3478.967927,-9326.594869,2528.115143
533.081759,-4145.153275,-9918.759623,2604.724693
533.082082,-4885.359217,-10807.006753,2604.724693
533.082404,-5033.400406,-11399.171507,2451.505594
533.082727,-4589.276840,-11991.336260,2374.896044
533.083049,-4219.173869,-11251.130318,2145.067394
533.083371,-3034.844362,-10362.883188,3064.381992
533.083694,-2072.576638,-9474.636058,3983.696590
533.084016,-1184.329507,-8142.265362,4903.011187
533.084339,-962.267725,-7476.080014,4519.963438
533.084661,-296.082377,-7624.121203,3524.039291
533.084984,-222.061783,-8068.244768,3140.991542
533.085306,-296.082377,-8512.368333,2911.162892
533.085629,0.000000,-9326.594869,2528.115143
533.085951,0.000000,-9844.739029,2451.505594
533.086274,296.082377,-9844.739029,1838.629195
533.086596,370.102971,-10066.800811,689.485948
533.086919,444.123565,-10658.965565,-153.219100
533.087241,0.000000,-10436.903782,229.828649
533.087564,-1258.350101,-10066.800811,76.609550
533.087886,-1258.350101,-10066.800811,-1378.971896
533.088209,-962.267725,-10732.986159,-1225.752797
533.088531,222.061783,-11843.295072,-689.485948
533.088854,1258.350101,-10881.027347,0.000000
533.089176,2442.679609,-9030.512492,76.609550
533.089499,3849.070898,-7328.038826,-306.438199
533.089821,5107.421000,-6735.874072,-612.876398
533.090144,5107.421000,-7105.977043,-1991.848295
533.090466,3701.029710,-7254.018232,-2451.505594
533.090788,1110.308913,-7476.080014,-1915.238745
533.091111,-1998.556043,-8142.265362,-2451.505594
533.091433,-4219.173869,-10214.842000,-4366.744339
533.091756,-5699.585753,-11843.295072,-4673.182538
533.092078,-6217.729913,-12139.377449,-5209.449386
533.092401,-4145.153275,-12287.418637,-5592.497135
533.092723,-1332.370696,-12731.542202,-4596.572988
533.093046,1628.453072,-13767.830521,-2834.553343
533.093368,3404.947333,-12731.542202,-536.266849
533.093691,4589.276840,-11325.150913,153.219100
533.094013,4589.276840,-9030.512492,459.657299
533.094336,5699.585753,-6513.812290,536.266849
533.094658,6661.853478,-5181.441594,-842.705048
533.094981,6291.750507,-4367.215058,-995.924147
533.095303,4071.132681,-5625.565159,1302.362347
533.095626,666.185348,-5107.421000,2681.334243
533.095948,-3404.947333,-5699.585753,-153.219100
533.096271,-6291.750507,-9474.636058,-2987.772442
533.096593,-8882.471304,-11251.130318,-3447.429741
533.096916,-9844.739029,-11473.192101,-4826.401637
533.097238,-9474.636058,-11029.068536,-4903.011187
533.097561,-5403.503377,-14211.954086,-5209.449386
533.097883,-2442.679609,-15988.448347,-3524.039291
533.098205,-1480.411884,-15248.242405,-1608.800546
533.098528,-1406.391290,-12213.398043,-1838.629195
533.098850,-1036.288319,-11621.233289,-2834.553343
533.099173,-296.082377,-11695.253884,-2834.553343
533.099495,-1036.288319,-9918.759623,-1378.971896
533.099818,-2368.659014,-7328.038826,153.219100
533.100140,-2220.617826,-7254.018232,2681.334243
533.100463,-1554.432478,-8216.285956,3064.381992
533.100785,-1554.432478,-9548.656652,2834.553343
533.101108,-3552.988522,-10362.883188,3447.429741
533.101430,-4515.256246,-11029.068536,4596.572988
533.101753,-3701.029710,-10288.862594,4596.572988
533.102075,-2442.679609,-7254.018232,3217.601092
533.102398,-1258.350101,-4737.318029,383.047749
533.102720,518.144159,-4515.256246,-229.828649
533.103043,2368.659014,-6513.812290,536.266849
533.103365,3404.947333,-8734.430116,2068.457845
533.103688,4219.173869,-10955.047942,3600.648841
533.104010,4145.153275,-11473.192101,3294.210641
533.104333,3849.070898,-12435.459826,2298.286494
533.104655,2664.741391,-12213.398043,2681.334243
533.104977,666.185348,-10214.842000,4443.353888
533.105300,-1332.370696,-7105.977043,5362.668486
533.105622,-2738.761985,-5847.626942,4443.353888
533.105945,-2886.803174,-6883.915261,4749.792088
533.106267,-2590.720797,-7846.182985,5132.839837
533.106590,-1258.350101,-9178.553681,4903.011187
533.106912,1332.370696,-10214.842000,5822.325785
533.107235,4293.194464,-10510.924376,5822.325785
533.107557,6143.709319,-9252.574275,5669.106685
533.107880,6957.935855,-7476.080014,4979.620737
533.108202,6587.832884,-8216.285956,4290.134789
533.108525,5551.544565,-8956.491898,3524.039291
533.108847,4737.318029,-7179.997637,5209.449386
533.109170,3849.070898,-5033.400406,2528.115143
533.109492,3552.988522,-8438.347739,-2374.896044
533.109815,3552.988522,-14211.954086,-1762.019645
533.110137,1406.391290,-13915.871710,1378.971896
533.110460,-4959.379811,-11547.212695,2374.896044
533.110782,-10288.862594,-12361.439231,1915.238745
533.111105,-11621.233289,-15618.345376,-1072.533697
533.111427,-14137.933492,-14656.077652,-5362.668486
533.111750,-17542.880825,-12287.418637,-3600.648841
533.112072,-18283.086767,-9474.636058,2068.457845
533.112394,-12213.398043,-5847.626942,459.657299
533.112717,-3034.844362,-5847.626942,-3524.039291
533.113039,4071.132681,-7698.141797,-2681.334243
533.113362,8068.244768,-7994.224174,-1838.629195
533.113684,9696.697840,-8734.430116,0.000000
533.114007,12287.418637,-7846.182985,4443.353888
533.114329,12287.418637,-7328.038826,612.876398
533.114652,10732.986159,-8882.471304,-7354.516781
533.114974,8364.327145,-13175.665768,-5132.839837
533.115297,3849.070898,-13619.789333,459.657299
533.115619,-3108.864956,-11843.295072,1378.971896
533.115942,-8734.430116,-13915.871710,1225.752797
533.116264,-11251.130318,-12139.377449,1838.629195
533.116587,-13545.768739,-9104.533087,-4596.572988
533.116909,-12287.418637,-8882.471304,-7584.345430
533.117232,-9104.533087,-9474.636058,-3217.601092
533.117554,-4885.359217,-6587.832884,1838.629195
533.117877,-814.226536,-1258.350101,459.657299
533.118199,3256.906145,-1702.473667,-1149.143247
533.118522,5773.606348,-6365.771101,-2604.724693
533.118844,6513.812290,-9252.574275,-3907.087040
533.119167,3849.070898,-9104.533087,-4060.306139
533.119489,1110.308913,-10807.006753,-2604.724693
533.119811,0.000000,-13101.645173,-1991.848295
533.120134,-222.061783,-14137.933492,-3983.696590
533.120456,0.000000,-13323.706956,-3370.820191
533.120779,-2146.597232,-12435.459826,-3524.039291
533.121101,-814.226536,-13249.686362,-3524.039291
533.121424,-666.185348,-11843.295072,-229.828649
533.121746,148.041188,-8586.388927,2757.943793
533.122069,444.123565,-5181.441594,536.266849
533.122391,1998.556043,-6291.750507,-1149.143247
533.122714,4737.318029,-7846.182985,-1149.143247
533.123036,5181.441594,-6291.750507,-306.438199
533.123359,4219.173869,-6217.729913,1225.752797
533.123681,2516.700203,-8586.388927,4136.915689
533.124004,1628.453072,-11843.295072,4519.963438
533.124326,666.185348,-12805.562797,919.314598
533.124649,74.020594,-13101.645173,-1532.190996
533.124971,296.082377,-12657.521608,-1532.190996
533.125294,-814.226536,-11325.150913,459.657299
533.125616,-1628.453072,-9326.594869,3217.601092
533.125939,-2368.659014,-8438.347739,3677.258390
533.126261,-3034.844362,-9474.636058,612.876398
533.126583,-3478.967927,-11917.315666,0.000000
533.126906,-6069.688724,-12731.542202,2221.676944
533.127228,-9104.533087,-12213.398043,4826.401637
533.127551,-9474.636058,-10584.944971,5822.325785
533.127873,-6365.771101,-8364.327145,4903.011187
533.128196,-2146.597232,-5625.565159,4519.963438
533.128518,1406.391290,-2072.576638,3524.039291
533.128841,2442.679609,222.061783,2911.162892
533.129163,3775.050304,-1480.411884,2911.162892
533.129486,4737.318029,-6661.853478,3370.820191
533.129808,3627.009116,-10955.047942,4290.134789
533.130131,1036.288319,-14137.933492,3830.477490
533.130453,-1554.432478,-14063.912898,3524.039291
533.130776,-3108.864956,-13841.851115,1838.629195
533.131098,-3404.947333,-13841.851115,842.705048
533.131421,-2294.638420,-12879.583391,2911.162892
533.131743,-2590.720797,-9474.636058,4596.572988
533.132066,-962.267725,-6809.894666,5132.839837
533.132388,0.000000,-5403.503377,2757.943793
533.132711,1480.411884,-7624.121203,1072.533697
533.133033,1554.432478,-10140.821405,1685.410096
533.133356,370.102971,-11325.150913,4519.963438
533.133678,-2220.617826,-9252.574275,5056.230287
533.134000,-1258.350101,-6587.832884,1532.190996
533.134323,1702.473667,-6809.894666,-2068.457845
533.134645,3701.029710,-8068.244768,-2221.676944
533.134968,3182.885551,-9178.553681,-459.657299
533.135290,1184.329507,-9918.759623,229.828649
533.135613,592.164754,-11103.089130,-1532.190996
533.135935,-370.102971,-13101.645173,-3524.039291
533.136258,-4367.215058,-15026.180623,-3677.258390
533.136580,-8364.327145,-15914.427753,-2987.772442
533.136903,-9548.656652,-14730.098246,-3447.429741
533.137225,-6735.874072,-13175.665768,-4519.963438
533.137548,-2516.700203,-12213.398043,-3217.601092
533.137870,370.102971,-9844.739029,1762.019645
533.138193,1998.556043,-6291.750507,4213.525239
533.138515,4145.153275,-2664.741391,1838.629195
533.138838,4885.359217,-4219.173869,-1378.971896
533.139160,3182.885551,-7846.182985,1225.752797
533.139483,0.000000,-8142.265362,3217.601092
533.139805,-666.185348,-6661.853478,1072.533697
533.140128,3775.050304,-7254.018232,-2451.505594
533.140450,9030.512492,-8660.409521,-3447.429741
533.140773,11399.171507,-7994.224174,-2757.943793
533.141095,9918.759623,-7254.018232,-689.485948
533.141417,7031.956449,-8512.368333,459.657299
533.141740,2220.617826,-11177.109724,-1072.533697
533.142062,-4367.215058,-12731.542202,-1915.238745
533.142385,-10362.883188,-12879.583391,-4136.915689
533.142707,-12361.439231,-12953.603985,-7277.907231
533.143030,-9770.718434,-12361.439231,-5669.106685
533.143352,-6513.812290,-11251.130318,-612.876398
533.143675,-4441.235652,-8142.265362,2757.943793
533.143997,-3256.906145,-6439.791695,2221.676944
533.144320,-2442.679609,-5551.544565,1072.533697
533.144642,-3552.988522,-4737.318029,-766.095498
533.144965,-4589.276840,-4663.297435,-2987.772442
533.145287,-3034.844362,-5033.400406,-4519.963438
533.145610,-814.226536,-7179.997637,-4290.134789
533.145932,1036.288319,-11029.068536,-766.095498
533.146255,2294.638420,-14211.954086,1149.143247
533.146577,2220.617826,-14878.139434,-536.266849
533.146900,1184.329507,-14878.139434,-2911.162892
533.147222,-962.267725,-14804.118840,-2987.772442
533.147545,-3330.926739,-12361.439231,-3064.381992
533.147867,-3478.967927,-8586.388927,-4749.792088
533.148189,-2516.700203,-7254.018232,-4519.963438
533.148512,-1480.411884,-8586.388927,-229.828649
533.148834,-1258.350101,-10362.883188,3753.867940
533.149157,-1258.350101,-11695.253884,2757.943793
533.149479,-888.247130,-13027.624579,2757.943793
533.149802,-296.082377,-11621.233289,3907.087040
533.150124,2146.597232,-8364.327145,3370.820191
533.150447,5477.523971,-4145.153275,1072.533697
533.150769,7846.182985,-1036.288319,842.705048
533.151092,7105.977043,666.185348,1225.752797
533.151414,5403.503377,-1480.411884,995.924147
533.151737,4737.318029,-8068.244768,-1302.362347
533.152059,3108.864956,-13915.871710,-3294.210641
533.152382,-1110.308913,-16284.530724,-2528.115143
533.152704,-5033.400406,-16876.695478,-842.705048
533.153027,-4663.297435,-16654.633695,-1532.190996
533.153349,-3552.988522,-12879.583391,-3983.696590
533.153672,-4219.173869,-8216.285956,-2604.724693
533.153994,-7179.997637,-4737.318029,1225.752797
533.154317,-7698.141797,-6587.832884,1225.752797
533.154639,-6513.812290,-7476.080014,-153.219100
533.154962,-5107.421000,-8734.430116,-536.266849
533.155284,-3034.844362,-9918.759623,1302.362347
533.155606,1036.288319,-10658.965565,2604.724693
533.155929,4367.215058,-6735.874072,3294.210641
533.156251,5255.462188,-3182.885551,2987.772442
533.156574,5403.503377,-3108.864956,1302.362347
533.156896,5329.482782,-6143.709319,-1991.848295
533.157219,3849.070898,-7105.977043,-3447.429741
533.157541,1258.350101,-9104.533087,-2757.943793
533.157864,-222.061783,-13249.686362,-3600.648841
533.158186,74.020594,-18431.127956,-4213.525239
533.158509,-592.164754,-20281.642811,-2987.772442
533.158831,-3182.885551,-17098.757260,-995.924147
533.159154,-4811.338623,-14137.933492,-612.876398
533.159476,-3701.029710,-11473.192101,-1915.238745
533.159799,-3108.864956,-7254.018232,-2528.115143
533.160121,-3330.926739,-3701.029710,-995.924147
533.160444,-1258.350101,-4589.276840,0.000000
533.160766,4071.132681,-7031.956449,1225.752797
533.161089,8068.244768,-6069.688724,842.705048
533.161411,6809.894666,-6217.729913,459.657299
533.161734,4663.297435,-9400.615463,1225.752797
533.162056,2664.741391,-10955.047942,1302.362347
533.162379,444.123565,-9548.656652,-1838.629195
533.162701,-2146.597232,-8068.244768,-6128.763984
533.163023,-4293.194464,-8364.327145,-8044.002729
533.163346,-4663.297435,-9104.533087,-6665.030833
533.163668,-4441.235652,-10658.965565,-4903.011187
533.163991,-4959.379811,-12657.521608,-3370.820191
533.164313,-5995.668130,-15396.283594,-3524.039291
533.164636,-7328.038826,-16136.489536,-3907.087040
533.164958,-8956.491898,-13841.851115,-1915.238745
533.165281,-8660.409521,-11325.150913,-1302.362347
533.165603,-4589.276840,-9104.533087,-1762.019645
533.165926,666.185348,-3849.070898,-1455.581446
533.166248,5995.668130,3256.906145,0.000000
533.166571,9474.636058,3478.967927,-1225.752797
533.166893,11029.068536,-2664.741391,-1225.752797
533.167216,8364.327145,-7328.038826,612.876398
533.167538,1998.556043,-9770.718434,1072.533697
533.167861,-2738.761985,-13027.624579,-1685.410096
533.168183,-3330.926739,-15322.262999,-5515.887586
533.168506,-3775.050304,-14285.974681,-7431.126331
533.168828,-4589.276840,-10214.842000,-6205.373534
533.169150,-3849.070898,-8512.368333,-3064.381992
533.169473,-1258.350101,-9844.739029,-1762.019645
533.169795,148.041188,-10140.821405,-2221.676944
533.170118,-666.185348,-11843.295072,-2145.067394
533.170440,-1406.391290,-13471.748144,-1302.362347
533.170763,518.144159,-13619.789333,-1455.581446
533.171085,3478.967927,-9178.553681,-919.314598
533.171408,5477.523971,-4811.338623,-995.924147
533.171730,6957.935855,-3034.844362,0.000000
533.172053,5995.668130,-3404.947333,689.485948
533.172375,1924.535449,-4589.276840,612.876398
533.172698,-3034.844362,-7550.100608,-1838.629195
533.173020,-4219.173869,-13471.748144,-6435.202183
533.173343,-3256.906145,-16358.551318,-7967.393179
533.173665,-4811.338623,-15322.262999,-5362.668486
533.173988,-6143.709319,-14211.954086,-2298.286494
533.174310,-6069.688724,-14878.139434,-1838.629195
533.174633,-4663.297435,-14063.912898,-1685.410096
533.174955,-5551.544565,-11695.253884,-1302.362347
533.175277,-6217.729913,-10214.842000,-2374.896044
533.175600,-3034.844362,-10510.924376,-1838.629195
533.175922,2886.803174,-7328.038826,919.314598
533.176245,7846.182985,-1850.514855,2681.334243
533.176567,9992.780217,0.000000,3600.648841
533.176890,9918.759623,-3552.988522,4673.182538
533.177212,6291.750507,-5699.585753,4443.353888
533.177535,1036.288319,-5329.482782,1685.410096
533.177857,-2146.597232,-8068.244768,-2221.676944
533.178180,-2294.638420,-11325.150913,-4596.572988
533.178502,-962.267725,-12657.521608,-3524.039291
533.178825,-1110.308913,-10658.965565,1072.533697
533.179147,-3256.906145,-7846.182985,1532.190996
533.179470,-3034.844362,-10436.903782,1149.143247
533.179792,-3701.029710,-12731.542202,-919.314598
533.180115,-6735.874072,-10436.903782,-3140.991542
533.180437,-8364.327145,-7624.121203,-4826.401637
533.180760,-4441.235652,-9474.636058,-4366.744339
533.181082,1480.411884,-10066.800811,-1455.581446
533.181404,4959.379811,-6439.791695,2221.676944
533.181727,5995.668130,-6513.812290,3064.381992
533.182049,4589.276840,-8068.244768,2451.505594
533.182372,1036.288319,-8438.347739,0.000000
533.182694,-3256.906145,-7994.224174,-4060.306139
533.183017,-4071.132681,-9474.636058,-7814.174080
533.183339,-2812.782580,-11103.089130,-8963.317327
533.183662,-1480.411884,-12435.459826,-4519.963438
533.183984,-1702.473667,-13841.851115,-306.438199
533.184307,-1776.494261,-15026.180623,-306.438199
533.184629,-2664.741391,-15544.324782,-2911.162892
533.184952,-4219.173869,-14359.995275,-3830.477490
533.185274,-5033.400406,-12731.542202,-3983.696590
533.185597,-2368.659014,-10807.006753,-3600.648841
533.185919,2072.576638,-6365.771101,-1685.410096
533.186242,6809.894666,-2368.659014,536.266849
533.186564,8512.368333,-2812.782580,229.828649
533.186887,9474.636058,-6365.771101,306.438199
533.187209,7254.018232,-7550.100608,1378.971896
533.187531,2220.617826,-6587.832884,-689.485948
533.187854,-2664.741391,-9252.574275,-3140.991542
533.188176,-4219.173869,-12657.521608,-4443.353888
533.188499,-4959.379811,-10658.965565,-4596.572988
533.188821,-5477.523971,-8068.244768,-3140.991542
533.189144,-6513.812290,-7698.141797,-2911.162892
533.189466,-5477.523971,-9474.636058,-2068.457845
533.189789,-4959.379811,-9474.636058,-2068.457845
533.190111,-5403.503377,-9326.594869,-1838.629195
533.190434,-3256.906145,-10881.027347,-2911.162892
533.190756,962.267725,-11177.109724,-2604.724693
533.191079,4663.297435,-6957.935855,-383.047749
533.191401,6513.812290,-2664.741391,383.047749
533.191724,7846.182985,-3849.070898,-842.705048
533.192046,9474.636058,-7402.059420,-689.485948
533.192369,7772.162391,-6883.915261,0.000000
533.192691,4219.173869,-6883.915261,-2145.067394
533.193014,1406.391290,-9918.759623,-4673.182538
533.193336,0.000000,-13397.727550,-4136.915689
533.193658,-2664.741391,-14211.954086,-2451.505594
533.193981,-4885.359217,-13841.851115,-2911.162892
533.194303,-6661.853478,-14359.995275,-4903.011187
533.194626,-7105.977043,-13989.892304,-5286.058936
533.194948,-7846.182985,-12657.521608,-2834.553343
533.195271,-7105.977043,-11251.130318,-2451.505594
533.195593,-4145.153275,-11103.089130,-3064.381992
533.195916,1480.411884,-8808.450710,-1532.190996
533.196238,4663.297435,-4811.338623,-1685.410096
533.196561,6587.832884,-5403.503377,-3064.381992
533.196883,6883.915261,-8734.430116,-1838.629195
533.197206,3627.009116,-9030.512492,995.924147
533.197528,-1998.556043,-8290.306550,1378.971896
533.197851,-4885.359217,-11325.150913,-1762.019645
533.198173,-4441.235652,-12953.603985,-5286.058936
533.198496,-3627.009116,-11621.233289,-5669.106685
533.198818,-3330.926739,-10732.986159,-1532.190996
533.199141,-2072.576638,-10584.944971,1149.143247
533.199463,-222.061783,-12361.439231,-536.266849
533.199785,-1480.411884,-11769.274478,536.266849
533.200108,-3478.967927,-8734.430116,2068.457845
533.200430,-4145.153275,-8216.285956,0.000000
533.200753,-592.164754,-7476.080014,-842.705048
533.201075,4071.132681,-3701.029710,1915.238745
533.201398,7179.997637,-1110.308913,1225.752797
533.201720,10436.903782,-3701.029710,1225.752797
533.202043,10881.027347,-7920.203579,3524.039291
533.202365,5181.441594,-5847.626942,3907.087040
533.202688,-2294.638420,-4515.256246,1302.362347
533.203010,-5995.668130,-8512.368333,-3294.210641
533.203333,-6143.709319,-10362.883188,-7814.174080
533.203655,-6957.935855,-10214.842000,-8197.221829
533.203978,-8142.265362,-10732.986159,-4596.572988
533.204300,-7254.018232,-13175.665768,-995.924147
533.204623,-6661.853478,-14952.160028,-1991.848295
533.204945,-7846.182985,-14952.160028,-995.924147
533.205267,-7994.224174,-13249.686362,-1685.410096
533.205590,-4737.318029,-11473.192101,-4979.620737
533.205912,592.164754,-7624.121203,-4749.792088
533.206235,6069.688724,-1850.514855,-1762.019645
533.206557,10362.883188,-222.061783,0.000000
533.206880,14878.139434,-4589.276840,-612.876398
533.207202,14730.098246,-10732.986159,842.705048
533.207525,8142.265362,-11621.233289,1532.190996
533.207847,666.185348,-12879.583391,0.000000
533.208170,-2516.700203,-16062.468941,-3064.381992
533.208492,-2442.679609,-15544.324782,-5669.106685
533.208815,-2886.803174,-10436.903782,-5975.544884
533.209137,-3997.112087,-7328.038826,-5209.449386
533.209460,-4293.194464,-9918.759623,-3064.381992
533.209782,-5255.462188,-13249.686362,-1378.971896
533.210105,-6587.832884,-13693.809927,-383.047749
533.210427,-7698.141797,-13397.727550,-2604.724693
533.210750,-4811.338623,-13323.706956,-4673.182538
533.211072,0.000000,-8808.450710,-2451.505594
533.211394,2886.803174,-1850.514855,-842.705048
533.211717,6291.750507,666.185348,-1149.143247
533.212039,7994.224174,-1702.473667,-306.438199
533.212362,6439.791695,-3182.885551,0.000000
533.212684,1406.391290,-6513.812290,-2221.676944
533.213007,-2590.720797,-11917.315666,-3983.696590
533.213329,-4293.194464,-16580.613101,-3140.991542
533.213652,-4219.173869,-16284.530724,-2528.115143
533.213974,-3182.885551,-12953.603985,-2451.505594
533.214297,-2960.823768,-10362.883188,-2757.943793
533.214619,-3552.988522,-9178.553681,-1762.019645
533.214942,-4219.173869,-8290.306550,1225.752797
533.215264,-5329.482782,-7105.977043,0.000000
533.215587,-3256.906145,-8364.327145,-2528.115143
533.215909,2220.617826,-6439.791695,-1302.362347
533.216232,6513.812290,-3552.988522,-306.438199
533.216554,9474.636058,-3701.029710,-459.657299
533.216877,10436.903782,-8068.244768,1455.581446
533.217199,7254.018232,-7105.977043,4366.744339
533.217521,888.247130,-5625.565159,2298.286494
533.217844,-3997.112087,-7698.141797,-3064.381992
533.218166,-5699.585753,-11325.150913,-7737.564530
533.218489,-5551.544565,-12435.459826,-7201.297681
533.218811,-6069.688724,-11621.233289,-4136.915689
533.219134,-4737.318029,-13101.645173,-2374.896044
533.219456,-3775.050304,-16506.592507,-3600.648841
533.219779,-5329.482782,-16876.695478,-1225.752797
533.220101,-9770.718434,-13767.830521,383.047749
533.220424,-10214.842000,-13175.665768,-3140.991542
533.220746,-5107.421000,-11991.336260,-5669.106685
533.221069,962.267725,-6217.729913,-3600.648841
533.221391,5847.626942,1480.411884,-612.876398
533.221714,10955.047942,666.185348,306.438199
533.222036,15174.221811,-6587.832884,536.266849
533.222359,12287.418637,-10658.965565,2681.334243
533.222681,4737.318029,-10584.944971,2911.162892
533.223004,-2146.597232,-12435.459826,-536.266849
533.223326,-3478.967927,-15988.448347,-3983.696590
533.223648,-1776.494261,-14211.954086,-4673.182538
533.223971,-1480.411884,-7846.182985,-4903.011187
533.224293,-1184.329507,-6735.874072,-3064.381992
533.224616,-814.226536,-11695.253884,842.705048
533.224938,-2368.659014,-13767.830521,3064.381992
533.225261,-6217.729913,-13841.851115,2374.896044
533.225583,-6957.935855,-12731.542202,-689.485948
533.225906,-2886.803174,-9844.739029,-3600.648841
533.226228,2516.700203,-3552.988522,-3294.210641
533.226551,5699.585753,2072.576638,153.219100
533.226873,7105.977043,2368.659014,2604.724693
533.227196,6513.812290,-2220.617826,2374.896044
533.227518,3108.864956,-6439.791695,1685.410096
533.227841,-1850.514855,-10436.903782,-1685.410096
533.228163,-5033.400406,-14582.057057,-5362.668486
533.228486,-5921.647536,-16358.551318,-4366.744339
533.228808,-4737.318029,-13249.686362,-689.485948
533.229131,-4293.194464,-8734.430116,-995.924147
533.229453,-3997.112087,-6883.915261,-1838.629195
533.229775,-5403.503377,-10066.800811,-1915.238745
533.230098,-8438.347739,-12361.439231,-229.828649
533.230420,-9178.553681,-12287.418637,-1608.800546
533.230743,-5477.523971,-11991.336260,-2834.553343
533.231065,1110.308913,-8216.285956,-1149.143247
533.231388,8290.306550,-2368.659014,153.219100
533.231710,13027.624579,-1628.453072,-1149.143247
533.232033,14211.954086,-5625.565159,1149.143247
533.232355,9918.759623,-7179.997637,4366.744339
533.232678,1850.514855,-6661.853478,842.705048
533.233000,-3552.988522,-11177.109724,-4903.011187
533.233323,-4293.194464,-15470.304188,-7431.126331
533.233645,-4145.153275,-14434.015869,-6588.421283
533.233968,-4589.276840,-10732.986159,-3830.477490
533.234290,-4219.173869,-11991.336260,-2068.457845
533.234613,-4145.153275,-14211.954086,-1532.190996
533.234935,-6291.750507,-16506.592507,-1608.800546
533.235258,-9622.677246,-14211.954086,-1608.800546
533.235580,-9178.553681,-11621.233289,-4366.744339
533.235902,-4515.256246,-9104.533087,-6435.202183
533.236225,1406.391290,-3997.112087,-3447.429741
533.236547,6513.812290,-888.247130,-766.095498
533.236870,9844.739029,-3404.947333,459.657299
533.237192,11177.109724,-7254.018232,1072.533697
533.237515,7624.121203,-8882.471304,306.438199
533.237837,1184.329507,-9104.533087,-1838.629195
533.238160,-2664.741391,-11325.150913,-3983.696590
533.238482,-3404.947333,-12213.398043,-4596.572988
533.238805,-2220.617826,-9548.656652,-3447.429741
533.239127,-888.247130,-7328.038826,-2987.772442
533.239450,-2220.617826,-8216.285956,-2987.772442
533.239772,-4515.256246,-12657.521608,-919.314598
533.240095,-7031.956449,-15840.407159,1455.581446
533.240417,-7846.182985,-16506.592507,0.000000
533.240740,-5107.421000,-13175.665768,-2451.505594
533.241062,1110.308913,-4959.379811,-1072.533697
533.241385,7031.956449,2146.597232,0.000000
533.241707,11621.233289,4441.235652,-766.095498
533.242029,12509.480420,296.082377,0.000000
533.242352,8808.450710,-5699.585753,1838.629195
533.242674,2738.761985,-10214.842000,306.438199
533.242997,-3108.864956,-13471.748144,-3753.867940
533.243319,-5921.647536,-17098.757260,-5515.887586
533.243642,-5625.565159,-17320.819043,-4673.182538
533.243964,-5107.421000,-11399.171507,-3753.867940
533.244287,-3997.112087,-9622.677246,-4443.353888
533.244609,-4441.235652,-10288.862594,-2374.896044
533.244932,-6809.894666,-12731.542202,-612.876398
533.245254,-10066.800811,-13397.727550,-1149.143247
533.245577,-9696.697840,-14804.118840,-3064.381992
533.245899,-5181.441594,-13989.892304,-2528.115143
533.246222,740.205942,-8512.368333,383.047749
533.246544,6957.935855,-3627.009116,1991.848295
533.246867,11547.212695,-2072.576638,2374.896044
533.247189,12065.356855,-3552.988522,2221.676944
533.247512,8882.471304,-5921.647536,2451.505594
533.247834,3552.988522,-8660.409521,153.219100
533.248156,-1850.514855,-13693.809927,-2987.772442
533.248479,-4589.276840,-17172.777854,-1991.848295
533.248801,-3701.029710,-15100.201217,-153.219100
533.249124,-1850.514855,-10584.944971,-2528.115143
533.249446,-740.205942,-9474.636058,-3753.867940
533.249769,-1998.556043,-10881.027347,459.657299
533.250091,-6735.874072,-11769.274478,3830.477490
533.250414,-10214.842000,-11917.315666,4060.306139
533.250736,-8660.409521,-11843.295072,-306.438199
533.251059,-4515.256246,-8290.306550,-3524.039291
533.251381,296.082377,-4219.173869,-1149.143247
533.251704,5107.421000,-370.102971,2987.772442
533.252026,7550.100608,1258.350101,5362.668486
533.252349,7994.224174,0.000000,4749.792088
533.252671,5551.544565,-4071.132681,1608.800546
533.252994,1628.453072,-9030.512492,-2834.553343
533.253316,-2368.659014,-12287.418637,-5669.106685
533.253639,-3627.009116,-14434.015869,-2834.553343
533.253961,-2516.700203,-14878.139434,-1302.362347
533.254283,-444.123565,-12879.583391,-2528.115143
533.254606,-962.267725,-10510.924376,-2757.943793
533.254928,-3330.926739,-9770.718434,0.000000
533.255251,-5329.482782,-13397.727550,919.314598
533.255573,-5921.647536,-16062.468941,-2221.676944
533.255896,-4071.132681,-13619.789333,-2528.115143
533.256218,-222.061783,-5995.668130,76.609550
533.256541,5625.565159,-1628.453072,-1302.362347
533.256863,12435.459826,-3404.947333,-1762.019645
533.257186,13767.830521,-4145.153275,1991.848295
533.257508,7624.121203,-2664.741391,3524.039291
533.257831,0.000000,-6143.709319,153.219100
533.258153,-3701.029710,-13249.686362,-4443.353888
533.258476,-5477.523971,-14878.139434,-9193.145976
533.258798,-6883.915261,-13323.706956,-11184.994271
533.259121,-6661.853478,-13027.624579,-7431.126331
533.259443,-4515.256246,-14137.933492,-4903.011187
533.259766,-3997.112087,-15470.304188,-2911.162892
533.260088,-7772.162391,-15470.304188,-1608.800546
533.260410,-10584.944971,-15396.283594,-2221.676944
533.260733,-9548.656652,-14285.974681,-6511.811733
533.261055,-5033.400406,-8734.430116,-7201.297681
533.261378,370.102971,-1184.329507,-3677.258390
533.261700,6809.894666,1258.350101,-229.828649
533.262023,11325.150913,370.102971,2068.457845
533.262345,11769.274478,-3404.947333,3753.867940
533.262668,7328.038826,-6735.874072,3677.258390
533.262990,2368.659014,-9030.512492,-995.924147
533.263313,-1258.350101,-11177.109724,-5822.325785
533.263635,-2664.741391,-12139.377449,-4903.011187
533.263957,-1924.535449,-9992.780217,-2834.553343
533.264280,-888.247130,-6883.915261,-3983.696590
533.264602,0.000000,-7772.162391,-4826.401637
533.264925,-2072.576638,-12139.377449,-2911.162892
533.265247,-5921.647536,-17320.819043,-2604.724693
533.265570,-7328.038826,-19467.416275,-3524.039291
533.265892,-5403.503377,-16950.716072,-2757.943793
533.266214,-962.267725,-10436.903782,-1685.410096
533.266537,4441.235652,-3701.029710,-842.705048
533.266859,8734.430116,-1110.308913,842.705048
533.267182,9474.636058,-592.164754,2681.334243
533.267504,6661.853478,-296.082377,3447.429741
533.267826,1850.514855,-3849.070898,689.485948
533.268149,-1332.370696,-9622.677246,-2681.334243
533.268471,-3404.947333,-12953.603985,-3830.477490
533.268794,-4293.194464,-13545.768739,-2528.115143
533.269116,-2368.659014,-14285.974681,-1915.238745
533.269439,-1924.535449,-15174.221811,-2528.115143
533.269761,-4219.173869,-14508.036463,-1455.581446
533.270083,-7254.018232,-13989.892304,459.657299
533.270406,-7846.182985,-15026.180623,-766.095498
533.270728,-6513.812290,-15914.427753,-3447.429741
533.271051,-3701.029710,-11621.233289,-2528.115143
533.271373,0.000000,-5329.482782,919.314598
533.271695,4145.153275,-3108.864956,2145.067394
533.272018,7105.977043,-3330.926739,3064.381992
533.272340,5477.523971,-2516.700203,4290.134789
533.272663,1628.453072,-3478.967927,3064.381992
533.272985,-1110.308913,-8142.265362,-766.095498
533.273308,-1776.494261,-11917.315666,-2757.943793
533.273630,-2072.576638,-11177.109724,-383.047749
533.273952,-962.267725,-8512.368333,1455.581446
533.274275,962.267725,-8364.327145,612.876398
533.274597,2960.823768,-9918.759623,153.219100
533.274920,962.267725,-12065.356855,1225.752797
533.275242,-3108.864956,-13915.871710,2145.067394
533.275564,-4663.297435,-15100.201217,76.609550
533.275887,-444.123565,-13693.809927,-1991.848295
533.276209,4145.153275,-7105.977043,-1455.581446
533.276532,7772.162391,-1998.556043,0.000000
533.276854,10066.800811,-3478.967927,919.314598
533.277177,9622.677246,-5477.523971,4366.744339
533.277499,4811.338623,-4737.318029,5286.058936
533.277821,-2516.700203,-5551.544565,1608.800546
533.278144,-6069.688724,-9252.574275,-3830.477490
533.278466,-6217.729913,-9844.739029,-6894.859482
533.278789,-5255.462188,-7846.182985,-6741.640382
533.279111,-3923.091493,-8512.368333,-4366.744339
533.279433,-3775.050304,-12213.398043,-2221.676944
533.279756,-5403.503377,-15026.180623,-1685.410096
533.280078,-8734.430116,-15396.283594,-1532.190996
533.280401,-10807.006753,-15174.221811,-3983.696590
533.280723,-9030.512492,-14730.098246,-7967.393179
533.281046,-4589.276840,-9844.739029,-7124.688131
533.281368,1406.391290,-3775.050304,-2451.505594
533.281690,6365.771101,-3108.864956,-842.705048
533.282013,9918.759623,-7624.121203,689.485948
533.282335,8142.265362,-7624.121203,2911.162892
533.282658,2516.700203,-5403.503377,459.657299
533.282980,-296.082377,-7105.977043,-4519.963438
533.283302,740.205942,-10140.821405,-7814.174080
533.283625,1110.308913,-8438.347739,-7507.735880
533.283947,0.000000,-7254.018232,-3524.039291
533.284270,-370.102971,-8512.368333,-995.924147
533.284592,-962.267725,-11917.315666,-2528.115143
533.284914,-3256.906145,-14285.974681,-5592.497135
533.285237,-5625.565159,-16580.613101,-6511.811733
533.285559,-5107.421000,-16654.633695,-6052.154434
533.285882,74.020594,-14137.933492,-5286.058936
533.286204,6217.729913,-9104.533087,-3907.087040
533.286527,9400.615463,-6883.915261,-1762.019645
533.286849,9178.553681,-5625.565159,306.438199
533.287171,5847.626942,-3330.926739,842.705048
533.287494,0.000000,-4071.132681,-2068.457845
533.287816,-4737.318029,-7105.977043,-4443.353888
533.288139,-6883.915261,-10066.800811,-5439.278036
533.288461,-6217.729913,-10288.862594,-5669.106685
533.288783,-5551.544565,-8512.368333,-2834.553343
533.289106,-2664.741391,-10288.862594,-1915.238745
533.289428,-1850.514855,-10362.883188,-3600.648841
533.289751,-4071.132681,-11769.274478,-2834.553343
533.290073,-8808.450710,-12287.418637,-459.657299
533.290396,-9992.780217,-14211.954086,-1072.533697
533.290718,-5995.668130,-14137.933492,-3830.477490
533.291040,-962.267725,-8956.491898,-3370.820191
533.291363,2960.823768,-4293.194464,459.657299
533.291685,7179.997637,-2072.576638,2757.943793
533.292008,9548.656652,-3701.029710,3370.820191
533.292330,8808.450710,-5033.400406,3983.696590
533.292652,4441.235652,-5477.523971,2987.772442
533.292975,814.226536,-8364.327145,-919.314598
533.293297,0.000000,-12583.501014,-2298.286494
533.293620,-222.061783,-12213.398043,-612.876398
533.293942,-666.185348,-9474.636058,0.000000
533.294265,0.000000,-8808.450710,-919.314598
533.294587,888.247130,-11621.233289,-766.095498
533.294909,-962.267725,-12065.356855,76.609550
533.295232,-3997.112087,-12953.603985,153.219100
533.295554,-4515.256246,-14952.160028,-1378.971896
533.295877,-1776.494261,-13989.892304,-2451.505594
533.296199,1184.329507,-8142.265362,-1532.190996
533.296521,3478.967927,-4959.379811,766.095498
533.296844,4737.318029,-3849.070898,2145.067394
533.297166,3552.988522,-4737.318029,2221.676944
533.297489,-1036.288319,-6069.688724,2374.896044
533.297811,-5699.585753,-9400.615463,612.876398
533.298134,-5921.647536,-12953.603985,-3447.429741
533.298456,-4589.276840,-13249.686362,-5975.544884
533.298778,-3330.926739,-11843.295072,-3677.258390
533.299101,-1480.411884,-10066.800811,-689.485948
533.299423,-296.082377,-10140.821405,76.609550
533.299746,-740.205942,-12065.356855,-842.705048
533.300068,-4367.215058,-13397.727550,-229.828649
533.300390,-7105.977043,-14804.118840,-2068.457845
533.300713,-4737.318029,-14582.057057,-3447.429741
533.301035,740.205942,-9252.574275,-2451.505594
533.301358,5477.523971,-3108.864956,229.828649
533.301680,9474.636058,-1554.432478,2298.286494
533.302002,11991.336260,-4367.215058,2451.505594
533.302325,9770.718434,-5329.482782,2604.724693
533.302647,2738.761985,-5921.647536,383.047749
533.302970,-2516.700203,-9030.512492,-2451.505594
533.303292,-4515.256246,-11029.068536,-4213.525239
533.303615,-4441.235652,-9030.512492,-2987.772442
533.303937,-3034.844362,-7031.956449,-2298.286494
533.304259,-1924.535449,-7402.059420,-2145.067394
533.304582,-1998.556043,-9474.636058,-2068.457845
533.304904,-4367.215058,-11029.068536,-919.314598
533.305227,-6809.894666,-12287.418637,-1685.410096
533.305549,-7550.100608,-11917.315666,-4673.182538
533.305871,-2812.782580,-9548.656652,-6971.469032
533.306194,3256.906145,-5107.421000,-5515.887586
533.306516,7476.080014,-3330.926739,-4213.525239
533.306839,9104.533087,-8512.368333,-229.828649
533.307161,6365.771101,-9400.615463,3753.867940
533.307484,296.082377,-7105.977043,2528.115143
533.307806,-4293.194464,-9104.533087,-4519.963438
533.308128,-5033.400406,-13027.624579,-9576.193725
533.308451,-4737.318029,-12583.501014,-8886.707777
533.308773,-3478.967927,-9770.718434,-4596.572988
533.309096,-1850.514855,-8660.409521,-2374.896044
533.309418,222.061783,-12509.480420,-2374.896044
533.309740,-1258.350101,-14063.912898,-3524.039291
533.310063,-4737.318029,-14211.954086,-2681.334243
533.310385,-6291.750507,-15766.386565,-4903.011187
533.310708,-2368.659014,-16136.489536,-5975.544884
533.311030,4737.318029,-10362.883188,-4443.353888
533.311353,9326.594869,-4441.235652,-3600.648841
533.311675,11399.171507,-5107.421000,-842.705048
533.311997,11325.150913,-5921.647536,1991.848295
533.312320,4737.318029,-3775.050304,1991.848295
533.312642,-3404.947333,-5995.668130,-1072.533697
533.312965,-7254.018232,-11843.295072,-3677.258390
533.313287,-7550.100608,-13841.851115,-5592.497135
533.313609,-6809.894666,-10955.047942,-4060.306139
533.313932,-5625.565159,-7254.018232,-536.266849
533.314254,-3182.885551,-7105.977043,-1149.143247
533.314577,-1406.391290,-8364.327145,-2681.334243
533.314899,-3478.967927,-9400.615463,0.000000
533.315222,-7846.182985,-9400.615463,459.657299
533.315544,-7624.121203,-12213.398043,-3294.210641
533.315866,-3256.906145,-11843.295072,-3370.820191
533.316189,2294.638420,-5773.606348,-1608.800546
533.316511,6365.771101,-2960.823768,-1532.190996
533.316834,10658.965565,-6735.874072,383.047749
533.317156,11029.068536,-7846.182985,3753.867940
533.317478,4663.297435,-4811.338623,4903.011187
533.317801,-1406.391290,-6439.791695,2451.505594
533.318123,-2960.823768,-10955.047942,-2221.676944
533.318446,-2220.617826,-10732.986159,-5515.887586
533.318768,-2294.638420,-8438.347739,-4290.134789
533.319091,-2738.761985,-8956.491898,-229.828649
533.319413,-1924.535449,-12583.501014,1072.533697
533.319735,-2146.597232,-14285.974681,919.314598
533.320058,-4811.338623,-14063.912898,1378.971896
533.320380,-6513.812290,-12953.603985,-1072.533697
533.320703,-3108.864956,-11843.295072,-6128.763984
533.321025,2368.659014,-7994.224174,-4903.011187
533.321347,5773.606348,-2812.782580,-1072.533697
533.321670,7624.121203,-3552.988522,536.266849
533.321992,8290.306550,-8364.327145,1532.190996
533.322315,5181.441594,-9844.739029,2145.067394
533.322637,-740.205942,-8956.491898,689.485948
533.322959,-4515.256246,-11103.089130,-4290.134789
533.323282,-4885.359217,-14508.036463,-6741.640382
533.323604,-3775.050304,-13767.830521,-4519.963438
533.323927,-3478.967927,-10584.944971,-689.485948
533.324249,-4515.256246,-7920.203579,536.266849
533.324572,-4145.153275,-9548.656652,-153.219100
533.324894,-5847.626942,-9400.615463,-2221.676944
533.325216,-6439.791695,-9844.739029,-2681.334243
533.325539,-4811.338623,-11769.274478,-4060.306139
533.325861,370.102971,-11695.253884,-3064.381992
533.326184,5255.462188,-7031.956449,919.314598
533.326506,8290.306550,-3627.009116,1762.019645
533.326828,10362.883188,-5699.585753,306.438199
533.327151,9770.718434,-8364.327145,-306.438199
533.327473,5329.482782,-7846.182985,-689.485948
533.327796,0.000000,-7698.141797,-689.485948
533.328118,-2664.741391,-10510.924376,-2757.943793
533.328441,-1776.494261,-12361.439231,-2451.505594
533.328763,-1406.391290,-10658.965565,-612.876398
533.329085,-2886.803174,-8142.265362,-383.047749
533.329408,-4367.215058,-8808.450710,-1455.581446
533.329730,-4811.338623,-10955.047942,-1532.190996
533.330053,-6513.812290,-11843.295072,0.000000
533.330375,-7698.141797,-10807.006753,-383.047749
533.330697,-5403.503377,-9178.553681,-1991.848295
533.331020,740.205942,-5329.482782,-2068.457845
533.331342,5847.626942,-1554.432478,-3753.867940
533.331665,8660.409521,-5995.668130,-2528.115143
533.331987,7031.956449,-9326.594869,1532.190996
533.332310,1406.391290,-8142.265362,2987.772442
533.332632,-4885.359217,-9326.594869,-536.266849
533.332954,-7328.038826,-13767.830521,-6588.421283
533.333277,-7624.121203,-14730.098246,-8963.317327
533.333599,-6735.874072,-11695.253884,-7277.907231
533.333922,-4441.235652,-8808.450710,-3983.696590
533.334244,-1702.473667,-10362.883188,-2451.505594
533.334566,-592.164754,-12657.521608,-1915.238745
533.334889,-2368.659014,-13397.727550,459.657299
533.335211,-5551.544565,-12065.356855,-689.485948
533.335534,-3997.112087,-13027.624579,-4060.306139
533.335856,1332.370696,-10658.965565,-3447.429741
533.336179,7476.080014,-2294.638420,-766.095498
533.336501,12287.418637,888.247130,-1455.581446
533.336823,16654.633695,-6735.874072,-1302.362347
533.337146,15174.221811,-10214.842000,3294.210641
533.337468,7105.977043,-7402.059420,4519.963438
533.337791,-2368.659014,-8364.327145,306.438199
533.338113,-5477.523971,-13693.809927,-4673.182538
533.338435,-5477.523971,-12361.439231,-6894.859482
533.338758,-5033.400406,-7846.182985,-6894.859482
533.339080,-6069.688724,-7254.018232,-4596.572988
533.339403,-5033.400406,-12065.356855,-1915.238745
533.339725,-5551.544565,-14952.160028,-919.314598
533.340048,-8808.450710,-13249.686362,2221.676944
533.340370,-11621.233289,-11769.274478,-689.485948
533.340692,-8512.368333,-11695.253884,-7967.393179
533.341015,-2220.617826,-9178.553681,-7660.954980
533.341337,2368.659014,-1258.350101,-842.705048
533.341660,5329.482782,3627.009116,2604.724693
533.341982,8660.409521,148.041188,2528.115143
533.342304,8438.347739,-5921.647536,1685.410096
533.342627,3627.009116,-8956.491898,0.000000
533.342949,-1332.370696,-11621.233289,-2604.724693
533.343272,-3552.988522,-16210.510130,-3907.087040
533.343594,-2442.679609,-17098.757260,-1378.971896
533.343916,-1036.288319,-13027.624579,459.657299
533.344239,-888.247130,-8438.347739,-229.828649
533.344561,-1776.494261,-8068.244768,-459.657299
533.344884,-2442.679609,-9474.636058,383.047749
533.345206,-3923.091493,-8882.471304,0.000000
533.345529,-2368.659014,-10214.842000,-1608.800546
533.345851,2072.576638,-10214.842000,-1532.190996
533.346173,7105.977043,-7920.203579,-995.924147
533.346496,9918.759623,-6957.935855,459.657299
533.346818,9844.739029,-9918.759623,3600.648841
533.347141,6291.750507,-8142.265362,3983.696590
533.347463,-666.185348,-4811.338623,1455.581446
533.347785,-5107.421000,-6069.688724,-2451.505594
533.348108,-5921.647536,-9622.677246,-6052.154434
533.348430,-3997.112087,-12139.377449,-6818.249932
533.348753,-6069.688724,-11695.253884,-4366.744339
533.349075,-5773.606348,-15100.201217,919.314598
533.349398,-6291.750507,-17098.757260,1225.752797
533.349720,-7328.038826,-15544.324782,0.000000
533.350042,-9696.697840,-11251.130318,-229.828649
533.350365,-9400.615463,-9104.533087,-2987.772442
533.350687,-4737.318029,-9030.512492,-6511.811733
533.351010,1480.411884,-5995.668130,-2451.505594
533.351332,5033.400406,-888.247130,3064.381992
533.351654,8142.265362,-1480.411884,4136.915689
533.351977,11843.295072,-7328.038826,919.314598
533.352299,11325.150913,-10584.944971,0.000000
533.352622,5699.585753,-8290.306550,-612.876398
533.352944,-222.061783,-8882.471304,-2221.676944
533.353267,-2220.617826,-13471.748144,-2145.067394
533.353589,-2368.659014,-12805.562797,-612.876398
533.353911,-3182.885551,-6883.915261,-2298.286494
533.354234,-3404.947333,-6661.853478,-4290.134789
533.354556,-3627.009116,-10658.965565,-4826.401637
533.354879,-3182.885551,-14952.160028,-1302.362347
533.355201,-5921.647536,-13841.851115,1149.143247
533.355523,-6217.729913,-11917.315666,766.095498
533.355846,-1184.329507,-10214.842000,-2528.115143
533.356168,4589.276840,-4441.235652,-4366.744339
533.356491,8512.368333,-1850.514855,-4290.134789
533.356813,9696.697840,-5847.626942,-2681.334243
533.357136,9104.533087,-8364.327145,1378.971896
533.357458,5107.421000,-6365.771101,2604.724693
533.357780,-296.082377,-6513.812290,-229.828649
533.358103,-3034.844362,-11103.089130,-5669.106685
533.358425,-4811.338623,-13027.624579,-8580.269578
533.358748,-7105.977043,-12361.439231,-6435.202183
533.359070,-8290.306550,-13471.748144,-3830.477490
533.359392,-8216.285956,-15248.242405,-2451.505594
533.359715,-7624.121203,-15840.407159,-2834.553343
533.360037,-9030.512492,-13249.686362,-383.047749
533.360360,-8512.368333,-9844.739029,-1762.019645
533.360682,-3478.967927,-8438.347739,-5132.839837
533.361004,2590.720797,-8216.285956,-4290.134789
533.361327,6217.729913,-3923.091493,919.314598
533.361649,7624.121203,-1998.556043,3677.258390
533.361972,9326.594869,-5107.421000,1225.752797
533.362294,9992.780217,-8956.491898,-612.876398
533.362617,6809.894666,-7402.059420,-1302.362347
533.362939,1406.391290,-7179.997637,-2604.724693
533.363261,-1702.473667,-11843.295072,-2374.896044
533.363584,-2368.659014,-13989.892304,229.828649
533.363906,-3404.947333,-10584.944971,-306.438199
533.364228,-4293.194464,-9104.533087,-4136.915689
533.364551,-4589.276840,-11103.089130,-4826.401637
533.364873,-6291.750507,-13175.665768,-1991.848295
533.365195,-7254.018232,-11621.233289,1302.362347
533.365518,-6143.709319,-9030.512492,459.657299
533.365840,-2590.720797,-7994.224174,-1455.581446
533.366162,2220.617826,-5995.668130,-1991.848295
533.366485,5329.482782,-3627.009116,-766.095498
533.366807,6587.832884,-4885.359217,-919.314598
533.367129,7031.956449,-7920.203579,-612.876398
533.367452,4811.338623,-8290.306550,1072.533697
533.367774,1776.494261,-7105.977043,-306.438199
533.368096,-962.267725,-10436.903782,-3677.258390
533.368419,-2516.700203,-14804.118840,-4290.134789
533.368741,-3627.009116,-14211.954086,-1762.019645
533.369063,-4959.379811,-11251.130318,-1225.752797
533.369386,-4737.318029,-10955.047942,-2757.943793
533.369708,-3701.029710,-12435.459826,-2451.505594
533.370030,-4589.276840,-12435.459826,0.000000
533.370353,-5995.668130,-11251.130318,689.485948
533.370675,-4145.153275,-11029.068536,153.219100
533.370997,888.247130,-7698.141797,459.657299
533.371320,5847.626942,-3701.029710,-306.438199
533.371642,7920.203579,-3923.091493,-1685.410096
533.371964,8290.306550,-8290.306550,919.314598
533.372287,6883.915261,-7624.121203,3983.696590
533.372609,2664.741391,-4367.215058,1455.581446
533.372931,-962.267725,-6587.832884,-3294.210641
533.373254,-3182.885551,-11251.130318,-5362.668486
533.373576,-5403.503377,-12583.501014,-4903.011187
533.373898,-6661.853478,-13323.706956,-3753.867940
533.374221,-5921.647536,-15174.221811,-2757.943793
533.374543,-4589.276840,-16136.489536,-2528.115143
533.374865,-5107.421000,-13545.768739,-1225.752797
533.375188,-7105.977043,-9252.574275,2068.457845
533.375510,-6217.729913,-7179.997637,-536.266849
