#time,accel_x,accel_y,accel_z
466.316503,-296.082377,-9474.636058,-1225.752797
466.316824,-148.041188,-9252.574275,-1225.752797
466.317146,-222.061783,-9104.533087,-1455.581446
466.317467,-222.061783,-8734.430116,-2145.067394
466.317789,222.061783,-9104.533087,-1608.800546
466.318110,0.000000,-9252.574275,-1455.581446
466.318431,-370.102971,-9400.615463,-1072.533697
466.318753,-222.061783,-9474.636058,-1455.581446
466.319074,-592.164754,-9548.656652,-995.924147
466.319396,-518.144159,-9326.594869,-1072.533697
466.319717,-222.061783,-9252.574275,-1302.362347
466.320039,-296.082377,-9104.533087,-1685.410096
466.320360,-296.082377,-9104.533087,-1608.800546
466.320682,0.000000,-9400.615463,-1608.800546
466.321003,0.000000,-9548.656652,-1378.971896
466.321324,-296.082377,-9696.697840,-1685.410096
466.321646,-592.164754,-9474.636058,-1608.800546
466.321967,-518.144159,-9474.636058,-1532.190996
466.322289,-444.123565,-9474.636058,-1762.019645
466.322610,-370.102971,-9178.553681,-1455.581446
466.322932,-444.123565,-9252.574275,-1072.533697
466.323253,-148.041188,-9622.677246,-1532.190996
466.323574,-518.144159,-9548.656652,-1608.800546
466.323896,-592.164754,-9622.677246,-1608.800546
466.324217,-592.164754,-9474.636058,-1685.410096
466.324539,-370.102971,-9622.677246,-1915.238745
466.324860,-740.205942,-9400.615463,-1762.019645
466.325182,-370.102971,-9474.636058,-1685.410096
466.325503,-518.144159,-9474.636058,-1608.800546
466.325824,-444.123565,-9696.697840,-1302.362347
466.326146,-518.144159,-9622.677246,-1532.190996
466.326467,-666.185348,-9178.553681,-1378.971896
466.326789,-666.185348,-9252.574275,-1685.410096
466.327110,-518.144159,-9474.636058,-1762.019645
466.327432,-666.185348,-9252.574275,-1608.800546
466.327753,-592.164754,-9252.574275,-1915.238745
466.328074,-666.185348,-9104.533087,-995.924147
466.328396,-518.144159,-9474.636058,-1532.190996
466.328717,-592.164754,-9474.636058,-1302.362347
466.329039,-592.164754,-9400.615463,-1455.581446
466.329360,-444.123565,-9400.615463,-1762.019645
466.329682,-444.123565,-9030.512492,-766.095498
466.330003,-592.164754,-9252.574275,-1302.362347
466.330325,-370.102971,-9400.615463,-1455.581446
466.330646,-370.102971,-9326.594869,-1455.581446
466.330967,-148.041188,-9474.636058,-1225.752797
466.331289,-296.082377,-9474.636058,-1302.362347
466.331610,-592.164754,-9474.636058,-995.924147
466.331932,-296.082377,-9400.615463,-1378.971896
466.332253,0.000000,-9178.553681,-1225.752797
466.332575,-148.041188,-9178.553681,-1378.971896
466.332896,-148.041188,-9178.553681,-995.924147
466.333217,74.020594,-9030.512492,-1302.362347
466.333539,0.000000,-9474.636058,-1149.143247
466.333860,-148.041188,-9474.636058,-1072.533697
466.334182,-148.041188,-9474.636058,-1225.752797
466.334503,-222.061783,-9400.615463,-1225.752797
466.334825,592.164754,-9474.636058,-842.705048
466.335146,814.226536,-9326.594869,-1302.362347
466.335467,1406.391290,-9474.636058,-1302.362347
466.335789,1184.329507,-9400.615463,-612.876398
466.336110,370.102971,-8882.471304,-383.047749
466.336432,222.061783,-8586.388927,-1378.971896
466.336753,-222.061783,-9326.594869,-1915.238745
466.337075,-888.247130,-9474.636058,-1532.190996
466.337396,-1554.432478,-8882.471304,-1532.190996
466.337717,-592.164754,-8956.491898,-1838.629195
466.338039,74.020594,-9622.677246,-2145.067394
466.338360,-296.082377,-10066.800811,-612.876398
466.338682,0.000000,-9770.718434,-689.485948
466.339003,0.000000,-9178.553681,-1532.190996
466.339325,1258.350101,-9844.739029,-2298.286494
466.339646,1628.453072,-10436.903782,-1838.629195
466.339968,814.226536,-9252.574275,-306.438199
466.340289,814.226536,-8586.388927,-919.314598
466.340610,2738.761985,-9104.533087,-1532.190996
466.340932,3552.988522,-9696.697840,-1455.581446
466.341253,2886.803174,-9474.636058,-612.876398
466.341575,2294.638420,-8512.368333,-153.219100
466.341896,2590.720797,-8364.327145,-689.485948
466.342218,3256.906145,-9400.615463,-1608.800546
466.342539,2590.720797,-9400.615463,-1455.581446
466.342860,2442.679609,-8438.347739,-1378.971896
466.343182,3108.864956,-8290.306550,-2604.724693
466.343503,4367.215058,-9474.636058,-2528.115143
466.343825,4367.215058,-10881.027347,-1532.190996
466.344146,3478.967927,-10436.903782,-1072.533697
466.344468,3775.050304,-9918.759623,-1838.629195
466.344789,4145.153275,-10881.027347,-1915.238745
466.345110,4811.338623,-11103.089130,-2068.457845
466.345432,4071.132681,-9474.636058,-2528.115143
466.345753,3552.988522,-8882.471304,-1762.019645
466.346075,3775.050304,-8956.491898,-1072.533697
466.346396,4293.194464,-8808.450710,-1455.581446
466.346718,4441.235652,-8438.347739,-1991.848295
466.347039,4515.256246,-8586.388927,-1149.143247
466.347360,5033.400406,-9474.636058,-1225.752797
466.347682,5477.523971,-9104.533087,-1608.800546
466.348003,5625.565159,-9030.512492,-1532.190996
466.348325,5107.421000,-9030.512492,-1455.581446
466.348646,3997.112087,-9992.780217,-1915.238745
466.348968,2368.659014,-10510.924376,-1838.629195
466.349289,740.205942,-12139.377449,-1915.238745
466.349611,-296.082377,-12953.603985,-1072.533697
466.349932,-518.144159,-13101.645173,0.000000
466.350253,-296.082377,-12139.377449,536.266849
466.350575,740.205942,-10214.842000,2068.457845
466.350896,1924.535449,-8808.450710,1455.581446
466.351218,1998.556043,-7402.059420,1378.971896
466.351539,1258.350101,-6513.812290,1149.143247
466.351861,0.000000,-5477.523971,536.266849
466.352182,-592.164754,-5033.400406,-1455.581446
466.352503,-444.123565,-5403.503377,-1915.238745
466.352825,1110.308913,-5773.606348,-3217.601092
466.353146,3108.864956,-6587.832884,-4443.353888
466.353468,5033.400406,-7994.224174,-4290.134789
466.353789,5995.668130,-9326.594869,-3524.039291
466.354111,5995.668130,-11843.295072,-3753.867940
466.354432,5477.523971,-13767.830521,-3447.429741
466.354753,4959.379811,-14804.118840,-2834.553343
466.355075,4589.276840,-14211.954086,-2068.457845
466.355396,3701.029710,-13471.748144,-689.485948
466.355718,2368.659014,-11325.150913,1838.629195
466.356039,1258.350101,-9622.677246,3753.867940
466.356361,1554.432478,-7179.997637,3524.039291
466.356682,1998.556043,-5255.462188,2681.334243
466.357003,1554.432478,-4219.173869,2834.553343
466.357325,74.020594,-3108.864956,2451.505594
466.357646,296.082377,-4663.297435,1302.362347
466.357968,666.185348,-6883.915261,-689.485948
466.358289,518.144159,-9030.512492,-2221.676944
466.358611,0.000000,-10436.903782,-3524.039291
466.358932,74.020594,-11843.295072,-3830.477490
466.359254,592.164754,-13471.748144,-4673.182538
466.359575,1110.308913,-15840.407159,-5132.839837
466.359896,1036.288319,-16580.613101,-5362.668486
466.360218,740.205942,-14952.160028,-4366.744339
466.360539,1406.391290,-11621.233289,-3294.210641
466.360861,3182.885551,-9252.574275,-2834.553343
466.361182,4219.173869,-8068.244768,-1685.410096
466.361504,5403.503377,-8290.306550,76.609550
466.361825,6217.729913,-8068.244768,1685.410096
466.362146,7031.956449,-7550.100608,3140.991542
466.362468,8364.327145,-5921.647536,3140.991542
466.362789,8956.491898,-5107.421000,2298.286494
466.363111,6957.935855,-4145.153275,2451.505594
466.363432,4737.318029,-3330.926739,2374.896044
466.363754,3256.906145,-5255.462188,-1302.362347
466.364075,1998.556043,-8216.285956,-3677.258390
466.364396,-148.041188,-10214.842000,-2451.505594
466.364718,-2368.659014,-11917.315666,-2374.896044
466.365039,-2664.741391,-15100.201217,-4136.915689
466.365361,-2442.679609,-16654.633695,-4979.620737
466.365682,-2664.741391,-13989.892304,-5132.839837
466.366004,-2368.659014,-10288.862594,-4673.182538
466.366325,-370.102971,-9770.718434,-3983.696590
466.366646,1036.288319,-10140.821405,-4443.353888
466.366968,2886.803174,-9696.697840,-3677.258390
466.367289,5181.441594,-9178.553681,-1762.019645
466.367611,7920.203579,-9696.697840,0.000000
466.367932,9474.636058,-9770.718434,1455.581446
466.368254,9178.553681,-8216.285956,2298.286494
466.368575,8142.265362,-6513.812290,1149.143247
466.368897,6661.853478,-7698.141797,306.438199
466.369218,4589.276840,-9030.512492,536.266849
466.369539,1110.308913,-8290.306550,536.266849
466.369861,-1850.514855,-7624.121203,0.000000
466.370182,-2738.761985,-9178.553681,0.000000
466.370504,-1850.514855,-10881.027347,-919.314598
466.370825,-888.247130,-10288.862594,-2221.676944
466.371147,-666.185348,-9252.574275,-1915.238745
466.371468,740.205942,-9696.697840,-689.485948
466.371789,1850.514855,-9844.739029,-2145.067394
466.372111,3256.906145,-9548.656652,-4290.134789
466.372432,4293.194464,-9622.677246,-3677.258390
466.372754,4959.379811,-9992.780217,-2221.676944
466.373075,5033.400406,-9178.553681,-1225.752797
466.373397,4737.318029,-8734.430116,-1149.143247
466.373718,4219.173869,-8808.450710,-766.095498
466.374039,3182.885551,-8364.327145,-229.828649
466.374361,2368.659014,-7994.224174,-919.314598
466.374682,1480.411884,-7920.203579,-1991.848295
466.375004,888.247130,-9474.636058,-1455.581446
466.375325,-296.082377,-8734.430116,1225.752797
466.375647,-1332.370696,-7920.203579,1685.410096
466.375968,-814.226536,-9474.636058,-229.828649
466.376289,2294.638420,-11399.171507,-1838.629195
466.376611,3849.070898,-12583.501014,-2604.724693
466.376932,3256.906145,-13841.851115,-1455.581446
466.377254,3701.029710,-14063.912898,2757.943793
466.377575,4515.256246,-11769.274478,2451.505594
466.377897,5033.400406,-9104.533087,-1225.752797
466.378218,6069.688724,-7105.977043,-1685.410096
466.378540,6661.853478,-7254.018232,-2528.115143
466.378861,7179.997637,-9400.615463,-3447.429741
466.379182,8512.368333,-9548.656652,-536.266849
466.379504,8660.409521,-7772.162391,2145.067394
466.379825,7105.977043,-5921.647536,2451.505594
466.380147,5107.421000,-5699.585753,1608.800546
466.380468,1850.514855,-4071.132681,-1378.971896
466.380790,-1776.494261,-3256.906145,-4443.353888
466.381111,-4663.297435,-6217.729913,-4366.744339
466.381432,-4811.338623,-10807.006753,-3140.991542
466.381754,-3330.926739,-12657.521608,-4213.525239
466.382075,-1850.514855,-12657.521608,-4213.525239
466.382397,-370.102971,-14730.098246,-1762.019645
466.382718,-370.102971,-14508.036463,-995.924147
466.383040,-814.226536,-12065.356855,-2451.505594
466.383361,444.123565,-9622.677246,-4749.792088
466.383683,3627.009116,-10658.965565,-5209.449386
466.384005,4737.318029,-12953.603985,-4136.915689
466.384326,5625.565159,-12879.583391,0.000000
466.384648,7105.977043,-10881.027347,3983.696590
466.384969,9400.615463,-9178.553681,3983.696590
466.385291,10436.903782,-7254.018232,3217.601092
466.385612,9696.697840,-5921.647536,842.705048
466.385934,8808.450710,-5403.503377,-1608.800546
466.386255,8290.306550,-5847.626942,-1302.362347
466.386577,7031.956449,-5329.482782,0.000000
466.386898,3627.009116,-6365.771101,536.266849
466.387220,888.247130,-8216.285956,536.266849
466.387542,-1924.535449,-8512.368333,-919.314598
466.387863,-4293.194464,-8734.430116,-4060.306139
466.388185,-6513.812290,-10881.027347,-5822.325785
466.388506,-7328.038826,-13323.706956,-5209.449386
466.388828,-7994.224174,-12953.603985,-4443.353888
466.389149,-7698.141797,-11325.150913,-2528.115143
466.389471,-5921.647536,-11843.295072,-2451.505594
466.389792,-2442.679609,-13175.665768,-4903.011187
466.390114,0.000000,-12805.562797,-4519.963438
466.390435,1480.411884,-11177.109724,-689.485948
466.390757,4293.194464,-8808.450710,1762.019645
466.391079,8290.306550,-5033.400406,1378.971896
466.391400,10288.862594,-3701.029710,766.095498
466.391722,10066.800811,-4885.359217,1378.971896
466.392043,9178.553681,-4367.215058,2145.067394
466.392365,7846.182985,-4737.318029,842.705048
466.392686,7920.203579,-8364.327145,153.219100
466.393008,7402.059420,-10214.842000,-536.266849
466.393329,5847.626942,-9844.739029,-1762.019645
466.393651,4589.276840,-10881.027347,-2145.067394
466.393972,2960.823768,-13693.809927,-1225.752797
466.394294,1258.350101,-13249.686362,-1685.410096
466.394616,0.000000,-11621.233289,-2757.943793
466.394937,-148.041188,-12731.542202,-3294.210641
466.395259,962.267725,-14285.974681,-2681.334243
466.395580,1628.453072,-12361.439231,-1532.190996
466.395902,1924.535449,-9696.697840,0.000000
466.396223,1258.350101,-8660.409521,1532.190996
466.396545,1036.288319,-7624.121203,1149.143247
466.396866,1110.308913,-6661.853478,-766.095498
466.397188,1702.473667,-5551.544565,-1685.410096
466.397509,3182.885551,-5699.585753,-1225.752797
466.397831,2442.679609,-6069.688724,0.000000
466.398153,1258.350101,-5699.585753,229.828649
466.398474,592.164754,-7476.080014,-1685.410096
466.398796,666.185348,-9326.594869,-4443.353888
466.399117,1036.288319,-11177.109724,-4673.182538
466.399439,1184.329507,-13101.645173,-3447.429741
466.399760,1776.494261,-14730.098246,-1455.581446
466.400082,2368.659014,-13767.830521,-306.438199
466.400403,3182.885551,-12213.398043,-995.924147
466.400725,3627.009116,-11991.336260,-1225.752797
466.401046,4589.276840,-9844.739029,-536.266849
466.401368,5033.400406,-7550.100608,76.609550
466.401690,6291.750507,-6661.853478,383.047749
466.402011,7772.162391,-8808.450710,536.266849
466.402333,6439.791695,-8882.471304,2298.286494
466.402654,2146.597232,-7328.038826,3907.087040
466.402976,-1554.432478,-6143.709319,3064.381992
466.403297,-3034.844362,-5329.482782,-1532.190996
466.403619,-3701.029710,-6291.750507,-4136.915689
466.403940,-5329.482782,-8290.306550,-3294.210641
466.404262,-5995.668130,-8216.285956,-1762.019645
466.404583,-4811.338623,-8956.491898,-1608.800546
466.404905,-4145.153275,-10881.027347,-3294.210641
466.405227,-3404.947333,-11695.253884,-4060.306139
466.405548,-3034.844362,-10658.965565,-4903.011187
466.405870,-2886.803174,-10066.800811,-4596.572988
466.406191,-1998.556043,-11103.089130,-3524.039291
466.406513,-1924.535449,-10584.944971,-3140.991542
466.406834,-1184.329507,-9474.636058,-3907.087040
466.407156,-148.041188,-9992.780217,-3830.477490
466.407477,74.020594,-10732.986159,-3140.991542
466.407799,1184.329507,-9474.636058,-1838.629195
466.408120,2664.741391,-8512.368333,-689.485948
466.408442,3256.906145,-9918.759623,76.609550
466.408764,2146.597232,-11991.336260,612.876398
466.409085,0.000000,-10807.006753,1149.143247
466.409407,-592.164754,-8660.409521,459.657299
466.409728,1554.432478,-9326.594869,-2221.676944
466.410050,3256.906145,-10510.924376,-2911.162892
466.410371,2664.741391,-10510.924376,-306.438199
466.410693,888.247130,-9548.656652,2221.676944
466.411014,74.020594,-9030.512492,689.485948
466.411336,0.000000,-9992.780217,-2987.772442
466.411657,-666.185348,-9992.780217,-4749.792088
466.411979,-4293.194464,-8438.347739,-4673.182538
466.412301,-5403.503377,-8734.430116,-3064.381992
466.412622,-4515.256246,-10807.006753,-1762.019645
466.412944,-3849.070898,-10214.842000,-1455.581446
466.413265,-3923.091493,-8290.306550,-1455.581446
466.413587,-4293.194464,-6735.874072,-1302.362347
466.413908,-3034.844362,-7994.224174,-1685.410096
466.414230,-2220.617826,-8438.347739,-1762.019645
466.414551,-2664.741391,-5995.668130,-306.438199
466.414873,-2960.823768,-5181.441594,-229.828649
466.415194,-2294.638420,-6883.915261,-1225.752797
466.415516,-1406.391290,-10214.842000,-2298.286494
466.415838,0.000000,-11695.253884,-2068.457845
466.416159,1480.411884,-11103.089130,-919.314598
466.416481,4145.153275,-10066.800811,689.485948
466.416802,6957.935855,-9474.636058,1072.533697
466.417124,8364.327145,-8660.409521,306.438199
466.417445,8142.265362,-8142.265362,0.000000
466.417767,7994.224174,-8068.244768,0.000000
466.418088,7772.162391,-8512.368333,-306.438199
466.418410,7402.059420,-9844.739029,0.000000
466.418731,6365.771101,-10955.047942,229.828649
466.419053,4441.235652,-11621.233289,536.266849
466.419375,1554.432478,-10436.903782,766.095498
466.419696,-1332.370696,-9104.533087,-383.047749
466.420018,-3627.009116,-7846.182985,-1455.581446
466.420339,-5995.668130,-7254.018232,-3217.601092
466.420661,-7179.997637,-8364.327145,-3447.429741
466.420982,-7920.203579,-9474.636058,-2451.505594
466.421304,-8216.285956,-11029.068536,-1915.238745
466.421625,-7624.121203,-11695.253884,-2068.457845
466.421947,-6439.791695,-10510.924376,-2451.505594
466.422268,-4737.318029,-10510.924376,-3217.601092
466.422590,-2294.638420,-10807.006753,-3447.429741
466.422912,222.061783,-10362.883188,-3447.429741
466.423233,1110.308913,-10140.821405,-2604.724693
466.423555,0.000000,-9992.780217,-766.095498
466.423876,148.041188,-8660.409521,-766.095498
466.424198,1850.514855,-9622.677246,-2757.943793
466.424519,3404.947333,-10584.944971,-3447.429741
466.424841,3256.906145,-10584.944971,0.000000
466.425162,2960.823768,-9474.636058,1838.629195
466.425484,2886.803174,-7476.080014,1838.629195
466.425805,3256.906145,-7698.141797,76.609550
466.426127,1998.556043,-7105.977043,-995.924147
466.426449,740.205942,-6365.771101,-1685.410096
466.426770,444.123565,-7772.162391,-1991.848295
466.427092,0.000000,-10214.842000,-1072.533697
466.427413,-2368.659014,-11547.212695,0.000000
466.427735,-4737.318029,-10140.821405,76.609550
466.428056,-4811.338623,-9178.553681,-2681.334243
466.428378,-3849.070898,-10955.047942,-5209.449386
466.428699,-3775.050304,-8882.471304,-4136.915689
466.429021,-4515.256246,-6883.915261,-2145.067394
466.429342,-3997.112087,-7254.018232,-2068.457845
466.429664,-2812.782580,-9770.718434,-2681.334243
466.429986,-3552.988522,-11251.130318,-2681.334243
466.430307,-4071.132681,-10658.965565,-2451.505594
466.430629,-2664.741391,-9104.533087,-1302.362347
466.430950,0.000000,-9474.636058,-1685.410096
466.431272,444.123565,-9474.636058,-689.485948
466.431593,-370.102971,-8734.430116,1302.362347
466.431915,-666.185348,-7402.059420,306.438199
466.432236,740.205942,-7846.182985,-1608.800546
466.432558,1554.432478,-10140.821405,-2451.505594
466.432880,1406.391290,-9992.780217,-919.314598
466.433201,2072.576638,-10140.821405,612.876398
466.433523,3404.947333,-11251.130318,536.266849
466.433844,4219.173869,-11917.315666,-919.314598
466.434166,3552.988522,-10584.944971,-842.705048
466.434487,2738.761985,-8290.306550,-1072.533697
466.434809,3701.029710,-7624.121203,-2068.457845
466.435130,4737.318029,-8956.491898,-3447.429741
466.435452,3404.947333,-10140.821405,-2451.505594
466.435773,222.061783,-10066.800811,0.000000
466.436095,-1480.411884,-10140.821405,-459.657299
466.436417,-1850.514855,-10436.903782,-2681.334243
466.436738,-2368.659014,-10436.903782,-3217.601092
466.437060,-3849.070898,-8660.409521,-2068.457845
466.437381,-3627.009116,-7254.018232,-995.924147
466.437703,-2516.700203,-7550.100608,-1455.581446
466.438024,-2146.597232,-8364.327145,-1532.190996
466.438346,-2368.659014,-7772.162391,-766.095498
466.438667,-1998.556043,-6883.915261,-1072.533697
466.438989,74.020594,-8438.347739,-2221.676944
466.439310,1776.494261,-10140.821405,-2451.505594
466.439632,1924.535449,-11029.068536,-919.314598
466.439954,1036.288319,-10214.842000,612.876398
466.440275,740.205942,-11029.068536,-229.828649
466.440597,592.164754,-10807.006753,-1838.629195
466.440918,0.000000,-9770.718434,-2145.067394
466.441240,0.000000,-9474.636058,-1915.238745
466.441561,-222.061783,-9474.636058,-1072.533697
466.441883,222.061783,-9326.594869,-1072.533697
466.442204,74.020594,-9770.718434,-459.657299
466.442526,-222.061783,-9844.739029,-536.266849
466.442847,-370.102971,-9918.759623,-766.095498
466.443169,-370.102971,-8808.450710,-1302.362347
466.443491,-222.061783,-9178.553681,-1225.752797
466.443812,-296.082377,-9696.697840,-459.657299
466.444134,-1258.350101,-9326.594869,-229.828649
466.444455,-2294.638420,-9178.553681,-1302.362347
466.444777,-2294.638420,-9622.677246,-1532.190996
466.445098,-1258.350101,-9474.636058,-2068.457845
466.445420,-1406.391290,-8364.327145,-2298.286494
466.445741,-2220.617826,-8660.409521,-1072.533697
466.446063,-2812.782580,-9770.718434,-383.047749
466.446384,-3108.864956,-9474.636058,-766.095498
466.446706,-3627.009116,-8142.265362,-2068.457845
466.447028,-3330.926739,-7624.121203,-2374.896044
466.447349,-1776.494261,-7920.203579,-2451.505594
466.447671,0.000000,-8808.450710,-2221.676944
466.447992,-148.041188,-9030.512492,-919.314598
466.448314,-222.061783,-9844.739029,0.000000
466.448635,-444.123565,-10214.842000,-1149.143247
466.448957,0.000000,-10214.842000,-2298.286494
466.449278,0.000000,-9252.574275,-2757.943793
466.449600,518.144159,-9474.636058,-2528.115143
466.449921,740.205942,-8660.409521,-1532.190996
466.450243,1924.535449,-9770.718434,-1149.143247
466.450565,2220.617826,-10807.006753,-1225.752797
466.450886,2294.638420,-10658.965565,-536.266849
466.451208,2886.803174,-9696.697840,-459.657299
466.451529,3256.906145,-9400.615463,-842.705048
466.451851,2516.700203,-9844.739029,-842.705048
466.452172,296.082377,-9030.512492,0.000000
466.452494,-1184.329507,-8660.409521,-459.657299
466.452815,-1776.494261,-9178.553681,-919.314598
466.453137,-1480.411884,-9400.615463,-2145.067394
466.453458,-1998.556043,-9918.759623,-1915.238745
466.453780,-1480.411884,-9844.739029,-842.705048
466.454102,-740.205942,-9252.574275,-306.438199
466.454423,0.000000,-9030.512492,-1532.190996
466.454745,-222.061783,-9770.718434,-1608.800546
466.455066,-1628.453072,-8660.409521,-1378.971896
466.455388,-2442.679609,-7698.141797,-1378.971896
466.455709,-2368.659014,-7772.162391,-2681.334243
466.456031,-666.185348,-9178.553681,-3753.867940
466.456352,-148.041188,-10066.800811,-2451.505594
466.456674,-518.144159,-10066.800811,-1532.190996
466.456995,-740.205942,-10288.862594,-536.266849
466.457317,-518.144159,-9326.594869,-1149.143247
466.457639,-962.267725,-9178.553681,-2221.676944
466.457960,-1480.411884,-9696.697840,-1455.581446
466.458282,-1332.370696,-8364.327145,-1149.143247
466.458603,-296.082377,-7698.141797,-2068.457845
466.458925,1036.288319,-8734.430116,-1225.752797
466.459246,1554.432478,-9252.574275,0.000000
466.459568,2368.659014,-9252.574275,-306.438199
466.459889,3849.070898,-9992.780217,-842.705048
466.460211,3997.112087,-10732.986159,-1455.581446
466.460532,2442.679609,-10436.903782,-536.266849
466.460854,296.082377,-9918.759623,-919.314598
466.461176,-1258.350101,-10362.883188,-2221.676944
466.461497,-1850.514855,-10288.862594,-2604.724693
466.461819,-1850.514855,-9474.636058,-2451.505594
466.462140,-2368.659014,-8882.471304,-1532.190996
466.462462,-2738.761985,-8142.265362,-1378.971896
466.462783,-2664.741391,-8734.430116,-1225.752797
466.463105,-3034.844362,-9474.636058,-1225.752797
466.463426,-3404.947333,-8512.368333,-1378.971896
466.463748,-3552.988522,-7254.018232,-2221.676944
466.464069,-2368.659014,-7179.997637,-2834.553343
466.464391,-1628.453072,-8512.368333,-2757.943793
466.464713,-1924.535449,-9918.759623,-1762.019645
466.465034,-2664.741391,-9992.780217,-612.876398
466.465356,-2664.741391,-9992.780217,-1455.581446
466.465677,-1776.494261,-10955.047942,-3140.991542
466.465999,-962.267725,-10658.965565,-3370.820191
466.466320,370.102971,-10436.903782,-2068.457845
466.466642,1776.494261,-9400.615463,-1072.533697
466.466963,3034.844362,-8438.347739,-1072.533697
466.467285,2886.803174,-7920.203579,0.000000
466.467606,3034.844362,-7846.182985,0.000000
466.467928,3034.844362,-8586.388927,-1608.800546
466.468250,3701.029710,-9030.512492,-2145.067394
466.468571,3034.844362,-9844.739029,-1225.752797
466.468893,518.144159,-10066.800811,842.705048
466.469214,-1628.453072,-9474.636058,1225.752797
466.469536,-1924.535449,-9992.780217,-1608.800546
466.469857,-1036.288319,-11103.089130,-4213.525239
466.470179,-518.144159,-11177.109724,-2987.772442
466.470500,0.000000,-9474.636058,-1378.971896
466.470822,0.000000,-7772.162391,153.219100
466.471143,148.041188,-8882.471304,-612.876398
466.471465,-1258.350101,-10584.944971,-2221.676944
466.471787,-3404.947333,-10732.986159,-3064.381992
466.472108,-3775.050304,-9770.718434,-3140.991542
466.472430,-2738.761985,-9326.594869,-1838.629195
466.472751,-1850.514855,-9548.656652,-766.095498
466.473073,-888.247130,-9548.656652,-536.266849
466.473394,-296.082377,-8882.471304,-995.924147
466.473716,-296.082377,-9474.636058,-995.924147
466.474037,74.020594,-8956.491898,-612.876398
466.474359,962.267725,-8142.265362,-1455.581446
466.474680,1628.453072,-7994.224174,-1532.190996
466.475002,1554.432478,-8734.430116,-306.438199
466.475324,962.267725,-10066.800811,612.876398
466.475645,1184.329507,-9326.594869,0.000000
466.475967,1776.494261,-7624.121203,-2145.067394
466.476288,1924.535449,-8512.368333,-2374.896044
466.476610,1036.288319,-8734.430116,-1838.629195
466.476931,962.267725,-9326.594869,-153.219100
466.477253,888.247130,-9770.718434,-536.266849
466.477574,0.000000,-10362.883188,-1532.190996
466.477896,-2146.597232,-10510.924376,-1302.362347
466.478217,-4145.153275,-9622.677246,-1378.971896
466.478539,-4145.153275,-9030.512492,-1532.190996
466.478861,-3034.844362,-9104.533087,-2298.286494
466.479182,-2220.617826,-8808.450710,-2834.553343
466.479504,-1258.350101,-8956.491898,-1608.800546
466.479825,-740.205942,-8364.327145,-229.828649
466.480147,-296.082377,-7772.162391,-1378.971896
466.480468,296.082377,-8142.265362,-2451.505594
466.480790,592.164754,-8734.430116,-2681.334243
466.481111,444.123565,-10288.862594,-3217.601092
466.481433,0.000000,-11547.212695,-2374.896044
466.481754,-814.226536,-11399.171507,-459.657299
466.482076,-1850.514855,-11843.295072,-383.047749
466.482398,-1036.288319,-11547.212695,-1838.629195
466.482719,74.020594,-9548.656652,-3370.820191
466.483041,0.000000,-9178.553681,-3064.381992
466.483362,148.041188,-8290.306550,-1225.752797
466.483684,444.123565,-7254.018232,-612.876398
466.484005,370.102971,-7254.018232,-1608.800546
466.484327,-592.164754,-9178.553681,-766.095498
466.484648,-962.267725,-9770.718434,-1072.533697
466.484970,-814.226536,-8882.471304,-2451.505594
466.485292,222.061783,-9326.594869,-3370.820191
466.485613,740.205942,-10658.965565,-1762.019645
466.485935,-814.226536,-9474.636058,-919.314598
466.486256,-2072.576638,-9104.533087,-2298.286494
466.486578,-1998.556043,-10510.924376,-2987.772442
466.486900,-1332.370696,-10732.986159,-3294.210641
466.487221,-2220.617826,-9992.780217,-2987.772442
466.487543,-2442.679609,-9844.739029,-1225.752797
466.487864,-1258.350101,-8956.491898,0.000000
466.488186,-148.041188,-9104.533087,-1532.190996
466.488508,814.226536,-7920.203579,-1838.629195
466.488829,1702.473667,-7105.977043,-689.485948
466.489151,2664.741391,-7920.203579,-1302.362347
466.489473,2960.823768,-8882.471304,-2068.457845
466.489794,1184.329507,-9400.615463,-689.485948
466.490116,-740.205942,-10288.862594,153.219100
466.490437,-1924.535449,-11251.130318,-1072.533697
466.490759,-1850.514855,-11029.068536,-2757.943793
466.491081,-1554.432478,-9104.533087,-2451.505594
466.491402,-296.082377,-9252.574275,-1225.752797
466.491724,0.000000,-9030.512492,0.000000
466.492046,-592.164754,-7994.224174,-153.219100
466.492367,-888.247130,-8808.450710,-1915.238745
466.492689,0.000000,-9252.574275,-2681.334243
466.493010,518.144159,-9030.512492,-2528.115143
466.493332,148.041188,-9696.697840,-1532.190996
466.493654,-444.123565,-9400.615463,0.000000
466.493975,-962.267725,-9474.636058,-229.828649
466.494297,-1702.473667,-10436.903782,-1225.752797
466.494619,-2072.576638,-11399.171507,-2145.067394
466.494940,-2516.700203,-9622.677246,-1838.629195
466.495262,-1184.329507,-7772.162391,-2374.896044
466.495583,740.205942,-8512.368333,-2068.457845
466.495905,1036.288319,-9548.656652,-612.876398
466.496227,148.041188,-8734.430116,-383.047749
466.496548,666.185348,-8734.430116,-2374.896044
466.496870,1258.350101,-8734.430116,-2987.772442
466.497192,1036.288319,-9104.533087,-1608.800546
466.497513,74.020594,-9474.636058,-383.047749
466.497835,-518.144159,-9400.615463,0.000000
466.498156,74.020594,-9918.759623,-229.828649
466.498478,444.123565,-11399.171507,-1838.629195
466.498800,-666.185348,-11621.233289,-2068.457845
466.499121,-2220.617826,-9400.615463,-842.705048
466.499443,-2368.659014,-7994.224174,-536.266849
466.499764,-370.102971,-9326.594869,-1455.581446
466.500086,222.061783,-8586.388927,-2451.505594
466.500408,-518.144159,-8290.306550,-2068.457845
466.500729,0.000000,-8956.491898,-766.095498
466.501051,1036.288319,-8290.306550,-306.438199
466.501373,2294.638420,-7550.100608,-1838.629195
466.501694,2738.761985,-8808.450710,-1608.800546
466.502016,1702.473667,-10510.924376,-1532.190996
466.502337,-148.041188,-11251.130318,-1302.362347
466.502659,-1998.556043,-10732.986159,-1915.238745
466.502981,-3108.864956,-11399.171507,-2221.676944
466.503302,-3330.926739,-10140.821405,-3140.991542
466.503624,-1776.494261,-9474.636058,-3447.429741
466.503946,-1406.391290,-9696.697840,-2604.724693
466.504267,-814.226536,-9030.512492,0.000000
466.504589,-444.123565,-7105.977043,-306.438199
466.504910,0.000000,-7994.224174,-1762.019645
466.505232,592.164754,-9104.533087,-2068.457845
466.505554,0.000000,-9474.636058,-1072.533697
466.505875,0.000000,-8956.491898,-1225.752797
466.506197,1184.329507,-8660.409521,-1455.581446
466.506519,2220.617826,-9992.780217,-1608.800546
466.506840,962.267725,-10955.047942,-2145.067394
466.507162,-1702.473667,-10584.944971,-1072.533697
466.507483,-2072.576638,-8586.388927,-1302.362347
466.507805,-518.144159,-9326.594869,-4290.134789
466.508127,296.082377,-10362.883188,-4979.620737
466.508448,-1480.411884,-9696.697840,-1302.362347
466.508770,-2886.803174,-8438.347739,919.314598
466.509092,-1850.514855,-8882.471304,-919.314598
466.509413,740.205942,-8438.347739,-3447.429741
466.509735,1702.473667,-8364.327145,-3983.696590
466.510056,962.267725,-8882.471304,-2221.676944
466.510378,814.226536,-8660.409521,459.657299
466.510700,0.000000,-8956.491898,-229.828649
466.511021,-1480.411884,-10955.047942,-1762.019645
466.511343,-3330.926739,-11251.130318,-2374.896044
466.511664,-3701.029710,-9030.512492,-3217.601092
466.511986,-2442.679609,-8290.306550,-3217.601092
466.512308,-296.082377,-9918.759623,-1762.019645
466.512629,444.123565,-9770.718434,-766.095498
466.512951,370.102971,-8808.450710,-153.219100
466.513273,814.226536,-9844.739029,153.219100
466.513594,1110.308913,-9178.553681,-1225.752797
466.513916,1406.391290,-8068.244768,-3370.820191
466.514237,888.247130,-8586.388927,-2528.115143
466.514559,74.020594,-10066.800811,0.000000
466.514881,-1332.370696,-10436.903782,919.314598
466.515202,-1998.556043,-9992.780217,-459.657299
466.515524,-962.267725,-9992.780217,-1149.143247
466.515846,-148.041188,-9474.636058,-2298.286494
466.516167,296.082377,-8364.327145,-2145.067394
466.516489,148.041188,-7402.059420,-995.924147
466.516810,74.020594,-7846.182985,0.000000
466.517132,-592.164754,-8290.306550,-383.047749
466.517454,-1480.411884,-9326.594869,-1685.410096
466.517775,-2146.597232,-9474.636058,-2834.553343
466.518097,-1702.473667,-8956.491898,-2528.115143
466.518419,-740.205942,-9844.739029,-1608.800546
466.518740,0.000000,-10288.862594,0.000000
466.519062,-148.041188,-9622.677246,153.219100
466.519383,-592.164754,-9104.533087,-766.095498
466.519705,-962.267725,-9178.553681,-1685.410096
466.520027,-962.267725,-9844.739029,-2987.772442
466.520348,-1258.350101,-9178.553681,-2451.505594
466.520670,-740.205942,-7994.224174,-383.047749
466.520992,-148.041188,-9030.512492,0.000000
466.521313,222.061783,-9696.697840,-1149.143247
466.521635,444.123565,-9992.780217,-1532.190996
466.521956,74.020594,-9400.615463,-1991.848295
466.522278,1184.329507,-8438.347739,-1915.238745
466.522600,2072.576638,-8956.491898,-2221.676944
466.522921,2368.659014,-10214.842000,-1378.971896
466.523243,592.164754,-10807.006753,536.266849
466.523565,-518.144159,-10955.047942,0.000000
466.523886,-1998.556043,-10732.986159,-2528.115143
466.524208,-2664.741391,-11251.130318,-2451.505594
466.524529,-3849.070898,-10362.883188,-612.876398
466.524851,-2960.823768,-8586.388927,-612.876398
466.525173,-1184.329507,-7772.162391,-1608.800546
466.525494,-296.082377,-8586.388927,-1762.019645
466.525816,-888.247130,-9030.512492,-1072.533697
466.526137,-1554.432478,-8512.368333,-842.705048
466.526459,-888.247130,-8142.265362,-1685.410096
466.526781,666.185348,-9104.533087,-2374.896044
466.527102,666.185348,-9622.677246,-1608.800546
466.527424,-962.267725,-9474.636058,-306.438199
466.527746,-1998.556043,-9844.739029,-689.485948
466.528067,-1258.350101,-10214.842000,-2451.505594
466.528389,-296.082377,-10066.800811,-2987.772442
466.528710,-222.061783,-9252.574275,-2145.067394
466.529032,0.000000,-8068.244768,-1072.533697
466.529354,666.185348,-9104.533087,-919.314598
466.529675,1110.308913,-10140.821405,-1838.629195
466.529997,222.061783,-9474.636058,-1072.533697
466.530319,74.020594,-8068.244768,-995.924147
466.530640,888.247130,-7846.182985,-1608.800546
466.530962,2146.597232,-8660.409521,-766.095498
466.531283,1184.329507,-8364.327145,0.000000
466.531605,-814.226536,-8290.306550,-612.876398
466.531927,-2294.638420,-9474.636058,-1378.971896
466.532248,-2294.638420,-10066.800811,-2757.943793
466.532570,-1702.473667,-9844.739029,-3600.648841
466.532892,-1184.329507,-9178.553681,-2145.067394
466.533213,-814.226536,-9622.677246,-1532.190996
466.533535,-592.164754,-9992.780217,-1608.800546
466.533856,-888.247130,-10584.944971,-1685.410096
466.534178,-1110.308913,-10362.883188,-2068.457845
466.534500,-888.247130,-10807.006753,-2374.896044
466.534821,-444.123565,-9548.656652,-2451.505594
466.535143,-222.061783,-9178.553681,-1072.533697
466.535465,-296.082377,-9326.594869,-153.219100
466.535786,-148.041188,-9252.574275,-766.095498
466.536108,0.000000,-9622.677246,-1762.019645
466.536429,-518.144159,-9252.574275,-1378.971896
466.536751,-1036.288319,-9474.636058,-383.047749
466.537073,-1628.453072,-8512.368333,-536.266849
466.537394,-888.247130,-7994.224174,-1149.143247
466.537716,-296.082377,-9622.677246,-1915.238745
466.538037,-666.185348,-10214.842000,-1149.143247
466.538359,-1258.350101,-8438.347739,-1302.362347
466.538681,-666.185348,-8438.347739,-1225.752797
466.539002,666.185348,-8956.491898,-1608.800546
466.539324,814.226536,-10066.800811,-2221.676944
466.539646,74.020594,-10066.800811,-1149.143247
466.539967,-1258.350101,-9770.718434,-995.924147
466.540289,-1850.514855,-9696.697840,-1762.019645
466.540610,-1258.350101,-9252.574275,-3217.601092
466.540932,-814.226536,-8882.471304,-2604.724693
466.541254,0.000000,-8438.347739,-1915.238745
466.541575,518.144159,-8142.265362,-459.657299
466.541897,1628.453072,-7920.203579,0.000000
466.542219,1480.411884,-8438.347739,-1302.362347
466.542540,1036.288319,-9104.533087,-1915.238745
466.542862,222.061783,-9400.615463,-1302.362347
466.543183,0.000000,-8956.491898,-383.047749
466.543505,962.267725,-8512.368333,-536.266849
466.543827,740.205942,-9104.533087,-2068.457845
466.544148,-148.041188,-9844.739029,-1378.971896
466.544470,-1480.411884,-10955.047942,-842.705048
466.544792,-2664.741391,-10881.027347,-1532.190996
466.545113,-2368.659014,-9918.759623,-1838.629195
466.545435,-1184.329507,-10658.965565,-1608.800546
466.545756,-962.267725,-9474.636058,-1149.143247
466.546078,-1036.288319,-8808.450710,-612.876398
466.546400,-814.226536,-8512.368333,-1532.190996
466.546721,-148.041188,-9400.615463,-1455.581446
466.547043,148.041188,-8956.491898,-1991.848295
466.547365,296.082377,-8216.285956,-2298.286494
466.547686,1258.350101,-8956.491898,-1685.410096
466.548008,1480.411884,-10214.842000,-536.266849
466.548329,222.061783,-9844.739029,0.000000
466.548651,-1776.494261,-9400.615463,-1838.629195
466.548973,-1258.350101,-10140.821405,-3064.381992
466.549294,-1110.308913,-11029.068536,-2298.286494
466.549616,-1332.370696,-10214.842000,-612.876398
466.549937,-888.247130,-8290.306550,-306.438199
466.550259,0.000000,-8142.265362,-1225.752797
466.550581,592.164754,-10140.821405,-1378.971896
466.550902,-888.247130,-10066.800811,229.828649
466.551224,-1702.473667,-7624.121203,536.266849
466.551546,-666.185348,-6365.771101,-1608.800546
466.551867,1554.432478,-8364.327145,-3294.210641
466.552189,222.061783,-9844.739029,-919.314598
466.552510,-1480.411884,-9474.636058,919.314598
466.552832,-2072.576638,-9326.594869,0.000000
466.553154,-518.144159,-10807.006753,-3140.991542
466.553475,0.000000,-11473.192101,-3140.991542
466.553797,-666.185348,-10732.986159,-1685.410096
466.554119,-518.144159,-9992.780217,0.000000
466.554440,370.102971,-9252.574275,-612.876398
466.554762,370.102971,-9474.636058,-1608.800546
466.555083,-1110.308913,-9252.574275,-995.924147
466.555405,-2146.597232,-8364.327145,-383.047749
466.555727,-888.247130,-7179.997637,-2298.286494
466.556048,962.267725,-8216.285956,-2451.505594
466.556370,-296.082377,-9030.512492,-459.657299
466.556692,-2368.659014,-8660.409521,1149.143247
466.557013,-2886.803174,-10436.903782,-536.266849
466.557335,-1924.535449,-11399.171507,-3294.210641
466.557656,-888.247130,-11399.171507,-2911.162892
466.557978,-814.226536,-9030.512492,-995.924147
466.558300,74.020594,-6957.935855,-766.095498
466.558621,1628.453072,-7994.224174,-1762.019645
466.558943,1258.350101,-9696.697840,-2068.457845
466.559265,222.061783,-9622.677246,-1685.410096
466.559586,-518.144159,-7920.203579,-1532.190996
466.559908,592.164754,-8956.491898,-2911.162892
466.560229,2220.617826,-10436.903782,-2528.115143
466.560551,1036.288319,-10732.986159,-612.876398
466.560873,-444.123565,-8956.491898,0.000000
466.561194,222.061783,-9548.656652,-1225.752797
466.561516,1406.391290,-9992.780217,-3370.820191
466.561837,814.226536,-8660.409521,-2145.067394
466.562159,-222.061783,-8142.265362,0.000000
466.562481,-1036.288319,-7772.162391,-536.266849
466.562802,888.247130,-8956.491898,-2451.505594
466.563124,888.247130,-10584.944971,-2451.505594
466.563446,0.000000,-9696.697840,-1225.752797
466.563767,-518.144159,-8142.265362,-1378.971896
466.564089,592.164754,-8364.327145,-2451.505594
466.564410,888.247130,-10288.862594,-2604.724693
466.564732,-1036.288319,-10658.965565,-1915.238745
466.565054,-2960.823768,-9474.636058,-2145.067394
466.565375,-3849.070898,-11103.089130,-2451.505594
466.565697,-3330.926739,-12287.418637,-2298.286494
466.566019,-3256.906145,-10658.965565,-2145.067394
466.566340,-2294.638420,-9400.615463,-1455.581446
466.566662,-888.247130,-9252.574275,-1072.533697
466.566983,74.020594,-9252.574275,-1378.971896
466.567305,296.082377,-8438.347739,-1302.362347
466.567627,518.144159,-8068.244768,-766.095498
466.567948,888.247130,-8808.450710,-153.219100
466.568270,1480.411884,-8808.450710,-995.924147
466.568592,1702.473667,-8438.347739,-1149.143247
466.568913,1480.411884,-8364.327145,-153.219100
466.569235,962.267725,-8956.491898,-229.828649
466.569556,0.000000,-9918.759623,-1225.752797
466.569878,-1036.288319,-11473.192101,-1302.362347
466.570200,-2442.679609,-10807.006753,0.000000
466.570521,-2664.741391,-9844.739029,-306.438199
466.570843,-1702.473667,-8290.306550,-1762.019645
466.571165,-518.144159,-8438.347739,-2528.115143
466.571486,-814.226536,-8290.306550,-1149.143247
466.571808,-1776.494261,-7550.100608,-229.828649
466.572129,-1998.556043,-6957.935855,-1225.752797
466.572451,-962.267725,-8216.285956,-1762.019645
466.572773,-296.082377,-9622.677246,-1991.848295
466.573094,-370.102971,-10732.986159,-1838.629195
466.573416,-888.247130,-10362.883188,-306.438199
466.573737,74.020594,-11029.068536,76.609550
466.574059,1110.308913,-10140.821405,-995.924147
466.574381,1406.391290,-8734.430116,-1455.581446
466.574702,1258.350101,-8364.327145,-995.924147
466.575024,1110.308913,-9548.656652,-842.705048
466.575346,814.226536,-9030.512492,-1455.581446
466.575667,0.000000,-9104.533087,-1455.581446
466.575989,-666.185348,-9474.636058,-153.219100
466.576310,-370.102971,-9474.636058,-612.876398
466.576632,592.164754,-8956.491898,-2221.676944
466.576954,1702.473667,-9400.615463,-2221.676944
466.577275,740.205942,-9696.697840,-612.876398
466.577597,-1554.432478,-9548.656652,-995.924147
466.577919,-2664.741391,-10510.924376,-1915.238745
466.578240,-2368.659014,-11473.192101,-1762.019645
466.578562,-1850.514855,-10584.944971,-2451.505594
466.578883,-814.226536,-9178.553681,-2374.896044
466.579205,1258.350101,-8290.306550,-1225.752797
466.579527,2664.741391,-8364.327145,-689.485948
466.579848,2664.741391,-8290.306550,-1072.533697
466.580170,1184.329507,-8216.285956,-995.924147
466.580492,74.020594,-7994.224174,-995.924147
466.580813,74.020594,-8142.265362,-2987.772442
466.581135,296.082377,-9104.533087,-3907.087040
466.581456,592.164754,-10436.903782,-1991.848295
466.581778,-666.185348,-10658.965565,-536.266849
466.582100,-962.267725,-10807.006753,-76.609550
466.582421,148.041188,-10658.965565,-1225.752797
466.582743,666.185348,-9326.594869,-2451.505594
466.583065,-148.041188,-8956.491898,-1991.848295
466.583386,-1332.370696,-7698.141797,-1915.238745
466.583708,-1110.308913,-8438.347739,-2221.676944
466.584029,0.000000,-9770.718434,-2757.943793
466.584351,592.164754,-9844.739029,-1608.800546
466.584673,740.205942,-8438.347739,-766.095498
466.584994,1332.370696,-8216.285956,-1149.143247
466.585316,1036.288319,-10066.800811,-2298.286494
466.585638,-666.185348,-11325.150913,-1685.410096
466.585960,-2960.823768,-10436.903782,-1838.629195
466.586281,-3997.112087,-10362.883188,-2221.676944
466.586603,-2886.803174,-10436.903782,-3294.210641
466.586925,-1850.514855,-10288.862594,-2681.334243
466.587247,-2294.638420,-9992.780217,-1225.752797
466.587569,-2294.638420,-8438.347739,153.219100
466.587890,-370.102971,-9178.553681,-1225.752797
466.588212,1184.329507,-10288.862594,-2911.162892
466.588534,888.247130,-9548.656652,0.000000
466.588856,0.000000,-7698.141797,842.705048
466.589177,444.123565,-6883.915261,-919.314598
466.589499,2072.576638,-7179.997637,-2528.115143
466.589821,1850.514855,-8956.491898,-2221.676944
466.590143,-814.226536,-9548.656652,-306.438199
466.590465,-1554.432478,-8956.491898,0.000000
466.590786,-1406.391290,-9400.615463,-919.314598
466.591108,-296.082377,-11547.212695,-2068.457845
466.591430,-592.164754,-10362.883188,-1532.190996
466.591752,-2146.597232,-7550.100608,-1302.362347
466.592073,-2146.597232,-7105.977043,-153.219100
466.592395,-1110.308913,-8142.265362,-1225.752797
466.592717,-1406.391290,-6883.915261,-2987.772442
466.593039,-962.267725,-7772.162391,-2451.505594
466.593361,0.000000,-10732.986159,-842.705048
466.593682,370.102971,-11547.212695,-229.828649
466.594004,962.267725,-10214.842000,-612.876398
466.594326,888.247130,-10436.903782,-842.705048
466.594648,0.000000,-10955.047942,-1149.143247
466.594969,-592.164754,-10214.842000,-1838.629195
466.595291,-814.226536,-8734.430116,-2068.457845
466.595613,814.226536,-8808.450710,-2298.286494
466.595935,1924.535449,-10584.944971,-2145.067394
466.596256,1702.473667,-10955.047942,-153.219100
466.596578,1110.308913,-10732.986159,1685.410096
466.596900,1184.329507,-9326.594869,383.047749
466.597222,2220.617826,-8660.409521,-2221.676944
466.597544,2220.617826,-8586.388927,-2604.724693
466.597865,74.020594,-8142.265362,-1915.238745
466.598187,-1702.473667,-8364.327145,-1532.190996
466.598509,-2516.700203,-9622.677246,-1838.629195
466.598831,-2368.659014,-11769.274478,-2681.334243
466.599152,-2368.659014,-12435.459826,-2911.162892
466.599474,-2220.617826,-10881.027347,-1455.581446
466.599796,222.061783,-9622.677246,-995.924147
466.600118,2368.659014,-8586.388927,-2068.457845
466.600440,1998.556043,-7698.141797,-1762.019645
466.600761,74.020594,-6809.894666,-612.876398
466.601083,-1036.288319,-6143.709319,-1149.143247
466.601405,-222.061783,-7328.038826,-3753.867940
466.601727,370.102971,-9178.553681,-3447.429741
466.602048,-444.123565,-10066.800811,-536.266849
466.602370,-1406.391290,-9992.780217,459.657299
466.602692,-1332.370696,-9918.759623,0.000000
466.603014,-518.144159,-10436.903782,-1302.362347
466.603335,-962.267725,-9400.615463,-2451.505594
466.603657,-1702.473667,-8068.244768,-3140.991542
466.603979,-888.247130,-8216.285956,-2834.553343
466.604301,814.226536,-10066.800811,-3140.991542
466.604623,1184.329507,-11103.089130,-2374.896044
466.604944,2072.576638,-11177.109724,-766.095498
466.605266,3256.906145,-9918.759623,383.047749
466.605588,4959.379811,-9252.574275,-459.657299
466.605910,4811.338623,-9474.636058,-1685.410096
466.606231,2960.823768,-9474.636058,-383.047749
466.606553,-1184.329507,-8364.327145,842.705048
466.606875,-3627.009116,-8660.409521,-995.924147
466.607197,-4219.173869,-8956.491898,-2757.943793
466.607519,-3997.112087,-9622.677246,-2451.505594
466.607840,-4737.318029,-9548.656652,-2068.457845
466.608162,-4145.153275,-9918.759623,-842.705048
466.608484,-3330.926739,-10584.944971,0.000000
466.608806,-2590.720797,-10658.965565,-383.047749
466.609127,-2442.679609,-9548.656652,-1685.410096
466.609449,-1850.514855,-7550.100608,-2987.772442
466.609771,-1258.350101,-7476.080014,-3830.477490
466.610093,-592.164754,-8438.347739,-2757.943793
466.610414,148.041188,-8882.471304,-1762.019645
466.610736,666.185348,-9918.759623,-1838.629195
466.611058,1184.329507,-11695.253884,-1302.362347
466.611380,814.226536,-11769.274478,76.609550
466.611702,0.000000,-10362.883188,-612.876398
466.612023,74.020594,-9474.636058,-1225.752797
466.612345,370.102971,-8142.265362,-689.485948
466.612667,0.000000,-7698.141797,-689.485948
466.612989,74.020594,-7105.977043,-153.219100
466.613310,518.144159,-6883.915261,-306.438199
466.613632,1702.473667,-7698.141797,-1455.581446
466.613954,2220.617826,-10066.800811,-766.095498
466.614276,2368.659014,-10362.883188,919.314598
466.614598,2294.638420,-10436.903782,153.219100
466.614919,1850.514855,-11177.109724,-1532.190996
466.615241,222.061783,-10955.047942,-1608.800546
466.615563,-1480.411884,-9992.780217,-2068.457845
466.615885,-2368.659014,-9178.553681,-3140.991542
466.616206,-1628.453072,-8734.430116,-3294.210641
466.616528,-666.185348,-9696.697840,-3064.381992
466.616850,-518.144159,-10510.924376,-1991.848295
466.617172,-888.247130,-10732.986159,-536.266849
466.617493,-1184.329507,-9326.594869,-1225.752797
466.617815,-1258.350101,-9400.615463,-2145.067394
466.618137,-1702.473667,-8808.450710,-2145.067394
466.618459,-2146.597232,-8216.285956,-1991.848295
466.618781,-2664.741391,-7624.121203,-1685.410096
466.619102,-2072.576638,-8808.450710,-1685.410096
466.619424,-1554.432478,-9992.780217,-1838.629195
466.619746,-1258.350101,-10140.821405,-1532.190996
466.620068,-962.267725,-9770.718434,-1455.581446
466.620389,148.041188,-10436.903782,-1455.581446
466.620711,2220.617826,-10288.862594,-1455.581446
466.621033,2960.823768,-9474.636058,-1455.581446
466.621355,3034.844362,-9178.553681,-612.876398
466.621677,2590.720797,-7846.182985,-689.485948
466.621998,2516.700203,-6809.894666,-1532.190996
466.622320,2812.782580,-7476.080014,-2221.676944
466.622642,3034.844362,-9104.533087,-2834.553343
466.622964,1554.432478,-9326.594869,-1762.019645
466.623285,-592.164754,-9400.615463,459.657299
466.623607,-2738.761985,-10658.965565,76.609550
466.623929,-3775.050304,-10436.903782,-2451.505594
466.624251,-4145.153275,-9326.594869,-3983.696590
466.624572,-4367.215058,-9326.594869,-3064.381992
466.624894,-4071.132681,-8364.327145,-1378.971896
466.625216,-2960.823768,-7254.018232,-1302.362347
466.625538,-2590.720797,-8512.368333,-2298.286494
466.625860,-1776.494261,-10140.821405,-1608.800546
466.626181,-592.164754,-10288.862594,-1302.362347
466.626503,1406.391290,-9030.512492,-2528.115143
466.626825,3923.091493,-10066.800811,-2681.334243
466.627147,3552.988522,-11103.089130,-689.485948
466.627468,962.267725,-10288.862594,1072.533697
466.627790,-1480.411884,-10140.821405,0.000000
466.628112,-1406.391290,-11029.068536,-2757.943793
466.628434,-296.082377,-11029.068536,-3600.648841
466.628756,-444.123565,-9178.553681,-2451.505594
466.629077,-1480.411884,-8808.450710,-153.219100
466.629399,-1184.329507,-9178.553681,1532.190996
466.629721,-370.102971,-10066.800811,76.609550
466.630043,-814.226536,-9326.594869,-2681.334243
466.630364,-1406.391290,-8438.347739,-1915.238745
466.630686,-1628.453072,-7698.141797,-995.924147
466.631008,-1332.370696,-8586.388927,-1532.190996
466.631330,-1110.308913,-8808.450710,-766.095498
466.631651,-814.226536,-9474.636058,-383.047749
466.631973,-888.247130,-10140.821405,-1838.629195
466.632295,-1628.453072,-10807.006753,-1838.629195
466.632617,-2368.659014,-9770.718434,-306.438199
466.632939,-2368.659014,-9474.636058,-153.219100
466.633260,-2220.617826,-8660.409521,-1915.238745
466.633582,-2072.576638,-7846.182985,-1302.362347
466.633904,-1776.494261,-7772.162391,0.000000
466.634226,-888.247130,-8142.265362,0.000000
466.634547,296.082377,-6883.915261,-1991.848295
466.634869,1776.494261,-7179.997637,-1838.629195
466.635191,2442.679609,-8882.471304,0.000000
466.635513,2368.659014,-9400.615463,536.266849
466.635835,1998.556043,-8882.471304,-766.095498
466.636156,1628.453072,-10066.800811,-1915.238745
466.636478,296.082377,-11473.192101,-2221.676944
466.636800,-962.267725,-9474.636058,-1532.190996
466.637122,-222.061783,-9474.636058,-995.924147
466.637443,1406.391290,-10510.924376,-2068.457845
466.637765,2590.720797,-9992.780217,-1532.190996
466.638087,1036.288319,-9326.594869,-842.705048
466.638409,0.000000,-9252.574275,-689.485948
466.638730,296.082377,-9474.636058,-1532.190996
466.639052,814.226536,-9252.574275,-2681.334243
466.639374,888.247130,-9770.718434,-2451.505594
466.639696,148.041188,-10362.883188,-766.095498
466.640018,-888.247130,-9548.656652,-689.485948
466.640339,-1036.288319,-10436.903782,-1915.238745
466.640661,-888.247130,-12065.356855,-2451.505594
466.640983,-1406.391290,-9252.574275,-2068.457845
466.641305,-740.205942,-8586.388927,-2681.334243
466.641626,444.123565,-8808.450710,-2987.772442
466.641948,962.267725,-8882.471304,-1455.581446
466.642270,-74.020594,-8364.327145,-1915.238745
466.642592,-814.226536,-7920.203579,-1838.629195
466.642914,0.000000,-8068.244768,-2834.553343
466.643235,444.123565,-9252.574275,-3753.867940
466.643557,0.000000,-10362.883188,-2374.896044
466.643879,-1480.411884,-10140.821405,-536.266849
466.644201,-2368.659014,-9474.636058,-1532.190996
466.644522,-2220.617826,-11547.212695,-2528.115143
466.644844,-2960.823768,-11547.212695,-2221.676944
466.645166,-3701.029710,-8512.368333,-1685.410096
466.645488,-2368.659014,-7624.121203,-1838.629195
466.645810,0.000000,-7698.141797,-2528.115143
466.646131,74.020594,-8438.347739,-1608.800546
466.646453,-1184.329507,-8808.450710,0.000000
466.646775,-1850.514855,-8586.388927,0.000000
466.647097,-518.144159,-7772.162391,-1991.848295
466.647418,444.123565,-7254.018232,-3600.648841
466.647740,222.061783,-8660.409521,-2298.286494
466.648062,-1554.432478,-10584.944971,-689.485948
466.648384,-3108.864956,-10732.986159,-1532.190996
466.648705,-3701.029710,-11473.192101,-2145.067394
466.649027,-3552.988522,-12065.356855,-2145.067394
466.649349,-4293.194464,-10510.924376,-2834.553343
466.649671,-5107.421000,-9030.512492,-2681.334243
466.649993,-4589.276840,-9252.574275,-2374.896044
466.650314,-4071.132681,-9622.677246,-1149.143247
466.650636,-4515.256246,-9252.574275,-1532.190996
466.650958,-4885.359217,-8290.306550,-1532.190996
466.651280,-3923.091493,-8216.285956,-689.485948
466.651601,-2368.659014,-8216.285956,-1532.190996
466.651923,-1258.350101,-8068.244768,-1762.019645
466.652245,-1480.411884,-8660.409521,153.219100
466.652567,-2294.638420,-8956.491898,459.657299
466.652889,-2368.659014,-8660.409521,-1608.800546
466.653210,-2516.700203,-9770.718434,-3447.429741
466.653532,-2516.700203,-10066.800811,-2451.505594
466.653854,-3478.967927,-9918.759623,-1378.971896
466.654176,-3108.864956,-9918.759623,-995.924147
466.654497,-962.267725,-9770.718434,-995.924147
466.654819,0.000000,-9622.677246,-1991.848295
466.655141,-518.144159,-9326.594869,-1378.971896
466.655463,-1554.432478,-8216.285956,-766.095498
466.655784,-1628.453072,-6883.915261,-689.485948
466.656106,-1110.308913,-7105.977043,-1608.800546
466.656428,-1332.370696,-7994.224174,-766.095498
466.656750,-2886.803174,-8734.430116,-229.828649
466.657072,-3404.947333,-9178.553681,-612.876398
466.657393,-3478.967927,-10436.903782,-2145.067394
466.657715,-3701.029710,-10807.006753,-2298.286494
466.658037,-4737.318029,-10214.842000,-1532.190996
466.658359,-5255.462188,-9104.533087,-766.095498
466.658680,-3923.091493,-8586.388927,-1991.848295
466.659002,-2886.803174,-8734.430116,-2911.162892
466.659324,-3256.906145,-9474.636058,-2911.162892
466.659646,-4145.153275,-10140.821405,-1991.848295
466.659968,-4441.235652,-10362.883188,-1378.971896
466.660289,-4367.215058,-10732.986159,-1072.533697
466.660611,-4293.194464,-10955.047942,-919.314598
466.660933,-3849.070898,-9844.739029,-1991.848295
466.661255,-3552.988522,-9178.553681,-2987.772442
466.661576,-2886.803174,-8956.491898,-2221.676944
466.661898,-3108.864956,-8068.244768,-842.705048
466.662220,-3478.967927,-7624.121203,-1302.362347
466.662542,-4071.132681,-8956.491898,-2298.286494
466.662863,-5995.668130,-9992.780217,-2298.286494
466.663185,-7624.121203,-9844.739029,-1455.581446
466.663507,-7698.141797,-9992.780217,-2145.067394
466.663829,-5033.400406,-10807.006753,-2911.162892
466.664151,-2368.659014,-10362.883188,-2911.162892
466.664472,-1702.473667,-9326.594869,-459.657299
466.664794,-1184.329507,-8290.306550,1378.971896
466.665116,-888.247130,-7031.956449,76.609550
466.665438,0.000000,-6883.915261,-2681.334243
466.665759,0.000000,-7994.224174,-3600.648841
466.666081,-666.185348,-9104.533087,-1991.848295
466.666403,-1480.411884,-9178.553681,-612.876398
466.666725,-2294.638420,-8290.306550,-229.828649
466.667047,-2960.823768,-8290.306550,-995.924147
466.667368,-4293.194464,-9252.574275,-1991.848295
466.667690,-5921.647536,-9474.636058,-3217.601092
466.668012,-7550.100608,-9622.677246,-2987.772442
466.668334,-8438.347739,-9548.656652,-1762.019645
466.668655,-8216.285956,-10066.800811,-842.705048
466.668977,-6365.771101,-9770.718434,-1685.410096
466.669299,-4367.215058,-9474.636058,-2604.724693
466.669621,-2960.823768,-9252.574275,-1915.238745
466.669942,-1998.556043,-9104.533087,-842.705048
466.670264,0.000000,-8438.347739,-1455.581446
466.670586,592.164754,-8882.471304,-2298.286494
466.670908,222.061783,-9252.574275,-1685.410096
466.671230,-1406.391290,-7994.224174,-1455.581446
466.671551,-1554.432478,-7105.977043,-3677.258390
466.671873,-666.185348,-8512.368333,-5822.325785
466.672195,-740.205942,-10881.027347,-3983.696590
466.672517,-2368.659014,-11251.130318,-995.924147
466.672838,-3849.070898,-10955.047942,-229.828649
466.673160,-3552.988522,-11843.295072,-1378.971896
466.673482,-3849.070898,-12805.562797,-2604.724693
466.673804,-6069.688724,-12287.418637,-2757.943793
466.674126,-8068.244768,-9992.780217,-766.095498
466.674447,-7920.203579,-8142.265362,229.828649
466.674769,-6143.709319,-8364.327145,-766.095498
466.675091,-3849.070898,-8142.265362,-1225.752797
466.675413,-2294.638420,-8068.244768,-383.047749
466.675734,-888.247130,-8660.409521,229.828649
466.676056,222.061783,-7994.224174,842.705048
466.676378,1110.308913,-7698.141797,0.000000
466.676700,592.164754,-7920.203579,-1378.971896
466.677021,-1110.308913,-8290.306550,-1838.629195
466.677343,-3404.947333,-8586.388927,-2757.943793
466.677665,-5329.482782,-9178.553681,-3753.867940
466.677987,-6883.915261,-9770.718434,-3524.039291
466.678309,-8068.244768,-10214.842000,-3677.258390
466.678630,-8512.368333,-10658.965565,-3830.477490
466.678952,-7846.182985,-10955.047942,-3140.991542
466.679274,-6883.915261,-11399.171507,-2451.505594
466.679596,-6439.791695,-10214.842000,-1838.629195
466.679917,-4885.359217,-8808.450710,-1225.752797
466.680239,-3775.050304,-7920.203579,-1072.533697
466.680561,-2960.823768,-8364.327145,383.047749
466.680883,-2516.700203,-8512.368333,1072.533697
466.681205,-1850.514855,-8956.491898,1378.971896
466.681526,-518.144159,-8808.450710,1072.533697
466.681848,888.247130,-8734.430116,995.924147
466.682170,1628.453072,-8512.368333,1378.971896
466.682492,2220.617826,-7402.059420,1455.581446
466.682813,1628.453072,-6957.935855,0.000000
466.683135,1480.411884,-7179.997637,-1455.581446
466.683457,0.000000,-7920.203579,-3140.991542
466.683779,-1776.494261,-9104.533087,-3830.477490
466.684100,-3182.885551,-10510.924376,-3677.258390
466.684422,-4293.194464,-11917.315666,-4903.011187
466.684744,-5477.523971,-11991.336260,-5286.058936
466.685066,-6439.791695,-12509.480420,-4979.620737
466.685388,-7402.059420,-12509.480420,-3907.087040
466.685709,-8882.471304,-10881.027347,-3064.381992
466.686031,-8808.450710,-8808.450710,-3370.820191
466.686353,-7254.018232,-8660.409521,-4060.306139
466.686675,-5847.626942,-9030.512492,-3753.867940
466.686997,-4515.256246,-9326.594869,-1762.019645
466.687318,-3256.906145,-9400.615463,1072.533697
466.687640,-1258.350101,-8660.409521,2068.457845
466.687962,666.185348,-8068.244768,612.876398
466.688284,2368.659014,-7476.080014,0.000000
466.688606,3404.947333,-7254.018232,-842.705048
466.688928,4737.318029,-7624.121203,-1838.629195
466.689249,5181.441594,-8808.450710,-1762.019645
466.689571,4515.256246,-10214.842000,-1608.800546
466.689893,1184.329507,-12435.459826,-306.438199
466.690215,-3404.947333,-13619.789333,0.000000
466.690537,-7624.121203,-13471.748144,-995.924147
466.690858,-10066.800811,-11843.295072,-3370.820191
466.691180,-11251.130318,-9030.512492,-4749.792088
466.691502,-11473.192101,-7328.038826,-4519.963438
466.691824,-11473.192101,-5847.626942,-2681.334243
466.692146,-10436.903782,-5551.544565,-2068.457845
466.692467,-8364.327145,-6809.894666,-2298.286494
466.692789,-6291.750507,-9178.553681,-2374.896044
466.693111,-4959.379811,-10510.924376,-1608.800546
466.693433,-4293.194464,-10436.903782,-536.266849
466.693755,-2590.720797,-9474.636058,-459.657299
466.694076,-296.082377,-8734.430116,-842.705048
466.694398,962.267725,-7105.977043,-1532.190996
466.694720,666.185348,-5773.606348,-2451.505594
466.695042,-592.164754,-5625.565159,-2528.115143
466.695364,-2220.617826,-7846.182985,-2681.334243
466.695685,-3552.988522,-10658.965565,-2451.505594
466.696007,-5033.400406,-13323.706956,-1608.800546
466.696329,-6365.771101,-14137.933492,-306.438199
466.696651,-7105.977043,-13545.768739,0.000000
466.696973,-7105.977043,-11251.130318,0.000000
466.697294,-6883.915261,-8586.388927,-612.876398
466.697616,-5107.421000,-6365.771101,-1838.629195
466.697938,-2442.679609,-4589.276840,-2145.067394
466.698260,-222.061783,-4367.215058,-1762.019645
466.698582,1924.535449,-5995.668130,-1149.143247
466.698903,2516.700203,-7994.224174,-1225.752797
466.699225,1924.535449,-10584.944971,-1532.190996
466.699547,370.102971,-12805.562797,-1378.971896
466.699869,-1480.411884,-13101.645173,-995.924147
466.700191,-3034.844362,-11843.295072,-2757.943793
466.700512,-3849.070898,-11399.171507,-4060.306139
466.700834,-4737.318029,-11547.212695,-3294.210641
466.701156,-6217.729913,-11177.109724,-1991.848295
466.701478,-7698.141797,-9474.636058,-459.657299
466.701800,-8216.285956,-8068.244768,-1072.533697
466.702121,-8068.244768,-7772.162391,-2604.724693
466.702443,-6661.853478,-8142.265362,-4060.306139
466.702765,-5107.421000,-8808.450710,-4519.963438
466.703087,-3997.112087,-8956.491898,-2834.553343
466.703409,-2590.720797,-8290.306550,-689.485948
466.703731,-1554.432478,-7254.018232,0.000000
466.704052,-666.185348,-6957.935855,-2068.457845
466.704374,-148.041188,-8882.471304,-3753.867940
466.704696,-592.164754,-11695.253884,-3830.477490
466.705018,-1258.350101,-13767.830521,-1991.848295
466.705340,-1702.473667,-14359.995275,1762.019645
466.705661,-1110.308913,-13175.665768,4060.306139
466.705983,1110.308913,-10881.027347,2757.943793
466.706305,3404.947333,-10066.800811,459.657299
466.706627,4071.132681,-10584.944971,153.219100
466.706949,2516.700203,-10214.842000,3677.258390
466.707270,148.041188,-7550.100608,6435.202183
466.707592,-2516.700203,-4737.318029,5975.544884
466.707914,-4737.318029,-3552.988522,3370.820191
466.708236,-7624.121203,-2220.617826,-383.047749
466.708558,-9992.780217,-2220.617826,-4213.525239
466.708879,-10288.862594,-4219.173869,-5515.887586
466.709201,-9548.656652,-6883.915261,-4673.182538
466.709523,-8290.306550,-9104.533087,-3907.087040
466.709845,-7328.038826,-12805.562797,-4519.963438
466.710167,-6883.915261,-16062.468941,-4596.572988
466.710488,-7031.956449,-17024.736666,-4979.620737
466.710810,-6513.812290,-16654.633695,-4979.620737
466.711132,-4663.297435,-14434.015869,-2834.553343
466.711454,-3108.864956,-11843.295072,-383.047749
466.711776,-2664.741391,-8512.368333,1532.190996
466.712097,-2146.597232,-5477.523971,3370.820191
466.712419,-1332.370696,-3627.009116,3753.867940
466.712741,-370.102971,-3552.988522,2681.334243
466.713063,-518.144159,-5477.523971,2681.334243
466.713385,-1554.432478,-7105.977043,4443.353888
466.713706,-1702.473667,-7772.162391,4596.572988
466.714028,888.247130,-10066.800811,1149.143247
466.714350,4145.153275,-10140.821405,-1762.019645
466.714672,4441.235652,-8512.368333,-1915.238745
466.714994,3330.926739,-10066.800811,-995.924147
466.715315,1628.453072,-14434.015869,0.000000
466.715637,962.267725,-17542.880825,-1149.143247
466.715959,592.164754,-16728.654289,-3830.477490
466.716281,1110.308913,-15766.386565,-3447.429741
466.716603,1850.514855,-14285.974681,-612.876398
466.716924,740.205942,-10807.006753,1532.190996
466.717246,-1110.308913,-7179.997637,3524.039291
466.717568,-1258.350101,-4367.215058,5209.449386
466.717890,-888.247130,-2886.803174,2681.334243
466.718212,-592.164754,-1850.514855,-306.438199
466.718533,-370.102971,-2072.576638,0.000000
466.718855,518.144159,-4293.194464,2987.772442
466.719177,592.164754,-5995.668130,3600.648841
466.719499,1332.370696,-7772.162391,1838.629195
466.719821,2294.638420,-10881.027347,-2757.943793
466.720143,2664.741391,-12435.459826,-5132.839837
466.720464,1110.308913,-12731.542202,-4060.306139
466.720786,-592.164754,-14952.160028,-1455.581446
466.721108,-1406.391290,-17764.942608,306.438199
466.721430,-2294.638420,-16802.674883,-153.219100
466.721752,-2664.741391,-13989.892304,-919.314598
466.722073,-1924.535449,-12879.583391,1532.190996
466.722395,-2146.597232,-11843.295072,4519.963438
466.722717,-3182.885551,-9326.594869,6052.154434
466.723039,-4219.173869,-6883.915261,7354.516781
466.723361,-3330.926739,-5847.626942,7660.954980
466.723682,-2738.761985,-6365.771101,4443.353888
466.724004,-3108.864956,-6735.874072,2987.772442
466.724326,-2960.823768,-6809.894666,5286.058936
466.724648,-148.041188,-6809.894666,4826.401637
466.724970,4145.153275,-7031.956449,1685.410096
466.725291,5181.441594,-4367.215058,536.266849
466.725613,3997.112087,-2590.720797,306.438199
466.725935,2664.741391,-6735.874072,-2298.286494
466.726257,666.185348,-12953.603985,-4903.011187
466.726579,-2442.679609,-16062.468941,-5515.887586
466.726900,-7476.080014,-17024.736666,-3524.039291
466.727222,-11103.089130,-19023.292709,1455.581446
466.727544,-12435.459826,-18135.045579,4443.353888
466.727866,-11695.253884,-13693.809927,2528.115143
466.728188,-10066.800811,-9770.718434,1762.019645
466.728509,-7698.141797,-9326.594869,3983.696590
466.728831,-4959.379811,-9104.533087,7277.907231
466.729153,-2738.761985,-5921.647536,9806.022374
466.729475,592.164754,-222.061783,11414.822920
466.729797,4811.338623,1480.411884,9499.584175
466.730118,8956.491898,370.102971,4290.134789
466.730440,9400.615463,-2072.576638,766.095498
466.730762,7624.121203,-6217.729913,1532.190996
466.731084,5329.482782,-11769.274478,4136.915689
466.731406,3034.844362,-18579.169144,3753.867940
466.731727,444.123565,-21095.869347,-229.828649
466.732049,-2146.597232,-19171.333898,-2757.943793
466.732371,-3330.926739,-17172.777854,-2604.724693
466.732693,-3404.947333,-14804.118840,-1149.143247
466.733015,-3627.009116,-9252.574275,459.657299
466.733336,-3849.070898,-3849.070898,612.876398
466.733658,-3108.864956,-4515.256246,2145.067394
466.733980,-2960.823768,-6735.874072,3830.477490
466.734302,-3849.070898,-6587.832884,3370.820191
466.734624,-3034.844362,-6217.729913,2451.505594
466.734945,592.164754,-9030.512492,5132.839837
466.735267,2812.782580,-10955.047942,9346.365076
466.735589,2220.617826,-6809.894666,10035.851024
466.735911,5477.523971,-2072.576638,4673.182538
466.736233,11473.192101,-2738.761985,-3140.991542
466.736555,12509.480420,-3034.844362,-5439.278036
466.736876,6735.874072,-4959.379811,-1608.800546
466.737198,444.123565,-11325.150913,1455.581446
466.737520,-2812.782580,-19319.375086,766.095498
466.737842,-5107.421000,-22576.281231,-4060.306139
466.738164,-6809.894666,-21762.054695,-7354.516781
466.738485,-5551.544565,-16210.510130,-6281.983084
466.738807,-2294.638420,-11843.295072,-4060.306139
466.739129,-814.226536,-8290.306550,-689.485948
466.739451,444.123565,-5847.626942,3677.258390
466.739773,1554.432478,-5255.462188,3677.258390
466.740094,1850.514855,-8068.244768,-842.705048
466.740416,-518.144159,-9992.780217,0.000000
466.740738,-222.061783,-8586.388927,3677.258390
466.741060,2516.700203,-5921.647536,1532.190996
466.741382,6069.688724,-7994.224174,-1532.190996
466.741703,6883.915261,-11843.295072,612.876398
466.742025,814.226536,-10732.986159,3447.429741
466.742347,-6365.771101,-9030.512492,2451.505594
466.742669,-9770.718434,-10288.862594,-766.095498
466.742991,-9844.739029,-9696.697840,-6818.249932
466.743312,-10955.047942,-7476.080014,-10955.165621
466.743634,-11325.150913,-10510.924376,-7660.954980
466.743956,-9252.574275,-16136.489536,-1225.752797
466.744278,-5625.565159,-17468.860231,995.924147
466.744600,-2664.741391,-15396.283594,306.438199
466.744921,-1184.329507,-13619.789333,1762.019645
466.745243,814.226536,-10584.944971,2911.162892
466.745565,3478.967927,-4737.318029,689.485948
466.745887,6809.894666,74.020594,-383.047749
466.746209,9474.636058,444.123565,2911.162892
466.746530,9400.615463,-2368.659014,7660.954980
466.746852,5773.606348,-6217.729913,9116.536426
466.747174,1406.391290,-9918.759623,7431.126331
466.747496,-740.205942,-12509.480420,4749.792088
466.747818,-1850.514855,-13323.706956,1378.971896
466.748139,-2664.741391,-11843.295072,383.047749
466.748461,-2590.720797,-9252.574275,1762.019645
466.748783,-2516.700203,-7920.203579,2604.724693
466.749105,-3404.947333,-8586.388927,2987.772442
466.749427,-5181.441594,-9696.697840,2068.457845
466.749748,-7105.977043,-10732.986159,-383.047749
466.750070,-7402.059420,-11473.192101,-536.266849
466.750392,-5921.647536,-11843.295072,995.924147
466.750714,-3627.009116,-10436.903782,3600.648841
466.751036,0.000000,-9104.533087,4136.915689
466.751357,2072.576638,-8586.388927,4596.572988
466.751679,2442.679609,-9326.594869,6052.154434
466.752001,3034.844362,-8808.450710,7048.078582
466.752323,3775.050304,-6587.832884,5515.887586
466.752645,6217.729913,-5625.565159,3140.991542
466.752967,7698.141797,-5921.647536,3064.381992
466.753288,6809.894666,-7254.018232,5056.230287
466.753610,3923.091493,-8586.388927,6818.249932
466.753932,666.185348,-10436.903782,4979.620737
466.754254,-1924.535449,-13323.706956,1685.410096
466.754576,-3701.029710,-14730.098246,-766.095498
466.754897,-4219.173869,-14582.057057,-459.657299
466.755219,-2738.761985,-13249.686362,689.485948
466.755541,-592.164754,-11547.212695,2681.334243
466.755863,518.144159,-11029.068536,3447.429741
466.756185,-370.102971,-10288.862594,4519.963438
466.756506,-2590.720797,-9474.636058,3140.991542
466.756828,-3849.070898,-8290.306550,1149.143247
466.757150,-3108.864956,-7698.141797,153.219100
466.757472,-740.205942,-7476.080014,689.485948
466.757794,2072.576638,-7328.038826,2068.457845
466.758115,4515.256246,-7402.059420,3753.867940
466.758437,5477.523971,-8734.430116,4060.306139
466.758759,4589.276840,-10066.800811,2528.115143
466.759081,2072.576638,-9918.759623,459.657299
466.759403,-1628.453072,-9252.574275,-1532.190996
466.759724,-4441.235652,-10362.883188,-2528.115143
466.760046,-5773.606348,-11029.068536,-2757.943793
466.760368,-5995.668130,-10807.006753,-3140.991542
466.760690,-5699.585753,-11621.233289,-2528.115143
466.761012,-4515.256246,-13841.851115,-919.314598
466.761333,-4071.132681,-14434.015869,306.438199
466.761655,-3775.050304,-13397.727550,1225.752797
466.761977,-3775.050304,-10881.027347,1915.238745
466.762299,-3108.864956,-8142.265362,2221.676944
466.762621,-2738.761985,-4885.359217,995.924147
466.762942,-1110.308913,-3775.050304,766.095498
466.763264,1110.308913,-4663.297435,1225.752797
466.763586,3108.864956,-6143.709319,2145.067394
466.763908,4145.153275,-8142.265362,2834.553343
466.764230,4441.235652,-9844.739029,3677.258390
466.764551,4219.173869,-9474.636058,2068.457845
466.764873,3034.844362,-7476.080014,-842.705048
466.765195,2146.597232,-6439.791695,-3524.039291
466.765517,0.000000,-6957.935855,-4519.963438
466.765839,-2960.823768,-7698.141797,-3830.477490
466.766160,-5255.462188,-10732.986159,-3600.648841
466.766482,-6217.729913,-14952.160028,-1072.533697
466.766804,-6587.832884,-16950.716072,-995.924147
466.767126,-6217.729913,-15692.365970,-1455.581446
466.767448,-4737.318029,-12879.583391,-306.438199
466.767770,-1924.535449,-9918.759623,689.485948
466.768091,518.144159,-7476.080014,1838.629195
466.768413,2886.803174,-4885.359217,2987.772442
466.768735,4367.215058,-4737.318029,3753.867940
466.769057,5033.400406,-5403.503377,3677.258390
466.769379,5181.441594,-7105.977043,3677.258390
466.769700,4885.359217,-7624.121203,2451.505594
466.770022,4959.379811,-9178.553681,459.657299
466.770344,4589.276840,-10362.883188,306.438199
466.770666,2812.782580,-11769.274478,689.485948
466.770988,518.144159,-14211.954086,306.438199
466.771309,-3034.844362,-15026.180623,-612.876398
466.771631,-6883.915261,-15026.180623,-1608.800546
466.771953,-8216.285956,-13841.851115,-2451.505594
466.772275,-6661.853478,-11917.315666,-2681.334243
466.772597,-4589.276840,-11029.068536,-1149.143247
466.772918,-3478.967927,-10288.862594,2145.067394
466.773240,-2738.761985,-9474.636058,5056.230287
466.773562,-1628.453072,-8734.430116,5745.716235
466.773884,-962.267725,-8290.306550,4673.182538
466.774206,-888.247130,-5699.585753,3753.867940
466.774527,666.185348,-2442.679609,2987.772442
466.774849,3923.091493,-1924.535449,2528.115143
466.775171,6143.709319,-3775.050304,2757.943793
466.775493,5995.668130,-6143.709319,3753.867940
466.775815,3627.009116,-9844.739029,3524.039291
466.776136,370.102971,-14211.954086,2911.162892
466.776458,-1406.391290,-15396.283594,1225.752797
466.776780,-2442.679609,-14211.954086,-1455.581446
466.777102,-1628.453072,-11473.192101,-2528.115143
466.777424,222.061783,-9918.759623,-1838.629195
466.777745,1184.329507,-8142.265362,0.000000
466.778067,1036.288319,-6661.853478,1302.362347
466.778389,-148.041188,-7328.038826,1685.410096
466.778711,-814.226536,-9622.677246,383.047749
466.779033,-1480.411884,-10436.903782,-689.485948
466.779354,-2072.576638,-8808.450710,766.095498
466.779676,-1406.391290,-7179.997637,2374.896044
466.779998,0.000000,-7105.977043,1915.238745
466.780320,444.123565,-7105.977043,0.000000
466.780642,-1850.514855,-7105.977043,-536.266849
466.780963,-4515.256246,-8512.368333,-689.485948
466.781285,-4663.297435,-11843.295072,-919.314598
466.781607,-2738.761985,-12953.603985,-2451.505594
466.781929,-2294.638420,-10955.047942,-3753.867940
466.782251,-2294.638420,-9992.780217,-3064.381992
466.782572,-2072.576638,-10140.821405,-2987.772442
466.782894,-2220.617826,-10214.842000,-3983.696590
466.783216,-2812.782580,-10584.944971,-4060.306139
466.783538,-2368.659014,-11177.109724,-3294.210641
466.783860,-1258.350101,-11769.274478,-3140.991542
466.784182,-518.144159,-10658.965565,-2374.896044
466.784498,0.000000,-9844.739029,-995.924147
466.784820,888.247130,-9104.533087,153.219100
466.785142,2072.576638,-7698.141797,-1149.143247
466.785463,3404.947333,-8808.450710,-2451.505594
466.785785,4145.153275,-10140.821405,-1762.019645
466.786107,3701.029710,-10584.944971,229.828649
466.786429,2960.823768,-9030.512492,1378.971896
466.786750,3330.926739,-7105.977043,-459.657299
466.787072,3849.070898,-6809.894666,-2604.724693
466.787394,2960.823768,-7031.956449,-4290.134789
466.787716,518.144159,-8142.265362,-3830.477490
466.788037,-1998.556043,-9770.718434,-1378.971896
466.788359,-3552.988522,-11325.150913,-1072.533697
466.788681,-4737.318029,-11621.233289,-2298.286494
466.789003,-5329.482782,-11917.315666,-4366.744339
466.789324,-4811.338623,-10881.027347,-4749.792088
466.789646,-3034.844362,-9548.656652,-4136.915689
466.789968,-1480.411884,-8438.347739,-2145.067394
466.790290,-518.144159,-7031.956449,0.000000
466.790611,148.041188,-7105.977043,0.000000
466.790933,814.226536,-7105.977043,-1225.752797
466.791255,1776.494261,-7179.997637,-2145.067394
466.791577,2294.638420,-7476.080014,-2374.896044
466.791898,2738.761985,-7476.080014,-1302.362347
466.792220,2960.823768,-9474.636058,-766.095498
466.792542,2368.659014,-11621.233289,-306.438199
466.792864,814.226536,-12065.356855,153.219100
466.793185,-814.226536,-12509.480420,-306.438199
466.793507,-1702.473667,-11103.089130,-2298.286494
466.793829,-962.267725,-9696.697840,-2604.724693
466.794151,740.205942,-9474.636058,-2145.067394
466.794472,888.247130,-8586.388927,-306.438199
466.794794,370.102971,-7624.121203,153.219100
466.795116,444.123565,-7550.100608,-995.924147
466.795437,888.247130,-8586.388927,-1915.238745
466.795759,592.164754,-10436.903782,-2221.676944
466.796081,-888.247130,-10214.842000,-1685.410096
466.796403,-1924.535449,-10436.903782,-689.485948
466.796724,-2442.679609,-10436.903782,0.000000
466.797046,-2960.823768,-9178.553681,-995.924147
466.797368,-3256.906145,-7846.182985,-3064.381992
466.797690,-3108.864956,-9400.615463,-3753.867940
466.798011,-3108.864956,-11029.068536,-2451.505594
466.798333,-3330.926739,-11843.295072,-459.657299
466.798655,-2812.782580,-11177.109724,1302.362347
466.798977,-1110.308913,-9622.677246,995.924147
466.799298,222.061783,-7476.080014,-1762.019645
466.799620,592.164754,-6661.853478,-2834.553343
466.799942,1406.391290,-7105.977043,-1378.971896
466.800264,1332.370696,-8438.347739,383.047749
466.800585,1036.288319,-9178.553681,1302.362347
466.800907,1332.370696,-10066.800811,1608.800546
466.801229,740.205942,-9548.656652,1149.143247
466.801551,814.226536,-9474.636058,-612.876398
466.801872,1332.370696,-8512.368333,-1762.019645
466.802194,1850.514855,-9030.512492,-153.219100
466.802516,1110.308913,-9548.656652,1072.533697
466.802838,518.144159,-9178.553681,2374.896044
466.803159,296.082377,-8068.244768,689.485948
466.803481,740.205942,-7402.059420,-2451.505594
466.803803,74.020594,-7328.038826,-3600.648841
466.804125,-814.226536,-8068.244768,-2221.676944
466.804446,-1776.494261,-9178.553681,-612.876398
466.804768,-2072.576638,-10584.944971,-153.219100
466.805090,-2590.720797,-11695.253884,-536.266849
466.805412,-3849.070898,-12213.398043,-1302.362347
466.805733,-3997.112087,-12139.377449,-2757.943793
466.806055,-2738.761985,-10362.883188,-2528.115143
466.806377,-518.144159,-8660.409521,-1915.238745
466.806699,2442.679609,-7772.162391,-766.095498
466.807020,3849.070898,-6883.915261,-612.876398
466.807342,4071.132681,-7624.121203,-536.266849
466.807664,2368.659014,-9622.677246,-383.047749
466.807985,2442.679609,-11103.089130,-1072.533697
466.808307,1850.514855,-11103.089130,-1302.362347
466.808629,1850.514855,-10584.944971,-1762.019645
466.808951,1184.329507,-10436.903782,-1532.190996
466.809272,296.082377,-10362.883188,-995.924147
466.809594,-1554.432478,-9326.594869,-1455.581446
466.809916,-2220.617826,-10658.965565,-3370.820191
466.810238,-1998.556043,-10658.965565,-3677.258390
466.810559,-1480.411884,-10510.924376,-2987.772442
466.810881,-1110.308913,-11103.089130,-2451.505594
466.811203,-1406.391290,-10140.821405,-1532.190996
466.811525,-1628.453072,-8438.347739,-766.095498
466.811846,-592.164754,-8290.306550,-1915.238745
466.812168,-740.205942,-7105.977043,-3370.820191
466.812490,-1628.453072,-6217.729913,-3217.601092
466.812812,-1332.370696,-6735.874072,-2221.676944
466.813133,-814.226536,-8142.265362,-2145.067394
466.813455,-666.185348,-10066.800811,-2528.115143
466.813777,-2220.617826,-10881.027347,-1991.848295
466.814099,-4145.153275,-11547.212695,-612.876398
466.814420,-4071.132681,-11473.192101,-766.095498
466.814742,-2220.617826,-9770.718434,-2068.457845
466.815064,0.000000,-8438.347739,-2757.943793
466.815386,1332.370696,-6809.894666,-1762.019645
466.815707,2220.617826,-5477.523971,-995.924147
466.816029,3034.844362,-6291.750507,-1149.143247
466.816351,3552.988522,-7920.203579,-306.438199
466.816673,3034.844362,-9104.533087,-995.924147
466.816994,2220.617826,-9474.636058,-1378.971896
466.817316,1480.411884,-9252.574275,-1072.533697
466.817638,370.102971,-9844.739029,-766.095498
466.817960,-666.185348,-9844.739029,-1608.800546
466.818281,-1554.432478,-9178.553681,-1532.190996
466.818603,-1702.473667,-9178.553681,-2604.724693
466.818925,-1036.288319,-9696.697840,-2757.943793
466.819246,-1776.494261,-9844.739029,-2298.286494
466.819568,-2442.679609,-9030.512492,-1149.143247
466.819890,-1628.453072,-9252.574275,-1838.629195
466.820212,-1036.288319,-9474.636058,-3600.648841
466.820533,-222.061783,-9030.512492,-3524.039291
466.820855,0.000000,-9400.615463,-2451.505594
466.821177,-592.164754,-10510.924376,-1685.410096
466.821499,-740.205942,-10214.842000,-995.924147
466.821820,-222.061783,-11029.068536,-1072.533697
466.822142,1406.391290,-11473.192101,-2298.286494
466.822464,1036.288319,-10214.842000,-3294.210641
466.822786,1036.288319,-10732.986159,-1915.238745
466.823107,1776.494261,-12435.459826,0.000000
466.823429,1332.370696,-13471.748144,919.314598
466.823751,296.082377,-10955.047942,842.705048
466.824073,518.144159,-8808.450710,1378.971896
466.824394,1850.514855,-7698.141797,-689.485948
466.824716,2368.659014,-5773.606348,-2987.772442
466.825038,2072.576638,-5181.441594,-1838.629195
466.825360,1036.288319,-7698.141797,919.314598
466.825681,-1332.370696,-9622.677246,1685.410096
466.826003,-3256.906145,-11251.130318,153.219100
466.826325,-5107.421000,-12731.542202,-1225.752797
466.826647,-5403.503377,-11917.315666,-2757.943793
466.826968,-4737.318029,-8660.409521,-3447.429741
466.827290,-2146.597232,-8364.327145,-2298.286494
466.827612,-444.123565,-8438.347739,76.609550
466.827934,-296.082377,-7254.018232,1072.533697
466.828255,0.000000,-7105.977043,76.609550
466.828577,1258.350101,-7772.162391,-842.705048
466.828899,2220.617826,-8068.244768,-2145.067394
466.829221,1850.514855,-7550.100608,-1455.581446
466.829542,2368.659014,-7476.080014,153.219100
466.829864,3108.864956,-7846.182985,459.657299
466.830186,2886.803174,-9326.594869,229.828649
466.830508,740.205942,-11103.089130,689.485948
466.830829,-1628.453072,-11177.109724,153.219100
466.831151,-1480.411884,-10510.924376,-995.924147
466.831473,222.061783,-9770.718434,-1072.533697
466.831794,1110.308913,-7698.141797,153.219100
466.832116,1480.411884,-6217.729913,229.828649
466.832438,592.164754,-5995.668130,-1378.971896
466.832760,-592.164754,-8586.388927,-2604.724693
466.833081,-2146.597232,-10288.862594,-3447.429741
466.833403,-3627.009116,-11029.068536,-3447.429741
466.833725,-4515.256246,-11621.233289,-2451.505594
466.834047,-5329.482782,-11695.253884,-2834.553343
466.834368,-5477.523971,-10436.903782,-4060.306139
466.834690,-5107.421000,-9696.697840,-4979.620737
466.835012,-4589.276840,-10214.842000,-4673.182538
466.835334,-3330.926739,-11547.212695,-4443.353888
466.835655,-3034.844362,-12435.459826,-4136.915689
466.835977,-3182.885551,-13175.665768,-1838.629195
466.836299,-1776.494261,-11325.150913,76.609550
466.836621,1554.432478,-8364.327145,-1915.238745
466.836942,5033.400406,-5625.565159,-5132.839837
466.837264,6513.812290,-4071.132681,-4366.744339
466.837586,6439.791695,-6143.709319,-1762.019645
466.837908,5181.441594,-9992.780217,919.314598
466.838229,3627.009116,-11843.295072,1915.238745
466.838551,2072.576638,-12805.562797,919.314598
466.838873,1036.288319,-11621.233289,-1378.971896
466.839195,740.205942,-9178.553681,-2987.772442
466.839516,2368.659014,-7698.141797,-2834.553343
466.839838,3404.947333,-7698.141797,-2374.896044
466.840160,2738.761985,-8364.327145,-919.314598
466.840482,1184.329507,-8808.450710,536.266849
466.840803,-666.185348,-9474.636058,383.047749
466.841125,-1850.514855,-9548.656652,-2911.162892
466.841447,-2368.659014,-7772.162391,-4519.963438
466.841769,-2590.720797,-7105.977043,-3447.429741
466.842090,-2368.659014,-7846.182985,-2221.676944
466.842412,-3404.947333,-7994.224174,-919.314598
466.842734,-4293.194464,-10140.821405,-536.266849
466.843055,-4959.379811,-11473.192101,-1532.190996
466.843377,-4737.318029,-11399.171507,-2451.505594
466.843699,-3108.864956,-9474.636058,-3524.039291
466.844021,-1184.329507,-9178.553681,-2911.162892
466.844342,518.144159,-8734.430116,-229.828649
466.844664,888.247130,-8216.285956,1762.019645
466.844986,1184.329507,-7994.224174,536.266849
466.845308,1258.350101,-8512.368333,-1685.410096
466.845629,1258.350101,-8438.347739,-1302.362347
466.845951,1628.453072,-8512.368333,-306.438199
466.846273,1776.494261,-8290.306550,842.705048
466.846595,2516.700203,-7698.141797,766.095498
466.846916,2072.576638,-8512.368333,-612.876398
466.847238,222.061783,-10510.924376,-1532.190996
466.847560,-1628.453072,-10881.027347,-1762.019645
466.847882,-2072.576638,-11399.171507,-2834.553343
466.848203,-740.205942,-13027.624579,-3370.820191
466.848525,-148.041188,-11991.336260,-1608.800546
466.848847,-370.102971,-10066.800811,-919.314598
466.849169,-370.102971,-8142.265362,-1378.971896
466.849490,222.061783,-8142.265362,-1915.238745
466.849812,222.061783,-8660.409521,-3753.867940
466.850134,-444.123565,-8660.409521,-3677.258390
466.850456,-1702.473667,-9770.718434,-1532.190996
466.850777,-2220.617826,-11029.068536,-229.828649
466.851099,-2220.617826,-10658.965565,-383.047749
466.851421,-2072.576638,-11177.109724,-1225.752797
466.851743,-1406.391290,-10584.944971,-1838.629195
466.852064,-1110.308913,-9844.739029,-2145.067394
466.852386,-370.102971,-9474.636058,-689.485948
466.852708,370.102971,-7920.203579,1762.019645
466.853030,666.185348,-7254.018232,689.485948
466.853351,962.267725,-6957.935855,-1072.533697
466.853673,518.144159,-7402.059420,-1608.800546
466.853995,-148.041188,-8734.430116,-1532.190996
466.854317,-1332.370696,-9696.697840,-2145.067394
466.854638,-2368.659014,-11621.233289,-1915.238745
466.854960,-3478.967927,-11621.233289,-459.657299
466.855282,-4589.276840,-10214.842000,-1225.752797
466.855603,-4737.318029,-9178.553681,-3294.210641
466.855925,-3923.091493,-8512.368333,-4290.134789
466.856247,-3108.864956,-8882.471304,-3370.820191
466.856569,-2368.659014,-8586.388927,-2374.896044
466.856890,-1776.494261,-9178.553681,-536.266849
466.857212,-1184.329507,-9548.656652,76.609550
466.857534,-296.082377,-8956.491898,-1149.143247
466.857856,666.185348,-7846.182985,-1838.629195
466.858177,2294.638420,-6809.894666,-2757.943793
466.858499,4441.235652,-5995.668130,-1915.238745
466.858821,5107.421000,-6809.894666,-1225.752797
466.859143,4219.173869,-8068.244768,-536.266849
466.859464,2812.782580,-9030.512492,0.000000
466.859786,1480.411884,-10066.800811,-1378.971896
466.860108,1258.350101,-11399.171507,-2528.115143
466.860430,962.267725,-11029.068536,-2987.772442
466.860751,1258.350101,-10807.006753,-2604.724693
466.861073,1184.329507,-11325.150913,-1072.533697
466.861395,1036.288319,-11029.068536,0.000000
466.861717,962.267725,-9474.636058,-2221.676944
466.862038,666.185348,-7846.182985,-3524.039291
466.862360,962.267725,-7476.080014,-3217.601092
466.862682,148.041188,-8068.244768,-2681.334243
466.863004,-1332.370696,-8438.347739,-2451.505594
466.863325,-3108.864956,-9400.615463,-2681.334243
466.863647,-4589.276840,-10881.027347,-2145.067394
466.863969,-5477.523971,-11621.233289,-2604.724693
466.864291,-5699.585753,-10955.047942,-2834.553343
466.864612,-5107.421000,-10140.821405,-2298.286494
466.864934,-3552.988522,-10584.944971,-1532.190996
466.865256,-2072.576638,-10436.903782,-919.314598
466.865578,-1554.432478,-9918.759623,0.000000
466.865899,-1998.556043,-8290.306550,-919.314598
466.866221,-2072.576638,-7254.018232,-1532.190996
466.866543,-370.102971,-7031.956449,-1685.410096
466.866865,1036.288319,-6957.935855,-2451.505594
466.867186,1628.453072,-7550.100608,-2374.896044
466.867508,1924.535449,-8956.491898,-842.705048
466.867830,1332.370696,-11917.315666,919.314598
466.868151,444.123565,-13397.727550,842.705048
466.868473,148.041188,-12287.418637,-383.047749
466.868795,1036.288319,-11029.068536,-2451.505594
466.869117,2516.700203,-9696.697840,-2221.676944
466.869438,3330.926739,-8216.285956,-1149.143247
466.869760,3108.864956,-7031.956449,0.000000
466.870082,2368.659014,-6957.935855,-919.314598
466.870404,1554.432478,-7920.203579,-689.485948
466.870725,444.123565,-8956.491898,-995.924147
466.871047,-740.205942,-8660.409521,-1532.190996
466.871369,-1924.535449,-9326.594869,-1378.971896
466.871691,-3034.844362,-9474.636058,-383.047749
466.872012,-3997.112087,-8956.491898,0.000000
466.872334,-4145.153275,-8808.450710,-919.314598
466.872656,-3701.029710,-8956.491898,-2681.334243
466.872978,-2516.700203,-9474.636058,-3524.039291
466.873299,-1998.556043,-10140.821405,-3064.381992
466.873621,-1184.329507,-10807.006753,-995.924147
466.873943,-814.226536,-10658.965565,229.828649
466.874265,-296.082377,-9474.636058,-1608.800546
466.874586,0.000000,-7698.141797,-2374.896044
466.874908,518.144159,-7031.956449,-1608.800546
466.875230,666.185348,-6587.832884,-1149.143247
466.875552,518.144159,-7402.059420,-2451.505594
466.875873,-666.185348,-9844.739029,-1532.190996
466.876195,-2368.659014,-12065.356855,0.000000
466.876517,-3478.967927,-12509.480420,0.000000
466.876839,-2664.741391,-12139.377449,-2298.286494
466.877160,-666.185348,-11547.212695,-3753.867940
466.877482,222.061783,-10288.862594,-3830.477490
466.877804,-296.082377,-8364.327145,-1532.190996
466.878126,74.020594,-7994.224174,-612.876398
466.878447,1554.432478,-8142.265362,-2451.505594
466.878769,1776.494261,-8364.327145,-3600.648841
466.879091,1628.453072,-9400.615463,-2987.772442
466.879412,962.267725,-9918.759623,-995.924147
466.879734,962.267725,-10436.903782,-689.485948
466.880056,1258.350101,-10288.862594,-1608.800546
466.880378,592.164754,-10436.903782,-1762.019645
466.880699,-518.144159,-10436.903782,-2068.457845
466.881021,-1554.432478,-9622.677246,-2298.286494
466.881343,-1110.308913,-9622.677246,-1838.629195
466.881665,0.000000,-9918.759623,-1149.143247
466.881986,222.061783,-8364.327145,-842.705048
466.882308,-370.102971,-7254.018232,-995.924147
466.882630,-888.247130,-7846.182985,-919.314598
466.882952,-1554.432478,-7994.224174,-1991.848295
466.883273,-1702.473667,-8438.347739,-2298.286494
466.883595,-1480.411884,-9178.553681,-766.095498
466.883917,-1628.453072,-9844.739029,383.047749
466.884239,-1924.535449,-9474.636058,689.485948
466.884560,-2738.761985,-9104.533087,536.266849
466.884882,-2664.741391,-8808.450710,383.047749
466.885204,-1480.411884,-6883.915261,-2068.457845
466.885526,-296.082377,-5403.503377,-3294.210641
466.885847,1110.308913,-7328.038826,-1838.629195
466.886169,740.205942,-9326.594869,0.000000
466.886491,-1110.308913,-10214.842000,76.609550
466.886813,-1850.514855,-12657.521608,-766.095498
466.887134,-1702.473667,-13471.748144,-2145.067394
466.887456,-1480.411884,-11399.171507,-2604.724693
466.887778,-518.144159,-8290.306550,-2528.115143
466.888100,518.144159,-6809.894666,-1991.848295
466.888421,1184.329507,-7254.018232,-2528.115143
466.888743,666.185348,-8734.430116,-2681.334243
466.889065,-592.164754,-11399.171507,-2145.067394
466.889387,-1628.453072,-12361.439231,-1378.971896
466.889708,-1184.329507,-11991.336260,-1455.581446
466.890030,74.020594,-11991.336260,-612.876398
466.890352,1332.370696,-9696.697840,-383.047749
466.890674,2368.659014,-7105.977043,-919.314598
466.890995,3256.906145,-5699.585753,-1455.581446
466.891317,3034.844362,-6069.688724,-2834.553343
466.891639,2072.576638,-6883.915261,-2528.115143
466.891961,518.144159,-8660.409521,-1762.019645
466.892282,-370.102971,-11029.068536,-1685.410096
466.892604,-1480.411884,-12731.542202,-3524.039291
466.892926,-2590.720797,-13767.830521,-4213.525239
466.893248,-4219.173869,-14063.912898,-2145.067394
466.893569,-4515.256246,-11991.336260,-1838.629195
466.893891,-3330.926739,-9992.780217,-3753.867940
466.894213,-962.267725,-9030.512492,-2757.943793
466.894535,-74.020594,-7772.162391,-1072.533697
466.894856,222.061783,-5995.668130,-2374.896044
466.895178,592.164754,-6291.750507,-3370.820191
466.895500,814.226536,-8586.388927,-1455.581446
466.895822,518.144159,-10066.800811,-306.438199
466.896143,-592.164754,-9474.636058,-995.924147
466.896465,-666.185348,-9622.677246,-766.095498
466.896787,-1184.329507,-10807.006753,-919.314598
466.897109,-1998.556043,-10288.862594,-766.095498
466.897430,-2146.597232,-9178.553681,-842.705048
466.897752,-1036.288319,-7846.182985,-766.095498
466.898074,444.123565,-7402.059420,-1532.190996
466.898396,888.247130,-7698.141797,-1302.362347
466.898717,740.205942,-8364.327145,-536.266849
466.899039,0.000000,-9178.553681,-995.924147
466.899361,-148.041188,-10510.924376,-1455.581446
466.899683,-148.041188,-10584.944971,-689.485948
466.900005,296.082377,-9252.574275,-995.924147
466.900326,444.123565,-7846.182985,-612.876398
466.900648,296.082377,-6883.915261,-306.438199
466.900970,518.144159,-7254.018232,-1302.362347
466.901292,74.020594,-8142.265362,-1915.238745
466.901613,-1184.329507,-9696.697840,-1149.143247
466.901935,-2442.679609,-11177.109724,229.828649
466.902257,-2368.659014,-11769.274478,153.219100
466.902579,-814.226536,-11325.150913,-919.314598
466.902900,0.000000,-9400.615463,-842.705048
466.903222,296.082377,-6957.935855,-1302.362347
466.903544,444.123565,-6217.729913,-2298.286494
466.903866,962.267725,-7846.182985,-2681.334243
466.904187,222.061783,-10658.965565,-1991.848295
466.904509,-1480.411884,-12139.377449,-1149.143247
466.904831,-2886.803174,-11251.130318,689.485948
466.905153,-2220.617826,-10436.903782,76.609550
466.905474,-1110.308913,-10658.965565,-2604.724693
466.905796,-1332.370696,-11103.089130,-3830.477490
466.906118,-2516.700203,-11843.295072,-1532.190996
466.906440,-2442.679609,-11399.171507,766.095498
466.906761,-1184.329507,-9474.636058,229.828649
466.907083,-296.082377,-6587.832884,-153.219100
466.907405,814.226536,-4441.235652,-2298.286494
466.907727,1332.370696,-4145.153275,-4596.572988
466.908048,1110.308913,-6587.832884,-3983.696590
466.908370,-666.185348,-10881.027347,-612.876398
466.908692,-2146.597232,-13619.789333,1455.581446
466.909014,-3478.967927,-14952.160028,1685.410096
466.909335,-3552.988522,-13693.809927,0.000000
466.909657,-2664.741391,-10140.821405,-3447.429741
466.909979,-444.123565,-6365.771101,-4213.525239
466.910301,2516.700203,-3701.029710,-4213.525239
466.910622,4885.359217,-4737.318029,-2528.115143
466.910944,4663.297435,-9178.553681,383.047749
466.911266,1480.411884,-11177.109724,2681.334243
466.911588,-888.247130,-11325.150913,1302.362347
466.911909,-222.061783,-11103.089130,-2451.505594
466.912231,1258.350101,-9474.636058,-4903.011187
466.912553,2442.679609,-7105.977043,-4749.792088
466.912875,2664.741391,-6217.729913,-1762.019645
466.913196,2146.597232,-7476.080014,1149.143247
466.913518,370.102971,-10436.903782,153.219100
466.913840,-1998.556043,-11843.295072,-2681.334243
466.914162,-4885.359217,-11917.315666,-4366.744339
466.914483,-5181.441594,-11843.295072,-4903.011187
466.914805,-3108.864956,-10140.821405,-4060.306139
466.915127,-962.267725,-8882.471304,-2145.067394
466.915449,0.000000,-7920.203579,-766.095498
466.915770,0.000000,-7846.182985,-1072.533697
466.916092,-1184.329507,-9770.718434,-2987.772442
466.916414,-2220.617826,-10510.924376,-3447.429741
466.916736,-2368.659014,-9770.718434,-3217.601092
466.917057,-962.267725,-8142.265362,-2757.943793
466.917379,962.267725,-8216.285956,-1608.800546
466.917701,814.226536,-9326.594869,-1378.971896
466.918023,-1850.514855,-10584.944971,-995.924147
466.918344,-3923.091493,-11917.315666,-842.705048
466.918666,-3478.967927,-12361.439231,-1532.190996
466.918988,-1406.391290,-10955.047942,-2298.286494
466.919310,592.164754,-9104.533087,-2374.896044
466.919631,1998.556043,-6883.915261,0.000000
466.919953,3552.988522,-5107.421000,383.047749
466.920275,4589.276840,-5477.523971,-1225.752797
466.920597,3182.885551,-7254.018232,-2451.505594
466.920918,1406.391290,-8808.450710,-1762.019645
466.921240,0.000000,-10362.883188,-612.876398
466.921562,148.041188,-11769.274478,-766.095498
466.921884,518.144159,-12139.377449,-1225.752797
466.922205,-814.226536,-11251.130318,-536.266849
466.922527,-1628.453072,-9474.636058,995.924147
466.922849,-592.164754,-7772.162391,-383.047749
466.923171,444.123565,-7105.977043,-3217.601092
466.923492,0.000000,-7698.141797,-3064.381992
466.923814,-1628.453072,-9030.512492,-995.924147
466.924136,-2368.659014,-10140.821405,229.828649
466.924458,-1702.473667,-10732.986159,-459.657299
466.924779,-1036.288319,-10288.862594,-766.095498
466.925101,-962.267725,-8808.450710,-995.924147
466.925423,-1036.288319,-7624.121203,-1762.019645
466.925745,-518.144159,-8438.347739,-1302.362347
466.926066,-222.061783,-9844.739029,-1838.629195
466.926388,-1110.308913,-10955.047942,-1762.019645
466.926710,-1406.391290,-10436.903782,-383.047749
466.927032,-888.247130,-10658.965565,306.438199
466.927353,0.000000,-11399.171507,-1302.362347
466.927675,0.000000,-11621.233289,-919.314598
466.927997,-962.267725,-9548.656652,306.438199
466.928319,-962.267725,-7846.182985,306.438199
466.928640,148.041188,-7624.121203,-153.219100
466.928962,666.185348,-7328.038826,-612.876398
466.929284,296.082377,-5403.503377,-306.438199
466.929606,222.061783,-5181.441594,-1302.362347
466.929927,0.000000,-8290.306550,-1685.410096
466.930249,-1184.329507,-11621.233289,-1378.971896
466.930571,-3627.009116,-13471.748144,-919.314598
466.930893,-4663.297435,-14137.933492,-919.314598
466.931214,-3552.988522,-13249.686362,-459.657299
466.931536,-888.247130,-10955.047942,-842.705048
466.931858,1184.329507,-7624.121203,-2451.505594
466.932180,2072.576638,-4145.153275,-3064.381992
466.932501,3478.967927,-3108.864956,-2298.286494
466.932823,4811.338623,-5773.606348,-2451.505594
466.933145,3478.967927,-8956.491898,-2681.334243
466.933467,370.102971,-11177.109724,-1608.800546
466.933788,-1850.514855,-13915.871710,0.000000
466.934110,-2146.597232,-15248.242405,-306.438199
466.934432,-2220.617826,-12361.439231,-2451.505594
466.934754,-1702.473667,-9252.574275,-3217.601092
466.935075,-962.267725,-6365.771101,-2451.505594
466.935397,222.061783,-5625.565159,-2298.286494
466.935719,1332.370696,-6957.935855,-1685.410096
466.936041,1110.308913,-8586.388927,-1302.362347
466.936362,-592.164754,-9326.594869,-1378.971896
466.936684,-1406.391290,-10658.965565,-2451.505594
466.937006,-740.205942,-10584.944971,-2604.724693
466.937328,444.123565,-9474.636058,-3600.648841
466.937649,518.144159,-7846.182985,-3447.429741
466.937971,740.205942,-8808.450710,-2068.457845
466.938293,0.000000,-9992.780217,-1608.800546
466.938615,-2072.576638,-10584.944971,-2911.162892
466.938937,-3997.112087,-11843.295072,-3447.429741
466.939258,-4367.215058,-11991.336260,-2451.505594
466.939580,-3034.844362,-9918.759623,-1915.238745
466.939902,-962.267725,-9474.636058,-1685.410096
466.940224,148.041188,-8734.430116,-995.924147
466.940545,518.144159,-7846.182985,-919.314598
466.940867,814.226536,-7031.956449,-1302.362347
466.941189,1480.411884,-7772.162391,-1225.752797
466.941511,2220.617826,-7624.121203,-995.924147
466.941832,2368.659014,-7105.977043,-1915.238745
466.942154,2442.679609,-7550.100608,-1378.971896
466.942476,2072.576638,-9474.636058,-612.876398
466.942798,1406.391290,-10658.965565,-1378.971896
466.943119,296.082377,-11917.315666,-2451.505594
466.943441,-222.061783,-13027.624579,-2221.676944
466.943763,-518.144159,-13841.851115,-919.314598
466.944085,-740.205942,-11769.274478,-995.924147
466.944406,-148.041188,-8956.491898,-689.485948
466.944728,1258.350101,-6587.832884,-689.485948
466.945050,2368.659014,-5255.462188,-1685.410096
466.945372,1628.453072,-5181.441594,-1762.019645
466.945693,148.041188,-7031.956449,-536.266849
466.946015,-1184.329507,-9252.574275,612.876398
466.946337,-1998.556043,-11251.130318,995.924147
466.946659,-2738.761985,-12509.480420,919.314598
466.946980,-3182.885551,-11695.253884,153.219100
466.947302,-2812.782580,-9770.718434,-1685.410096
466.947624,-1184.329507,-9030.512492,-3217.601092
466.947946,296.082377,-9104.533087,-2221.676944
466.948267,296.082377,-9474.636058,-383.047749
466.948589,-222.061783,-10288.862594,383.047749
466.948911,-1036.288319,-10732.986159,76.609550
466.949233,-1480.411884,-11029.068536,-1149.143247
466.949554,-1554.432478,-9918.759623,-1378.971896
466.949876,-1184.329507,-8216.285956,-383.047749
466.950198,-666.185348,-7105.977043,-919.314598
466.950520,-740.205942,-7402.059420,-1915.238745
466.950841,-1406.391290,-9474.636058,-1149.143247
466.951163,-2664.741391,-10140.821405,536.266849
466.951485,-3404.947333,-10658.965565,-612.876398
466.951807,-2442.679609,-9992.780217,-1838.629195
466.952128,-962.267725,-9918.759623,-1685.410096
466.952450,370.102971,-9622.677246,0.000000
466.952772,444.123565,-8216.285956,612.876398
466.953094,962.267725,-7772.162391,536.266849
466.953415,1332.370696,-8068.244768,-459.657299
466.953737,2220.617826,-7772.162391,-1608.800546
466.954059,2664.741391,-7698.141797,-2298.286494
466.954381,2738.761985,-7476.080014,-612.876398
466.954702,2664.741391,-9326.594869,612.876398
466.955024,1850.514855,-10510.924376,0.000000
466.955346,296.082377,-10436.903782,-766.095498
466.955668,-1258.350101,-10807.006753,-1455.581446
466.955989,-1776.494261,-10584.944971,-2221.676944
466.956311,-1110.308913,-9400.615463,-2374.896044
466.956633,0.000000,-8216.285956,-1302.362347
466.956955,370.102971,-7772.162391,0.000000
466.957276,0.000000,-7624.121203,-612.876398
466.957598,-888.247130,-7772.162391,-2221.676944
466.957920,-1702.473667,-8364.327145,-3064.381992
466.958242,-2072.576638,-9400.615463,-3753.867940
466.958563,-2294.638420,-10436.903782,-3983.696590
466.958885,-2738.761985,-11103.089130,-2757.943793
466.959207,-3552.988522,-11251.130318,-1378.971896
466.959529,-3256.906145,-10881.027347,-2068.457845
466.959850,-3034.844362,-10436.903782,-3753.867940
466.960172,-2072.576638,-9844.739029,-4519.963438
466.960494,-666.185348,-9104.533087,-3370.820191
466.960816,74.020594,-9844.739029,-1685.410096
466.961137,592.164754,-10732.986159,-306.438199
466.961459,518.144159,-10732.986159,612.876398
466.961781,518.144159,-9326.594869,0.000000
466.962103,1850.514855,-7402.059420,-1762.019645
466.962424,3997.112087,-6513.812290,-2757.943793
466.962746,4885.359217,-6143.709319,-2604.724693
466.963068,4515.256246,-7402.059420,-842.705048
466.963390,2886.803174,-9844.739029,842.705048
466.963711,814.226536,-11547.212695,0.000000
466.964033,-444.123565,-12583.501014,-1838.629195
466.964355,-1184.329507,-11769.274478,-2451.505594
466.964677,-1110.308913,-10066.800811,-3677.258390
466.964998,-370.102971,-8956.491898,-2757.943793
466.965320,148.041188,-8512.368333,-459.657299
466.965642,222.061783,-8586.388927,-306.438199
466.965964,-1110.308913,-8142.265362,-2298.286494
466.966285,-1850.514855,-9178.553681,-2451.505594
466.966607,-2664.741391,-9474.636058,-1608.800546
466.966929,-2886.803174,-8216.285956,-995.924147
466.967251,-2072.576638,-6883.915261,-919.314598
466.967572,-296.082377,-7476.080014,-995.924147
466.967894,-370.102971,-8438.347739,-1608.800546
466.968216,-1776.494261,-10658.965565,-689.485948
466.968538,-2146.597232,-12361.439231,229.828649
466.968859,-666.185348,-12435.459826,76.609550
466.969181,1036.288319,-12065.356855,-1302.362347
466.969503,1702.473667,-9770.718434,229.828649
466.969825,1776.494261,-7254.018232,1302.362347
466.970146,2368.659014,-5255.462188,-766.095498
466.970468,2220.617826,-6217.729913,-3064.381992
466.970790,1258.350101,-9030.512492,-1608.800546
466.971112,-814.226536,-11177.109724,-153.219100
466.971433,-3108.864956,-12805.562797,1149.143247
466.971755,-3775.050304,-13471.748144,1149.143247
466.972077,-3404.947333,-12435.459826,0.000000
466.972399,-3108.864956,-9918.759623,-2221.676944
466.972720,-1924.535449,-6513.812290,-1915.238745
466.973042,-148.041188,-5625.565159,-842.705048
466.973364,1258.350101,-6587.832884,-689.485948
466.973686,666.185348,-7254.018232,-919.314598
466.974007,-222.061783,-8142.265362,-459.657299
466.974329,-296.082377,-10140.821405,-1532.190996
466.974651,592.164754,-11325.150913,-3217.601092
466.974973,74.020594,-11177.109724,-3217.601092
466.975294,-444.123565,-10881.027347,-1455.581446
466.975616,-518.144159,-11029.068536,-153.219100
466.975938,-444.123565,-9992.780217,-1532.190996
466.976260,-888.247130,-9030.512492,-3447.429741
466.976582,-592.164754,-8956.491898,-2221.676944
466.976903,518.144159,-8438.347739,-2374.896044
466.977225,1332.370696,-8068.244768,-2757.943793
466.977547,1998.556043,-9104.533087,-766.095498
466.977869,2294.638420,-9770.718434,1072.533697
466.978190,2146.597232,-9992.780217,-1532.190996
466.978512,740.205942,-10214.842000,-2298.286494
466.978834,222.061783,-9474.636058,-1072.533697
466.979156,592.164754,-8734.430116,-1149.143247
466.979477,962.267725,-7920.203579,-2374.896044
466.979799,888.247130,-7846.182985,-1762.019645
466.980121,74.020594,-9252.574275,-1149.143247
466.980443,-1924.535449,-9992.780217,-1455.581446
466.980764,-3775.050304,-11029.068536,-2221.676944
466.981086,-3775.050304,-11843.295072,-2145.067394
466.981408,-2886.803174,-11843.295072,-2374.896044
466.981730,-2590.720797,-10658.965565,-1762.019645
466.982051,-1998.556043,-8586.388927,153.219100
466.982373,-592.164754,-6587.832884,76.609550
466.982695,222.061783,-5699.585753,-1838.629195
466.983017,666.185348,-5847.626942,-2451.505594
466.983338,888.247130,-6513.812290,-1838.629195
466.983660,814.226536,-8882.471304,-766.095498
466.983982,222.061783,-11029.068536,-229.828649
466.984304,-666.185348,-11473.192101,-459.657299
466.984625,-740.205942,-11843.295072,-1149.143247
466.984947,0.000000,-10807.006753,-1532.190996
466.985269,296.082377,-9400.615463,-2681.334243
466.985591,1480.411884,-8216.285956,-2221.676944
466.985912,2220.617826,-8586.388927,-459.657299
466.986234,1554.432478,-9104.533087,76.609550
466.986556,592.164754,-9030.512492,0.000000
466.986878,0.000000,-9474.636058,-1149.143247
466.987199,222.061783,-9474.636058,-1225.752797
466.987521,222.061783,-9030.512492,-1608.800546
466.987843,148.041188,-8438.347739,-1915.238745
466.988165,0.000000,-9030.512492,-919.314598
466.988486,0.000000,-10214.842000,-1072.533697
466.988808,-1406.391290,-10955.047942,-1455.581446
466.989130,-2442.679609,-9918.759623,-1685.410096
466.989452,-2368.659014,-9474.636058,-1838.629195
466.989773,-1036.288319,-9622.677246,-2068.457845
466.990095,74.020594,-10140.821405,-1685.410096
466.990417,-666.185348,-9770.718434,-1149.143247
466.990739,-1850.514855,-9622.677246,76.609550
466.991060,-2146.597232,-10584.944971,-459.657299
466.991382,-1480.411884,-11029.068536,-2068.457845
466.991704,-1258.350101,-9696.697840,-1762.019645
466.992026,-1184.329507,-8512.368333,-1991.848295
466.992348,-1332.370696,-7920.203579,-995.924147
466.992669,-1258.350101,-9178.553681,-919.314598
466.992991,-2072.576638,-10066.800811,-842.705048
466.993313,-3182.885551,-10436.903782,-1378.971896
466.993635,-3034.844362,-9696.697840,-1838.629195
466.993956,-740.205942,-10140.821405,-766.095498
466.994278,888.247130,-9548.656652,0.000000
466.994600,1406.391290,-8290.306550,-459.657299
466.994922,1850.514855,-7328.038826,-689.485948
466.995243,2812.782580,-8216.285956,-1532.190996
466.995565,2590.720797,-8512.368333,-2451.505594
466.995887,1406.391290,-7846.182985,-1915.238745
466.996209,592.164754,-7772.162391,-612.876398
466.996530,814.226536,-8364.327145,-459.657299
466.996852,370.102971,-9548.656652,-2298.286494
466.997174,-1258.350101,-10436.903782,-2911.162892
466.997496,-2886.803174,-11621.233289,-1225.752797
466.997818,-2442.679609,-12509.480420,0.000000
466.998139,-1406.391290,-11621.233289,-153.219100
466.998461,-296.082377,-9326.594869,-306.438199
466.998783,222.061783,-5847.626942,-1302.362347
466.999105,1776.494261,-4885.359217,-1532.190996
466.999426,2738.761985,-5255.462188,-2374.896044
466.999748,2960.823768,-6809.894666,-2145.067394
467.000070,1110.308913,-8660.409521,-1532.190996
467.000392,-370.102971,-11251.130318,306.438199
467.000713,-1184.329507,-13027.624579,306.438199
467.001035,-1702.473667,-13175.665768,-612.876398
467.001357,-2220.617826,-12139.377449,-2451.505594
467.001679,-2368.659014,-10584.944971,-1915.238745
467.002000,-1332.370696,-9696.697840,-1608.800546
467.002322,74.020594,-7846.182985,-2221.676944
467.002644,-222.061783,-7402.059420,-536.266849
467.002966,-592.164754,-8068.244768,0.000000
467.003287,-1184.329507,-8808.450710,-1838.629195
467.003609,-1406.391290,-9770.718434,-2757.943793
467.003931,-1628.453072,-9992.780217,-2221.676944
467.004253,-1110.308913,-9992.780217,-1225.752797
467.004575,-740.205942,-9548.656652,-842.705048
467.004896,74.020594,-9104.533087,0.000000
467.005218,-518.144159,-9252.574275,-1072.533697
467.005540,-1258.350101,-9770.718434,-2528.115143
467.005862,-1480.411884,-9252.574275,-1991.848295
467.006183,-148.041188,-9252.574275,-1378.971896
467.006505,1184.329507,-9326.594869,-766.095498
467.006827,2072.576638,-8956.491898,-459.657299
467.007149,2146.597232,-8068.244768,-842.705048
467.007470,2072.576638,-7476.080014,-1378.971896
467.007792,962.267725,-8586.388927,-2374.896044
467.008114,444.123565,-9622.677246,-2681.334243
467.008436,0.000000,-9844.739029,-1991.848295
467.008757,-518.144159,-9918.759623,-1225.752797
467.009079,-962.267725,-9770.718434,0.000000
467.009401,-1036.288319,-8734.430116,-766.095498
467.009723,-1036.288319,-8956.491898,-3830.477490
467.010044,-1628.453072,-10214.842000,-4290.134789
467.010366,-1702.473667,-11917.315666,-2757.943793
467.010688,-1406.391290,-12065.356855,-1378.971896
467.011010,-814.226536,-9918.759623,-536.266849
467.011332,-444.123565,-7624.121203,0.000000
467.011653,740.205942,-6439.791695,-2145.067394
467.011975,444.123565,-6069.688724,-4366.744339
467.012297,-740.205942,-7698.141797,-4136.915689
467.012619,-2146.597232,-10436.903782,-1302.362347
467.012940,-3034.844362,-13249.686362,-536.266849
467.013262,-3701.029710,-14211.954086,0.000000
467.013584,-3923.091493,-12657.521608,-306.438199
467.013906,-3182.885551,-9770.718434,-2604.724693
467.014227,-1480.411884,-7550.100608,-5286.058936
467.014549,814.226536,-6513.812290,-4903.011187
467.014871,2220.617826,-7402.059420,-1991.848295
467.015193,2442.679609,-8808.450710,919.314598
467.015514,1998.556043,-9400.615463,1225.752797
467.015836,1998.556043,-9474.636058,-306.438199
467.016158,2146.597232,-9326.594869,-2298.286494
467.016480,1850.514855,-8586.388927,-2528.115143
467.016802,2072.576638,-6291.750507,-1455.581446
467.017123,2960.823768,-6217.729913,-995.924147
467.017445,2294.638420,-7105.977043,-919.314598
467.017767,518.144159,-8586.388927,-383.047749
467.018089,-1332.370696,-9400.615463,-1225.752797
467.018410,-2516.700203,-10658.965565,-3140.991542
467.018732,-2442.679609,-11177.109724,-2834.553343
467.019054,-2368.659014,-10362.883188,-995.924147
467.019376,-1110.308913,-8438.347739,-612.876398
467.019697,0.000000,-7105.977043,-2451.505594
467.020019,296.082377,-7698.141797,-2374.896044
467.020341,-370.102971,-9030.512492,-2451.505594
467.020663,-1258.350101,-8956.491898,-3447.429741
467.020984,-1332.370696,-9030.512492,-3370.820191
467.021306,-296.082377,-9918.759623,-2528.115143
467.021628,444.123565,-9474.636058,-2221.676944
467.021950,74.020594,-8808.450710,-2987.772442
467.022271,-1776.494261,-9548.656652,-3600.648841
467.022593,-3627.009116,-11547.212695,-3217.601092
467.022915,-4293.194464,-12435.459826,-3447.429741
467.023237,-3849.070898,-12583.501014,-3524.039291
467.023559,-2590.720797,-11917.315666,-2298.286494
467.023880,-962.267725,-9770.718434,-1608.800546
467.024202,888.247130,-7402.059420,-2374.896044
467.024524,2516.700203,-5921.647536,-4060.306139
467.024846,3182.885551,-6217.729913,-4366.744339
467.025167,2812.782580,-8068.244768,-4213.525239
467.025489,1258.350101,-10510.924376,-3294.210641
467.025811,518.144159,-12213.398043,-2451.505594
467.026133,74.020594,-11917.315666,-2451.505594
467.026454,74.020594,-10807.006753,-3524.039291
467.026776,0.000000,-9252.574275,-4903.011187
467.027098,-666.185348,-7254.018232,-4290.134789
467.027420,-592.164754,-7254.018232,-3983.696590
467.027741,-444.123565,-8956.491898,-4060.306139
467.028063,-222.061783,-9844.739029,-4290.134789
467.028385,-148.041188,-9104.533087,-3830.477490
467.028707,518.144159,-7846.182985,-3064.381992
467.029029,666.185348,-7179.997637,-4290.134789
467.029350,740.205942,-6217.729913,-5592.497135
467.029672,222.061783,-7179.997637,-6128.763984
467.029994,0.000000,-9844.739029,-4903.011187
467.030316,-962.267725,-10732.986159,-3983.696590
467.030637,-1184.329507,-11029.068536,-3753.867940
467.030959,-1406.391290,-10732.986159,-3907.087040
467.031281,-1850.514855,-10658.965565,-3983.696590
467.031603,-2368.659014,-9252.574275,-4826.401637
467.031924,-2146.597232,-8734.430116,-5286.058936
467.032246,-1184.329507,-9918.759623,-5209.449386
467.032568,-222.061783,-11843.295072,-3447.429741
467.032890,296.082377,-9918.759623,-1378.971896
467.033211,1480.411884,-7772.162391,-1072.533697
467.033533,3330.926739,-6513.812290,-2374.896044
467.033855,3775.050304,-4663.297435,-5745.716235
467.034177,2812.782580,-4663.297435,-7507.735880
467.034498,1036.288319,-6957.935855,-5975.544884
467.034820,-740.205942,-11029.068536,-4979.620737
467.035142,-1480.411884,-13619.789333,-4903.011187
467.035464,-1702.473667,-14656.077652,-5209.449386
467.035786,-3182.885551,-12805.562797,-6128.763984
467.036107,-3701.029710,-11325.150913,-6435.202183
467.036429,-3330.926739,-8364.327145,-5745.716235
467.036751,-2072.576638,-6513.812290,-5056.230287
467.037073,-740.205942,-5625.565159,-4136.915689
467.037394,148.041188,-7179.997637,-3217.601092
467.037716,740.205942,-9178.553681,-1915.238745
467.038038,1406.391290,-9918.759623,229.828649
467.038360,2960.823768,-9104.533087,0.000000
467.038681,4367.215058,-7402.059420,-2298.286494
467.039003,4959.379811,-4737.318029,-3140.991542
467.039325,4885.359217,-3775.050304,-3447.429741
467.039647,4219.173869,-5255.462188,-4136.915689
467.039968,2368.659014,-7920.203579,-5822.325785
467.040290,740.205942,-9992.780217,-6358.592633
467.040612,-1924.535449,-11991.336260,-5209.449386
467.040934,-3478.967927,-14434.015869,-4673.182538
467.041255,-4885.359217,-15396.283594,-4673.182538
467.041577,-5921.647536,-12953.603985,-5056.230287
467.041899,-6735.874072,-10955.047942,-5898.935335
467.042221,-6365.771101,-9474.636058,-5132.839837
467.042543,-5403.503377,-8512.368333,-3600.648841
467.042864,-4737.318029,-6587.832884,-3140.991542
467.043186,-2516.700203,-5477.523971,-3524.039291
467.043508,888.247130,-6069.688724,-3830.477490
467.043830,4737.318029,-6661.853478,-3370.820191
467.044151,5699.585753,-6069.688724,-3294.210641
467.044473,5255.462188,-6217.729913,-3600.648841
467.044795,4441.235652,-7994.224174,-4519.963438
467.045117,2738.761985,-10066.800811,-5822.325785
467.045438,0.000000,-11843.295072,-7277.907231
467.045760,-2516.700203,-12361.439231,-7584.345430
467.046082,-3552.988522,-13175.665768,-8044.002729
467.046404,-2812.782580,-13693.809927,-7201.297681
467.046725,-1406.391290,-12509.480420,-6665.030833
467.047047,-666.185348,-11251.130318,-5898.935335
467.047369,0.000000,-11547.212695,-4903.011187
467.047691,-1258.350101,-11695.253884,-2911.162892
467.048013,-2516.700203,-10732.986159,-1225.752797
467.048334,-2368.659014,-8216.285956,-1608.800546
467.048656,-740.205942,-5699.585753,-3217.601092
467.048978,1406.391290,-4219.173869,-4213.525239
467.049300,2738.761985,-3701.029710,-2987.772442
467.049621,5033.400406,-4959.379811,-1685.410096
467.049943,5921.647536,-7179.997637,-995.924147
467.050265,5181.441594,-9474.636058,-1302.362347
467.050587,3034.844362,-9770.718434,-2834.553343
467.050908,592.164754,-8882.471304,-5515.887586
467.051230,-1554.432478,-8956.491898,-8733.488677
467.051552,-2960.823768,-9178.553681,-7967.393179
467.051874,-4737.318029,-8734.430116,-6971.469032
467.052195,-5477.523971,-9030.512492,-6511.811733
467.052517,-5625.565159,-9622.677246,-5439.278036
467.052839,-5477.523971,-11547.212695,-4749.792088
467.053161,-5477.523971,-11325.150913,-4596.572988
467.053482,-4515.256246,-8956.491898,-3753.867940
467.053804,-2220.617826,-7624.121203,-2298.286494
467.054126,296.082377,-6957.935855,-1532.190996
467.054448,1776.494261,-4959.379811,-766.095498
467.054770,2886.803174,-4663.297435,-2145.067394
467.055091,4515.256246,-6069.688724,-1915.238745
467.055413,6069.688724,-8290.306550,-2757.943793
467.055735,6291.750507,-9326.594869,-4826.401637
467.056057,6069.688724,-10066.800811,-4673.182538
467.056378,4811.338623,-10510.924376,-4366.744339
467.056700,2146.597232,-10510.924376,-4826.401637
467.057022,-222.061783,-11769.274478,-6205.373534
467.057344,-1924.535449,-12287.418637,-7660.954980
467.057665,-2294.638420,-13175.665768,-8656.879127
467.057987,-2294.638420,-13175.665768,-6741.640382
467.058309,-814.226536,-10732.986159,-4366.744339
467.058631,518.144159,-7328.038826,-3983.696590
467.058952,1702.473667,-5995.668130,-4903.011187
467.059274,1036.288319,-6291.750507,-5132.839837
467.059596,-814.226536,-7105.977043,-5362.668486
467.059918,-2516.700203,-9178.553681,-4596.572988
467.060240,-4145.153275,-10732.986159,-3447.429741
467.060561,-3775.050304,-10955.047942,-3140.991542
467.060883,-2590.720797,-9400.615463,-3677.258390
467.061205,-1184.329507,-8438.347739,-4443.353888
467.061527,0.000000,-7846.182985,-5515.887586
467.061848,444.123565,-8660.409521,-5822.325785
467.062170,74.020594,-10510.924376,-5822.325785
467.062492,-296.082377,-12287.418637,-4596.572988
467.062814,-296.082377,-11991.336260,-3370.820191
467.063135,296.082377,-9326.594869,-4596.572988
467.063457,1184.329507,-7105.977043,-5286.058936
467.063779,1554.432478,-6439.791695,-5132.839837
467.064101,0.000000,-6365.771101,-3830.477490
467.064422,-2664.741391,-7031.956449,-2298.286494
467.064744,-4663.297435,-7994.224174,-1915.238745
467.065066,-5847.626942,-9178.553681,-2681.334243
467.065388,-5403.503377,-9548.656652,-4443.353888
467.065709,-3923.091493,-8068.244768,-5132.839837
467.066031,-1850.514855,-6735.874072,-5592.497135
467.066353,1036.288319,-6957.935855,-5439.278036
467.066675,2738.761985,-8068.244768,-4826.401637
467.066997,2812.782580,-9770.718434,-3983.696590
467.067318,1406.391290,-11251.130318,-4443.353888
467.067640,740.205942,-13101.645173,-5209.449386
467.067962,1406.391290,-14359.995275,-5745.716235
467.068284,2960.823768,-12805.562797,-4443.353888
467.068605,4589.276840,-9474.636058,-2604.724693
467.068927,6217.729913,-5551.544565,-1608.800546
467.069249,7179.997637,-2812.782580,-2528.115143
467.069571,7179.997637,-2220.617826,-4136.915689
467.069892,4737.318029,-3627.009116,-5362.668486
467.070214,1628.453072,-5847.626942,-5362.668486
467.070536,-1480.411884,-8512.368333,-5056.230287
467.070858,-3034.844362,-11547.212695,-5669.106685
467.071179,-5033.400406,-15544.324782,-6205.373534
467.071501,-8142.265362,-17320.819043,-4979.620737
467.071823,-11029.068536,-15914.427753,-4519.963438
467.072145,-11621.233289,-14508.036463,-4596.572988
467.072467,-9918.759623,-11769.274478,-5056.230287
467.072788,-6439.791695,-7846.182985,-6052.154434
467.073110,-1850.514855,-4663.297435,-8044.002729
467.073432,3034.844362,-3256.906145,-7890.783629
467.073754,6735.874072,-4071.132681,-3217.601092
467.074075,8512.368333,-3034.844362,-306.438199
467.074397,9252.574275,-5477.523971,-3447.429741
467.074719,9696.697840,-11695.253884,-7048.078582
467.075041,8808.450710,-15692.365970,-6205.373534
467.075362,4293.194464,-14952.160028,-2451.505594
467.075684,-2664.741391,-13397.727550,1225.752797
467.076006,-4441.235652,-11991.336260,1685.410096
467.076328,-5847.626942,-7698.141797,-3677.258390
467.076649,-8142.265362,-6587.832884,-8810.098227
467.076971,-8956.491898,-8734.430116,-5975.544884
467.077293,-7105.977043,-11103.089130,-3447.429741
467.077615,-4737.318029,-9474.636058,-3753.867940
467.077936,-444.123565,-8512.368333,-842.705048
467.078258,3182.885551,-6883.915261,1072.533697
467.078580,4737.318029,-3923.091493,-2298.286494
467.078902,5773.606348,-518.144159,-6052.154434
467.079224,6809.894666,888.247130,-7890.783629
467.079545,7846.182985,-2368.659014,-8350.440928
467.079867,7994.224174,-8068.244768,-7048.078582
467.080189,6661.853478,-14582.057057,-6281.983084
467.080511,5107.421000,-18653.189738,-5362.668486
467.080832,1406.391290,-19023.292709,-2451.505594
467.081154,-3627.009116,-18653.189738,-1225.752797
467.081476,-7698.141797,-13915.871710,-3294.210641
467.081798,-8586.388927,-8290.306550,-5132.839837
467.082119,-7994.224174,-4959.379811,-4903.011187
467.082441,-7179.997637,-4959.379811,-2681.334243
467.082763,-7179.997637,-6587.832884,842.705048
467.083085,-7624.121203,-6735.874072,3064.381992
467.083406,-6957.935855,-7846.182985,2451.505594
467.083728,-4885.359217,-9474.636058,612.876398
467.084050,-3330.926739,-8882.471304,-3294.210641
467.084372,-370.102971,-7994.224174,-5745.716235
467.084693,2960.823768,-7846.182985,-6281.983084
467.085015,6069.688724,-10214.842000,-5822.325785
467.085337,7550.100608,-12065.356855,-4903.011187
467.085659,6809.894666,-11399.171507,-4596.572988
467.085981,3182.885551,-11843.295072,-5669.106685
467.086302,592.164754,-12953.603985,-4290.134789
467.086624,-1924.535449,-10658.965565,-4136.915689
467.086946,-4515.256246,-7476.080014,-5745.716235
467.087268,-5773.606348,-6735.874072,-3447.429741
467.087589,-6587.832884,-6069.688724,0.000000
467.087911,-7179.997637,-4145.153275,383.047749
467.088233,-6439.791695,-3108.864956,-2374.896044
467.088555,-4071.132681,-5403.503377,-4366.744339
467.088876,-3923.091493,-8068.244768,-3524.039291
467.089198,-5699.585753,-7994.224174,0.000000
467.089520,-7031.956449,-8512.368333,459.657299
467.089841,-5773.606348,-10436.903782,-2681.334243
467.090163,-3256.906145,-11473.192101,-4826.401637
467.090485,-2220.617826,-11843.295072,-6435.202183
467.090807,-740.205942,-13249.686362,-7354.516781
467.091128,1184.329507,-14730.098246,-4213.525239
467.091450,1850.514855,-14285.974681,-306.438199
467.091772,-1036.288319,-11769.274478,0.000000
467.092094,-4293.194464,-9104.533087,-1838.629195
467.092415,-7105.977043,-7772.162391,-4596.572988
467.092737,-9252.574275,-7698.141797,-6435.202183
467.093059,-10732.986159,-7179.997637,-4136.915689
467.093381,-10140.821405,-6143.709319,-459.657299
467.093702,-8364.327145,-5847.626942,229.828649
467.094024,-5699.585753,-6735.874072,-612.876398
467.094346,-3478.967927,-6291.750507,-2374.896044
467.094668,-2368.659014,-6587.832884,-4136.915689
467.094989,-1110.308913,-7624.121203,-6894.859482
467.095311,-444.123565,-9844.739029,-6435.202183
467.095633,-518.144159,-10658.965565,-5209.449386
467.095955,-74.020594,-12953.603985,-3983.696590
467.096276,444.123565,-15248.242405,-3294.210641
467.096598,296.082377,-16136.489536,-3907.087040
467.096920,-740.205942,-14508.036463,-3677.258390
467.097241,-2516.700203,-12509.480420,-1991.848295
467.097563,-3034.844362,-10510.924376,-689.485948
467.097885,-3997.112087,-8364.327145,-306.438199
467.098207,-5477.523971,-6069.688724,0.000000
467.098528,-7105.977043,-4663.297435,1685.410096
467.098850,-7698.141797,-4441.235652,2604.724693
467.099172,-7698.141797,-4219.173869,1838.629195
467.099494,-5773.606348,-4145.153275,995.924147
467.099815,-1554.432478,-4293.194464,-842.705048
467.100137,3256.906145,-6735.874072,-4596.572988
467.100459,5551.544565,-9770.718434,-4673.182538
467.100781,4515.256246,-10066.800811,-1532.190996
467.101102,1628.453072,-11769.274478,459.657299
467.101424,-592.164754,-15248.242405,-536.266849
467.101746,-3552.988522,-16950.716072,-3447.429741
467.102068,-8290.306550,-13767.830521,-4903.011187
467.102389,-11621.233289,-10732.986159,-3447.429741
467.102711,-11103.089130,-8734.430116,0.000000
467.103033,-9252.574275,-5995.668130,919.314598
467.103355,-10140.821405,-3478.967927,229.828649
467.103676,-9844.739029,-3108.864956,766.095498
467.103998,-8438.347739,-4441.235652,-1072.533697
467.104320,-6069.688724,-6883.915261,-3370.820191
467.104642,-4293.194464,-8660.409521,-1608.800546
467.104963,-3552.988522,-8882.471304,536.266849
467.105285,-2146.597232,-10362.883188,76.609550
467.105607,888.247130,-12139.377449,-1532.190996
467.105928,2516.700203,-10436.903782,-3983.696590
