#time,accel_x,accel_y,accel_z
383.993903,0.000000,-8882.471304,-1225.752797
383.994225,0.000000,-8956.491898,-1608.800546
383.994547,0.000000,-9178.553681,-1762.019645
383.994869,-148.041188,-9400.615463,-1532.190996
383.995191,0.000000,-9474.636058,-1762.019645
383.995513,-222.061783,-9770.718434,-1762.019645
383.995835,-444.123565,-9548.656652,-1149.143247
383.996157,-370.102971,-9622.677246,-1762.019645
383.996479,-370.102971,-9622.677246,-1455.581446
383.996801,-222.061783,-9474.636058,-1915.238745
383.997123,0.000000,-9178.553681,-2145.067394
383.997445,0.000000,-9474.636058,-2145.067394
383.997767,-222.061783,-9252.574275,-1685.410096
383.998089,-592.164754,-9474.636058,-1991.848295
383.998411,-888.247130,-9696.697840,-1838.629195
383.998733,-888.247130,-9844.739029,-1685.410096
383.999055,-814.226536,-9918.759623,-1455.581446
383.999377,-814.226536,-9696.697840,-1532.190996
383.999699,-444.123565,-9400.615463,-1532.190996
384.000021,-222.061783,-9474.636058,-1762.019645
384.000343,-296.082377,-8882.471304,-1915.238745
384.000665,-370.102971,-9252.574275,-1838.629195
384.000987,-222.061783,-9770.718434,-1762.019645
384.001309,-444.123565,-9918.759623,-1532.190996
384.001630,-1036.288319,-9770.718434,-1378.971896
384.001952,-814.226536,-9770.718434,-1225.752797
384.002274,-592.164754,-9548.656652,-1455.581446
384.002596,-370.102971,-9252.574275,-1915.238745
384.002918,0.000000,-8882.471304,-1149.143247
384.003240,-370.102971,-9104.533087,-1608.800546
384.003562,-370.102971,-9326.594869,-1532.190996
384.003884,-296.082377,-9474.636058,-1378.971896
384.004206,-518.144159,-9622.677246,-1225.752797
384.004528,-296.082377,-9992.780217,-1072.533697
384.004850,-518.144159,-9770.718434,-1225.752797
384.005172,-444.123565,-9400.615463,-1149.143247
384.005494,-148.041188,-9252.574275,-1302.362347
384.005816,-370.102971,-8956.491898,-1302.362347
384.006138,0.000000,-8808.450710,-1838.629195
384.006460,-518.144159,-9030.512492,-995.924147
384.006782,0.000000,-9474.636058,-1225.752797
384.007104,-296.082377,-9474.636058,-1072.533697
384.007426,-148.041188,-9474.636058,-995.924147
384.007748,-370.102971,-9400.615463,-1302.362347
384.008070,-222.061783,-9030.512492,-689.485948
384.008392,-222.061783,-9178.553681,-1225.752797
384.008714,-148.041188,-9030.512492,-919.314598
384.009036,0.000000,-9104.533087,-1072.533697
384.009358,0.000000,-9178.553681,-1225.752797
384.009680,222.061783,-9104.533087,-1302.362347
384.010002,0.000000,-9326.594869,-919.314598
384.010324,0.000000,-9474.636058,-1225.752797
384.010646,-296.082377,-9474.636058,-1532.190996
384.010968,-222.061783,-9696.697840,-1302.362347
384.011290,-296.082377,-9474.636058,-1378.971896
384.011612,-296.082377,-9252.574275,-1455.581446
384.011934,-296.082377,-9252.574275,-1532.190996
384.012256,74.020594,-8956.491898,-1455.581446
384.012578,666.185348,-9178.553681,-1838.629195
384.012900,1258.350101,-9474.636058,-1838.629195
384.013222,1332.370696,-9918.759623,-1225.752797
384.013544,296.082377,-9844.739029,-459.657299
384.013866,-222.061783,-9326.594869,-842.705048
384.014188,-518.144159,-9178.553681,-1915.238745
384.014510,-888.247130,-9252.574275,-1915.238745
384.014832,-1184.329507,-8512.368333,-2068.457845
384.015154,-962.267725,-8438.347739,-1991.848295
384.015475,0.000000,-9326.594869,-2604.724693
384.015797,296.082377,-10658.965565,-1685.410096
384.016119,0.000000,-10658.965565,-995.924147
384.016441,-370.102971,-9696.697840,-1149.143247
384.016763,0.000000,-9474.636058,-1608.800546
384.017085,1628.453072,-10584.944971,-2374.896044
384.017407,1480.411884,-9844.739029,-1455.581446
384.017729,1184.329507,-8660.409521,-766.095498
384.018051,2294.638420,-8660.409521,-842.705048
384.018373,3404.947333,-9474.636058,-1378.971896
384.018695,2886.803174,-9474.636058,-919.314598
384.019017,2294.638420,-9178.553681,76.609550
384.019339,1998.556043,-8364.327145,-306.438199
384.019661,3182.885551,-8882.471304,-1378.971896
384.019983,3182.885551,-9104.533087,-1455.581446
384.020305,2886.803174,-8216.285956,-1149.143247
384.020627,3034.844362,-8068.244768,-1915.238745
384.020949,3775.050304,-8734.430116,-2757.943793
384.021271,4219.173869,-10807.006753,-2068.457845
384.021593,3849.070898,-10881.027347,-1762.019645
384.021915,3923.091493,-9918.759623,-1532.190996
384.022237,4367.215058,-10066.800811,-1762.019645
384.022559,4589.276840,-10807.006753,-1608.800546
384.022881,3923.091493,-9622.677246,-1915.238745
384.023203,3256.906145,-8882.471304,-2068.457845
384.023525,3182.885551,-8808.450710,-1685.410096
384.023847,3108.864956,-7920.203579,-842.705048
384.024169,3775.050304,-8364.327145,-1685.410096
384.024491,4515.256246,-8734.430116,-1838.629195
384.024813,5033.400406,-9178.553681,-1225.752797
384.025135,5921.647536,-9252.574275,-842.705048
384.025457,6365.771101,-9104.533087,-1149.143247
384.025779,5403.503377,-8956.491898,-1302.362347
384.026101,4367.215058,-9770.718434,-1838.629195
384.026423,2738.761985,-10584.944971,-1915.238745
384.026745,1702.473667,-11325.150913,-2068.457845
384.027067,962.267725,-12509.480420,-1762.019645
384.027389,444.123565,-12065.356855,0.000000
384.027711,592.164754,-12879.583391,0.000000
384.028033,1036.288319,-12139.377449,689.485948
384.028355,1554.432478,-10881.027347,1532.190996
384.028677,1332.370696,-9030.512492,1991.848295
384.028999,888.247130,-7550.100608,2911.162892
384.029320,0.000000,-5329.482782,1838.629195
384.029642,-814.226536,-4071.132681,0.000000
384.029964,-222.061783,-4441.235652,-1685.410096
384.030286,814.226536,-4885.359217,-2911.162892
384.030608,2294.638420,-5107.421000,-2834.553343
384.030930,3701.029710,-6143.709319,-3524.039291
384.031252,5847.626942,-8290.306550,-3524.039291
384.031574,6439.791695,-11103.089130,-4290.134789
384.031896,5921.647536,-13175.665768,-4060.306139
384.032218,4885.359217,-13693.809927,-2834.553343
384.032540,4441.235652,-13989.892304,-2834.553343
384.032862,3849.070898,-13915.871710,-1685.410096
384.033184,1998.556043,-13027.624579,306.438199
384.033506,592.164754,-11251.130318,2221.676944
384.033828,370.102971,-8808.450710,2374.896044
384.034150,1184.329507,-7031.956449,2145.067394
384.034472,1184.329507,-5033.400406,2298.286494
384.034794,222.061783,-4071.132681,2451.505594
384.035116,148.041188,-4515.256246,1072.533697
384.035438,740.205942,-6217.729913,-383.047749
384.035760,1184.329507,-7254.018232,-1225.752797
384.036082,1110.308913,-8364.327145,-3140.991542
384.036404,740.205942,-10955.047942,-4903.011187
384.036726,1184.329507,-13397.727550,-5209.449386
384.037048,1776.494261,-15248.242405,-5439.278036
384.037370,1554.432478,-16580.613101,-5898.935335
384.037692,1110.308913,-15766.386565,-4826.401637
384.038014,1406.391290,-13101.645173,-3753.867940
384.038336,2442.679609,-10436.903782,-4136.915689
384.038658,4293.194464,-9474.636058,-3677.258390
384.038980,5255.462188,-9326.594869,-766.095498
384.039302,5403.503377,-8068.244768,1378.971896
384.039624,5995.668130,-7105.977043,3447.429741
384.039946,7846.182985,-5551.544565,3370.820191
384.040268,8956.491898,-4441.235652,1685.410096
384.040590,7402.059420,-4885.359217,1991.848295
384.040912,4515.256246,-3849.070898,3370.820191
384.041234,2664.741391,-3256.906145,2068.457845
384.041556,2368.659014,-6587.832884,-2451.505594
384.041878,1258.350101,-9918.759623,-4290.134789
384.042200,-740.205942,-10658.965565,-2757.943793
384.042522,-2516.700203,-12287.418637,-3447.429741
384.042844,-2590.720797,-16062.468941,-3907.087040
384.043165,-2368.659014,-15544.324782,-3983.696590
384.043487,-2960.823768,-11917.315666,-5362.668486
384.043809,-1480.411884,-10288.862594,-5515.887586
384.044131,1332.370696,-11177.109724,-4366.744339
384.044453,3034.844362,-10584.944971,-3907.087040
384.044775,4663.297435,-9104.533087,-2451.505594
384.045097,7698.141797,-9326.594869,306.438199
384.045419,9548.656652,-9770.718434,1685.410096
384.045741,9474.636058,-8586.388927,1838.629195
384.046063,8512.368333,-7105.977043,1915.238745
384.046385,7031.956449,-6587.832884,1762.019645
384.046707,5625.565159,-7920.203579,612.876398
384.047029,3108.864956,-8956.491898,842.705048
384.047351,-592.164754,-7920.203579,1532.190996
384.047673,-2664.741391,-8216.285956,1915.238745
384.047995,-2516.700203,-9474.636058,-383.047749
384.048317,-2146.597232,-10362.883188,-2374.896044
384.048639,-2368.659014,-9474.636058,-2757.943793
384.048961,-1924.535449,-9844.739029,-1991.848295
384.049283,0.000000,-10362.883188,-1915.238745
384.049605,2368.659014,-10732.986159,-3294.210641
384.049927,3627.009116,-9770.718434,-4136.915689
384.050249,4515.256246,-10214.842000,-3524.039291
384.050571,4885.359217,-10288.862594,-2374.896044
384.050893,4737.318029,-9696.697840,-2145.067394
384.051215,3997.112087,-9178.553681,-1838.629195
384.051537,3034.844362,-7476.080014,-612.876398
384.051859,1924.535449,-6883.915261,-612.876398
384.052181,2072.576638,-6809.894666,-1685.410096
384.052503,1406.391290,-8808.450710,-2451.505594
384.052825,370.102971,-9474.636058,0.000000
384.053147,-592.164754,-7772.162391,2451.505594
384.053469,74.020594,-8364.327145,1302.362347
384.053791,1998.556043,-10658.965565,-1378.971896
384.054113,3552.988522,-11843.295072,-1762.019645
384.054435,3478.967927,-12657.521608,-1225.752797
384.054757,3182.885551,-13471.748144,153.219100
384.055079,3330.926739,-13693.809927,1149.143247
384.055401,3330.926739,-11029.068536,153.219100
384.055723,4737.318029,-8364.327145,-2451.505594
384.056045,6365.771101,-9104.533087,-4903.011187
384.056367,7179.997637,-10732.986159,-3983.696590
384.056689,7550.100608,-9696.697840,0.000000
384.057010,6217.729913,-7031.956449,1685.410096
384.057332,5403.503377,-5551.544565,1455.581446
384.057654,4663.297435,-5181.441594,0.000000
384.057976,1184.329507,-4515.256246,-2604.724693
384.058298,-3701.029710,-3701.029710,-3600.648841
384.058620,-7254.018232,-6587.832884,-1838.629195
384.058942,-7846.182985,-9326.594869,-2451.505594
384.059264,-5255.462188,-11473.192101,-5056.230287
384.059586,-3552.988522,-12139.377449,-6511.811733
384.059908,-2368.659014,-14285.974681,-2987.772442
384.060230,-1702.473667,-14508.036463,459.657299
384.060552,-2146.597232,-11991.336260,-1378.971896
384.060874,-666.185348,-10214.842000,-4673.182538
384.061196,2368.659014,-12287.418637,-5286.058936
384.061518,2516.700203,-14137.933492,-4136.915689
384.061840,962.267725,-11991.336260,-1378.971896
384.062162,2220.617826,-8808.450710,3140.991542
384.062484,6809.894666,-7550.100608,2604.724693
384.062806,9696.697840,-8956.491898,-1762.019645
384.063129,8882.471304,-10510.924376,-1225.752797
384.063451,6883.915261,-7624.121203,2681.334243
384.063773,6069.688724,-5107.421000,2221.676944
384.064095,5181.441594,-5625.565159,383.047749
384.064417,1480.411884,-4959.379811,383.047749
384.064739,-4367.215058,-3923.091493,-1378.971896
384.065061,-9326.594869,-5995.668130,-4213.525239
384.065383,-10955.047942,-10510.924376,-4290.134789
384.065705,-10955.047942,-12139.377449,-4290.134789
384.066027,-10214.842000,-10807.006753,-4596.572988
384.066349,-8438.347739,-11917.315666,-4366.744339
384.066671,-7179.997637,-14434.015869,-3294.210641
384.066993,-7772.162391,-13027.624579,-2528.115143
384.067315,-8216.285956,-9622.677246,-2834.553343
384.067637,-6883.915261,-9474.636058,-3983.696590
384.067959,-4737.318029,-10288.862594,-4060.306139
384.068281,-3627.009116,-11177.109724,-1608.800546
384.068603,-518.144159,-10288.862594,1072.533697
384.068925,5181.441594,-7772.162391,2451.505594
384.069247,10584.944971,-5921.647536,2298.286494
384.069569,12213.398043,-5551.544565,1915.238745
384.069891,11399.171507,-5255.462188,4060.306139
384.070213,8512.368333,-4811.338623,4826.401637
384.070535,5773.606348,-4737.318029,1838.629195
384.070857,4367.215058,-6587.832884,-1532.190996
384.071179,2220.617826,-7920.203579,-3600.648841
384.071501,0.000000,-10732.986159,-2911.162892
384.071824,-1850.514855,-13397.727550,0.000000
384.072146,-2812.782580,-11843.295072,766.095498
384.072468,-2886.803174,-10732.986159,-2681.334243
384.072790,-3775.050304,-11843.295072,-5669.106685
384.073112,-6069.688724,-11917.315666,-5822.325785
384.073434,-8512.368333,-11399.171507,-4903.011187
384.073756,-9178.553681,-11251.130318,-3140.991542
384.074078,-8290.306550,-11843.295072,-1991.848295
384.074400,-6661.853478,-12435.459826,-2604.724693
384.074722,-4737.318029,-11695.253884,-1149.143247
384.075044,-2294.638420,-9474.636058,1378.971896
384.075366,1776.494261,-6439.791695,1072.533697
384.075688,6365.771101,-3182.885551,-919.314598
384.076010,9918.759623,-3256.906145,-612.876398
384.076332,9548.656652,-5033.400406,1915.238745
384.076654,6809.894666,-5625.565159,1991.848295
384.076976,5255.462188,-6957.935855,0.000000
384.077298,5181.441594,-10140.821405,-3294.210641
384.077620,4737.318029,-12065.356855,-4903.011187
384.077942,3552.988522,-13027.624579,-3524.039291
384.078264,2442.679609,-12065.356855,-1302.362347
384.078586,2368.659014,-11473.192101,-536.266849
384.078908,1480.411884,-11399.171507,-2298.286494
384.079230,74.020594,-11769.274478,-3064.381992
384.079552,-2072.576638,-12509.480420,-3830.477490
384.079874,-5625.565159,-11843.295072,-2528.115143
384.080197,-7994.224174,-11251.130318,-612.876398
384.080519,-7550.100608,-10362.883188,0.000000
384.080841,-4885.359217,-8882.471304,-1532.190996
384.081163,-2664.741391,-8142.265362,-1915.238745
384.081485,-1184.329507,-6809.894666,-459.657299
384.081807,592.164754,-5181.441594,229.828649
384.082129,2368.659014,-4885.359217,-306.438199
384.082451,3034.844362,-6365.771101,-766.095498
384.082773,1036.288319,-7105.977043,-766.095498
384.083095,-2220.617826,-6217.729913,-1608.800546
384.083417,-3108.864956,-7476.080014,-4213.525239
384.083739,-2442.679609,-11251.130318,-5592.497135
384.084061,-3330.926739,-12583.501014,-4673.182538
384.084383,-3330.926739,-11917.315666,-3140.991542
384.084705,-2812.782580,-11251.130318,-1991.848295
384.085027,-592.164754,-11843.295072,-1991.848295
384.085349,-518.144159,-11917.315666,-2374.896044
384.085671,-2516.700203,-11473.192101,-1685.410096
384.085993,-4737.318029,-10362.883188,-536.266849
384.086315,-5033.400406,-9770.718434,0.000000
384.086637,-3923.091493,-10584.944971,0.000000
384.086959,-1924.535449,-9326.594869,-689.485948
384.087281,740.205942,-8290.306550,-919.314598
384.087603,3552.988522,-7624.121203,2298.286494
384.087925,6439.791695,-7105.977043,3140.991542
384.088247,8290.306550,-5625.565159,153.219100
384.088569,8512.368333,-5773.606348,-995.924147
384.088892,5995.668130,-7476.080014,-459.657299
384.089214,1850.514855,-6883.915261,-1225.752797
384.089536,-814.226536,-6957.935855,-3524.039291
384.089858,-1480.411884,-8660.409521,-5209.449386
384.090180,-2516.700203,-11769.274478,-4596.572988
384.090502,-4145.153275,-11325.150913,-3294.210641
384.090824,-4737.318029,-10362.883188,-2757.943793
384.091146,-3849.070898,-11769.274478,-3064.381992
384.091468,-2664.741391,-13323.706956,-3370.820191
384.091790,-3552.988522,-13471.748144,-3064.381992
384.092112,-4737.318029,-11473.192101,-1532.190996
384.092434,-4811.338623,-11029.068536,76.609550
384.092756,-4367.215058,-10584.944971,459.657299
384.093078,-2294.638420,-9622.677246,689.485948
384.093400,592.164754,-8734.430116,1378.971896
384.093722,4219.173869,-8438.347739,1302.362347
384.094044,7994.224174,-7105.977043,1608.800546
384.094366,10807.006753,-6513.812290,2298.286494
384.094688,11325.150913,-5847.626942,2681.334243
384.095010,8364.327145,-4811.338623,2298.286494
384.095332,4737.318029,-5625.565159,153.219100
384.095654,1628.453072,-6661.853478,-2528.115143
384.095976,0.000000,-9104.533087,-5439.278036
384.096298,-2294.638420,-11473.192101,-5286.058936
384.096620,-4071.132681,-12139.377449,-3447.429741
384.096942,-5107.421000,-11769.274478,-2068.457845
384.097264,-5033.400406,-11991.336260,-3447.429741
384.097587,-5403.503377,-12805.562797,-4443.353888
384.097909,-6735.874072,-13101.645173,-3753.867940
384.098231,-8882.471304,-11843.295072,-2374.896044
384.098553,-9030.512492,-10510.924376,-306.438199
384.098875,-7402.059420,-9104.533087,-229.828649
384.099197,-4515.256246,-8438.347739,-842.705048
384.099519,-1554.432478,-7772.162391,-306.438199
384.099841,1036.288319,-6809.894666,1149.143247
384.100163,3775.050304,-5773.606348,2451.505594
384.100485,5403.503377,-5847.626942,1455.581446
384.100807,6735.874072,-6365.771101,1302.362347
384.101129,5625.565159,-7105.977043,995.924147
384.101451,4367.215058,-6661.853478,-766.095498
384.101773,4367.215058,-7698.141797,-3677.258390
384.102095,3775.050304,-9030.512492,-5286.058936
384.102417,1924.535449,-11399.171507,-3677.258390
384.102739,-518.144159,-12435.459826,-1302.362347
384.103061,-1554.432478,-12065.356855,-1455.581446
384.103383,-2146.597232,-12879.583391,-3753.867940
384.103705,-2960.823768,-14434.015869,-4290.134789
384.104027,-5477.523971,-13027.624579,-2681.334243
384.104349,-8956.491898,-9326.594869,-1225.752797
384.104671,-9252.574275,-8512.368333,-1072.533697
384.104993,-7772.162391,-9918.759623,-1838.629195
384.105315,-6217.729913,-9918.759623,-2374.896044
384.105637,-4071.132681,-9622.677246,-1532.190996
384.105959,-1110.308913,-8808.450710,1608.800546
384.106282,2738.761985,-6883.915261,2911.162892
384.106604,6957.935855,-4885.359217,0.000000
384.106926,9992.780217,-5181.441594,-2145.067394
384.107248,9844.739029,-7550.100608,-995.924147
384.107570,6439.791695,-7624.121203,459.657299
384.107892,2664.741391,-7846.182985,0.000000
384.108214,1628.453072,-9474.636058,-2451.505594
384.108536,1702.473667,-11251.130318,-4979.620737
384.108858,1184.329507,-11843.295072,-5439.278036
384.109180,296.082377,-11325.150913,-3294.210641
384.109502,-888.247130,-9992.780217,-689.485948
384.109824,-2442.679609,-9474.636058,-229.828649
384.110146,-4589.276840,-10510.924376,-1685.410096
384.110468,-6513.812290,-10955.047942,-2068.457845
384.110790,-8290.306550,-11843.295072,-2374.896044
384.111112,-8438.347739,-12583.501014,-1072.533697
384.111434,-6513.812290,-11399.171507,459.657299
384.111756,-3256.906145,-9474.636058,1378.971896
384.112078,518.144159,-7698.141797,1685.410096
384.112400,4885.359217,-5995.668130,1225.752797
384.112722,7920.203579,-5551.544565,-612.876398
384.113044,9474.636058,-5699.585753,-1455.581446
384.113366,7846.182985,-6883.915261,76.609550
384.113688,4071.132681,-7402.059420,766.095498
384.114010,1258.350101,-8364.327145,-1838.629195
384.114332,0.000000,-10140.821405,-3753.867940
384.114654,-518.144159,-11547.212695,-5515.887586
384.114977,-2220.617826,-11399.171507,-5132.839837
384.115299,-3404.947333,-10140.821405,-2911.162892
384.115621,-3775.050304,-9918.759623,-1072.533697
384.115943,-4737.318029,-9918.759623,-1608.800546
384.116265,-5773.606348,-10362.883188,-2451.505594
384.116587,-7772.162391,-11325.150913,-3370.820191
384.116909,-8364.327145,-11843.295072,-2374.896044
384.117231,-7994.224174,-11695.253884,-689.485948
384.117553,-5403.503377,-10658.965565,1149.143247
384.117875,-1776.494261,-9474.636058,1532.190996
384.118197,2294.638420,-7550.100608,76.609550
384.118519,6069.688724,-6143.709319,-995.924147
384.118841,8586.388927,-6143.709319,-536.266849
384.119163,8438.347739,-6069.688724,919.314598
384.119485,5773.606348,-5773.606348,1838.629195
384.119807,3330.926739,-6513.812290,0.000000
384.120129,2368.659014,-8068.244768,-3524.039291
384.120451,1480.411884,-10288.862594,-4903.011187
384.120773,296.082377,-11103.089130,-4213.525239
384.121095,-444.123565,-10584.944971,-2068.457845
384.121417,-962.267725,-10066.800811,-1915.238745
384.121739,-2072.576638,-10732.986159,-2221.676944
384.122061,-4219.173869,-11325.150913,-3217.601092
384.122383,-5921.647536,-11547.212695,-4060.306139
384.122705,-6883.915261,-12583.501014,-3217.601092
384.123027,-6957.935855,-12805.562797,-2221.676944
384.123350,-6513.812290,-12583.501014,0.000000
384.123672,-4737.318029,-11991.336260,1302.362347
384.123994,-1628.453072,-10658.965565,919.314598
384.124316,1702.473667,-8586.388927,0.000000
384.124638,4885.359217,-6217.729913,0.000000
384.124960,7031.956449,-5477.523971,689.485948
384.125282,7846.182985,-5625.565159,1302.362347
384.125604,6439.791695,-5403.503377,2145.067394
384.125926,4219.173869,-5921.647536,1532.190996
384.126248,2368.659014,-7105.977043,-995.924147
384.126570,592.164754,-8364.327145,-4136.915689
384.126892,-222.061783,-10214.842000,-4673.182538
384.127214,-1480.411884,-11769.274478,-2374.896044
384.127536,-2368.659014,-10807.006753,-1302.362347
384.127858,-2368.659014,-10066.800811,-2374.896044
384.128180,-2220.617826,-10436.903782,-4366.744339
384.128502,-4145.153275,-11843.295072,-3983.696590
384.128824,-6365.771101,-12657.521608,-2681.334243
384.129146,-7698.141797,-12731.542202,-842.705048
384.129468,-7328.038826,-12435.459826,536.266849
384.129790,-4885.359217,-11029.068536,-153.219100
384.130112,-1480.411884,-8734.430116,-306.438199
384.130434,1850.514855,-6143.709319,-306.438199
384.130756,4737.318029,-4885.359217,1149.143247
384.131078,6217.729913,-5107.421000,1838.629195
384.131400,6957.935855,-5625.565159,1149.143247
384.131722,5847.626942,-5921.647536,536.266849
384.132045,3997.112087,-7179.997637,-1149.143247
384.132367,2294.638420,-7402.059420,-2757.943793
384.132689,1184.329507,-7772.162391,-3907.087040
384.133011,740.205942,-9474.636058,-3907.087040
384.133333,-148.041188,-11843.295072,-2528.115143
384.133655,-2072.576638,-12213.398043,-2681.334243
384.133977,-3108.864956,-12065.356855,-3217.601092
384.134299,-4441.235652,-11991.336260,-4290.134789
384.134621,-5255.462188,-12805.562797,-4596.572988
384.134943,-6291.750507,-13323.706956,-3447.429741
384.135265,-6957.935855,-12213.398043,-1532.190996
384.135587,-6809.894666,-11251.130318,153.219100
384.135909,-4737.318029,-10436.903782,842.705048
384.136231,-1554.432478,-8734.430116,-459.657299
384.136553,1258.350101,-6365.771101,-2681.334243
384.136875,3330.926739,-4737.318029,-383.047749
384.137197,5329.482782,-5329.482782,1838.629195
384.137519,6809.894666,-5403.503377,919.314598
384.137841,6883.915261,-6661.853478,-1225.752797
384.138163,4737.318029,-8660.409521,-1762.019645
384.138485,1776.494261,-10066.800811,-1991.848295
384.138807,-370.102971,-10658.965565,-3217.601092
384.139129,-444.123565,-10807.006753,-4519.963438
384.139451,148.041188,-11399.171507,-4213.525239
384.139773,0.000000,-11029.068536,-3677.258390
384.140095,-962.267725,-10066.800811,-2528.115143
384.140417,-2072.576638,-9844.739029,-1302.362347
384.140740,-2960.823768,-10881.027347,-2145.067394
384.141062,-4367.215058,-11843.295072,-2911.162892
384.141384,-6365.771101,-11843.295072,-766.095498
384.141706,-8290.306550,-11547.212695,1685.410096
384.142028,-7920.203579,-10584.944971,1072.533697
384.142350,-4515.256246,-8734.430116,0.000000
384.142672,-1184.329507,-7179.997637,-842.705048
384.142994,1332.370696,-5551.544565,229.828649
384.143316,3775.050304,-4293.194464,919.314598
384.143638,6735.874072,-4145.153275,0.000000
384.143960,7994.224174,-6883.915261,-1455.581446
384.144282,6069.688724,-9252.574275,-1149.143247
384.144604,2590.720797,-9622.677246,-1838.629195
384.144926,740.205942,-10732.986159,-3524.039291
384.145248,814.226536,-12435.459826,-4443.353888
384.145570,518.144159,-11991.336260,-4903.011187
384.145892,74.020594,-10214.842000,-3524.039291
384.146214,0.000000,-9548.656652,-1685.410096
384.146536,-1036.288319,-10288.862594,-995.924147
384.146858,-2812.782580,-11029.068536,-1225.752797
384.147180,-4885.359217,-11473.192101,-919.314598
384.147502,-6661.853478,-10807.006753,-689.485948
384.147824,-7402.059420,-10140.821405,-459.657299
384.148146,-6883.915261,-9326.594869,-689.485948
384.148468,-4589.276840,-8216.285956,-689.485948
384.148790,-1554.432478,-7698.141797,76.609550
384.149112,1036.288319,-6661.853478,1149.143247
384.149435,3923.091493,-6291.750507,612.876398
384.149757,6587.832884,-6883.915261,-612.876398
384.150079,7402.059420,-7920.203579,-1762.019645
384.150401,6365.771101,-8956.491898,-2757.943793
384.150723,4367.215058,-9104.533087,-3140.991542
384.151045,2442.679609,-9030.512492,-3983.696590
384.151367,1554.432478,-10510.924376,-4903.011187
384.151689,740.205942,-11695.253884,-4903.011187
384.152011,0.000000,-11769.274478,-3447.429741
384.152333,-962.267725,-11103.089130,-1378.971896
384.152655,-1924.535449,-10436.903782,-1302.362347
384.152977,-2664.741391,-10584.944971,-1072.533697
384.153299,-3627.009116,-10807.006753,-1302.362347
384.153621,-5403.503377,-10955.047942,-995.924147
384.153943,-6587.832884,-10362.883188,1149.143247
384.154265,-5995.668130,-9400.615463,1149.143247
384.154587,-4293.194464,-8290.306550,0.000000
384.154909,-1554.432478,-8364.327145,-612.876398
384.155231,1332.370696,-7550.100608,153.219100
384.155553,3923.091493,-6217.729913,689.485948
384.155875,6069.688724,-5921.647536,0.000000
384.156197,6809.894666,-7254.018232,-1991.848295
384.156519,5181.441594,-9696.697840,-1915.238745
384.156841,1776.494261,-9622.677246,-2221.676944
384.157163,-666.185348,-9326.594869,-3753.867940
384.157485,-1184.329507,-9770.718434,-5362.668486
384.157807,-444.123565,-11029.068536,-6052.154434
384.158130,-1258.350101,-10510.924376,-4136.915689
384.158452,-2368.659014,-9400.615463,-766.095498
384.158774,-3108.864956,-9548.656652,-383.047749
384.159096,-3701.029710,-10288.862594,-1072.533697
384.159418,-4737.318029,-11473.192101,-2451.505594
384.159740,-6069.688724,-11399.171507,-1302.362347
384.160062,-6809.894666,-10140.821405,1149.143247
384.160384,-5847.626942,-8882.471304,1608.800546
384.160706,-3404.947333,-7920.203579,612.876398
384.161028,-666.185348,-7179.997637,-612.876398
384.161350,1332.370696,-6513.812290,0.000000
384.161672,3330.926739,-6735.874072,383.047749
384.161994,5255.462188,-7031.956449,0.000000
384.162316,6661.853478,-7550.100608,-2145.067394
384.162638,5847.626942,-9696.697840,-2145.067394
384.162960,3552.988522,-9474.636058,-1915.238745
384.163282,1776.494261,-8956.491898,-3907.087040
384.163604,962.267725,-9178.553681,-5822.325785
384.163926,74.020594,-10732.986159,-5975.544884
384.164248,-1628.453072,-11621.233289,-3907.087040
384.164570,-2738.761985,-11399.171507,-2451.505594
384.164891,-3627.009116,-11769.274478,-2068.457845
384.165213,-3701.029710,-12657.521608,-1838.629195
384.165535,-3552.988522,-12509.480420,-1532.190996
384.165857,-4219.173869,-11325.150913,-1149.143247
384.166179,-4293.194464,-9844.739029,306.438199
384.166501,-3627.009116,-8882.471304,1762.019645
384.166822,-1702.473667,-7698.141797,612.876398
384.167144,592.164754,-6883.915261,-153.219100
384.167466,2590.720797,-6513.812290,153.219100
384.167788,4367.215058,-6439.791695,766.095498
384.168110,5773.606348,-6587.832884,0.000000
384.168432,6957.935855,-7698.141797,-1225.752797
384.168753,6217.729913,-9474.636058,-2451.505594
384.169075,4219.173869,-9844.739029,-2757.943793
384.169397,2220.617826,-9622.677246,-3294.210641
384.169719,666.185348,-9622.677246,-4673.182538
384.170041,-148.041188,-10807.006753,-5056.230287
384.170363,-2220.617826,-11177.109724,-4136.915689
384.170684,-3404.947333,-10362.883188,-3217.601092
384.171006,-3997.112087,-9992.780217,-2681.334243
384.171328,-4663.297435,-10732.986159,-2221.676944
384.171650,-4737.318029,-11547.212695,-1532.190996
384.171972,-5699.585753,-10955.047942,-306.438199
384.172294,-6365.771101,-10288.862594,1378.971896
384.172615,-6291.750507,-9474.636058,2451.505594
384.172937,-4589.276840,-7772.162391,1838.629195
384.173259,-1406.391290,-6809.894666,536.266849
384.173581,444.123565,-6661.853478,459.657299
384.173903,2368.659014,-6069.688724,1532.190996
384.174225,4219.173869,-5995.668130,919.314598
384.174546,5625.565159,-6143.709319,-1302.362347
384.174868,5773.606348,-8216.285956,-2451.505594
384.175190,4367.215058,-9474.636058,-3217.601092
384.175512,2664.741391,-9252.574275,-3140.991542
384.175834,1258.350101,-9474.636058,-3753.867940
384.176156,148.041188,-11177.109724,-3907.087040
384.176477,-1480.411884,-11991.336260,-4060.306139
384.176799,-3552.988522,-11251.130318,-3217.601092
384.177121,-5033.400406,-10584.944971,-3294.210641
384.177443,-5329.482782,-11695.253884,-2757.943793
384.177765,-4959.379811,-11843.295072,-2451.505594
384.178087,-5699.585753,-11251.130318,-766.095498
384.178408,-6291.750507,-10214.842000,1762.019645
384.178730,-5625.565159,-9400.615463,2987.772442
384.179052,-4219.173869,-8364.327145,1302.362347
384.179374,-2220.617826,-7624.121203,-766.095498
384.179696,-148.041188,-6735.874072,-842.705048
384.180018,2516.700203,-5921.647536,0.000000
384.180339,5699.585753,-6661.853478,612.876398
384.180661,7624.121203,-7698.141797,-995.924147
384.180983,8068.244768,-8364.327145,-1991.848295
384.181305,6661.853478,-9178.553681,-3064.381992
384.181627,4885.359217,-9918.759623,-3830.477490
384.181949,3256.906145,-10584.944971,-5209.449386
384.182270,2294.638420,-11177.109724,-6588.421283
384.182592,444.123565,-12805.562797,-5439.278036
384.182914,-740.205942,-13175.665768,-3677.258390
384.183236,-1184.329507,-12065.356855,-3064.381992
384.183558,-1702.473667,-11325.150913,-2451.505594
384.183880,-2220.617826,-11695.253884,-229.828649
384.184201,-3404.947333,-11621.233289,995.924147
384.184523,-4589.276840,-10362.883188,1455.581446
384.184845,-5181.441594,-9104.533087,2374.896044
384.185167,-4219.173869,-7402.059420,2145.067394
384.185489,-2590.720797,-5403.503377,306.438199
384.185811,-518.144159,-5255.462188,-459.657299
384.186132,1998.556043,-5477.523971,1302.362347
384.186454,4219.173869,-5477.523971,1838.629195
384.186776,6217.729913,-6439.791695,-229.828649
384.187098,6809.894666,-8660.409521,-2528.115143
384.187420,4441.235652,-10214.842000,-2911.162892
384.187742,1776.494261,-10658.965565,-3907.087040
384.188063,-370.102971,-11177.109724,-5286.058936
384.188385,-1776.494261,-11547.212695,-6281.983084
384.188707,-2738.761985,-12287.418637,-5822.325785
384.189029,-3404.947333,-11399.171507,-3983.696590
384.189351,-3552.988522,-11251.130318,-3370.820191
384.189673,-3478.967927,-10955.047942,-1302.362347
384.189994,-2886.803174,-11325.150913,0.000000
384.190316,-3478.967927,-10807.006753,1072.533697
384.190638,-4367.215058,-9326.594869,2757.943793
384.190960,-4663.297435,-7994.224174,3677.258390
384.191282,-4367.215058,-7105.977043,2604.724693
384.191604,-2960.823768,-5625.565159,1455.581446
384.191925,-740.205942,-5625.565159,1225.752797
384.192247,1258.350101,-5847.626942,2145.067394
384.192569,3182.885551,-6143.709319,2681.334243
384.192891,4219.173869,-6439.791695,76.609550
384.193213,4959.379811,-7994.224174,-2451.505594
384.193535,3923.091493,-9400.615463,-4519.963438
384.193856,1554.432478,-8660.409521,-5209.449386
384.194178,-370.102971,-8734.430116,-5975.544884
384.194500,-1480.411884,-10881.027347,-6588.421283
384.194822,-3108.864956,-13323.706956,-5975.544884
384.195144,-4737.318029,-14359.995275,-5286.058936
384.195466,-5847.626942,-14137.933492,-4366.744339
384.195787,-6513.812290,-12805.562797,-3524.039291
384.196109,-5921.647536,-12065.356855,-1838.629195
384.196431,-5033.400406,-10658.965565,-1072.533697
384.196753,-3923.091493,-9252.574275,0.000000
384.197075,-3552.988522,-8142.265362,1838.629195
384.197397,-3034.844362,-7031.956449,3447.429741
384.197718,-1258.350101,-6069.688724,2451.505594
384.198040,1850.514855,-5847.626942,842.705048
384.198362,3997.112087,-6809.894666,842.705048
384.198684,6439.791695,-7105.977043,995.924147
384.199006,8068.244768,-6661.853478,536.266849
384.199328,8734.430116,-7031.956449,-842.705048
384.199649,7476.080014,-9918.759623,-3294.210641
384.199971,4811.338623,-10658.965565,-4060.306139
384.200293,2664.741391,-11177.109724,-5898.935335
384.200615,1258.350101,-12583.501014,-6818.249932
384.200937,-222.061783,-13767.830521,-5822.325785
384.201259,-1998.556043,-11843.295072,-5209.449386
384.201580,-2960.823768,-10658.965565,-4290.134789
384.201902,-3627.009116,-11029.068536,-2757.943793
384.202224,-3923.091493,-11621.233289,-1838.629195
384.202546,-5625.565159,-10807.006753,-995.924147
384.202868,-7402.059420,-9770.718434,1302.362347
384.203190,-7254.018232,-9252.574275,3907.087040
384.203511,-5699.585753,-7254.018232,2757.943793
384.203833,-3330.926739,-5995.668130,1225.752797
384.204155,-444.123565,-5625.565159,1072.533697
384.204477,1998.556043,-5477.523971,2221.676944
384.204799,5699.585753,-5477.523971,2145.067394
384.205121,6587.832884,-6217.729913,689.485948
384.205442,7105.977043,-7402.059420,-536.266849
384.205764,5847.626942,-9030.512492,-2911.162892
384.206086,4145.153275,-9474.636058,-4443.353888
384.206408,2960.823768,-10288.862594,-5592.497135
384.206730,1036.288319,-11769.274478,-5669.106685
384.207052,-740.205942,-12953.603985,-4060.306139
384.207373,-1776.494261,-13249.686362,-3064.381992
384.207695,-2072.576638,-12065.356855,-3677.258390
384.208017,-1924.535449,-11399.171507,-3830.477490
384.208339,-2590.720797,-10955.047942,-1915.238745
384.208661,-4071.132681,-10288.862594,0.000000
384.208983,-5699.585753,-9030.512492,1685.410096
384.209304,-6587.832884,-8290.306550,2681.334243
384.209626,-6883.915261,-7550.100608,2068.457845
384.209948,-5625.565159,-6439.791695,1302.362347
384.210270,-3775.050304,-6661.853478,0.000000
384.210592,-1998.556043,-7105.977043,919.314598
384.210914,814.226536,-7105.977043,2068.457845
384.211235,3330.926739,-6735.874072,459.657299
384.211557,5255.462188,-7476.080014,-1991.848295
384.211879,4885.359217,-9474.636058,-3524.039291
384.212201,3775.050304,-9770.718434,-4903.011187
384.212523,2294.638420,-9696.697840,-6052.154434
384.212845,888.247130,-11399.171507,-6205.373534
384.213166,0.000000,-12731.542202,-5745.716235
384.213488,-1554.432478,-12805.562797,-4903.011187
384.213810,-2516.700203,-12509.480420,-4749.792088
384.214132,-3182.885551,-12361.439231,-3447.429741
384.214454,-3552.988522,-11917.315666,-1608.800546
384.214776,-4071.132681,-11029.068536,229.828649
384.215097,-4737.318029,-10066.800811,1608.800546
384.215419,-4737.318029,-8956.491898,2681.334243
384.215741,-4367.215058,-7846.182985,2604.724693
384.216063,-3404.947333,-6587.832884,1608.800546
384.216385,-1850.514855,-5625.565159,995.924147
384.216706,444.123565,-6069.688724,995.924147
384.217028,3478.967927,-5847.626942,1532.190996
384.217350,5625.565159,-5995.668130,1072.533697
384.217672,6957.935855,-7031.956449,-1072.533697
384.217994,6291.750507,-9030.512492,-2987.772442
384.218316,4071.132681,-10658.965565,-4366.744339
384.218637,1258.350101,-11029.068536,-4826.401637
384.218959,-518.144159,-11917.315666,-5592.497135
384.219281,-1702.473667,-12139.377449,-5822.325785
384.219603,-2294.638420,-12139.377449,-6052.154434
384.219925,-2146.597232,-11473.192101,-5439.278036
384.220247,-2368.659014,-10881.027347,-3447.429741
384.220568,-3182.885551,-10510.924376,-1302.362347
384.220890,-3701.029710,-10510.924376,459.657299
384.221212,-3923.091493,-9844.739029,1225.752797
384.221534,-3923.091493,-9474.636058,2451.505594
384.221856,-3923.091493,-8216.285956,3294.210641
384.222178,-3552.988522,-5847.626942,3370.820191
384.222499,-962.267725,-5403.503377,2374.896044
384.222821,1702.473667,-5699.585753,1225.752797
384.223143,4589.276840,-6439.791695,1685.410096
384.223465,6661.853478,-6439.791695,1302.362347
384.223787,7920.203579,-7846.182985,-383.047749
384.224109,7624.121203,-9474.636058,-2374.896044
384.224430,5551.544565,-9844.739029,-3830.477490
384.224752,3330.926739,-9474.636058,-6205.373534
384.225074,1184.329507,-10436.903782,-7890.783629
384.225396,-666.185348,-11843.295072,-7660.954980
384.225718,-2590.720797,-13323.706956,-5669.106685
384.226040,-3997.112087,-13249.686362,-5209.449386
384.226361,-4145.153275,-14063.912898,-4290.134789
384.226683,-4367.215058,-14508.036463,-2374.896044
384.227005,-5255.462188,-12879.583391,-306.438199
384.227327,-5329.482782,-10214.842000,1149.143247
384.227649,-4885.359217,-8216.285956,1378.971896
384.227971,-4885.359217,-7105.977043,1915.238745
384.228292,-4515.256246,-5551.544565,2145.067394
384.228614,-2738.761985,-4071.132681,1532.190996
384.228936,740.205942,-6291.750507,919.314598
384.229258,3627.009116,-7772.162391,1991.848295
384.229580,5625.565159,-7846.182985,2374.896044
384.229902,6809.894666,-7624.121203,0.000000
384.230223,7624.121203,-9474.636058,-2451.505594
384.230545,6439.791695,-10881.027347,-4060.306139
384.230867,2590.720797,-10140.821405,-4596.572988
384.231189,0.000000,-10066.800811,-6435.202183
384.231511,-1406.391290,-11769.274478,-6894.859482
384.231833,-2442.679609,-13915.871710,-6205.373534
384.232154,-3997.112087,-12731.542202,-5056.230287
384.232476,-5329.482782,-10881.027347,-3907.087040
384.232798,-4737.318029,-11399.171507,-2145.067394
384.233120,-4515.256246,-11769.274478,-306.438199
384.233442,-5551.544565,-10288.862594,1225.752797
384.233764,-6735.874072,-7476.080014,2911.162892
384.234085,-5995.668130,-6143.709319,3447.429741
384.234407,-4737.318029,-6217.729913,1685.410096
384.234729,-3108.864956,-5699.585753,2068.457845
384.235051,-1258.350101,-5329.482782,2681.334243
384.235373,1776.494261,-5995.668130,3447.429741
384.235695,5033.400406,-6809.894666,2298.286494
384.236016,7105.977043,-6883.915261,-459.657299
384.236338,6217.729913,-7624.121203,-1838.629195
384.236660,4589.276840,-8586.388927,-2911.162892
384.236982,3108.864956,-8734.430116,-5132.839837
384.237304,2220.617826,-9622.677246,-7354.516781
384.237626,740.205942,-11695.253884,-6281.983084
384.237947,-1110.308913,-13619.789333,-4749.792088
384.238269,-2812.782580,-13693.809927,-3830.477490
384.238591,-3404.947333,-12953.603985,-3830.477490
384.238913,-3627.009116,-12879.583391,-3600.648841
384.239235,-3627.009116,-11991.336260,-1608.800546
384.239557,-4071.132681,-10140.821405,-306.438199
384.239878,-4145.153275,-8216.285956,1455.581446
384.240200,-4219.173869,-7550.100608,2068.457845
384.240522,-4071.132681,-6661.853478,2068.457845
384.240844,-3034.844362,-5921.647536,1455.581446
384.241166,-814.226536,-6439.791695,536.266849
384.241488,2590.720797,-8142.265362,536.266849
384.241809,5847.626942,-8512.368333,842.705048
384.242131,7772.162391,-8142.265362,-153.219100
384.242453,7920.203579,-8068.244768,-1225.752797
384.242775,6957.935855,-8956.491898,-2451.505594
384.243097,5403.503377,-9400.615463,-4826.401637
384.243419,2886.803174,-9918.759623,-8044.002729
384.243740,1332.370696,-11769.274478,-8120.612279
384.244062,0.000000,-13989.892304,-6281.983084
384.244384,-1184.329507,-14211.954086,-4443.353888
384.244706,-2220.617826,-13471.748144,-2681.334243
384.245028,-2516.700203,-12139.377449,-1685.410096
384.245350,-3034.844362,-10955.047942,-1838.629195
384.245671,-3775.050304,-10584.944971,-995.924147
384.245993,-4811.338623,-9178.553681,919.314598
384.246315,-5477.523971,-7624.121203,3140.991542
384.246637,-4885.359217,-6291.750507,3830.477490
384.246959,-2590.720797,-5181.441594,2221.676944
384.247281,0.000000,-5477.523971,1072.533697
384.247602,2664.741391,-6661.853478,1225.752797
384.247924,5033.400406,-6661.853478,1991.848295
384.248246,6513.812290,-7105.977043,1455.581446
384.248568,6291.750507,-8290.306550,-689.485948
384.248890,4293.194464,-10362.883188,-2451.505594
384.249212,1554.432478,-10140.821405,-4443.353888
384.249533,-888.247130,-10658.965565,-6358.592633
384.249855,-2294.638420,-11399.171507,-6588.421283
384.250177,-2738.761985,-12657.521608,-5362.668486
384.250499,-3627.009116,-12065.356855,-3753.867940
384.250821,-4145.153275,-10732.986159,-2451.505594
384.251143,-4367.215058,-10436.903782,-1685.410096
384.251464,-4367.215058,-10140.821405,-1532.190996
384.251786,-4959.379811,-9326.594869,-842.705048
384.252108,-5773.606348,-7920.203579,612.876398
384.252430,-5551.544565,-7328.038826,2528.115143
384.252752,-4885.359217,-7328.038826,2451.505594
384.253074,-2960.823768,-6661.853478,2145.067394
384.253395,-222.061783,-6661.853478,1149.143247
384.253717,2442.679609,-6957.935855,766.095498
384.254039,4589.276840,-7328.038826,1072.533697
384.254361,5329.482782,-7698.141797,459.657299
384.254683,5033.400406,-8734.430116,-1072.533697
384.255005,4219.173869,-9622.677246,-2757.943793
384.255326,3849.070898,-9474.636058,-5439.278036
384.255648,2442.679609,-9770.718434,-6894.859482
384.255970,1258.350101,-10584.944971,-5669.106685
384.256292,0.000000,-11991.336260,-4443.353888
384.256614,-888.247130,-12879.583391,-3140.991542
384.256936,-1850.514855,-12805.562797,-3830.477490
384.257257,-2368.659014,-12657.521608,-3524.039291
384.257579,-3256.906145,-12065.356855,-2528.115143
384.257901,-3775.050304,-10362.883188,-995.924147
384.258223,-4219.173869,-9400.615463,459.657299
384.258545,-4885.359217,-7624.121203,1685.410096
384.258867,-5773.606348,-6439.791695,1991.848295
384.259188,-4885.359217,-5995.668130,306.438199
384.259510,-2368.659014,-7105.977043,-1608.800546
384.259832,1702.473667,-8734.430116,-2068.457845
384.260154,4737.318029,-9400.615463,76.609550
384.260476,6217.729913,-9770.718434,1225.752797
384.260798,7402.059420,-9770.718434,689.485948
384.261119,7105.977043,-10288.862594,-1455.581446
384.261441,5181.441594,-10362.883188,-4060.306139
384.261763,2738.761985,-10066.800811,-6128.763984
384.262085,1110.308913,-10288.862594,-6435.202183
384.262407,1036.288319,-11547.212695,-4443.353888
384.262729,666.185348,-11843.295072,-2374.896044
384.263050,592.164754,-10732.986159,-1302.362347
384.263372,-444.123565,-10214.842000,-1072.533697
384.263694,-2072.576638,-9992.780217,-76.609550
384.264016,-3997.112087,-9622.677246,0.000000
384.264337,-5699.585753,-8734.430116,459.657299
384.264659,-6217.729913,-7772.162391,1685.410096
384.264981,-6439.791695,-7328.038826,1762.019645
384.265303,-4589.276840,-6439.791695,1378.971896
384.265624,-2146.597232,-6291.750507,842.705048
384.265946,-592.164754,-7179.997637,1149.143247
384.266268,1110.308913,-7846.182985,1225.752797
384.266590,2590.720797,-7846.182985,-229.828649
384.266911,3997.112087,-8068.244768,-1915.238745
384.267233,3478.967927,-8808.450710,-2911.162892
384.267555,1924.535449,-8290.306550,-4290.134789
384.267877,666.185348,-8290.306550,-5592.497135
384.268198,666.185348,-9474.636058,-5822.325785
384.268520,962.267725,-11843.295072,-4903.011187
384.268842,666.185348,-12509.480420,-3524.039291
384.269163,74.020594,-12435.459826,-2145.067394
384.269485,-444.123565,-11991.336260,-1225.752797
384.269807,-1850.514855,-11103.089130,-689.485948
384.270129,-3034.844362,-9696.697840,-689.485948
384.270450,-4737.318029,-8586.388927,-306.438199
384.270772,-6069.688724,-7698.141797,919.314598
384.271094,-6439.791695,-7624.121203,1685.410096
384.271416,-5477.523971,-7698.141797,1302.362347
384.271737,-2812.782580,-8512.368333,383.047749
384.272059,-222.061783,-9474.636058,306.438199
384.272381,1924.535449,-9178.553681,995.924147
384.272703,3256.906145,-8586.388927,-153.219100
384.273024,4885.359217,-7994.224174,-2298.286494
384.273346,5551.544565,-9252.574275,-4673.182538
384.273668,4293.194464,-9622.677246,-5592.497135
384.273990,2368.659014,-9770.718434,-5669.106685
384.274311,370.102971,-10584.944971,-5056.230287
384.274633,-666.185348,-12583.501014,-4519.963438
384.274955,-1776.494261,-13101.645173,-3753.867940
384.275277,-1924.535449,-12065.356855,-3140.991542
384.275598,-2072.576638,-10955.047942,-3294.210641
384.275920,-2368.659014,-10732.986159,-1455.581446
384.276242,-3182.885551,-9178.553681,-383.047749
384.276563,-4219.173869,-8290.306550,1225.752797
384.276885,-4737.318029,-7550.100608,2451.505594
384.277207,-5181.441594,-7698.141797,2374.896044
384.277529,-4367.215058,-7994.224174,689.485948
384.277850,-1406.391290,-7550.100608,459.657299
384.278172,2146.597232,-8438.347739,536.266849
384.278494,4441.235652,-8068.244768,1608.800546
384.278816,6291.750507,-7031.956449,1762.019645
384.279137,6883.915261,-6069.688724,0.000000
384.279459,6143.709319,-7624.121203,-2221.676944
384.279781,4515.256246,-9400.615463,-3907.087040
384.280103,1480.411884,-9622.677246,-5286.058936
384.280424,-444.123565,-10510.924376,-5592.497135
384.280746,-1258.350101,-12509.480420,-4213.525239
384.281068,-2368.659014,-12657.521608,-1915.238745
384.281390,-3256.906145,-9918.759623,-1455.581446
384.281711,-3627.009116,-9252.574275,-2757.943793
384.282033,-3775.050304,-9474.636058,-2528.115143
384.282355,-4737.318029,-9474.636058,-1302.362347
384.282676,-5847.626942,-9326.594869,383.047749
384.282998,-5625.565159,-9030.512492,1838.629195
384.283320,-5329.482782,-8438.347739,1915.238745
384.283642,-3923.091493,-8068.244768,1378.971896
384.283963,-1702.473667,-8068.244768,689.485948
384.284285,740.205942,-8512.368333,306.438199
384.284607,3182.885551,-8808.450710,766.095498
384.284929,4737.318029,-8290.306550,689.485948
384.285250,6143.709319,-8956.491898,-995.924147
384.285572,6291.750507,-8882.471304,-3217.601092
384.285894,5181.441594,-9104.533087,-3983.696590
384.286216,3997.112087,-8808.450710,-4903.011187
384.286537,2294.638420,-9104.533087,-5898.935335
384.286859,1554.432478,-11473.192101,-5898.935335
384.287181,0.000000,-13249.686362,-4060.306139
384.287503,-1776.494261,-13249.686362,-2451.505594
384.287824,-2960.823768,-11473.192101,-2451.505594
384.288146,-3627.009116,-10807.006753,-2528.115143
384.288468,-3849.070898,-10658.965565,-2911.162892
384.288790,-4737.318029,-10140.821405,-995.924147
384.289111,-5403.503377,-8586.388927,919.314598
384.289433,-4885.359217,-7698.141797,1915.238745
384.289755,-3404.947333,-7698.141797,1072.533697
384.290076,-2220.617826,-7846.182985,229.828649
384.290398,-814.226536,-8068.244768,306.438199
384.290720,1110.308913,-7550.100608,612.876398
384.291042,3404.947333,-7476.080014,76.609550
384.291363,5255.462188,-7328.038826,-919.314598
384.291685,5773.606348,-7846.182985,-1991.848295
384.292007,4663.297435,-9326.594869,-3140.991542
384.292329,2516.700203,-10066.800811,-3753.867940
384.292650,1184.329507,-11103.089130,-4826.401637
384.292972,592.164754,-11917.315666,-5592.497135
384.293294,370.102971,-12287.418637,-4673.182538
384.293616,-962.267725,-11621.233289,-2911.162892
384.293937,-1406.391290,-10362.883188,-1762.019645
384.294259,-1702.473667,-9696.697840,-1225.752797
384.294581,-2368.659014,-9696.697840,-612.876398
384.294903,-3552.988522,-9918.759623,612.876398
384.295224,-4811.338623,-9104.533087,1685.410096
384.295546,-5181.441594,-7846.182985,2528.115143
384.295868,-4737.318029,-7179.997637,2987.772442
384.296190,-3330.926739,-6365.771101,1915.238745
384.296511,-2072.576638,-5699.585753,612.876398
384.296833,-1184.329507,-6069.688724,689.485948
384.297155,888.247130,-7031.956449,995.924147
384.297476,1998.556043,-7476.080014,-766.095498
384.297798,2664.741391,-8586.388927,-2987.772442
384.298120,1998.556043,-10362.883188,-3447.429741
384.298442,1036.288319,-10362.883188,-3983.696590
384.298763,222.061783,-10362.883188,-6205.373534
384.299085,74.020594,-11399.171507,-6435.202183
384.299407,222.061783,-12657.521608,-4903.011187
384.299729,-296.082377,-12287.418637,-2911.162892
384.300050,-592.164754,-11177.109724,-1532.190996
384.300372,-1258.350101,-11029.068536,-995.924147
384.300694,-1406.391290,-10881.027347,-842.705048
384.301016,-2220.617826,-9696.697840,-459.657299
384.301337,-3627.009116,-8068.244768,1302.362347
384.301659,-4145.153275,-7105.977043,2681.334243
384.301981,-3627.009116,-6439.791695,2681.334243
384.302303,-2516.700203,-6809.894666,689.485948
384.302624,-1110.308913,-7994.224174,689.485948
384.302946,148.041188,-8586.388927,842.705048
384.303268,2072.576638,-8734.430116,0.000000
384.303590,4367.215058,-9252.574275,-1225.752797
384.303911,5847.626942,-9252.574275,-3830.477490
384.304233,5107.421000,-9622.677246,-4903.011187
384.304555,3627.009116,-9918.759623,-5439.278036
384.304876,1998.556043,-10510.924376,-5975.544884
384.305198,888.247130,-11917.315666,-5669.106685
384.305520,-148.041188,-12879.583391,-4290.134789
384.305842,-740.205942,-13027.624579,-3753.867940
384.306163,-1258.350101,-11843.295072,-2604.724693
384.306485,-1702.473667,-11177.109724,-1762.019645
384.306807,-1702.473667,-10288.862594,0.000000
384.307129,-1924.535449,-8882.471304,459.657299
384.307450,-2442.679609,-7698.141797,1225.752797
384.307772,-3849.070898,-6809.894666,2451.505594
384.308094,-4441.235652,-5995.668130,3064.381992
384.308416,-3182.885551,-6809.894666,1455.581446
384.308737,-814.226536,-7994.224174,0.000000
384.309059,1702.473667,-8808.450710,0.000000
384.309381,3552.988522,-8216.285956,1838.629195
384.309703,4367.215058,-7698.141797,766.095498
384.310024,5033.400406,-7920.203579,-1532.190996
384.310346,4367.215058,-9622.677246,-4060.306139
384.310668,2812.782580,-9918.759623,-5439.278036
384.310990,666.185348,-10436.903782,-5745.716235
384.311311,-666.185348,-11325.150913,-4979.620737
384.311633,-2072.576638,-12509.480420,-2834.553343
384.311955,-3552.988522,-11695.253884,-1915.238745
384.312276,-3997.112087,-9178.553681,-2604.724693
384.312598,-4589.276840,-8956.491898,-3140.991542
384.312920,-5033.400406,-9844.739029,-1685.410096
384.313242,-5847.626942,-9104.533087,306.438199
384.313563,-5921.647536,-7772.162391,1072.533697
384.313885,-4885.359217,-7624.121203,2221.676944
384.314207,-4145.153275,-8438.347739,2298.286494
384.314529,-3627.009116,-7476.080014,1225.752797
384.314850,-1406.391290,-7698.141797,-306.438199
384.315172,1924.535449,-8734.430116,-766.095498
384.315494,4071.132681,-9252.574275,383.047749
384.315816,4885.359217,-8660.409521,306.438199
384.316137,5477.523971,-8216.285956,-1915.238745
384.316459,5921.647536,-8882.471304,-3907.087040
384.316781,5255.462188,-9474.636058,-5515.887586
384.317103,2886.803174,-10140.821405,-5669.106685
384.317424,444.123565,-10214.842000,-4673.182538
384.317746,-962.267725,-11399.171507,-3830.477490
384.318068,-2590.720797,-13249.686362,-3524.039291
384.318389,-3701.029710,-11695.253884,-3447.429741
384.318711,-4515.256246,-9696.697840,-3294.210641
384.319033,-4515.256246,-9548.656652,-2374.896044
384.319355,-3997.112087,-9622.677246,-536.266849
384.319676,-4885.359217,-8586.388927,766.095498
384.319998,-5181.441594,-7920.203579,1532.190996
384.320320,-4515.256246,-8512.368333,1149.143247
384.320642,-3034.844362,-8290.306550,-383.047749
384.320963,-1036.288319,-7624.121203,-1378.971896
384.321285,1628.453072,-8808.450710,-459.657299
384.321607,3034.844362,-8882.471304,1149.143247
384.321929,5255.462188,-8290.306550,0.000000
384.322250,7179.997637,-8512.368333,-2068.457845
384.322572,7698.141797,-9844.739029,-3294.210641
384.322894,6883.915261,-10807.006753,-3524.039291
384.323216,4145.153275,-9992.780217,-3907.087040
384.323537,2664.741391,-10214.842000,-4290.134789
384.323859,2294.638420,-11547.212695,-3907.087040
384.324181,888.247130,-11621.233289,-3370.820191
384.324503,-814.226536,-10288.862594,-2451.505594
384.324824,-2368.659014,-9770.718434,-689.485948
384.325146,-3552.988522,-10510.924376,-459.657299
384.325468,-4441.235652,-11177.109724,153.219100
384.325789,-5847.626942,-10658.965565,919.314598
384.326111,-6809.894666,-9178.553681,1915.238745
384.326433,-6217.729913,-7476.080014,1991.848295
384.326755,-4737.318029,-6809.894666,919.314598
384.327076,-2812.782580,-5995.668130,459.657299
384.327398,-888.247130,-6439.791695,842.705048
384.327720,1184.329507,-6809.894666,1225.752797
384.328042,2812.782580,-7105.977043,-459.657299
384.328363,4737.318029,-7994.224174,-2374.896044
384.328685,5329.482782,-9918.759623,-3600.648841
384.329007,4219.173869,-10214.842000,-3753.867940
384.329329,2590.720797,-9622.677246,-3600.648841
384.329650,888.247130,-9030.512492,-4060.306139
384.329972,-222.061783,-9696.697840,-4290.134789
384.330294,-2146.597232,-11103.089130,-4443.353888
384.330616,-3627.009116,-11399.171507,-3830.477490
384.330937,-4293.194464,-11325.150913,-2298.286494
384.331259,-4367.215058,-11399.171507,-1149.143247
384.331581,-3923.091493,-10807.006753,-306.438199
384.331903,-4219.173869,-9622.677246,459.657299
384.332224,-4663.297435,-8438.347739,1378.971896
384.332546,-4589.276840,-8068.244768,1608.800546
384.332868,-3182.885551,-7920.203579,689.485948
384.333189,-1110.308913,-7698.141797,229.828649
384.333511,888.247130,-7920.203579,766.095498
384.333833,2368.659014,-8586.388927,1838.629195
384.334155,4663.297435,-8364.327145,612.876398
384.334476,7031.956449,-8512.368333,-2604.724693
384.334798,7994.224174,-8734.430116,-4136.915689
384.335120,6735.874072,-8586.388927,-4366.744339
384.335442,3923.091493,-8142.265362,-3524.039291
384.335763,1406.391290,-9104.533087,-4596.572988
384.336085,-592.164754,-11029.068536,-6281.983084
384.336407,-2886.803174,-13027.624579,-6281.983084
384.336729,-4885.359217,-13693.809927,-3983.696590
384.337050,-6217.729913,-12065.356855,-3294.210641
384.337372,-6217.729913,-11399.171507,-3217.601092
384.337694,-5403.503377,-11695.253884,-2068.457845
384.338016,-5773.606348,-11695.253884,0.000000
384.338337,-6365.771101,-9474.636058,1149.143247
384.338659,-6439.791695,-6809.894666,2221.676944
384.338981,-4885.359217,-6143.709319,1149.143247
384.339303,-2294.638420,-6217.729913,0.000000
384.339624,1110.308913,-6883.915261,229.828649
384.339946,3552.988522,-7550.100608,1302.362347
384.340268,6217.729913,-7624.121203,2528.115143
384.340589,8512.368333,-7031.956449,1838.629195
384.340911,9696.697840,-7254.018232,-1225.752797
384.341233,8734.430116,-9326.594869,-3677.258390
384.341555,6365.771101,-9918.759623,-3983.696590
384.341876,3552.988522,-9844.739029,-4213.525239
384.342198,1184.329507,-11029.068536,-4290.134789
384.342520,-740.205942,-12435.459826,-3830.477490
384.342842,-2516.700203,-11399.171507,-4213.525239
384.343163,-4441.235652,-10510.924376,-4366.744339
384.343485,-5403.503377,-11325.150913,-2451.505594
384.343807,-5625.565159,-12213.398043,-1378.971896
384.344129,-6587.832884,-11251.130318,536.266849
384.344450,-6661.853478,-8956.491898,2374.896044
384.344772,-5847.626942,-7476.080014,2528.115143
384.345094,-4811.338623,-6809.894666,995.924147
384.345416,-3478.967927,-6735.874072,459.657299
384.345737,-1332.370696,-6439.791695,1608.800546
384.346059,1702.473667,-6883.915261,1225.752797
384.346381,4589.276840,-7624.121203,76.609550
384.346702,6069.688724,-8068.244768,-842.705048
384.347024,7031.956449,-8216.285956,-1608.800546
384.347346,6809.894666,-8808.450710,-3830.477490
384.347668,6365.771101,-10140.821405,-4366.744339
384.347989,4811.338623,-10362.883188,-5515.887586
384.348311,2960.823768,-11621.233289,-5745.716235
384.348633,1036.288319,-13249.686362,-4903.011187
384.348955,-518.144159,-13767.830521,-2757.943793
384.349276,-2442.679609,-12065.356855,-3217.601092
384.349598,-3552.988522,-11177.109724,-3064.381992
384.349920,-4737.318029,-10807.006753,-1149.143247
384.350242,-5847.626942,-10658.965565,76.609550
384.350563,-6735.874072,-9178.553681,1302.362347
384.350885,-6513.812290,-7402.059420,2451.505594
384.351207,-5625.565159,-6365.771101,1608.800546
384.351529,-3849.070898,-5699.585753,0.000000
384.351850,-2146.597232,-5773.606348,-536.266849
384.352172,-444.123565,-6143.709319,766.095498
384.352494,1850.514855,-6957.935855,689.485948
384.352816,3849.070898,-7476.080014,-1532.190996
384.353137,4737.318029,-9474.636058,-4290.134789
384.353459,3701.029710,-11843.295072,-4213.525239
384.353781,1628.453072,-11991.336260,-3753.867940
384.354102,888.247130,-11621.233289,-5132.839837
384.354424,962.267725,-11547.212695,-6511.811733
384.354746,1036.288319,-12287.418637,-6435.202183
384.355068,-444.123565,-11621.233289,-4749.792088
384.355389,-2368.659014,-10214.842000,-3140.991542
384.355711,-2960.823768,-10140.821405,-1378.971896
384.356033,-4293.194464,-10584.944971,-766.095498
384.356355,-5255.462188,-11547.212695,383.047749
384.356676,-7031.956449,-10140.821405,2451.505594
384.356998,-7105.977043,-7994.224174,3677.258390
384.357320,-5847.626942,-6661.853478,2528.115143
384.357642,-3256.906145,-5773.606348,689.485948
384.357963,-444.123565,-5403.503377,1072.533697
384.358285,1554.432478,-5477.523971,1685.410096
384.358607,4293.194464,-6513.812290,1991.848295
384.358929,6143.709319,-6587.832884,0.000000
384.359250,6587.832884,-7476.080014,-1838.629195
384.359572,5995.668130,-9548.656652,-3294.210641
384.359894,3701.029710,-10214.842000,-3907.087040
384.360216,2368.659014,-10584.944971,-6052.154434
384.360537,1036.288319,-11621.233289,-6281.983084
384.360859,-296.082377,-12287.418637,-5362.668486
384.361181,-1776.494261,-12139.377449,-3830.477490
384.361502,-3256.906145,-10140.821405,-3830.477490
384.361824,-3997.112087,-10140.821405,-2681.334243
384.362146,-4219.173869,-10584.944971,-1685.410096
384.362468,-4441.235652,-9918.759623,-306.438199
384.362789,-4515.256246,-8660.409521,1608.800546
384.363111,-4515.256246,-8142.265362,3064.381992
384.363433,-3849.070898,-7476.080014,2451.505594
384.363755,-1998.556043,-7105.977043,1608.800546
384.364076,962.267725,-7550.100608,536.266849
384.364398,3997.112087,-8660.409521,689.485948
384.364720,5773.606348,-9326.594869,1072.533697
384.365041,7698.141797,-8956.491898,842.705048
384.365363,8882.471304,-9178.553681,-1225.752797
384.365685,8956.491898,-9770.718434,-3064.381992
384.366006,7105.977043,-9770.718434,-4673.182538
384.366328,4663.297435,-9770.718434,-6435.202183
384.366650,2368.659014,-10881.027347,-6511.811733
384.366972,222.061783,-12731.542202,-5745.716235
384.367293,-1924.535449,-13323.706956,-4596.572988
384.367615,-3330.926739,-11695.253884,-4596.572988
384.367937,-4737.318029,-10732.986159,-4366.744339
384.368258,-5773.606348,-10881.027347,-2681.334243
384.368580,-6883.915261,-11769.274478,-1302.362347
384.368902,-7994.224174,-10214.842000,306.438199
384.369223,-8512.368333,-8808.450710,2068.457845
384.369545,-7624.121203,-8216.285956,1915.238745
384.369867,-5921.647536,-7105.977043,1149.143247
384.370188,-1998.556043,-7105.977043,306.438199
384.370510,962.267725,-7179.997637,612.876398
384.370832,3478.967927,-7254.018232,1838.629195
384.371154,5773.606348,-6809.894666,1762.019645
384.371475,7402.059420,-6957.935855,229.828649
384.371797,7402.059420,-7920.203579,-2451.505594
384.372119,5773.606348,-9104.533087,-3064.381992
384.372440,3108.864956,-9474.636058,-3983.696590
384.372762,1110.308913,-10732.986159,-4826.401637
384.373084,-148.041188,-11695.253884,-4749.792088
384.373405,-962.267725,-11621.233289,-2911.162892
384.373727,-2220.617826,-9844.739029,-4060.306139
384.374049,-3478.967927,-9178.553681,-3830.477490
384.374371,-5181.441594,-9696.697840,-2374.896044
384.374692,-7254.018232,-10362.883188,-306.438199
384.375014,-9178.553681,-10436.903782,536.266849
384.375336,-9770.718434,-9400.615463,766.095498
384.375657,-9918.759623,-8586.388927,766.095498
384.375979,-8142.265362,-6883.915261,1072.533697
384.376301,-5403.503377,-5329.482782,536.266849
384.376622,-1406.391290,-5625.565159,689.485948
384.376944,2146.597232,-6365.771101,766.095498
384.377266,5255.462188,-7846.182985,0.000000
384.377588,6661.853478,-8290.306550,-1225.752797
384.377909,7402.059420,-9696.697840,-1991.848295
384.378231,6735.874072,-10214.842000,-2757.943793
384.378553,5403.503377,-9400.615463,-4673.182538
384.378874,4589.276840,-9844.739029,-5362.668486
384.379196,3627.009116,-11621.233289,-4519.963438
384.379518,2294.638420,-13323.706956,-4749.792088
384.379839,888.247130,-13027.624579,-3983.696590
384.380161,0.000000,-12139.377449,-3294.210641
384.380483,-888.247130,-11621.233289,-1915.238745
384.380804,-1924.535449,-11325.150913,-1455.581446
384.381126,-3701.029710,-11325.150913,0.000000
384.381448,-5699.585753,-10140.821405,2221.676944
384.381770,-6809.894666,-7846.182985,2987.772442
384.382091,-5625.565159,-6661.853478,1455.581446
384.382413,-2738.761985,-6587.832884,-306.438199
384.382735,814.226536,-7105.977043,0.000000
384.383056,3552.988522,-7402.059420,536.266849
384.383378,5921.647536,-7846.182985,919.314598
384.383700,8364.327145,-8808.450710,153.219100
384.384021,8142.265362,-10288.862594,-1762.019645
384.384343,5773.606348,-10436.903782,-3217.601092
384.384665,2812.782580,-9696.697840,-4903.011187
384.384987,1110.308913,-10066.800811,-6128.763984
384.385308,666.185348,-11103.089130,-6358.592633
384.385630,444.123565,-11843.295072,-4749.792088
384.385952,296.082377,-11177.109724,-3524.039291
384.386273,-518.144159,-10140.821405,-1838.629195
384.386595,-1702.473667,-9992.780217,-689.485948
384.386917,-3404.947333,-10066.800811,0.000000
384.387238,-5921.647536,-10362.883188,0.000000
384.387560,-7550.100608,-9844.739029,1838.629195
384.387882,-8808.450710,-9030.512492,2834.553343
384.388204,-7550.100608,-7476.080014,3217.601092
384.388525,-4885.359217,-6069.688724,1991.848295
384.388847,-1406.391290,-5921.647536,995.924147
384.389169,1258.350101,-6143.709319,1378.971896
384.389490,3997.112087,-6957.935855,1378.971896
384.389812,5403.503377,-6957.935855,0.000000
384.390134,5477.523971,-8142.265362,-1532.190996
384.390455,2886.803174,-8586.388927,-2911.162892
384.390777,814.226536,-9252.574275,-4596.572988
384.391099,-296.082377,-10881.027347,-7737.564530
384.391421,-740.205942,-12731.542202,-7048.078582
384.391742,-1850.514855,-13397.727550,-3217.601092
384.392064,-3552.988522,-11399.171507,-2068.457845
384.392386,-3849.070898,-9326.594869,-3140.991542
384.392707,-4589.276840,-10510.924376,-3600.648841
384.393029,-6217.729913,-10066.800811,-2757.943793
384.393351,-7994.224174,-8068.244768,-2068.457845
384.393672,-8068.244768,-7179.997637,-1149.143247
384.393994,-7550.100608,-8438.347739,1072.533697
384.394316,-6513.812290,-9030.512492,2374.896044
384.394637,-4737.318029,-8216.285956,1685.410096
384.394959,-1480.411884,-8068.244768,1072.533697
384.395281,2886.803174,-8660.409521,995.924147
384.395603,5773.606348,-7476.080014,76.609550
384.395924,7624.121203,-6439.791695,-229.828649
384.396246,8734.430116,-6809.894666,-536.266849
384.396568,8808.450710,-8808.450710,-2834.553343
384.396889,7698.141797,-9918.759623,-5209.449386
384.397211,6365.771101,-10658.965565,-5975.544884
384.397533,4737.318029,-11843.295072,-5515.887586
384.397854,3108.864956,-13471.748144,-4673.182538
384.398176,740.205942,-12953.603985,-3830.477490
384.398498,-1332.370696,-11325.150913,-3753.867940
384.398820,-2664.741391,-11621.233289,-3677.258390
384.399141,-4145.153275,-11843.295072,-3370.820191
384.399463,-6143.709319,-11251.130318,-1225.752797
384.399785,-7550.100608,-10066.800811,1302.362347
384.400106,-7994.224174,-9400.615463,2451.505594
384.400428,-6883.915261,-8956.491898,1915.238745
384.400750,-3923.091493,-7402.059420,842.705048
384.401071,222.061783,-6883.915261,842.705048
384.401393,3775.050304,-6365.771101,229.828649
384.401715,5847.626942,-6587.832884,1378.971896
384.402037,7105.977043,-7105.977043,2681.334243
384.402358,7698.141797,-7328.038826,1532.190996
384.402680,6513.812290,-8512.368333,-2221.676944
384.403002,5255.462188,-9770.718434,-5209.449386
384.403323,3182.885551,-11325.150913,-5132.839837
384.403645,1110.308913,-11547.212695,-4443.353888
384.403967,0.000000,-11769.274478,-3524.039291
384.404288,-740.205942,-11399.171507,-2451.505594
384.404610,-1850.514855,-10288.862594,-1991.848295
384.404932,-3330.926739,-9548.656652,-3370.820191
384.405253,-5107.421000,-9400.615463,-2451.505594
384.405575,-5847.626942,-9992.780217,-229.828649
384.405897,-6883.915261,-9770.718434,1455.581446
384.406219,-7920.203579,-8142.265362,2604.724693
384.406540,-7328.038826,-6439.791695,2528.115143
384.406862,-5625.565159,-6217.729913,536.266849
384.407184,-3034.844362,-6957.935855,-459.657299
384.407505,-518.144159,-7550.100608,612.876398
384.407827,2072.576638,-7402.059420,2068.457845
384.408149,4515.256246,-7031.956449,1225.752797
384.408470,6661.853478,-8364.327145,-689.485948
384.408792,7031.956449,-9622.677246,-2604.724693
384.409114,5403.503377,-9548.656652,-3753.867940
384.409436,3108.864956,-9548.656652,-5592.497135
384.409757,1110.308913,-10288.862594,-6128.763984
384.410079,-222.061783,-12435.459826,-4826.401637
384.410401,-2146.597232,-13249.686362,-3294.210641
384.410722,-3404.947333,-11991.336260,-3983.696590
384.411044,-3849.070898,-11399.171507,-3677.258390
384.411366,-3775.050304,-11769.274478,-2451.505594
384.411687,-4515.256246,-11621.233289,-766.095498
384.412009,-6365.771101,-10066.800811,-306.438199
384.412331,-7179.997637,-8734.430116,612.876398
384.412653,-7031.956449,-7698.141797,995.924147
384.412974,-5551.544565,-6587.832884,-383.047749
384.413296,-2590.720797,-6439.791695,-1378.971896
384.413618,592.164754,-7105.977043,-919.314598
384.413939,3997.112087,-9030.512492,229.828649
384.414261,6069.688724,-10140.821405,536.266849
384.414583,7476.080014,-10214.842000,76.609550
384.414904,7550.100608,-10658.965565,-1225.752797
384.415226,6143.709319,-9992.780217,-3677.258390
384.415548,3701.029710,-9622.677246,-5362.668486
384.415869,1480.411884,-9400.615463,-6052.154434
384.416191,296.082377,-10288.862594,-5362.668486
384.416513,0.000000,-11251.130318,-4213.525239
384.416835,-148.041188,-11103.089130,-2528.115143
384.417156,-1184.329507,-10436.903782,-1378.971896
384.417478,-2738.761985,-9992.780217,-229.828649
384.417800,-5033.400406,-9844.739029,383.047749
384.418121,-7031.956449,-9474.636058,459.657299
384.418443,-8438.347739,-7994.224174,306.438199
384.418765,-8290.306550,-7254.018232,-306.438199
384.419086,-5773.606348,-7920.203579,0.000000
384.419408,-1554.432478,-8586.388927,1072.533697
384.419730,2294.638420,-8586.388927,2145.067394
384.420052,4663.297435,-7105.977043,3294.210641
384.420373,6069.688724,-6291.750507,1455.581446
384.420695,7105.977043,-6809.894666,-306.438199
384.421017,6513.812290,-7328.038826,-2528.115143
384.421338,4441.235652,-7698.141797,-4213.525239
384.421660,2516.700203,-9400.615463,-3830.477490
384.421982,2072.576638,-11251.130318,-3370.820191
384.422303,1406.391290,-12879.583391,-2451.505594
384.422625,370.102971,-13027.624579,-1532.190996
384.422947,-370.102971,-10955.047942,-1685.410096
384.423269,-888.247130,-10436.903782,-2451.505594
384.423590,-2442.679609,-9770.718434,-2757.943793
384.423912,-5181.441594,-9400.615463,-1762.019645
384.424234,-7994.224174,-8808.450710,-306.438199
384.424555,-9252.574275,-7698.141797,0.000000
384.424877,-8734.430116,-8068.244768,-766.095498
384.425199,-6217.729913,-8660.409521,-2298.286494
384.425520,-2812.782580,-9918.759623,-1378.971896
384.425842,888.247130,-10510.924376,153.219100
384.426164,3923.091493,-10362.883188,1991.848295
384.426485,6439.791695,-9030.512492,2068.457845
384.426807,8142.265362,-7994.224174,-842.705048
384.427129,7994.224174,-7179.997637,-2834.553343
384.427451,5847.626942,-6809.894666,-3064.381992
384.427772,3404.947333,-7772.162391,-4213.525239
384.428094,2072.576638,-9918.759623,-4903.011187
384.428416,1850.514855,-13027.624579,-4290.134789
384.428737,1332.370696,-14285.974681,-2834.553343
384.429059,-296.082377,-13249.686362,-2068.457845
384.429381,-1036.288319,-11029.068536,-2221.676944
384.429702,-1850.514855,-9474.636058,-2681.334243
384.430024,-3330.926739,-8956.491898,-2374.896044
384.430346,-5551.544565,-9252.574275,-536.266849
384.430668,-7698.141797,-9474.636058,0.000000
384.430989,-9474.636058,-10362.883188,842.705048
384.431311,-8882.471304,-10140.821405,689.485948
384.431633,-6217.729913,-9474.636058,-383.047749
384.431954,-2368.659014,-9252.574275,-229.828649
384.432276,1554.432478,-8808.450710,689.485948
384.432598,4737.318029,-5995.668130,229.828649
384.432919,7105.977043,-5995.668130,-1072.533697
384.433241,7846.182985,-7846.182985,-536.266849
384.433563,5699.585753,-7920.203579,-459.657299
384.433885,2442.679609,-7476.080014,-3064.381992
384.434206,1036.288319,-8808.450710,-5592.497135
384.434528,740.205942,-11547.212695,-5286.058936
384.434850,-740.205942,-12657.521608,-3753.867940
384.435171,-2368.659014,-11843.295072,-1838.629195
384.435493,-2442.679609,-9178.553681,-459.657299
384.435815,-1998.556043,-9030.512492,-1378.971896
384.436136,-3478.967927,-10066.800811,-2834.553343
384.436458,-5847.626942,-9696.697840,-1072.533697
384.436780,-7402.059420,-9252.574275,995.924147
384.437101,-7476.080014,-8956.491898,2145.067394
384.437423,-6143.709319,-7105.977043,2068.457845
384.437745,-3923.091493,-4663.297435,689.485948
384.438067,-1258.350101,-5699.585753,-919.314598
384.438388,1554.432478,-7476.080014,229.828649
384.438710,4219.173869,-7772.162391,383.047749
384.439032,6439.791695,-8216.285956,-459.657299
384.439353,7328.038826,-9178.553681,-1838.629195
384.439675,6513.812290,-10066.800811,-2068.457845
384.439997,4441.235652,-9622.677246,-4136.915689
384.440318,2368.659014,-9770.718434,-5592.497135
384.440640,1184.329507,-11399.171507,-5822.325785
384.440962,148.041188,-13101.645173,-4903.011187
384.441284,-1332.370696,-12805.562797,-3753.867940
384.441605,-1406.391290,-12657.521608,-2528.115143
384.441927,-1480.411884,-12287.418637,-1991.848295
384.442249,-1480.411884,-11325.150913,-1762.019645
384.442570,-2516.700203,-10214.842000,-612.876398
384.442892,-4737.318029,-9252.574275,1225.752797
384.443214,-6069.688724,-8438.347739,2374.896044
384.443535,-6217.729913,-6513.812290,1608.800546
384.443857,-3849.070898,-6217.729913,-383.047749
384.444179,-296.082377,-7624.121203,-1149.143247
384.444501,2590.720797,-8586.388927,-536.266849
384.444822,4737.318029,-7772.162391,842.705048
384.445144,5921.647536,-7105.977043,995.924147
384.445466,6883.915261,-8216.285956,-689.485948
384.445787,5773.606348,-9622.677246,-3600.648841
384.446109,3256.906145,-10066.800811,-5669.106685
384.446431,1110.308913,-10955.047942,-6818.249932
384.446752,-296.082377,-12361.439231,-5056.230287
384.447074,-222.061783,-13397.727550,-3907.087040
384.447396,0.000000,-11917.315666,-2987.772442
384.447717,296.082377,-9844.739029,-1991.848295
384.448039,0.000000,-9252.574275,-1302.362347
384.448361,-2072.576638,-10066.800811,-383.047749
384.448683,-4737.318029,-9474.636058,842.705048
384.449004,-7031.956449,-9030.512492,2145.067394
384.449326,-8438.347739,-8068.244768,3064.381992
384.449648,-8438.347739,-6365.771101,1915.238745
384.449969,-5403.503377,-6143.709319,459.657299
384.450291,-1702.473667,-7476.080014,0.000000
384.450613,1702.473667,-7994.224174,1915.238745
384.450934,3775.050304,-6883.915261,2757.943793
384.451256,5255.462188,-6291.750507,689.485948
384.451578,6365.771101,-7179.997637,-1378.971896
384.451900,5107.421000,-8808.450710,-3983.696590
384.452221,2072.576638,-9548.656652,-5592.497135
384.452543,-444.123565,-11029.068536,-5822.325785
384.452865,-1776.494261,-13249.686362,-5286.058936
384.453186,-2072.576638,-14063.912898,-4290.134789
384.453508,-1702.473667,-13101.645173,-2834.553343
384.453830,-1036.288319,-11103.089130,-2834.553343
384.454151,-1332.370696,-9252.574275,-2221.676944
384.454473,-2294.638420,-8216.285956,-1378.971896
384.454795,-3627.009116,-7624.121203,0.000000
384.455117,-5921.647536,-7476.080014,995.924147
384.455438,-7105.977043,-7994.224174,1149.143247
384.455760,-7402.059420,-7994.224174,766.095498
384.456082,-6217.729913,-8216.285956,689.485948
384.456403,-3923.091493,-8142.265362,842.705048
384.456725,-592.164754,-8364.327145,536.266849
384.457047,3330.926739,-7846.182985,-306.438199
384.457368,6883.915261,-6957.935855,-1608.800546
384.457690,9030.512492,-7698.141797,-3217.601092
384.458012,8808.450710,-9474.636058,-3217.601092
384.458333,6143.709319,-9844.739029,-3140.991542
384.458655,3404.947333,-10658.965565,-5209.449386
384.458977,1184.329507,-13101.645173,-6435.202183
384.459299,370.102971,-15174.221811,-6128.763984
384.459620,-592.164754,-13989.892304,-5056.230287
384.459942,-518.144159,-11325.150913,-3370.820191
384.460264,-518.144159,-10436.903782,-306.438199
384.460585,-370.102971,-9030.512492,0.000000
384.460907,-2368.659014,-8364.327145,-383.047749
384.461229,-5329.482782,-8438.347739,689.485948
384.461550,-7550.100608,-8660.409521,1685.410096
384.461872,-8290.306550,-7624.121203,766.095498
384.462194,-6513.812290,-7772.162391,-229.828649
384.462516,-2886.803174,-8364.327145,-383.047749
384.462837,962.267725,-8438.347739,306.438199
384.463159,4145.153275,-8068.244768,995.924147
384.463481,6735.874072,-7846.182985,459.657299
384.463802,8290.306550,-8512.368333,-1072.533697
384.464124,7624.121203,-9030.512492,-2681.334243
384.464446,5181.441594,-9326.594869,-3830.477490
384.464768,2442.679609,-9844.739029,-4903.011187
384.465089,962.267725,-11103.089130,-5439.278036
384.465411,-296.082377,-11695.253884,-4903.011187
384.465733,-1776.494261,-11251.130318,-3217.601092
384.466055,-2072.576638,-10584.944971,-1838.629195
384.466376,-1850.514855,-9992.780217,-1532.190996
384.466698,-2368.659014,-9770.718434,-842.705048
384.467020,-3775.050304,-9104.533087,306.438199
384.467342,-5625.565159,-8660.409521,1685.410096
384.467663,-7328.038826,-8586.388927,2298.286494
384.467985,-8586.388927,-7698.141797,2681.334243
384.468307,-7254.018232,-5921.647536,1225.752797
384.468628,-3775.050304,-6217.729913,-612.876398
384.468950,370.102971,-8660.409521,-536.266849
384.469272,2368.659014,-8882.471304,1608.800546
384.469594,4071.132681,-7402.059420,1915.238745
384.469915,6143.709319,-7476.080014,-689.485948
384.470237,7105.977043,-9548.656652,-3447.429741
384.470559,5255.462188,-10140.821405,-4903.011187
384.470881,2294.638420,-9770.718434,-5209.449386
384.471202,222.061783,-10658.965565,-5515.887586
384.471524,222.061783,-13915.871710,-4749.792088
384.471846,74.020594,-14508.036463,-3907.087040
384.472168,-1110.308913,-11843.295072,-2451.505594
384.472489,-1850.514855,-10436.903782,-2221.676944
384.472811,-2664.741391,-10140.821405,-1378.971896
384.473133,-3701.029710,-9696.697840,-536.266849
384.473454,-5625.565159,-8364.327145,-383.047749
384.473776,-6661.853478,-6883.915261,1072.533697
384.474098,-7105.977043,-6883.915261,1838.629195
384.474420,-6439.791695,-8438.347739,1378.971896
384.474741,-4885.359217,-8216.285956,995.924147
384.475063,-2368.659014,-7846.182985,612.876398
384.475385,666.185348,-8364.327145,842.705048
384.475707,3627.009116,-8068.244768,229.828649
384.476028,4441.235652,-6587.832884,-1838.629195
384.476350,5033.400406,-6809.894666,-4366.744339
384.476672,4737.318029,-8956.491898,-5592.497135
384.476994,2664.741391,-10732.986159,-6435.202183
384.477315,0.000000,-12731.542202,-5898.935335
384.477637,-2368.659014,-14211.954086,-4366.744339
384.477959,-4145.153275,-14730.098246,-3830.477490
384.478280,-4515.256246,-12731.542202,-3983.696590
384.478602,-4293.194464,-10140.821405,-3447.429741
384.478924,-4885.359217,-8216.285956,-1378.971896
384.479246,-6069.688724,-7105.977043,0.000000
384.479567,-7624.121203,-7254.018232,536.266849
384.479889,-8586.388927,-8734.430116,1532.190996
384.480211,-9178.553681,-9770.718434,2221.676944
384.480533,-8956.491898,-8586.388927,2451.505594
384.480854,-7031.956449,-6809.894666,1838.629195
384.481176,-3478.967927,-6513.812290,842.705048
384.481498,-296.082377,-6513.812290,76.609550
384.481820,1628.453072,-6217.729913,-612.876398
384.482141,2738.761985,-6217.729913,-1072.533697
384.482463,3849.070898,-7698.141797,-2987.772442
384.482785,3701.029710,-10214.842000,-5286.058936
384.483106,1850.514855,-11695.253884,-5592.497135
384.483428,-1850.514855,-12731.542202,-4673.182538
384.483750,-5255.462188,-13471.748144,-4519.963438
384.484072,-7328.038826,-13619.789333,-4519.963438
384.484393,-8660.409521,-12287.418637,-4366.744339
384.484715,-8512.368333,-10362.883188,-4596.572988
384.485037,-8068.244768,-8290.306550,-2834.553343
384.485359,-6883.915261,-7550.100608,-536.266849
384.485680,-6513.812290,-6883.915261,1302.362347
384.486002,-5699.585753,-5551.544565,2068.457845
384.486324,-4589.276840,-5181.441594,842.705048
384.486646,-3182.885551,-7624.121203,0.000000
384.486967,-2590.720797,-9696.697840,919.314598
384.487289,-2812.782580,-10881.027347,1991.848295
384.487611,-2072.576638,-10362.883188,1762.019645
384.487933,-518.144159,-9770.718434,153.219100
384.488254,370.102971,-9326.594869,-2374.896044
384.488576,592.164754,-8956.491898,-3830.477490
384.488898,370.102971,-8512.368333,-4213.525239
384.489219,148.041188,-9400.615463,-4060.306139
384.489541,-222.061783,-10807.006753,-3524.039291
384.489863,-1628.453072,-11621.233289,-3447.429741
384.490185,-3404.947333,-11251.130318,-3600.648841
384.490506,-4811.338623,-10658.965565,-4443.353888
384.490828,-4811.338623,-10362.883188,-4519.963438
384.491150,-4441.235652,-10288.862594,-3677.258390
384.491472,-3997.112087,-10066.800811,-1455.581446
384.491793,-4367.215058,-9178.553681,1149.143247
384.492115,-4885.359217,-7476.080014,2068.457845
384.492437,-4811.338623,-6069.688724,459.657299
384.492759,-4737.318029,-5921.647536,-1225.752797
384.493080,-4515.256246,-7179.997637,-1838.629195
384.493402,-3849.070898,-8438.347739,-153.219100
384.493724,-3034.844362,-9770.718434,1072.533697
384.494045,-1036.288319,-10214.842000,842.705048
384.494367,888.247130,-10214.842000,-229.828649
384.494689,2368.659014,-9326.594869,-1532.190996
384.495011,2812.782580,-8808.450710,-2221.676944
384.495332,2442.679609,-8808.450710,-3370.820191
384.495654,962.267725,-9400.615463,-3370.820191
384.495976,-1406.391290,-11251.130318,-2451.505594
384.496298,-4293.194464,-12509.480420,-1915.238745
384.496619,-7105.977043,-12213.398043,-1762.019645
384.496941,-9104.533087,-10658.965565,-2987.772442
384.497263,-10510.924376,-10288.862594,-2757.943793
384.497585,-11843.295072,-8438.347739,-1915.238745
384.497906,-11695.253884,-6365.771101,-1608.800546
384.498228,-10436.903782,-5625.565159,-1915.238745
384.498550,-7550.100608,-6883.915261,-2451.505594
384.498871,-5773.606348,-7550.100608,-1838.629195
384.499193,-4145.153275,-8512.368333,-1608.800546
384.499515,-2664.741391,-10066.800811,-612.876398
384.499837,-296.082377,-11177.109724,-766.095498
384.500158,1850.514855,-10807.006753,-2145.067394
384.500480,2664.741391,-9992.780217,-2145.067394
384.500802,2812.782580,-8512.368333,-2145.067394
384.501124,1850.514855,-7624.121203,-2604.724693
384.501445,148.041188,-7772.162391,-2911.162892
384.501767,-1924.535449,-9252.574275,-2451.505594
384.502089,-4441.235652,-10732.986159,-1532.190996
384.502411,-6365.771101,-11991.336260,-1991.848295
384.502732,-7179.997637,-12435.459826,-1225.752797
384.503054,-7698.141797,-11843.295072,-306.438199
384.503376,-7846.182985,-9918.759623,-229.828649
384.503697,-7179.997637,-8882.471304,-1302.362347
384.504019,-6069.688724,-6661.853478,-1532.190996
384.504341,-5181.441594,-4515.256246,-1378.971896
384.504663,-4219.173869,-3923.091493,-1915.238745
384.504984,-2960.823768,-4885.359217,-2987.772442
384.505306,-1554.432478,-8216.285956,-2681.334243
384.505628,-814.226536,-11029.068536,-2987.772442
384.505950,-666.185348,-13693.809927,-2451.505594
384.506271,0.000000,-14878.139434,-1991.848295
384.506593,814.226536,-13841.851115,-1608.800546
384.506915,1258.350101,-12139.377449,-1302.362347
384.507237,-296.082377,-11399.171507,-766.095498
384.507558,-2368.659014,-9992.780217,153.219100
384.507880,-4515.256246,-7698.141797,0.000000
384.508202,-5477.523971,-6069.688724,-2068.457845
384.508523,-5699.585753,-5921.647536,-2604.724693
384.508845,-5033.400406,-6439.791695,-1915.238745
384.509167,-4515.256246,-7105.977043,-1532.190996
384.509489,-3404.947333,-8364.327145,-1149.143247
384.509810,-1998.556043,-9030.512492,-919.314598
384.510132,-2072.576638,-9104.533087,-1532.190996
384.510454,-3775.050304,-10140.821405,-2451.505594
384.510776,-4663.297435,-11251.130318,-3294.210641
384.511097,-4737.318029,-13101.645173,-3217.601092
384.511419,-4515.256246,-14582.057057,-2528.115143
384.511741,-3775.050304,-14434.015869,383.047749
384.512063,-1924.535449,-12287.418637,2757.943793
384.512384,666.185348,-10658.965565,1685.410096
384.512706,2368.659014,-11029.068536,919.314598
384.513028,1998.556043,-10658.965565,2834.553343
384.513350,0.000000,-7105.977043,4213.525239
384.513671,-2442.679609,-4811.338623,4213.525239
384.513993,-4737.318029,-3701.029710,4136.915689
384.514315,-7254.018232,-1998.556043,2528.115143
384.514636,-8512.368333,-2072.576638,-1685.410096
384.514958,-8660.409521,-4441.235652,-4903.011187
384.515280,-8216.285956,-5773.606348,-3830.477490
384.515602,-7476.080014,-7476.080014,-3294.210641
384.515923,-6365.771101,-11917.315666,-3447.429741
384.516245,-5921.647536,-15914.427753,-3447.429741
384.516567,-6217.729913,-16432.571912,-3753.867940
384.516889,-6217.729913,-16210.510130,-4673.182538
384.517210,-4071.132681,-14952.160028,-2911.162892
384.517532,-2072.576638,-11991.336260,-1072.533697
384.517854,-2294.638420,-8660.409521,689.485948
384.518176,-2220.617826,-6291.750507,3600.648841
384.518497,-1776.494261,-4959.379811,5132.839837
384.518819,-1332.370696,-3849.070898,3370.820191
384.519141,-666.185348,-4441.235652,919.314598
384.519462,-814.226536,-7402.059420,2528.115143
384.519784,-1480.411884,-9178.553681,3983.696590
384.520106,-1258.350101,-9696.697840,3294.210641
384.520428,1628.453072,-9696.697840,842.705048
384.520749,3849.070898,-8216.285956,-2145.067394
384.521071,3849.070898,-8734.430116,-3983.696590
384.521393,2442.679609,-12213.398043,-3217.601092
384.521715,1184.329507,-16876.695478,-2221.676944
384.522036,962.267725,-17394.839637,-1991.848295
384.522358,1036.288319,-16358.551318,-2528.115143
384.522680,2294.638420,-15544.324782,-1072.533697
384.523002,1554.432478,-12361.439231,383.047749
384.523323,-814.226536,-9104.533087,1302.362347
384.523645,-1702.473667,-5699.585753,3524.039291
384.523967,-222.061783,-3256.906145,3677.258390
384.524288,1258.350101,-1554.432478,612.876398
384.524610,1406.391290,-1480.411884,0.000000
384.524932,1406.391290,-3701.029710,1532.190996
384.525254,1480.411884,-6587.832884,3830.477490
384.525575,1184.329507,-7772.162391,2604.724693
384.525897,2368.659014,-9992.780217,-1608.800546
384.526219,3034.844362,-12731.542202,-4903.011187
384.526541,1628.453072,-13101.645173,-4903.011187
384.526862,74.020594,-13471.748144,-2298.286494
384.527184,-888.247130,-15766.386565,-536.266849
384.527506,-1406.391290,-17172.777854,-229.828649
384.527828,-2590.720797,-15396.283594,-612.876398
384.528149,-3330.926739,-13619.789333,536.266849
384.528471,-3182.885551,-12879.583391,3370.820191
384.528793,-3182.885551,-11029.068536,5056.230287
384.529114,-4219.173869,-7624.121203,6435.202183
384.529436,-4663.297435,-5551.544565,7431.126331
384.529758,-4367.215058,-5329.482782,5592.497135
384.530080,-4441.235652,-6735.874072,4136.915689
384.530401,-4367.215058,-6809.894666,5132.839837
384.530723,-1850.514855,-5995.668130,4979.620737
384.531045,2220.617826,-6069.688724,2757.943793
384.531367,5107.421000,-3552.988522,2068.457845
384.531688,4515.256246,-814.226536,76.609550
384.532010,3256.906145,-6587.832884,-3830.477490
384.532332,1554.432478,-13619.789333,-3983.696590
384.532654,-2886.803174,-15174.221811,-3217.601092
384.532975,-9104.533087,-15914.427753,-2528.115143
384.533297,-12139.377449,-19393.395680,306.438199
384.533619,-12435.459826,-18209.066173,2528.115143
384.533940,-12657.521608,-12731.542202,612.876398
384.534262,-11621.233289,-9474.636058,1991.848295
384.534584,-7772.162391,-10214.842000,6588.421283
384.534906,-5255.462188,-9178.553681,7201.297681
384.535227,-3775.050304,-4737.318029,8733.488677
384.535549,-592.164754,-296.082377,11797.870669
384.535871,3627.009116,2442.679609,9499.584175
384.536193,8290.306550,222.061783,2987.772442
384.536514,11917.315666,-1924.535449,-153.219100
384.536836,11547.212695,-5403.503377,1762.019645
384.537158,8808.450710,-11103.089130,4749.792088
384.537480,6143.709319,-18875.251521,6435.202183
384.537801,2664.741391,-21910.095883,2451.505594
384.538123,-1036.288319,-18579.169144,-4136.915689
384.538445,-2590.720797,-17172.777854,-5209.449386
384.538766,-2738.761985,-15766.386565,-2528.115143
384.539088,-3034.844362,-9474.636058,0.000000
384.539410,-3552.988522,-3330.926739,0.000000
384.539732,-3108.864956,-5181.441594,1915.238745
384.540053,-3034.844362,-9030.512492,4366.744339
384.540375,-5551.544565,-8512.368333,2987.772442
384.540697,-6809.894666,-7476.080014,1762.019645
384.541019,-2960.823768,-8512.368333,3524.039291
384.541340,1776.494261,-9400.615463,4826.401637
384.541662,3034.844362,-7031.956449,5439.278036
384.541984,4885.359217,-2664.741391,5439.278036
384.542306,9474.636058,-4293.194464,-306.438199
384.542627,11103.089130,-7994.224174,-6052.154434
384.542949,6809.894666,-8290.306550,-3983.696590
384.543271,1332.370696,-9992.780217,-306.438199
384.543593,-1332.370696,-16728.654289,-766.095498
384.543914,-2812.782580,-21910.095883,-2987.772442
384.544236,-4589.276840,-19985.560434,-4673.182538
384.544558,-4811.338623,-15248.242405,-4903.011187
384.544879,-1998.556043,-13027.624579,-1455.581446
384.545201,-296.082377,-9252.574275,1302.362347
384.545523,-222.061783,-5773.606348,2604.724693
384.545845,1184.329507,-3849.070898,3294.210641
384.546166,2220.617826,-5995.668130,1838.629195
384.546488,1998.556043,-7846.182985,2681.334243
384.546810,1332.370696,-7105.977043,3753.867940
384.547132,2368.659014,-7031.956449,995.924147
384.547453,4293.194464,-9474.636058,995.924147
384.547775,3775.050304,-9696.697840,3294.210641
384.548097,-1628.453072,-9474.636058,3064.381992
384.548419,-6439.791695,-9178.553681,1378.971896
384.548740,-9030.512492,-8882.471304,-306.438199
384.549062,-10955.047942,-8068.244768,-6435.202183
384.549384,-12879.583391,-8586.388927,-8120.612279
384.549705,-13027.624579,-12361.439231,-4826.401637
384.550027,-10881.027347,-15026.180623,-1762.019645
384.550349,-7624.121203,-15026.180623,-1685.410096
384.550671,-3775.050304,-14582.057057,842.705048
384.550992,-1850.514855,-14359.995275,3753.867940
384.551314,-518.144159,-10658.965565,4519.963438
384.551636,2146.597232,-4219.173869,2681.334243
384.551958,7105.977043,222.061783,1149.143247
384.552279,11325.150913,1036.288319,2681.334243
384.552601,11991.336260,-1036.288319,6511.811733
384.552923,8956.491898,-4737.318029,8656.879127
384.553245,5551.544565,-8512.368333,8733.488677
384.553566,2368.659014,-12065.356855,6358.592633
384.553888,-1184.329507,-14359.995275,3064.381992
384.554210,-3256.906145,-13027.624579,76.609550
384.554531,-3404.947333,-9326.594869,-1302.362347
384.554853,-2738.761985,-7698.141797,-1455.581446
384.555175,-2664.741391,-8216.285956,1072.533697
384.555497,-4071.132681,-9400.615463,2451.505594
384.555818,-6291.750507,-10362.883188,-536.266849
384.556140,-7105.977043,-13693.809927,-1915.238745
384.556462,-6735.874072,-14952.160028,-842.705048
384.556784,-4737.318029,-12213.398043,76.609550
384.557105,-1924.535449,-8808.450710,842.705048
384.557427,962.267725,-6957.935855,2145.067394
384.557749,3256.906145,-6587.832884,2604.724693
384.558071,4145.153275,-8142.265362,3830.477490
384.558392,4589.276840,-9178.553681,2987.772442
384.558714,5403.503377,-9104.533087,1302.362347
384.559036,6735.874072,-8586.388927,459.657299
384.559357,6883.915261,-8882.471304,1838.629195
384.559679,5181.441594,-9474.636058,2451.505594
384.560001,2368.659014,-9474.636058,1838.629195
384.560323,-962.267725,-10066.800811,-1072.533697
384.560644,-3775.050304,-12435.459826,-3064.381992
384.560966,-5033.400406,-14508.036463,-2987.772442
384.561288,-4959.379811,-14211.954086,-2681.334243
384.561610,-3108.864956,-11991.336260,-1915.238745
384.561931,-222.061783,-11029.068536,-612.876398
384.562253,1258.350101,-9992.780217,766.095498
384.562575,740.205942,-8808.450710,459.657299
384.562897,-1924.535449,-7698.141797,-229.828649
384.563218,-3330.926739,-7994.224174,-306.438199
384.563540,-3256.906145,-7846.182985,-1072.533697
384.563862,-1998.556043,-7920.203579,-2528.115143
384.564183,296.082377,-9104.533087,-2451.505594
384.564505,2146.597232,-8956.491898,229.828649
384.564827,3034.844362,-8586.388927,1915.238745
384.565149,1924.535449,-8882.471304,1225.752797
384.565470,148.041188,-9400.615463,-229.828649
384.565792,-2368.659014,-8068.244768,-3064.381992
384.566114,-3997.112087,-7402.059420,-4596.572988
384.566436,-3775.050304,-7105.977043,-4443.353888
384.566758,-3182.885551,-7402.059420,-3524.039291
384.567079,-2590.720797,-8364.327145,-3370.820191
384.567401,-2368.659014,-10732.986159,-2604.724693
384.567723,-2146.597232,-14137.933492,-1225.752797
384.568045,-2368.659014,-15026.180623,-612.876398
384.568367,-1776.494261,-13693.809927,-766.095498
384.568688,-740.205942,-10510.924376,-383.047749
384.569010,74.020594,-7402.059420,-459.657299
384.569332,296.082377,-5181.441594,-229.828649
384.569654,0.000000,-4737.318029,0.000000
384.569976,-296.082377,-5921.647536,0.000000
384.570297,0.000000,-7476.080014,-459.657299
384.570619,888.247130,-8956.491898,-1378.971896
384.570941,1480.411884,-10066.800811,-842.705048
384.571263,2146.597232,-9400.615463,306.438199
384.571585,2368.659014,-7994.224174,-536.266849
384.571906,1480.411884,-7402.059420,-3064.381992
384.572228,-296.082377,-7920.203579,-4596.572988
384.572550,-2294.638420,-9030.512492,-4596.572988
384.572872,-3552.988522,-9770.718434,-4213.525239
384.573194,-3478.967927,-10955.047942,-3830.477490
384.573515,-1554.432478,-11917.315666,-3983.696590
384.573837,518.144159,-12805.562797,-3217.601092
384.574159,1628.453072,-13323.706956,-1225.752797
384.574481,1628.453072,-13397.727550,766.095498
384.574803,1036.288319,-12361.439231,2068.457845
384.575124,296.082377,-9548.656652,2298.286494
384.575446,518.144159,-8068.244768,995.924147
384.575768,592.164754,-6291.750507,306.438199
384.576090,1554.432478,-4885.359217,689.485948
384.576412,2368.659014,-4959.379811,766.095498
384.576733,3775.050304,-6365.771101,383.047749
384.577055,3627.009116,-9474.636058,306.438199
384.577377,2516.700203,-11325.150913,-306.438199
384.577699,518.144159,-12139.377449,-919.314598
384.578021,-1924.535449,-11325.150913,-1991.848295
384.578342,-2516.700203,-9178.553681,-3830.477490
384.578664,-3330.926739,-7179.997637,-6435.202183
384.578986,-4367.215058,-7105.977043,-6818.249932
384.579308,-5329.482782,-8586.388927,-5898.935335
384.579630,-6365.771101,-10732.986159,-4060.306139
384.579951,-5995.668130,-13397.727550,-2451.505594
384.580273,-6217.729913,-15174.221811,-1762.019645
384.580595,-5181.441594,-15322.262999,-383.047749
384.580917,-3849.070898,-12213.398043,842.705048
384.581239,-1850.514855,-8142.265362,1072.533697
384.581560,1036.288319,-4293.194464,306.438199
384.581882,3552.988522,-2294.638420,-229.828649
384.582204,5329.482782,-3849.070898,383.047749
384.582526,5625.565159,-6735.874072,2145.067394
384.582848,6143.709319,-8808.450710,2681.334243
384.583169,6587.832884,-11029.068536,1532.190996
384.583491,6957.935855,-12953.603985,1072.533697
384.583813,6143.709319,-12435.459826,153.219100
384.584135,4515.256246,-9326.594869,-306.438199
384.584457,2960.823768,-7105.977043,-2834.553343
384.584778,1110.308913,-6809.894666,-4366.744339
384.585100,-2146.597232,-7105.977043,-4519.963438
384.585422,-5107.421000,-7476.080014,-3983.696590
384.585744,-7328.038826,-9844.739029,-4443.353888
384.586066,-7402.059420,-12731.542202,-4290.134789
384.586387,-7698.141797,-14656.077652,-3370.820191
384.586709,-8438.347739,-13989.892304,-306.438199
384.587031,-8586.388927,-11621.233289,1302.362347
384.587353,-7550.100608,-9474.636058,995.924147
384.587675,-5995.668130,-6735.874072,-153.219100
384.587996,-4441.235652,-4441.235652,-1608.800546
384.588318,-2220.617826,-3997.112087,-1838.629195
384.588640,592.164754,-5699.585753,0.000000
384.588962,3108.864956,-7402.059420,1991.848295
384.589284,5403.503377,-9548.656652,2068.457845
384.589605,7328.038826,-10362.883188,1302.362347
384.589927,8882.471304,-11547.212695,-383.047749
384.590249,9474.636058,-11695.253884,-2298.286494
384.590571,9474.636058,-9326.594869,-2068.457845
384.590893,7772.162391,-7105.977043,-1915.238745
384.591214,5033.400406,-8068.244768,-1302.362347
384.591536,2072.576638,-9844.739029,-1762.019645
384.591858,-962.267725,-10288.862594,-3140.991542
384.592180,-3552.988522,-11917.315666,-3983.696590
384.592502,-5033.400406,-14804.118840,-1915.238745
384.592823,-5403.503377,-13915.871710,1302.362347
384.593145,-4959.379811,-9474.636058,919.314598
384.593467,-3330.926739,-7402.059420,-229.828649
384.593789,-1924.535449,-7105.977043,-536.266849
384.594111,-2812.782580,-6143.709319,-1455.581446
384.594432,-4811.338623,-5699.585753,-536.266849
384.594754,-5107.421000,-6957.935855,76.609550
384.595076,-2812.782580,-8734.430116,-1072.533697
384.595398,444.123565,-10881.027347,-3907.087040
384.595720,2664.741391,-12953.603985,-4519.963438
384.596041,3627.009116,-12953.603985,-1915.238745
384.596363,3701.029710,-11843.295072,0.000000
384.596685,2664.741391,-10288.862594,-1532.190996
384.597007,1332.370696,-8808.450710,-3524.039291
384.597329,-962.267725,-7254.018232,-5975.544884
384.597650,-3108.864956,-7624.121203,-7124.688131
384.597972,-5033.400406,-8956.491898,-4366.744339
384.598294,-5107.421000,-10140.821405,-1762.019645
384.598616,-4219.173869,-11325.150913,-459.657299
384.598938,-3256.906145,-12805.562797,612.876398
384.599259,-2368.659014,-13175.665768,1149.143247
384.599581,-1406.391290,-10732.986159,919.314598
384.599903,-222.061783,-7105.977043,612.876398
384.600225,888.247130,-3923.091493,-229.828649
384.600547,2072.576638,-1998.556043,-612.876398
384.600868,3478.967927,-2368.659014,-766.095498
384.601190,4663.297435,-6513.812290,-1302.362347
384.601512,5329.482782,-10658.965565,-1608.800546
384.601834,5403.503377,-13693.809927,-1072.533697
384.602156,4959.379811,-14508.036463,536.266849
384.602477,3997.112087,-12361.439231,1225.752797
384.602799,2738.761985,-8512.368333,-1302.362347
384.603121,1998.556043,-4441.235652,-5439.278036
384.603443,0.000000,-3997.112087,-7201.297681
384.603765,-3182.885551,-6957.935855,-5515.887586
384.604086,-5995.668130,-9326.594869,-2834.553343
384.604408,-7031.956449,-11473.192101,-1838.629195
384.604730,-5699.585753,-15248.242405,-2757.943793
384.605052,-4515.256246,-16654.633695,-1991.848295
384.605374,-4219.173869,-13989.892304,-536.266849
384.605695,-4441.235652,-10510.924376,919.314598
384.606017,-3478.967927,-7476.080014,1455.581446
384.606339,-1554.432478,-5033.400406,-76.609550
384.606661,-296.082377,-4885.359217,-2604.724693
384.606983,1184.329507,-6513.812290,-2374.896044
384.607304,2516.700203,-9178.553681,76.609550
384.607626,4663.297435,-10436.903782,1991.848295
384.607948,6587.832884,-10807.006753,2068.457845
384.608270,8956.491898,-11843.295072,-306.438199
384.608592,9104.533087,-11843.295072,-2145.067394
384.608913,7031.956449,-9770.718434,-2221.676944
384.609235,3775.050304,-7328.038826,-2145.067394
384.609557,0.000000,-7105.977043,-2528.115143
384.609879,-2442.679609,-8364.327145,-2757.943793
384.610201,-4663.297435,-9252.574275,-3447.429741
384.610522,-6291.750507,-11177.109724,-4060.306139
384.610844,-6809.894666,-13841.851115,-1378.971896
384.611166,-6587.832884,-14582.057057,1455.581446
384.611488,-6143.709319,-11621.233289,1225.752797
384.611810,-4811.338623,-9696.697840,612.876398
384.612131,-3034.844362,-7846.182985,919.314598
384.612453,-2442.679609,-5181.441594,306.438199
384.612775,-2368.659014,-3404.947333,229.828649
384.613097,-518.144159,-4441.235652,689.485948
384.613419,1924.535449,-8142.265362,612.876398
384.613740,3701.029710,-10510.924376,0.000000
384.614062,4663.297435,-11325.150913,0.000000
384.614384,4811.338623,-10955.047942,76.609550
384.614706,4959.379811,-10362.883188,-153.219100
384.615028,3849.070898,-8364.327145,-919.314598
384.615349,2220.617826,-6809.894666,-3600.648841
384.615671,-740.205942,-7031.956449,-5132.839837
384.615993,-2886.803174,-9030.512492,-4903.011187
384.616315,-4663.297435,-10214.842000,-3370.820191
384.616637,-5033.400406,-10362.883188,-2528.115143
384.616958,-4589.276840,-11843.295072,-2068.457845
384.617280,-3775.050304,-13175.665768,-1302.362347
384.617602,-2664.741391,-12953.603985,-612.876398
384.617924,-2368.659014,-11029.068536,0.000000
384.618246,-2442.679609,-8660.409521,306.438199
384.618567,-1850.514855,-7328.038826,0.000000
384.618889,-740.205942,-6143.709319,-1149.143247
384.619211,666.185348,-5329.482782,-1532.190996
384.619533,3108.864956,-5625.565159,-1838.629195
384.619855,6069.688724,-8290.306550,-2528.115143
384.620176,7550.100608,-10955.047942,-2068.457845
384.620498,7402.059420,-12139.377449,-383.047749
384.620820,5181.441594,-11769.274478,-383.047749
384.621142,3108.864956,-10881.027347,-2374.896044
384.621464,1332.370696,-9104.533087,-4903.011187
384.621785,-1332.370696,-7772.162391,-7124.688131
384.622107,-3404.947333,-8290.306550,-7277.907231
384.622429,-5033.400406,-9252.574275,-4673.182538
384.622751,-5033.400406,-10362.883188,-2987.772442
384.623073,-4441.235652,-12065.356855,-2757.943793
384.623394,-3997.112087,-14063.912898,-2068.457845
384.623716,-4219.173869,-13471.748144,76.609550
384.624038,-4737.318029,-11177.109724,995.924147
384.624360,-3997.112087,-7772.162391,1378.971896
384.624682,-2442.679609,-5699.585753,0.000000
384.625003,-1036.288319,-4589.276840,-1455.581446
384.625325,296.082377,-5107.421000,-1378.971896
384.625647,1184.329507,-7254.018232,306.438199
384.625969,3256.906145,-7624.121203,1838.629195
384.626291,6661.853478,-8734.430116,0.000000
384.626612,8364.327145,-11177.109724,-2757.943793
384.626934,8216.285956,-11843.295072,-2068.457845
384.627256,5699.585753,-9474.636058,-689.485948
384.627578,2294.638420,-8290.306550,-1762.019645
384.627900,0.000000,-7994.224174,-3600.648841
384.628221,-2442.679609,-8438.347739,-4596.572988
384.628543,-5033.400406,-8808.450710,-5515.887586
384.628865,-6291.750507,-11399.171507,-4136.915689
384.629187,-5847.626942,-14211.954086,-383.047749
384.629509,-4811.338623,-13397.727550,766.095498
384.629830,-3627.009116,-11843.295072,383.047749
384.630152,-2146.597232,-10658.965565,919.314598
384.630474,-1554.432478,-9104.533087,1149.143247
384.630796,-1628.453072,-6883.915261,842.705048
384.631118,-1702.473667,-5625.565159,459.657299
384.631439,-222.061783,-5699.585753,1225.752797
384.631761,2442.679609,-7179.997637,1378.971896
384.632083,4885.359217,-8956.491898,-1225.752797
384.632405,5921.647536,-10732.986159,-919.314598
384.632727,6661.853478,-11621.233289,229.828649
384.633048,5921.647536,-11769.274478,995.924147
384.633370,3627.009116,-10436.903782,0.000000
384.633692,1258.350101,-7994.224174,-2451.505594
384.634014,-814.226536,-6439.791695,-4826.401637
384.634336,-3330.926739,-7772.162391,-5669.106685
384.634657,-5773.606348,-9104.533087,-4519.963438
384.634979,-7328.038826,-10066.800811,-2451.505594
384.635301,-7179.997637,-11843.295072,-689.485948
384.635623,-6439.791695,-13915.871710,0.000000
384.635945,-5255.462188,-12805.562797,76.609550
384.636266,-4441.235652,-9622.677246,0.000000
384.636588,-3627.009116,-7179.997637,0.000000
384.636910,-2664.741391,-5477.523971,0.000000
384.637232,-1480.411884,-4145.153275,-459.657299
384.637554,296.082377,-4441.235652,153.219100
384.637875,2590.720797,-6587.832884,0.000000
384.638197,5477.523971,-8956.491898,-1838.629195
384.638519,7624.121203,-11103.089130,-2221.676944
384.638841,8216.285956,-12287.418637,-1302.362347
384.639163,6883.915261,-11769.274478,-229.828649
384.639484,6217.729913,-10658.965565,-919.314598
384.639806,4219.173869,-8660.409521,-3294.210641
384.640128,1110.308913,-7179.997637,-5822.325785
384.640450,-2294.638420,-7994.224174,-6971.469032
384.640772,-4737.318029,-9178.553681,-4903.011187
384.641093,-5773.606348,-10288.862594,-2757.943793
384.641415,-5329.482782,-11621.233289,-2604.724693
384.641737,-5181.441594,-13249.686362,-1915.238745
384.642059,-5329.482782,-13841.851115,-919.314598
384.642381,-5477.523971,-12361.439231,-689.485948
384.642702,-5329.482782,-9474.636058,-153.219100
384.643024,-4515.256246,-6957.935855,-459.657299
384.643346,-3701.029710,-5773.606348,-1608.800546
384.643668,-3404.947333,-5329.482782,-1685.410096
384.643990,-1850.514855,-6735.874072,-766.095498
384.644311,1110.308913,-8142.265362,-459.657299
384.644633,4515.256246,-9548.656652,-2834.553343
384.644955,6143.709319,-10881.027347,-3677.258390
384.645277,6735.874072,-10881.027347,-2221.676944
384.645599,5625.565159,-9844.739029,-1302.362347
384.645920,4219.173869,-8512.368333,-3370.820191
384.646242,2368.659014,-7994.224174,-4596.572988
384.646564,-518.144159,-8290.306550,-6128.763984
384.646886,-3330.926739,-9030.512492,-5515.887586
384.647208,-4515.256246,-10288.862594,-3753.867940
384.647529,-3478.967927,-11399.171507,-2298.286494
384.647851,-1924.535449,-12065.356855,-1762.019645
384.648173,-592.164754,-12435.459826,-995.924147
384.648495,-888.247130,-12731.542202,612.876398
384.648817,-1628.453072,-11621.233289,1455.581446
384.649138,-2146.597232,-9326.594869,1225.752797
384.649460,-1924.535449,-6661.853478,76.609550
384.649782,-518.144159,-4219.173869,0.000000
384.650104,1850.514855,-3701.029710,-459.657299
384.650426,3775.050304,-4959.379811,76.609550
384.650747,5551.544565,-8364.327145,536.266849
384.651069,6143.709319,-11177.109724,766.095498
384.651391,5551.544565,-12435.459826,689.485948
384.651713,3552.988522,-11621.233289,-536.266849
384.652035,1406.391290,-9696.697840,-2451.505594
384.652356,-222.061783,-7772.162391,-4673.182538
384.652678,-2738.761985,-6661.853478,-5669.106685
384.653000,-5033.400406,-7698.141797,-4903.011187
384.653322,-7105.977043,-9696.697840,-3217.601092
384.653644,-7846.182985,-11399.171507,-1915.238745
384.653965,-7772.162391,-12657.521608,-1532.190996
384.654287,-6661.853478,-13767.830521,-1378.971896
384.654609,-5403.503377,-12731.542202,-919.314598
384.654931,-4737.318029,-11029.068536,383.047749
384.655253,-4219.173869,-9474.636058,1455.581446
384.655574,-3775.050304,-7994.224174,919.314598
384.655896,-3108.864956,-6439.791695,383.047749
384.656218,-814.226536,-6069.688724,306.438199
384.656540,2368.659014,-6587.832884,-306.438199
384.656862,6217.729913,-7698.141797,-1608.800546
384.657183,9178.553681,-9178.553681,-766.095498
384.657505,9770.718434,-10066.800811,689.485948
384.657827,8290.306550,-10658.965565,1455.581446
384.658149,5995.668130,-10584.944971,-536.266849
384.658471,3108.864956,-9696.697840,-3753.867940
384.658792,-370.102971,-9474.636058,-5286.058936
384.659114,-3034.844362,-9548.656652,-5056.230287
384.659436,-4737.318029,-9770.718434,-3370.820191
384.659758,-5107.421000,-9474.636058,-1915.238745
384.660080,-4515.256246,-9770.718434,-1915.238745
384.660401,-3849.070898,-11473.192101,-1608.800546
384.660723,-4589.276840,-12509.480420,-1149.143247
384.661045,-5773.606348,-12509.480420,153.219100
384.661367,-6661.853478,-10955.047942,1915.238745
384.661689,-5995.668130,-8290.306550,2298.286494
384.662010,-4219.173869,-6143.709319,306.438199
384.662332,-2146.597232,-4811.338623,-1455.581446
384.662654,222.061783,-5403.503377,-1302.362347
384.662976,2886.803174,-6439.791695,153.219100
384.663298,5551.544565,-7772.162391,1225.752797
384.663619,6291.750507,-8216.285956,689.485948
384.663941,7105.977043,-9178.553681,-1149.143247
384.664263,6809.894666,-9252.574275,-3447.429741
384.664585,6069.688724,-9030.512492,-5132.839837
384.664907,3923.091493,-8734.430116,-5286.058936
384.665228,0.000000,-9030.512492,-3677.258390
384.665550,-2368.659014,-10436.903782,-2528.115143
384.665881,-4145.153275,-11547.212695,-2757.943793
384.666203,-4589.276840,-12583.501014,-4060.306139
384.666525,-4959.379811,-13027.624579,-3217.601092
384.666847,-4663.297435,-11177.109724,-766.095498
384.667168,-3627.009116,-9474.636058,995.924147
384.667490,-2368.659014,-8586.388927,689.485948
384.667812,-2442.679609,-7550.100608,229.828649
384.668134,-2886.803174,-6957.935855,0.000000
384.668456,-2146.597232,-6735.874072,-919.314598
384.668778,740.205942,-6883.915261,-919.314598
384.669100,3849.070898,-8068.244768,-1915.238745
384.669421,6883.915261,-10214.842000,-1991.848295
384.669743,8068.244768,-10658.965565,-1302.362347
384.670065,7402.059420,-10658.965565,-995.924147
384.670387,5255.462188,-10436.903782,-2681.334243
384.670709,2590.720797,-10140.821405,-4366.744339
384.671031,-1184.329507,-9770.718434,-6741.640382
384.671352,-4663.297435,-10807.006753,-6818.249932
384.671674,-7105.977043,-12065.356855,-4749.792088
384.671996,-7994.224174,-12361.439231,-3064.381992
384.672318,-8142.265362,-11251.130318,-2374.896044
384.672640,-7772.162391,-11547.212695,-1072.533697
384.672962,-6735.874072,-10955.047942,0.000000
384.673284,-5921.647536,-10066.800811,229.828649
384.673605,-5477.523971,-8290.306550,536.266849
384.673927,-5403.503377,-7031.956449,842.705048
384.674249,-5107.421000,-6217.729913,1072.533697
384.674571,-3034.844362,-5995.668130,919.314598
384.674893,296.082377,-6513.812290,0.000000
384.675215,3997.112087,-7031.956449,-1762.019645
384.675537,7328.038826,-7624.121203,-1532.190996
384.675858,9622.677246,-8586.388927,0.000000
384.676180,8882.471304,-8808.450710,153.219100
384.676502,7105.977043,-9104.533087,-1302.362347
384.676824,4219.173869,-8512.368333,-3677.258390
384.677146,1110.308913,-8660.409521,-5209.449386
384.677468,-2072.576638,-9474.636058,-5362.668486
384.677789,-3775.050304,-10066.800811,-4290.134789
384.678111,-3849.070898,-9918.759623,-3983.696590
384.678433,-2368.659014,-11695.253884,-2911.162892
384.678755,-1332.370696,-14656.077652,-766.095498
384.679077,-1702.473667,-14285.974681,1532.190996
384.679399,-2590.720797,-11621.233289,2681.334243
384.679721,-3034.844362,-7550.100608,2528.115143
384.680042,-2146.597232,-4367.215058,689.485948
384.680364,-740.205942,-2738.761985,-1532.190996
384.680686,296.082377,-3849.070898,-2068.457845
384.681008,1480.411884,-7105.977043,536.266849
384.681330,1924.535449,-10807.006753,2604.724693
384.681652,2812.782580,-12509.480420,2987.772442
384.681974,3775.050304,-11843.295072,229.828649
384.682295,4811.338623,-9548.656652,-3447.429741
384.682617,4737.318029,-7920.203579,-6205.373534
384.682939,4145.153275,-7550.100608,-6665.030833
384.683261,1850.514855,-7698.141797,-5669.106685
384.683583,-1480.411884,-9548.656652,-3983.696590
384.683905,-4811.338623,-12139.377449,-3217.601092
384.684227,-6883.915261,-14952.160028,-3217.601092
384.684548,-6809.894666,-16062.468941,-4673.182538
384.684870,-7105.977043,-14730.098246,-3217.601092
384.685192,-5551.544565,-11843.295072,-612.876398
384.685514,-3182.885551,-8586.388927,1225.752797
384.685836,-1776.494261,-5329.482782,1072.533697
384.686158,-666.185348,-4293.194464,0.000000
384.686479,222.061783,-5551.544565,0.000000
384.686801,74.020594,-8068.244768,-689.485948
384.687123,222.061783,-10658.965565,-229.828649
384.687445,1998.556043,-12361.439231,229.828649
384.687767,4293.194464,-11917.315666,-229.828649
384.688089,5921.647536,-11399.171507,-842.705048
384.688411,5699.585753,-9622.677246,-1915.238745
384.688732,4663.297435,-8068.244768,-3294.210641
384.689054,2590.720797,-6661.853478,-4979.620737
384.689376,148.041188,-7105.977043,-5286.058936
384.689698,-2072.576638,-8512.368333,-4060.306139
384.690020,-4219.173869,-10066.800811,-3294.210641
384.690342,-5699.585753,-10436.903782,-2911.162892
384.690664,-6217.729913,-11029.068536,-1991.848295
384.690985,-6143.709319,-11547.212695,-766.095498
384.691307,-6069.688724,-11177.109724,995.924147
384.691629,-5329.482782,-9548.656652,1915.238745
384.691951,-4737.318029,-8068.244768,2451.505594
384.692273,-3182.885551,-6513.812290,1302.362347
384.692595,-1702.473667,-5625.565159,306.438199
384.692916,-1406.391290,-5033.400406,842.705048
384.693238,0.000000,-4959.379811,1838.629195
384.693560,1628.453072,-6365.771101,1149.143247
384.693882,4145.153275,-9030.512492,-766.095498
384.694204,6069.688724,-11695.253884,-1762.019645
384.694526,6143.709319,-11843.295072,-919.314598
384.694848,5181.441594,-9992.780217,-766.095498
384.695169,4367.215058,-8216.285956,-1915.238745
384.695491,3256.906145,-7920.203579,-3217.601092
384.695813,1184.329507,-7772.162391,-4826.401637
384.696135,-1406.391290,-8734.430116,-5745.716235
384.696457,-2590.720797,-10362.883188,-4443.353888
384.696779,-2886.803174,-11843.295072,-3064.381992
384.697101,-2368.659014,-13545.768739,-1608.800546
384.697422,-2072.576638,-13619.789333,76.609550
384.697744,-1480.411884,-12657.521608,306.438199
384.698066,-1628.453072,-10732.986159,0.000000
384.698388,-1998.556043,-8734.430116,459.657299
384.698710,-2368.659014,-7105.977043,383.047749
384.699032,-1776.494261,-6513.812290,-536.266849
384.699353,-814.226536,-6883.915261,-842.705048
384.699675,0.000000,-7994.224174,-306.438199
384.699997,1406.391290,-9474.636058,229.828649
384.700319,4145.153275,-10140.821405,-919.314598
384.700641,5699.585753,-11029.068536,-3140.991542
384.700963,5921.647536,-11399.171507,-3294.210641
384.701285,3997.112087,-9548.656652,-2834.553343
384.701606,1480.411884,-7920.203579,-2911.162892
384.701928,-1258.350101,-8290.306550,-4979.620737
384.702250,-3923.091493,-9400.615463,-6511.811733
384.702572,-6217.729913,-9548.656652,-6511.811733
384.702894,-7476.080014,-10955.047942,-4903.011187
384.703216,-7698.141797,-13397.727550,-1838.629195
384.703538,-6439.791695,-13545.768739,383.047749
384.703859,-5477.523971,-10955.047942,0.000000
384.704181,-3182.885551,-9474.636058,-612.876398
384.704503,-2220.617826,-7624.121203,-612.876398
384.704825,-1924.535449,-5995.668130,-612.876398
384.705147,-1480.411884,-5329.482782,153.219100
384.705469,296.082377,-5403.503377,919.314598
384.705791,3034.844362,-6883.915261,459.657299
384.706112,5255.462188,-7994.224174,-612.876398
384.706434,6365.771101,-9622.677246,-536.266849
384.706756,6587.832884,-10436.903782,229.828649
384.707078,6143.709319,-10584.944971,-383.047749
384.707400,4145.153275,-9326.594869,-2298.286494
384.707722,1924.535449,-7846.182985,-3447.429741
384.708043,-666.185348,-7105.977043,-4213.525239
384.708365,-2590.720797,-6809.894666,-4903.011187
384.708687,-3997.112087,-7105.977043,-4903.011187
384.709009,-3552.988522,-8142.265362,-4366.744339
384.709331,-3775.050304,-11325.150913,-2757.943793
384.709653,-3923.091493,-14508.036463,0.000000
384.709975,-4737.318029,-15174.221811,1838.629195
384.710296,-5329.482782,-12879.583391,2298.286494
384.710618,-4885.359217,-9326.594869,536.266849
384.710940,-3404.947333,-6661.853478,-995.924147
384.711262,-1924.535449,-4589.276840,-1838.629195
384.711584,0.000000,-4367.215058,-842.705048
384.711906,1406.391290,-6809.894666,612.876398
384.712228,3256.906145,-9622.677246,1838.629195
384.712549,4959.379811,-11325.150913,689.485948
384.712871,6365.771101,-12139.377449,-1762.019645
384.713193,7328.038826,-11695.253884,-2987.772442
384.713515,6809.894666,-9030.512492,-2987.772442
384.713837,4885.359217,-6883.915261,-3217.601092
384.714159,2368.659014,-7698.141797,-4366.744339
384.714480,-1850.514855,-9992.780217,-4519.963438
384.714802,-5033.400406,-11547.212695,-5056.230287
384.715124,-6809.894666,-13101.645173,-5132.839837
384.715446,-6291.750507,-14063.912898,-3064.381992
384.715768,-5033.400406,-12435.459826,-1455.581446
384.716090,-3478.967927,-10288.862594,-1455.581446
384.716412,-1924.535449,-9400.615463,-689.485948
384.716733,-1924.535449,-9030.512492,306.438199
384.717055,-3034.844362,-8364.327145,612.876398
384.717377,-3923.091493,-7254.018232,153.219100
384.717699,-2590.720797,-7254.018232,229.828649
384.718021,0.000000,-7550.100608,229.828649
384.718343,3849.070898,-7994.224174,-995.924147
384.718665,6809.894666,-9474.636058,-1455.581446
384.718986,8142.265362,-10732.986159,383.047749
384.719308,7920.203579,-10288.862594,2221.676944
384.719630,4737.318029,-8956.491898,689.485948
384.719952,1998.556043,-8068.244768,-2528.115143
384.720274,-962.267725,-7105.977043,-5056.230287
384.720596,-3404.947333,-7105.977043,-6128.763984
384.720918,-5403.503377,-8216.285956,-4596.572988
384.721239,-6439.791695,-9252.574275,-2451.505594
384.721561,-7105.977043,-10732.986159,-842.705048
384.721883,-7031.956449,-12953.603985,-459.657299
384.722205,-6439.791695,-13471.748144,-612.876398
384.722527,-5181.441594,-11177.109724,-1455.581446
384.722849,-3478.967927,-8882.471304,-1225.752797
384.723170,-3256.906145,-6809.894666,0.000000
384.723492,-2220.617826,-5255.462188,612.876398
384.723814,-888.247130,-4737.318029,153.219100
384.724136,592.164754,-6661.853478,-153.219100
384.724458,2738.761985,-8956.491898,-459.657299
384.724780,5255.462188,-10140.821405,-459.657299
384.725102,7031.956449,-10955.047942,-229.828649
384.725423,8512.368333,-10362.883188,612.876398
384.725745,8068.244768,-8438.347739,0.000000
384.726067,5995.668130,-6291.750507,-2221.676944
384.726389,3627.009116,-6143.709319,-4213.525239
384.726711,0.000000,-7772.162391,-5822.325785
384.727033,-2812.782580,-9844.739029,-5592.497135
384.727355,-3923.091493,-11991.336260,-3983.696590
384.727676,-3404.947333,-13989.892304,-2911.162892
384.727998,-2812.782580,-14582.057057,-2298.286494
384.728320,-2220.617826,-14508.036463,-1378.971896
384.728642,-2442.679609,-13027.624579,-689.485948
384.728964,-3034.844362,-10436.903782,-459.657299
384.729286,-3330.926739,-8660.409521,-919.314598
384.729607,-3552.988522,-7550.100608,-842.705048
384.729929,-3034.844362,-5995.668130,-1455.581446
384.730251,-1258.350101,-6291.750507,-1149.143247
384.730573,1480.411884,-7254.018232,-842.705048
384.730895,4219.173869,-9178.553681,-842.705048
384.731217,5921.647536,-11103.089130,-842.705048
384.731539,6069.688724,-11917.315666,-1072.533697
384.731860,4293.194464,-10955.047942,-842.705048
384.732182,1480.411884,-9474.636058,-2221.676944
384.732504,-370.102971,-8512.368333,-3753.867940
384.732826,-2368.659014,-6809.894666,-4903.011187
384.733148,-4071.132681,-6143.709319,-6052.154434
384.733470,-4293.194464,-8290.306550,-5745.716235
384.733792,-4737.318029,-11769.274478,-2987.772442
384.734113,-5107.421000,-14434.015869,-536.266849
384.734435,-5255.462188,-15470.304188,612.876398
384.734757,-4441.235652,-13915.871710,1072.533697
384.735079,-3256.906145,-9992.780217,306.438199
384.735401,-2590.720797,-5921.647536,-306.438199
384.735723,-1702.473667,-2516.700203,-919.314598
384.736044,74.020594,-2072.576638,0.000000
384.736366,1998.556043,-4737.318029,842.705048
384.736688,3330.926739,-8290.306550,1225.752797
384.737010,4367.215058,-10732.986159,1608.800546
384.737332,5107.421000,-11843.295072,1378.971896
384.737654,5255.462188,-11621.233289,229.828649
384.737976,5181.441594,-9030.512492,-1225.752797
384.738297,4071.132681,-5773.606348,-3294.210641
384.738619,2664.741391,-5181.441594,-4826.401637
384.738941,-370.102971,-7624.121203,-3983.696590
384.739263,-3701.029710,-9696.697840,-2757.943793
384.739585,-5921.647536,-10955.047942,-2451.505594
384.739907,-5699.585753,-12361.439231,-3140.991542
384.740229,-4589.276840,-13767.830521,-2221.676944
384.740550,-3849.070898,-12805.562797,-1838.629195
384.740872,-3701.029710,-10436.903782,153.219100
384.741194,-3923.091493,-9326.594869,2068.457845
384.741516,-3849.070898,-8660.409521,1072.533697
384.741838,-3627.009116,-8068.244768,0.000000
384.742160,-3478.967927,-7105.977043,-1532.190996
384.742482,-1258.350101,-7105.977043,-1455.581446
384.742803,1850.514855,-7105.977043,-766.095498
384.743125,4959.379811,-7698.141797,229.828649
384.743447,6587.832884,-9844.739029,229.828649
384.743769,6957.935855,-10807.006753,383.047749
384.744091,6735.874072,-12287.418637,-1685.410096
384.744413,5329.482782,-12509.480420,-3983.696590
384.744734,3552.988522,-11473.192101,-3830.477490
384.745056,1110.308913,-9400.615463,-2911.162892
384.745378,296.082377,-7846.182985,-2221.676944
384.745700,-222.061783,-8438.347739,-3064.381992
384.746022,-1554.432478,-9622.677246,-3983.696590
384.746344,-3552.988522,-11473.192101,-1915.238745
384.746666,-4737.318029,-12731.542202,1378.971896
384.746987,-4071.132681,-11991.336260,2298.286494
384.747309,-3256.906145,-9030.512492,536.266849
384.747631,-2220.617826,-7031.956449,0.000000
384.747953,-1924.535449,-5551.544565,383.047749
384.748275,-2220.617826,-5107.421000,536.266849
384.748597,-1628.453072,-5995.668130,459.657299
384.748919,-222.061783,-7105.977043,0.000000
384.749240,1776.494261,-8956.491898,-1608.800546
384.749562,4145.153275,-11029.068536,-2757.943793
384.749884,5033.400406,-11769.274478,-2068.457845
384.750206,4367.215058,-11399.171507,-1072.533697
384.750528,2516.700203,-10288.862594,-1149.143247
384.750850,518.144159,-9918.759623,-2757.943793
384.751171,-2368.659014,-9178.553681,-4826.401637
384.751493,-4663.297435,-8808.450710,-5286.058936
384.751815,-5847.626942,-8660.409521,-4673.182538
384.752137,-5403.503377,-8956.491898,-2681.334243
384.752459,-4367.215058,-10214.842000,-1608.800546
384.752781,-3849.070898,-12435.459826,153.219100
384.753103,-3923.091493,-12953.603985,1685.410096
384.753424,-3923.091493,-11325.150913,1378.971896
384.753746,-2738.761985,-8216.285956,-689.485948
384.754068,-1924.535449,-5995.668130,-1915.238745
384.754390,-740.205942,-4885.359217,-2451.505594
384.754712,962.267725,-4811.338623,-1225.752797
384.755034,3108.864956,-7550.100608,-1149.143247
384.755356,4811.338623,-11029.068536,-1608.800546
384.755677,6291.750507,-12879.583391,-1072.533697
384.755999,6069.688724,-12657.521608,-536.266849
384.756321,5107.421000,-11177.109724,-612.876398
384.756643,4663.297435,-8956.491898,-2221.676944
384.756965,3256.906145,-6587.832884,-3983.696590
384.757287,1110.308913,-6069.688724,-4903.011187
384.757608,-1924.535449,-7179.997637,-3600.648841
384.757930,-3849.070898,-8734.430116,-2528.115143
384.758252,-4367.215058,-9770.718434,-2987.772442
384.758574,-3923.091493,-11917.315666,-2298.286494
384.758896,-3108.864956,-14211.954086,-689.485948
384.759218,-2738.761985,-13693.809927,842.705048
384.759540,-3404.947333,-11177.109724,995.924147
384.759861,-4145.153275,-8808.450710,1072.533697
384.760183,-3478.967927,-6661.853478,0.000000
384.760505,-2738.761985,-4959.379811,-2528.115143
384.760827,-814.226536,-5699.585753,-3524.039291
384.761149,1036.288319,-8290.306550,-1991.848295
384.761471,2368.659014,-9696.697840,842.705048
384.761793,3997.112087,-10584.944971,1762.019645
384.762114,5551.544565,-11103.089130,689.485948
384.762436,6143.709319,-11473.192101,-1762.019645
384.762758,4959.379811,-8808.450710,-4136.915689
384.763080,3627.009116,-7031.956449,-3600.648841
384.763402,888.247130,-6587.832884,-2451.505594
384.763724,-1554.432478,-8216.285956,-2068.457845
384.764046,-3478.967927,-9992.780217,-2451.505594
384.764367,-4959.379811,-11325.150913,-2451.505594
384.764689,-5847.626942,-13323.706956,-2068.457845
384.765011,-5477.523971,-14508.036463,-229.828649
384.765333,-4145.153275,-12213.398043,689.485948
384.765655,-2886.803174,-9474.636058,306.438199
384.765977,-1480.411884,-7550.100608,612.876398
384.766298,-888.247130,-6365.771101,1072.533697
384.766620,-888.247130,-5403.503377,0.000000
384.766942,-518.144159,-6217.729913,-536.266849
384.767264,1036.288319,-8808.450710,-1072.533697
384.767586,3034.844362,-10732.986159,-1685.410096
384.767908,4885.359217,-11843.295072,-919.314598
384.768229,5625.565159,-11399.171507,229.828649
384.768551,5329.482782,-10362.883188,229.828649
384.768873,3997.112087,-8956.491898,-1532.190996
384.769195,1776.494261,-7402.059420,-3983.696590
384.769517,-1702.473667,-7254.018232,-5439.278036
384.769838,-4441.235652,-8956.491898,-4826.401637
384.770160,-5773.606348,-10214.842000,-2757.943793
384.770482,-5921.647536,-10510.924376,-2068.457845
384.770804,-5477.523971,-11177.109724,-1991.848295
384.771126,-4959.379811,-12509.480420,-536.266849
384.771448,-4663.297435,-12435.459826,1072.533697
384.771769,-4589.276840,-10362.883188,612.876398
384.772091,-4293.194464,-8068.244768,153.219100
384.772413,-2590.720797,-7031.956449,0.000000
384.772735,-814.226536,-5477.523971,-459.657299
384.773057,962.267725,-4367.215058,-919.314598
384.773379,2886.803174,-4885.359217,-383.047749
384.773700,5551.544565,-6587.832884,-153.219100
384.774022,8142.265362,-9548.656652,-1762.019645
384.774344,8438.347739,-12731.542202,-2528.115143
384.774666,7105.977043,-14211.954086,-1225.752797
384.774988,4737.318029,-12139.377449,459.657299
384.775310,2590.720797,-8364.327145,-1072.533697
384.775631,1036.288319,-5625.565159,-3217.601092
384.775953,-222.061783,-3701.029710,-5745.716235
384.776275,-2738.761985,-4885.359217,-6818.249932
384.776597,-4737.318029,-8512.368333,-3370.820191
384.776919,-6143.709319,-13323.706956,76.609550
384.777241,-6365.771101,-16876.695478,459.657299
384.777562,-6291.750507,-17468.860231,536.266849
384.777884,-5551.544565,-14211.954086,536.266849
384.778206,-4441.235652,-9030.512492,0.000000
384.778528,-1924.535449,-4589.276840,-2834.553343
384.778850,-148.041188,-2960.823768,-3600.648841
384.779171,1036.288319,-5033.400406,-2068.457845
384.779493,1332.370696,-9030.512492,0.000000
384.779815,1406.391290,-12065.356855,229.828649
384.780137,3256.906145,-13841.851115,-1149.143247
384.780459,6217.729913,-14656.077652,-3677.258390
384.780781,7328.038826,-13545.768739,-3830.477490
384.781102,6291.750507,-9474.636058,-2298.286494
384.781424,3701.029710,-6217.729913,-1455.581446
