#time,accel_x,accel_y,accel_z
441.335116,-222.061783,-9252.574275,-1762.019645
441.335438,-222.061783,-9622.677246,-1532.190996
441.335759,-296.082377,-9474.636058,-1685.410096
441.336080,0.000000,-9622.677246,-1455.581446
441.336402,-148.041188,-9252.574275,-1455.581446
441.336723,0.000000,-9104.533087,-1302.362347
441.337045,148.041188,-9400.615463,-1532.190996
441.337366,0.000000,-9326.594869,-1685.410096
441.337688,0.000000,-9400.615463,-1608.800546
441.338009,-222.061783,-9548.656652,-1378.971896
441.338331,0.000000,-9030.512492,-1762.019645
441.338652,0.000000,-9178.553681,-1455.581446
441.338974,-148.041188,-9400.615463,-1302.362347
441.339295,-74.020594,-9326.594869,-1378.971896
441.339617,-296.082377,-9178.553681,-1378.971896
441.339938,-444.123565,-9326.594869,-1455.581446
441.340260,-222.061783,-9400.615463,-1608.800546
441.340581,-444.123565,-9252.574275,-1378.971896
441.340903,-444.123565,-9326.594869,-1302.362347
441.341224,-592.164754,-9400.615463,-1302.362347
441.341546,-592.164754,-9474.636058,-1455.581446
441.341867,-666.185348,-9030.512492,-1225.752797
441.342188,-222.061783,-9104.533087,-1378.971896
441.342510,-518.144159,-9326.594869,-1378.971896
441.342831,-592.164754,-9252.574275,-1302.362347
441.343153,-592.164754,-9252.574275,-1378.971896
441.343474,-444.123565,-9178.553681,-1225.752797
441.343796,-666.185348,-8882.471304,-1302.362347
441.344117,-740.205942,-9326.594869,-1225.752797
441.344439,-740.205942,-9400.615463,-1455.581446
441.344760,-592.164754,-9400.615463,-1302.362347
441.345082,-592.164754,-9474.636058,-1532.190996
441.345403,-592.164754,-9622.677246,-1378.971896
441.345725,-1036.288319,-8882.471304,-1072.533697
441.346046,-518.144159,-9252.574275,-1149.143247
441.346368,-370.102971,-9400.615463,-1225.752797
441.346689,-592.164754,-9178.553681,-1455.581446
441.347011,-444.123565,-9326.594869,-995.924147
441.347332,-444.123565,-9474.636058,-1072.533697
441.347654,-518.144159,-9474.636058,-1225.752797
441.347975,-296.082377,-9622.677246,-1225.752797
441.348296,-518.144159,-9474.636058,-1378.971896
441.348618,-444.123565,-9252.574275,-1532.190996
441.348939,-296.082377,-9474.636058,-1532.190996
441.349261,-370.102971,-9178.553681,-1149.143247
441.349582,-296.082377,-9178.553681,-1455.581446
441.349904,-296.082377,-9400.615463,-1455.581446
441.350225,-296.082377,-9474.636058,-1608.800546
441.350547,-148.041188,-9252.574275,-1532.190996
441.350868,-148.041188,-9252.574275,-1378.971896
441.351190,-296.082377,-9474.636058,-1532.190996
441.351511,-148.041188,-9474.636058,-1608.800546
441.351833,-148.041188,-9326.594869,-1532.190996
441.352154,-148.041188,-9252.574275,-842.705048
441.352476,-148.041188,-8956.491898,-1532.190996
441.352797,74.020594,-9104.533087,-1685.410096
441.353119,-222.061783,-9400.615463,-1762.019645
441.353440,0.000000,-9696.697840,-1455.581446
441.353762,0.000000,-9770.718434,-1608.800546
441.354083,-370.102971,-9474.636058,-2374.896044
441.354404,222.061783,-9104.533087,-1608.800546
441.354726,814.226536,-9474.636058,-1915.238745
441.355047,1406.391290,-9770.718434,-1762.019645
441.355369,1258.350101,-9622.677246,-995.924147
441.355690,666.185348,-9400.615463,-459.657299
441.356012,74.020594,-8734.430116,-383.047749
441.356333,0.000000,-9400.615463,-1991.848295
441.356655,-814.226536,-9400.615463,-2068.457845
441.356976,-1554.432478,-9104.533087,-1991.848295
441.357298,-1036.288319,-9104.533087,-1991.848295
441.357619,0.000000,-9252.574275,-1685.410096
441.357941,666.185348,-10362.883188,-1608.800546
441.358262,370.102971,-9992.780217,-919.314598
441.358584,296.082377,-9326.594869,-1302.362347
441.358905,1184.329507,-9844.739029,-1991.848295
441.359227,1850.514855,-10436.903782,-1685.410096
441.359548,888.247130,-9622.677246,-689.485948
441.359870,962.267725,-8882.471304,-153.219100
441.360191,1998.556043,-8734.430116,-919.314598
441.360512,3108.864956,-9622.677246,-1378.971896
441.360834,2812.782580,-9178.553681,-306.438199
441.361155,2220.617826,-8438.347739,229.828649
441.361477,2590.720797,-8364.327145,-612.876398
441.361798,3034.844362,-8586.388927,-842.705048
441.362120,2664.741391,-9252.574275,-995.924147
441.362441,2368.659014,-8364.327145,-919.314598
441.362763,2960.823768,-8438.347739,-1915.238745
441.363084,3997.112087,-9326.594869,-2834.553343
441.363406,4219.173869,-10807.006753,-1915.238745
441.363727,3775.050304,-10140.821405,-1225.752797
441.364049,3997.112087,-9918.759623,-1378.971896
441.364370,4737.318029,-10955.047942,-1608.800546
441.364692,4663.297435,-10584.944971,-1302.362347
441.365013,3997.112087,-9770.718434,-2298.286494
441.365335,3256.906145,-9326.594869,-1685.410096
441.365656,3256.906145,-9104.533087,-612.876398
441.365978,3627.009116,-8660.409521,-1225.752797
441.366299,4441.235652,-8364.327145,-2221.676944
441.366620,4441.235652,-8438.347739,-1302.362347
441.366942,5033.400406,-8956.491898,-1072.533697
441.367263,5625.565159,-8882.471304,-1302.362347
441.367585,5773.606348,-8882.471304,-1378.971896
441.367906,5477.523971,-9104.533087,-1608.800546
441.368228,4145.153275,-9622.677246,-1838.629195
441.368549,2220.617826,-10510.924376,-2145.067394
441.368871,740.205942,-11621.233289,-2145.067394
441.369192,74.020594,-12805.562797,-1455.581446
441.369514,-444.123565,-13101.645173,-1378.971896
441.369835,0.000000,-12731.542202,842.705048
441.370157,74.020594,-11695.253884,995.924147
441.370478,1110.308913,-10140.821405,919.314598
441.370800,1480.411884,-9178.553681,1302.362347
441.371121,962.267725,-7698.141797,1455.581446
441.371443,-444.123565,-5551.544565,612.876398
441.371764,-814.226536,-4737.318029,0.000000
441.372086,-222.061783,-4515.256246,-1838.629195
441.372407,1480.411884,-5181.441594,-2987.772442
441.372728,3478.967927,-5477.523971,-3983.696590
441.373050,5255.462188,-5921.647536,-4136.915689
441.373371,7328.038826,-8734.430116,-3677.258390
441.373693,7328.038826,-11621.233289,-3524.039291
441.374014,6291.750507,-13545.768739,-3600.648841
441.374336,5255.462188,-14434.015869,-3447.429741
441.374657,5255.462188,-14730.098246,-3217.601092
441.374979,4663.297435,-14211.954086,-1915.238745
441.375300,3627.009116,-13397.727550,153.219100
441.375622,1702.473667,-10658.965565,3140.991542
441.375943,1628.453072,-8068.244768,3677.258390
441.376265,2294.638420,-6439.791695,2681.334243
441.376586,1702.473667,-4885.359217,1991.848295
441.376908,-222.061783,-3775.050304,2987.772442
441.377229,-1036.288319,-3330.926739,1225.752797
441.377551,-222.061783,-5625.565159,0.000000
441.377872,518.144159,-7328.038826,-1762.019645
441.378194,296.082377,-9104.533087,-3447.429741
441.378515,74.020594,-9844.739029,-4673.182538
441.378836,814.226536,-12953.603985,-5132.839837
441.379158,1406.391290,-15840.407159,-5056.230287
441.379479,888.247130,-17320.819043,-5209.449386
441.379801,74.020594,-16284.530724,-4826.401637
441.380122,962.267725,-13989.892304,-4290.134789
441.380444,2146.597232,-11547.212695,-4213.525239
441.380765,4145.153275,-9696.697840,-2604.724693
441.381087,5329.482782,-8290.306550,-383.047749
441.381408,5995.668130,-7846.182985,1608.800546
441.381730,6735.874072,-7846.182985,3907.087040
441.382051,7846.182985,-5699.585753,3983.696590
441.382373,8290.306550,-3552.988522,1838.629195
441.382694,7920.203579,-3552.988522,842.705048
441.383016,5181.441594,-4367.215058,2451.505594
441.383337,2664.741391,-4663.297435,2681.334243
441.383659,1850.514855,-7920.203579,-1532.190996
441.383980,1406.391290,-10955.047942,-3983.696590
441.384302,222.061783,-11325.150913,-3983.696590
441.384623,-1332.370696,-12139.377449,-4290.134789
441.384944,-1924.535449,-15322.262999,-3907.087040
441.385266,-2442.679609,-15914.427753,-3217.601092
441.385587,-3034.844362,-12731.542202,-4749.792088
441.385909,-2220.617826,-9918.759623,-5515.887586
441.386230,296.082377,-9548.656652,-4213.525239
441.386552,1702.473667,-9326.594869,-3370.820191
441.386873,3182.885551,-8290.306550,-2068.457845
441.387195,5921.647536,-7402.059420,383.047749
441.387516,8364.327145,-7772.162391,1455.581446
441.387838,8734.430116,-8512.368333,1149.143247
441.388159,7402.059420,-8512.368333,1378.971896
441.388481,5625.565159,-7550.100608,1608.800546
441.388802,4663.297435,-7698.141797,689.485948
441.389124,2220.617826,-8808.450710,766.095498
441.389445,-444.123565,-8438.347739,536.266849
441.389767,-2220.617826,-7698.141797,0.000000
441.390088,-1776.494261,-9474.636058,-995.924147
441.390410,0.000000,-11843.295072,-2298.286494
441.390731,1036.288319,-11547.212695,-1991.848295
441.391052,1184.329507,-10584.944971,-1302.362347
441.391374,2664.741391,-10066.800811,-536.266849
441.391695,5181.441594,-9474.636058,-2298.286494
441.392017,6661.853478,-8808.450710,-4749.792088
441.392338,6513.812290,-8512.368333,-3983.696590
441.392660,5181.441594,-8734.430116,-1225.752797
441.392981,4663.297435,-8586.388927,-306.438199
441.393303,3478.967927,-8438.347739,-842.705048
441.393624,2146.597232,-8364.327145,-995.924147
441.393946,1554.432478,-7846.182985,-1378.971896
441.394267,1184.329507,-8512.368333,-3217.601092
441.394589,592.164754,-11029.068536,-2528.115143
441.394910,-592.164754,-10140.821405,1608.800546
441.395232,-1480.411884,-7402.059420,1915.238745
441.395553,-1110.308913,-8364.327145,-919.314598
441.395875,1702.473667,-11621.233289,-3983.696590
441.396196,2812.782580,-13175.665768,-3677.258390
441.396518,2368.659014,-13915.871710,-2298.286494
441.396839,3478.967927,-14878.139434,1685.410096
441.397160,5033.400406,-14063.912898,2911.162892
441.397482,5847.626942,-10881.027347,76.609550
441.397803,6661.853478,-7994.224174,-1455.581446
441.398125,7772.162391,-7179.997637,-1762.019645
441.398446,8586.388927,-8660.409521,-3294.210641
441.398768,9696.697840,-8882.471304,-1455.581446
441.399089,9548.656652,-7402.059420,2374.896044
441.399411,7698.141797,-5847.626942,2604.724693
441.399732,5699.585753,-6143.709319,1762.019645
441.400054,2368.659014,-4811.338623,-1149.143247
441.400375,-1258.350101,-3701.029710,-3677.258390
441.400697,-3997.112087,-5403.503377,-4136.915689
441.401018,-5181.441594,-9992.780217,-3447.429741
441.401340,-3997.112087,-12139.377449,-3064.381992
441.401661,-3256.906145,-11621.233289,-3753.867940
441.401983,-1628.453072,-14137.933492,-3217.601092
441.402305,-1480.411884,-14730.098246,-1991.848295
441.402626,-2368.659014,-12509.480420,-2604.724693
441.402948,-2812.782580,-10214.842000,-4596.572988
441.403270,296.082377,-10807.006753,-5132.839837
441.403592,3256.906145,-12287.418637,-4826.401637
441.403913,4959.379811,-12583.501014,-2604.724693
441.404235,7402.059420,-10955.047942,1225.752797
441.404557,10214.842000,-9104.533087,3907.087040
441.404878,11843.295072,-7550.100608,4213.525239
441.405200,11473.192101,-6587.832884,3524.039291
441.405522,9844.739029,-5329.482782,306.438199
441.405843,8882.471304,-5033.400406,-1608.800546
441.406165,7402.059420,-5255.462188,-459.657299
441.406487,4515.256246,-5551.544565,229.828649
441.406809,740.205942,-7402.059420,689.485948
441.407130,-1850.514855,-8734.430116,153.219100
441.407452,-3330.926739,-8808.450710,-2298.286494
441.407774,-4293.194464,-9992.780217,-6435.202183
441.408095,-4959.379811,-14063.912898,-6588.421283
441.408417,-7254.018232,-14137.933492,-3753.867940
441.408739,-9178.553681,-11325.150913,-1608.800546
441.409061,-8734.430116,-10140.821405,-3370.820191
441.409382,-5699.585753,-12213.398043,-5592.497135
441.409704,-3404.947333,-13915.871710,-5209.449386
441.410026,-2442.679609,-11547.212695,-1915.238745
441.410347,592.164754,-9178.553681,1762.019645
441.410669,5847.626942,-7179.997637,2681.334243
441.410991,10362.883188,-5329.482782,1378.971896
441.411312,11695.253884,-3923.091493,1149.143247
441.411634,9992.780217,-2960.823768,1991.848295
441.411956,8734.430116,-3923.091493,2374.896044
441.412278,8216.285956,-6587.832884,383.047749
441.412599,7550.100608,-9178.553681,-1532.190996
441.412921,6513.812290,-10066.800811,-1991.848295
441.413243,4885.359217,-11029.068536,-1838.629195
441.413564,3923.091493,-13397.727550,-1302.362347
441.413886,2368.659014,-13915.871710,-919.314598
441.414208,148.041188,-12731.542202,-1378.971896
441.414530,-1776.494261,-12509.480420,-2528.115143
441.414851,-2220.617826,-13693.809927,-2911.162892
441.415173,-2590.720797,-12657.521608,-3064.381992
441.415495,-2812.782580,-10066.800811,-2298.286494
441.415816,-1924.535449,-9030.512492,229.828649
441.416138,-1406.391290,-8808.450710,1072.533697
441.416460,-1036.288319,-7105.977043,919.314598
441.416781,-296.082377,-5699.585753,-153.219100
441.417103,888.247130,-6587.832884,-536.266849
441.417425,370.102971,-5773.606348,0.000000
441.417747,-592.164754,-4737.318029,-842.705048
441.418068,-1776.494261,-5625.565159,-2451.505594
441.418390,-1998.556043,-8068.244768,-4060.306139
441.418712,-2664.741391,-9178.553681,-5132.839837
441.419033,-1554.432478,-12361.439231,-4673.182538
441.419355,0.000000,-16062.468941,-2681.334243
441.419677,1110.308913,-15840.407159,-1378.971896
441.419998,2664.741391,-14063.912898,-2451.505594
441.420320,4811.338623,-13101.645173,-995.924147
441.420642,6143.709319,-11695.253884,-689.485948
441.420964,4959.379811,-8808.450710,-306.438199
441.421285,4663.297435,-7402.059420,1149.143247
441.421607,4441.235652,-7105.977043,1991.848295
441.421929,3627.009116,-6661.853478,2221.676944
441.422250,1776.494261,-5699.585753,2068.457845
441.422572,-1406.391290,-4441.235652,1685.410096
441.422894,-2886.803174,-2664.741391,-1072.533697
441.423216,-5107.421000,-5625.565159,-2834.553343
441.423537,-7624.121203,-8808.450710,-1991.848295
441.423859,-9104.533087,-10362.883188,-1915.238745
441.424181,-9178.553681,-11103.089130,-3600.648841
441.424502,-7624.121203,-11843.295072,-5209.449386
441.424824,-6217.729913,-12435.459826,-5286.058936
441.425146,-5847.626942,-10807.006753,-4903.011187
441.425467,-5107.421000,-10140.821405,-3217.601092
441.425789,-2960.823768,-9992.780217,-3140.991542
441.426111,-296.082377,-9918.759623,-5056.230287
441.426433,1998.556043,-10436.903782,-4290.134789
441.426754,2368.659014,-10214.842000,-1149.143247
441.427076,1924.535449,-7772.162391,229.828649
441.427398,3256.906145,-6143.709319,-995.924147
441.427719,3404.947333,-7476.080014,-766.095498
441.428041,1332.370696,-7994.224174,0.000000
441.428363,-666.185348,-8438.347739,153.219100
441.428685,-518.144159,-9548.656652,76.609550
441.429006,1628.453072,-11769.274478,-229.828649
441.429328,3182.885551,-11843.295072,76.609550
441.429650,4145.153275,-10658.965565,0.000000
441.429971,4441.235652,-10288.862594,0.000000
441.430293,4071.132681,-10140.821405,0.000000
441.430615,3627.009116,-10288.862594,-995.924147
441.430936,2294.638420,-9622.677246,-2834.553343
441.431258,1332.370696,-9918.759623,-3600.648841
441.431580,296.082377,-9400.615463,-3140.991542
441.431902,-444.123565,-9104.533087,-2221.676944
441.432223,-2368.659014,-9474.636058,-2068.457845
441.432545,-4293.194464,-9622.677246,-919.314598
441.432867,-6661.853478,-9400.615463,-1532.190996
441.433188,-7402.059420,-8808.450710,-2834.553343
441.433510,-6809.894666,-8586.388927,-3447.429741
441.433832,-6069.688724,-7772.162391,-1608.800546
441.434153,-4737.318029,-7624.121203,-842.705048
441.434475,-2960.823768,-7772.162391,383.047749
441.434797,-1036.288319,-8290.306550,459.657299
441.435119,666.185348,-8290.306550,0.000000
441.435440,3552.988522,-8216.285956,0.000000
441.435762,5847.626942,-8660.409521,-1149.143247
441.436084,7402.059420,-9622.677246,-536.266849
441.436405,7179.997637,-10214.842000,919.314598
441.436727,6069.688724,-8882.471304,1378.971896
441.437049,5329.482782,-9474.636058,-383.047749
441.437371,5033.400406,-11103.089130,-1685.410096
441.437692,3182.885551,-10362.883188,-1378.971896
441.438014,814.226536,-9474.636058,-766.095498
441.438336,148.041188,-9474.636058,0.000000
441.438657,444.123565,-9474.636058,-383.047749
441.438979,-296.082377,-8660.409521,-995.924147
441.439301,-2368.659014,-9326.594869,-383.047749
441.439622,-4663.297435,-8586.388927,-383.047749
441.439944,-4811.338623,-8882.471304,-1302.362347
441.440266,-3627.009116,-9474.636058,-3294.210641
441.440588,-2368.659014,-10436.903782,-3524.039291
441.440909,-2368.659014,-10288.862594,-2221.676944
441.441231,-2146.597232,-9844.739029,-1149.143247
441.441553,-2960.823768,-9252.574275,-1608.800546
441.441874,-3849.070898,-9474.636058,-3217.601092
441.442196,-4885.359217,-10140.821405,-4596.572988
441.442518,-5181.441594,-10436.903782,-4290.134789
441.442840,-4589.276840,-11177.109724,-2374.896044
441.443161,-2146.597232,-11325.150913,-1762.019645
441.443483,0.000000,-10881.027347,-995.924147
441.443805,1258.350101,-10214.842000,-842.705048
441.444126,1776.494261,-9770.718434,-229.828649
441.444448,2368.659014,-9030.512492,766.095498
441.444770,3552.988522,-7994.224174,-153.219100
441.445091,3997.112087,-7624.121203,-1608.800546
441.445413,3256.906145,-7920.203579,-1302.362347
441.445735,962.267725,-9104.533087,536.266849
441.446057,-1110.308913,-9178.553681,153.219100
441.446378,-1998.556043,-9548.656652,-1762.019645
441.446700,-2590.720797,-10362.883188,-3140.991542
441.447022,-3997.112087,-9770.718434,-2145.067394
441.447343,-4441.235652,-9474.636058,-1838.629195
441.447665,-3108.864956,-9104.533087,-1838.629195
441.447987,-2368.659014,-8586.388927,-2451.505594
441.448309,-2590.720797,-8956.491898,-2145.067394
441.448630,-3404.947333,-8438.347739,-2221.676944
441.448952,-2516.700203,-8068.244768,-1915.238745
441.449274,-370.102971,-9030.512492,-2068.457845
441.449595,2220.617826,-9104.533087,-1532.190996
441.449917,3775.050304,-8734.430116,-842.705048
441.450239,2738.761985,-7624.121203,76.609550
441.450560,1258.350101,-6365.771101,0.000000
441.450882,1110.308913,-6291.750507,-2681.334243
441.451204,740.205942,-7328.038826,-3830.477490
441.451526,-592.164754,-9104.533087,-1991.848295
441.451847,-2368.659014,-9844.739029,0.000000
441.452169,-1554.432478,-10658.965565,-766.095498
441.452491,592.164754,-12361.439231,-1455.581446
441.452812,1776.494261,-13693.809927,-1685.410096
441.453134,1258.350101,-11843.295072,-995.924147
441.453456,1554.432478,-9770.718434,-383.047749
441.453777,2368.659014,-10288.862594,-766.095498
441.454099,3552.988522,-10510.924376,-995.924147
441.454421,3923.091493,-10066.800811,-2068.457845
441.454743,3478.967927,-8216.285956,-1455.581446
441.455064,2812.782580,-8808.450710,-383.047749
441.455386,1406.391290,-8586.388927,-842.705048
441.455708,-740.205942,-8660.409521,-1762.019645
441.456029,-2516.700203,-9622.677246,-1685.410096
441.456351,-3923.091493,-10288.862594,-1762.019645
441.456673,-4219.173869,-9992.780217,-2451.505594
441.456995,-4219.173869,-9992.780217,-2451.505594
441.457316,-3701.029710,-10140.821405,-1378.971896
441.457638,-3404.947333,-8882.471304,-919.314598
441.457960,-2738.761985,-8660.409521,-1532.190996
441.458281,-1776.494261,-8364.327145,-1378.971896
441.458603,-1110.308913,-8586.388927,-1072.533697
441.458925,296.082377,-8734.430116,-1685.410096
441.459246,1628.453072,-9252.574275,-1455.581446
441.459568,1998.556043,-9770.718434,-383.047749
441.459890,1628.453072,-10214.842000,383.047749
441.460212,1036.288319,-10510.924376,0.000000
441.460533,0.000000,-9326.594869,-383.047749
441.460855,-814.226536,-8734.430116,-842.705048
441.461177,-1036.288319,-8142.265362,-689.485948
441.461498,-666.185348,-8364.327145,-229.828649
441.461820,-666.185348,-7772.162391,-536.266849
441.462142,0.000000,-8068.244768,-612.876398
441.462464,-444.123565,-8216.285956,0.000000
441.462785,-1258.350101,-9030.512492,-459.657299
441.463107,-1554.432478,-9622.677246,-1762.019645
441.463429,-592.164754,-10214.842000,-2451.505594
441.463750,0.000000,-11473.192101,-2145.067394
441.464072,222.061783,-11251.130318,-919.314598
441.464394,74.020594,-9474.636058,0.000000
441.464715,-962.267725,-7994.224174,-2298.286494
441.465037,-2368.659014,-8808.450710,-2911.162892
441.465359,-3627.009116,-9474.636058,-2068.457845
441.465681,-4367.215058,-9770.718434,-2451.505594
441.466002,-3923.091493,-10807.006753,-2911.162892
441.466324,-2886.803174,-11103.089130,-1072.533697
441.466646,-2368.659014,-11029.068536,0.000000
441.466967,-518.144159,-9992.780217,-1149.143247
441.467289,-296.082377,-8290.306550,-1762.019645
441.467611,148.041188,-7402.059420,-1378.971896
441.467932,1258.350101,-8142.265362,-1762.019645
441.468254,2294.638420,-8808.450710,-2451.505594
441.468576,3034.844362,-9844.739029,-1685.410096
441.468898,2442.679609,-9770.718434,459.657299
441.469219,1776.494261,-9474.636058,-536.266849
441.469541,666.185348,-9844.739029,-2451.505594
441.469863,-370.102971,-10362.883188,-3217.601092
441.470184,-1628.453072,-11029.068536,-2604.724693
441.470506,-1110.308913,-10288.862594,-1762.019645
441.470828,1110.308913,-9252.574275,-1455.581446
441.471150,1776.494261,-8660.409521,-1302.362347
441.471471,1406.391290,-7920.203579,-459.657299
441.471793,-222.061783,-7698.141797,-612.876398
441.472115,-1036.288319,-7476.080014,-842.705048
441.472436,-296.082377,-7846.182985,-1915.238745
441.472758,740.205942,-8512.368333,-2757.943793
441.473080,1776.494261,-9770.718434,-1225.752797
441.473401,1998.556043,-10066.800811,0.000000
441.473723,1702.473667,-9252.574275,-766.095498
441.474045,1480.411884,-8290.306550,-2145.067394
441.474367,444.123565,-8734.430116,-3064.381992
441.474688,-1258.350101,-9252.574275,-3064.381992
441.475010,-3034.844362,-9104.533087,-2528.115143
441.475332,-3182.885551,-9770.718434,-2298.286494
441.475653,-1776.494261,-11399.171507,-1608.800546
441.475975,-740.205942,-12435.459826,-1608.800546
441.476297,-740.205942,-11473.192101,-612.876398
441.476619,-1258.350101,-9844.739029,-306.438199
441.476940,-370.102971,-9770.718434,-153.219100
441.477262,740.205942,-8660.409521,-995.924147
441.477584,2072.576638,-8364.327145,-2145.067394
441.477905,2368.659014,-8216.285956,-1608.800546
441.478227,1776.494261,-8586.388927,153.219100
441.478549,518.144159,-8734.430116,689.485948
441.478870,-592.164754,-9770.718434,-766.095498
441.479192,-1998.556043,-10584.944971,-1991.848295
441.479514,-3182.885551,-10732.986159,-2221.676944
441.479836,-3256.906145,-10288.862594,-1685.410096
441.480157,-2368.659014,-9918.759623,-1378.971896
441.480479,-1406.391290,-9844.739029,-2068.457845
441.480801,-1628.453072,-8808.450710,-1302.362347
441.481122,-2368.659014,-8512.368333,766.095498
441.481444,-3627.009116,-7402.059420,-383.047749
441.481766,-3034.844362,-7846.182985,-2528.115143
441.482087,-2368.659014,-8290.306550,-3677.258390
441.482409,-1998.556043,-9918.759623,-2068.457845
441.482731,-1924.535449,-9918.759623,459.657299
441.483053,-1480.411884,-8734.430116,-229.828649
441.483374,-814.226536,-8882.471304,-2221.676944
441.483696,-740.205942,-9770.718434,-1915.238745
441.484018,-2072.576638,-9326.594869,-1532.190996
441.484339,-2146.597232,-9252.574275,-1072.533697
441.484661,-518.144159,-9844.739029,0.000000
441.484983,1184.329507,-9992.780217,-383.047749
441.485305,1850.514855,-8882.471304,-766.095498
441.485626,1850.514855,-8290.306550,-536.266849
441.485948,1628.453072,-8808.450710,-383.047749
441.486270,2220.617826,-8660.409521,-536.266849
441.486591,2368.659014,-8660.409521,-1608.800546
441.486913,2960.823768,-9770.718434,-1072.533697
441.487235,2590.720797,-9918.759623,-995.924147
441.487556,1480.411884,-9622.677246,-1455.581446
441.487878,592.164754,-8956.491898,-1608.800546
441.488200,-1110.308913,-8808.450710,-2681.334243
441.488522,-2368.659014,-10140.821405,-4366.744339
441.488843,-3182.885551,-10658.965565,-3677.258390
441.489165,-3108.864956,-11473.192101,-2145.067394
441.489487,-2072.576638,-12065.356855,-766.095498
441.489808,-1554.432478,-11621.233289,-689.485948
441.490130,-888.247130,-9696.697840,-1225.752797
441.490452,-666.185348,-8068.244768,-842.705048
441.490774,-370.102971,-6587.832884,-1149.143247
441.491095,962.267725,-6143.709319,-2221.676944
441.491417,2516.700203,-6661.853478,-2374.896044
441.491739,3701.029710,-8808.450710,-1455.581446
441.492060,2368.659014,-9474.636058,0.000000
441.492382,666.185348,-9326.594869,612.876398
441.492704,-370.102971,-9474.636058,-1455.581446
441.493025,-1480.411884,-10066.800811,-3830.477490
441.493347,-2738.761985,-10510.924376,-3753.867940
441.493669,-1924.535449,-10510.924376,-1685.410096
441.493991,0.000000,-9622.677246,-1455.581446
441.494312,2368.659014,-9622.677246,-1762.019645
441.494634,2886.803174,-8882.471304,0.000000
441.494956,1480.411884,-6883.915261,229.828649
441.495277,814.226536,-7698.141797,-1302.362347
441.495599,1036.288319,-9178.553681,-2451.505594
441.495921,1332.370696,-10140.821405,-2298.286494
441.496242,592.164754,-9770.718434,-1532.190996
441.496564,0.000000,-9104.533087,306.438199
441.496886,1036.288319,-8808.450710,0.000000
441.497208,888.247130,-8068.244768,-3294.210641
441.497529,-592.164754,-9252.574275,-4366.744339
441.497851,-3552.988522,-9992.780217,-2451.505594
441.498173,-4885.359217,-9992.780217,-995.924147
441.498494,-3552.988522,-10732.986159,-2528.115143
441.498816,-2664.741391,-11621.233289,-3294.210641
441.499138,-2738.761985,-11473.192101,-1838.629195
441.499460,-3256.906145,-10066.800811,-1149.143247
441.499781,-2368.659014,-9326.594869,-1532.190996
441.500103,-444.123565,-9844.739029,-1378.971896
441.500425,0.000000,-9844.739029,-383.047749
441.500746,222.061783,-8364.327145,-612.876398
441.501068,888.247130,-7772.162391,-1378.971896
441.501390,888.247130,-8586.388927,-1608.800546
441.501712,-370.102971,-9696.697840,-995.924147
441.502033,-1480.411884,-8882.471304,-1455.581446
441.502355,-2516.700203,-9030.512492,-1685.410096
441.502677,-2442.679609,-10214.842000,-1302.362347
441.502999,-1110.308913,-11029.068536,-1225.752797
441.503320,0.000000,-10214.842000,-1532.190996
441.503642,592.164754,-9104.533087,-766.095498
441.503964,0.000000,-7772.162391,0.000000
441.504285,-666.185348,-7846.182985,0.000000
441.504607,-2146.597232,-7846.182985,-1225.752797
441.504929,-2516.700203,-8142.265362,-2298.286494
441.505251,-1258.350101,-9178.553681,-2911.162892
441.505572,444.123565,-9992.780217,-2451.505594
441.505894,1036.288319,-9474.636058,-1378.971896
441.506216,666.185348,-8586.388927,-229.828649
441.506538,444.123565,-8734.430116,-919.314598
441.506859,0.000000,-9622.677246,-2221.676944
441.507181,-1332.370696,-10066.800811,-2604.724693
441.507503,-2294.638420,-9844.739029,-1608.800546
441.507825,-2294.638420,-10288.862594,-995.924147
441.508146,-1184.329507,-9770.718434,-689.485948
441.508468,74.020594,-9474.636058,-383.047749
441.508790,1554.432478,-8586.388927,76.609550
441.509112,2590.720797,-8216.285956,-1072.533697
441.509433,2590.720797,-8364.327145,-1915.238745
441.509755,2146.597232,-8808.450710,-1532.190996
441.510077,2220.617826,-9548.656652,-919.314598
441.510399,2220.617826,-9992.780217,-1302.362347
441.510720,1480.411884,-10066.800811,-1685.410096
441.511042,0.000000,-9104.533087,-2068.457845
441.511364,-1628.453072,-9326.594869,-3830.477490
441.511685,-2368.659014,-10214.842000,-3753.867940
441.512007,-2812.782580,-11843.295072,-2145.067394
441.512329,-2590.720797,-11695.253884,-1378.971896
441.512651,-1628.453072,-11325.150913,-2298.286494
441.512972,-888.247130,-10658.965565,-1915.238745
441.513294,-296.082377,-9918.759623,-306.438199
441.513616,0.000000,-8290.306550,-995.924147
441.513938,740.205942,-6957.935855,-1838.629195
441.514259,1998.556043,-7179.997637,-1072.533697
441.514581,2664.741391,-7476.080014,0.000000
441.514903,3330.926739,-7698.141797,-1302.362347
441.515225,2960.823768,-8290.306550,-919.314598
441.515546,1480.411884,-8882.471304,0.000000
441.515868,-518.144159,-8660.409521,-919.314598
441.516190,-2072.576638,-8808.450710,-2528.115143
441.516512,-2664.741391,-10732.986159,-3217.601092
441.516833,-3182.885551,-11325.150913,-1991.848295
441.517155,-2960.823768,-10658.965565,-1532.190996
441.517477,-1924.535449,-9548.656652,-1225.752797
441.517799,-1036.288319,-9252.574275,-1455.581446
441.518120,-666.185348,-8364.327145,-1608.800546
441.518442,-814.226536,-7624.121203,-1991.848295
441.518764,0.000000,-8512.368333,-1455.581446
441.519085,592.164754,-9474.636058,-689.485948
441.519407,814.226536,-8956.491898,-1302.362347
441.519729,666.185348,-9178.553681,-1378.971896
441.520051,814.226536,-9178.553681,-1915.238745
441.520372,222.061783,-8882.471304,-2757.943793
441.520694,-518.144159,-9326.594869,-3600.648841
441.521016,-1628.453072,-10066.800811,-2834.553343
441.521338,-3034.844362,-11325.150913,-1225.752797
441.521659,-3849.070898,-11325.150913,-919.314598
441.521981,-3478.967927,-10732.986159,-2451.505594
441.522303,-1776.494261,-10807.006753,-2757.943793
441.522625,-1702.473667,-10362.883188,-1378.971896
441.522946,-1184.329507,-9548.656652,-306.438199
441.523268,-592.164754,-9030.512492,-536.266849
441.523590,814.226536,-9400.615463,-306.438199
441.523912,1924.535449,-9252.574275,-689.485948
441.524233,2072.576638,-8882.471304,-1762.019645
441.524555,1258.350101,-8364.327145,-1915.238745
441.524877,296.082377,-8216.285956,-1072.533697
441.525199,-592.164754,-8956.491898,-1225.752797
441.525520,-1406.391290,-9622.677246,-2068.457845
441.525842,-2516.700203,-9918.759623,-1532.190996
441.526164,-2812.782580,-9696.697840,-536.266849
441.526485,-2220.617826,-10436.903782,-2374.896044
441.526807,-888.247130,-9696.697840,-2528.115143
441.527129,-148.041188,-8956.491898,-1532.190996
441.527451,-296.082377,-8364.327145,-842.705048
441.527772,-592.164754,-8364.327145,-306.438199
441.528094,-222.061783,-8216.285956,-536.266849
441.528416,0.000000,-8512.368333,-1149.143247
441.528738,814.226536,-9104.533087,-1072.533697
441.529059,2072.576638,-8734.430116,-1149.143247
441.529381,2368.659014,-8660.409521,-536.266849
441.529703,1184.329507,-8290.306550,766.095498
441.530025,-296.082377,-8364.327145,-459.657299
441.530346,-1036.288319,-9030.512492,-1378.971896
441.530668,-1850.514855,-9696.697840,-1915.238745
441.530990,-2146.597232,-10288.862594,-2221.676944
441.531312,-1110.308913,-10362.883188,-1225.752797
441.531633,518.144159,-9622.677246,-612.876398
441.531955,1998.556043,-9252.574275,-459.657299
441.532277,2886.803174,-8882.471304,-842.705048
441.532599,3330.926739,-8512.368333,-1378.971896
441.532920,2738.761985,-9252.574275,-1608.800546
441.533242,2516.700203,-9696.697840,-1225.752797
441.533564,1776.494261,-10066.800811,-1532.190996
441.533885,370.102971,-9030.512492,-1685.410096
441.534207,-1110.308913,-9474.636058,-2221.676944
441.534529,-3330.926739,-9770.718434,-2528.115143
441.534851,-4885.359217,-9474.636058,-2298.286494
441.535172,-4367.215058,-10214.842000,-2757.943793
441.535494,-3034.844362,-10732.986159,-2604.724693
441.535816,-1776.494261,-10955.047942,-2374.896044
441.536138,-1998.556043,-10362.883188,-995.924147
441.536459,-2072.576638,-10066.800811,-306.438199
441.536781,-888.247130,-9104.533087,-1225.752797
441.537103,0.000000,-9622.677246,-2757.943793
441.537425,222.061783,-9696.697840,-1608.800546
441.537746,962.267725,-8438.347739,0.000000
441.538068,2442.679609,-7476.080014,-689.485948
441.538390,4367.215058,-8364.327145,-1608.800546
441.538712,4885.359217,-9030.512492,-1762.019645
441.539033,2368.659014,-8512.368333,-1302.362347
441.539355,-296.082377,-8142.265362,-1302.362347
441.539677,-2072.576638,-9030.512492,-1991.848295
441.539999,-3552.988522,-10510.924376,-2528.115143
441.540320,-4293.194464,-10732.986159,-2451.505594
441.540642,-5107.421000,-10584.944971,-1685.410096
441.540964,-3701.029710,-10214.842000,-1302.362347
441.541285,-2220.617826,-9104.533087,-1762.019645
441.541607,-1628.453072,-9400.615463,-1225.752797
441.541929,-1554.432478,-8956.491898,919.314598
441.542251,-962.267725,-7994.224174,536.266849
441.542572,962.267725,-7402.059420,-2374.896044
441.542894,1924.535449,-8512.368333,-2681.334243
441.543216,888.247130,-8290.306550,-1302.362347
441.543538,-666.185348,-7476.080014,-1302.362347
441.543859,-740.205942,-9030.512492,-2451.505594
441.544181,-444.123565,-11103.089130,-2987.772442
441.544503,-1036.288319,-11621.233289,-2221.676944
441.544825,-2146.597232,-10807.006753,-995.924147
441.545146,-1850.514855,-10436.903782,-689.485948
441.545468,-296.082377,-10436.903782,-1455.581446
441.545790,0.000000,-9770.718434,-1991.848295
441.546112,0.000000,-8734.430116,-1455.581446
441.546433,148.041188,-8808.450710,-766.095498
441.546755,518.144159,-9104.533087,-536.266849
441.547077,1628.453072,-8660.409521,-459.657299
441.547399,2368.659014,-9252.574275,-306.438199
441.547720,2146.597232,-9178.553681,-842.705048
441.548042,1036.288319,-9400.615463,-612.876398
441.548364,222.061783,-8438.347739,-919.314598
441.548685,-518.144159,-7476.080014,-2221.676944
441.549007,-1628.453072,-7994.224174,-2451.505594
441.549329,-2664.741391,-9252.574275,-1991.848295
441.549651,-2738.761985,-10066.800811,-2221.676944
441.549972,-2072.576638,-10732.986159,-2451.505594
441.550294,-1258.350101,-10658.965565,-2451.505594
441.550616,-888.247130,-9548.656652,-1915.238745
441.550938,-1110.308913,-9770.718434,-1685.410096
441.551259,-962.267725,-9992.780217,-995.924147
441.551581,-1110.308913,-8660.409521,-689.485948
441.551903,-296.082377,-7698.141797,-1608.800546
441.552225,1480.411884,-8438.347739,-1685.410096
441.552546,2738.761985,-8364.327145,-1225.752797
441.552868,2368.659014,-8290.306550,383.047749
441.553190,1702.473667,-8142.265362,76.609550
441.553512,1110.308913,-9178.553681,-766.095498
441.553833,0.000000,-9622.677246,-1378.971896
441.554155,-1406.391290,-9918.759623,-1455.581446
441.554477,-1258.350101,-10140.821405,-1149.143247
441.554799,-296.082377,-10214.842000,-1532.190996
441.555120,444.123565,-9992.780217,-2221.676944
441.555442,962.267725,-10436.903782,-995.924147
441.555764,888.247130,-10510.924376,-383.047749
441.556085,444.123565,-9474.636058,-1149.143247
441.556407,148.041188,-8808.450710,-2068.457845
441.556729,370.102971,-9252.574275,-2911.162892
441.557051,-592.164754,-9918.759623,-2681.334243
441.557372,-2294.638420,-9992.780217,-1455.581446
441.557694,-3627.009116,-10584.944971,-766.095498
441.558016,-3627.009116,-11029.068536,-1455.581446
441.558338,-4071.132681,-9844.739029,-1302.362347
441.558659,-4219.173869,-9030.512492,-689.485948
441.558981,-2886.803174,-8586.388927,-995.924147
441.559303,-1110.308913,-8216.285956,-1685.410096
441.559625,0.000000,-8216.285956,-1991.848295
441.559946,-296.082377,-8882.471304,-536.266849
441.560268,-888.247130,-9918.759623,-306.438199
441.560590,-962.267725,-10658.965565,-766.095498
441.560912,148.041188,-10584.944971,-1302.362347
441.561233,2220.617826,-9992.780217,-1762.019645
441.561555,3330.926739,-9474.636058,-1378.971896
441.561877,3182.885551,-8290.306550,-766.095498
441.562199,2516.700203,-7105.977043,-229.828649
441.562520,1332.370696,-6661.853478,-1915.238745
441.562842,-592.164754,-7402.059420,-2604.724693
441.563164,-2590.720797,-9252.574275,-1838.629195
441.563485,-3997.112087,-10288.862594,-1072.533697
441.563807,-3701.029710,-10658.965565,-2298.286494
441.564129,-2590.720797,-11177.109724,-1532.190996
441.564451,-2220.617826,-10807.006753,-536.266849
441.564772,-2294.638420,-9178.553681,-536.266849
441.565094,-1554.432478,-7698.141797,-1762.019645
441.565416,0.000000,-7254.018232,-2068.457845
441.565738,888.247130,-7698.141797,-2068.457845
441.566059,1480.411884,-8290.306550,-2451.505594
441.566381,1480.411884,-8364.327145,-1455.581446
441.566703,1628.453072,-9548.656652,-1149.143247
441.567025,1184.329507,-10214.842000,-1915.238745
441.567346,74.020594,-10732.986159,-2451.505594
441.567668,-888.247130,-11029.068536,-2145.067394
441.567990,-1332.370696,-11251.130318,-2145.067394
441.568312,-1036.288319,-11325.150913,-1149.143247
441.568633,222.061783,-9992.780217,-1532.190996
441.568955,518.144159,-8956.491898,-1302.362347
441.569277,444.123565,-8364.327145,-229.828649
441.569599,666.185348,-9104.533087,-766.095498
441.569920,0.000000,-8956.491898,-1455.581446
441.570242,-740.205942,-9104.533087,76.609550
441.570564,-1110.308913,-9474.636058,229.828649
441.570885,-370.102971,-9474.636058,-2068.457845
441.571207,888.247130,-9326.594869,-2834.553343
441.571529,814.226536,-9400.615463,-2145.067394
441.571851,-370.102971,-9474.636058,-689.485948
441.572172,-1702.473667,-8660.409521,-612.876398
441.572494,-2590.720797,-9400.615463,-1838.629195
441.572816,-2812.782580,-10658.965565,-2451.505594
441.573138,-2960.823768,-10732.986159,-3140.991542
441.573459,-2368.659014,-9548.656652,-3370.820191
441.573781,-1184.329507,-9622.677246,-842.705048
441.574103,-518.144159,-8956.491898,0.000000
441.574425,-666.185348,-7624.121203,-689.485948
441.574746,-444.123565,-8512.368333,-76.609550
441.575068,0.000000,-9252.574275,-689.485948
441.575390,740.205942,-8142.265362,-1608.800546
441.575712,1258.350101,-7179.997637,-919.314598
441.576033,1406.391290,-7772.162391,919.314598
441.576355,1332.370696,-7698.141797,536.266849
441.576677,296.082377,-7402.059420,-1915.238745
441.576999,74.020594,-8808.450710,-2528.115143
441.577320,370.102971,-10732.986159,-2068.457845
441.577642,592.164754,-11325.150913,-2298.286494
441.577964,814.226536,-10881.027347,-1762.019645
441.578285,888.247130,-10584.944971,-383.047749
441.578607,1036.288319,-9696.697840,-1532.190996
441.578929,518.144159,-9474.636058,-2604.724693
441.579251,-888.247130,-8660.409521,-2298.286494
441.579572,-1332.370696,-8512.368333,-1991.848295
441.579894,-740.205942,-8216.285956,-2911.162892
441.580216,74.020594,-9400.615463,-2604.724693
441.580538,0.000000,-11621.233289,-1225.752797
441.580859,-1184.329507,-11251.130318,0.000000
441.581181,-2294.638420,-10066.800811,-1072.533697
441.581503,-2812.782580,-9326.594869,-1991.848295
441.581825,-3256.906145,-9548.656652,-1685.410096
441.582146,-3775.050304,-9548.656652,-1685.410096
441.582468,-2516.700203,-8512.368333,-1991.848295
441.582790,-814.226536,-9104.533087,-1915.238745
441.583112,592.164754,-10288.862594,-1532.190996
441.583433,1036.288319,-10584.944971,-919.314598
441.583755,148.041188,-10362.883188,-766.095498
441.584077,518.144159,-9696.697840,-919.314598
441.584399,2072.576638,-9474.636058,-1762.019645
441.584720,3552.988522,-9030.512492,-2451.505594
441.585042,2516.700203,-7772.162391,-1762.019645
441.585364,1554.432478,-7994.224174,-76.609550
441.585685,222.061783,-8216.285956,-919.314598
441.586007,-740.205942,-8512.368333,-2528.115143
441.586329,-2738.761985,-8882.471304,-1685.410096
441.586651,-3701.029710,-9770.718434,0.000000
441.586972,-3478.967927,-9474.636058,-153.219100
441.587294,-2738.761985,-8956.491898,-1915.238745
441.587616,-2146.597232,-9178.553681,-306.438199
441.587938,-2146.597232,-9400.615463,919.314598
441.588259,-2072.576638,-7476.080014,-842.705048
441.588581,-1184.329507,-6513.812290,-2757.943793
441.588903,962.267725,-8364.327145,-2374.896044
441.589225,1480.411884,-9474.636058,-1455.581446
441.589546,1258.350101,-9326.594869,-1455.581446
441.589868,1258.350101,-9474.636058,-995.924147
441.590190,1036.288319,-9992.780217,-1532.190996
441.590512,444.123565,-10362.883188,-2604.724693
441.590833,-370.102971,-10955.047942,-3217.601092
441.591155,-1480.411884,-10807.006753,-1838.629195
441.591477,-592.164754,-10955.047942,-1685.410096
441.591799,666.185348,-10881.027347,-1455.581446
441.592120,1850.514855,-10732.986159,0.000000
441.592442,1554.432478,-8956.491898,153.219100
441.592764,962.267725,-8290.306550,-1149.143247
441.593085,222.061783,-8512.368333,-1225.752797
441.593407,-444.123565,-8142.265362,-689.485948
441.593729,-222.061783,-7920.203579,-1302.362347
441.594051,296.082377,-9030.512492,-2221.676944
441.594372,888.247130,-9992.780217,-2221.676944
441.594694,0.000000,-10658.965565,-1302.362347
441.595016,-1406.391290,-10066.800811,-1608.800546
441.595338,-2368.659014,-10140.821405,-2221.676944
441.595659,-2664.741391,-10881.027347,-2528.115143
441.595981,-2368.659014,-10436.903782,-2987.772442
441.596303,-1702.473667,-10140.821405,-2528.115143
441.596625,-1110.308913,-9696.697840,-1838.629195
441.596946,-740.205942,-9326.594869,-842.705048
441.597268,-518.144159,-8660.409521,-1302.362347
441.597590,-222.061783,-8438.347739,-1378.971896
441.597912,296.082377,-8216.285956,-1072.533697
441.598233,1110.308913,-7624.121203,-919.314598
441.598555,2072.576638,-7846.182985,-766.095498
441.598877,2590.720797,-8512.368333,459.657299
441.599199,2886.803174,-8216.285956,229.828649
441.599520,3256.906145,-8290.306550,-1762.019645
441.599842,1554.432478,-9030.512492,-2451.505594
441.600164,148.041188,-10288.862594,-766.095498
441.600485,-1258.350101,-10362.883188,-689.485948
441.600807,-1332.370696,-10288.862594,-1915.238745
441.601129,-444.123565,-10584.944971,-2757.943793
441.601451,-592.164754,-11103.089130,-1608.800546
441.601773,-1184.329507,-9326.594869,-1302.362347
441.602094,-1628.453072,-7476.080014,-1762.019645
441.602416,-1406.391290,-8068.244768,-2834.553343
441.602738,-814.226536,-9548.656652,-2451.505594
441.603060,-1184.329507,-9400.615463,-2221.676944
441.603382,-1702.473667,-9622.677246,-1991.848295
441.603703,-1850.514855,-10288.862594,-919.314598
441.604025,-2146.597232,-9770.718434,-1532.190996
441.604347,-2516.700203,-9844.739029,-3064.381992
441.604669,-3108.864956,-10140.821405,-2451.505594
441.604991,-3256.906145,-10807.006753,-995.924147
441.605312,-2368.659014,-9770.718434,-919.314598
441.605634,-444.123565,-9104.533087,-689.485948
441.605956,1480.411884,-9696.697840,-459.657299
441.606278,1554.432478,-9252.574275,229.828649
441.606600,592.164754,-8882.471304,-229.828649
441.606922,74.020594,-8364.327145,-153.219100
441.607243,888.247130,-8586.388927,-1149.143247
441.607565,1702.473667,-9104.533087,-1838.629195
441.607887,1998.556043,-9104.533087,-1838.629195
441.608209,1628.453072,-7772.162391,0.000000
441.608531,1258.350101,-7772.162391,0.000000
441.608852,222.061783,-8512.368333,-2451.505594
441.609174,-2220.617826,-10066.800811,-2834.553343
441.609496,-4737.318029,-11325.150913,-1685.410096
441.609818,-5551.544565,-10436.903782,-689.485948
441.610140,-4219.173869,-9844.739029,-1915.238745
441.610461,-2146.597232,-9400.615463,-2451.505594
441.610783,-962.267725,-9178.553681,-1225.752797
441.611105,-814.226536,-7550.100608,-383.047749
441.611427,148.041188,-6587.832884,-689.485948
441.611749,1036.288319,-7254.018232,-1685.410096
441.612070,1480.411884,-7698.141797,-1762.019645
441.612392,1554.432478,-8364.327145,-1991.848295
441.612714,2146.597232,-9992.780217,-842.705048
441.613036,3404.947333,-10288.862594,-1225.752797
441.613358,3478.967927,-10584.944971,-1608.800546
441.613679,2220.617826,-9474.636058,-766.095498
441.614001,222.061783,-8882.471304,-995.924147
441.614323,-666.185348,-9844.739029,-1608.800546
441.614645,0.000000,-10881.027347,-2987.772442
441.614967,370.102971,-10584.944971,-2911.162892
441.615288,148.041188,-9992.780217,-1225.752797
441.615610,-370.102971,-10066.800811,536.266849
441.615932,-1110.308913,-9474.636058,383.047749
441.616254,-814.226536,-8660.409521,-1762.019645
441.616576,-148.041188,-8734.430116,-3447.429741
441.616897,814.226536,-9622.677246,-3907.087040
441.617219,444.123565,-9400.615463,-2221.676944
441.617541,0.000000,-9696.697840,-919.314598
441.617863,0.000000,-10140.821405,-1149.143247
441.618185,-296.082377,-9844.739029,-2451.505594
441.618507,-1554.432478,-10584.944971,-3524.039291
441.618828,-3404.947333,-10807.006753,-2451.505594
441.619150,-2886.803174,-9844.739029,-1915.238745
441.619472,-666.185348,-9400.615463,-2528.115143
441.619794,1036.288319,-10955.047942,-1608.800546
441.620116,1776.494261,-11103.089130,0.000000
441.620437,1036.288319,-8216.285956,153.219100
441.620759,592.164754,-7846.182985,-1225.752797
441.621081,1258.350101,-8364.327145,-1838.629195
441.621403,1776.494261,-8216.285956,-1532.190996
441.621725,2368.659014,-7476.080014,-1225.752797
441.622046,2812.782580,-7550.100608,0.000000
441.622368,2886.803174,-9252.574275,76.609550
441.622690,1406.391290,-9548.656652,-842.705048
441.623012,-1110.308913,-9178.553681,-1072.533697
441.623334,-3404.947333,-9178.553681,-1532.190996
441.623655,-3923.091493,-9844.739029,-2604.724693
441.623977,-3997.112087,-10140.821405,-2987.772442
441.624299,-3849.070898,-9326.594869,-1838.629195
441.624621,-3478.967927,-8290.306550,-1072.533697
441.624943,-2146.597232,-8364.327145,-1838.629195
441.625264,-1480.411884,-8956.491898,-1685.410096
441.625586,-1702.473667,-9622.677246,-1149.143247
441.625908,-2146.597232,-9252.574275,-1455.581446
441.626230,-962.267725,-9474.636058,-2451.505594
441.626552,518.144159,-10584.944971,-1762.019645
441.626873,370.102971,-9918.759623,-766.095498
441.627195,-370.102971,-7698.141797,0.000000
441.627517,-1258.350101,-7698.141797,-2221.676944
441.627839,-1702.473667,-9992.780217,-2757.943793
441.628161,-2738.761985,-11621.233289,-1762.019645
441.628482,-2960.823768,-11473.192101,-689.485948
441.628804,-1184.329507,-11325.150913,153.219100
441.629126,888.247130,-10436.903782,383.047749
441.629448,2368.659014,-9696.697840,-689.485948
441.629770,2368.659014,-8364.327145,-306.438199
441.630092,1480.411884,-8734.430116,689.485948
441.630413,444.123565,-8068.244768,383.047749
441.630735,592.164754,-7105.977043,-919.314598
441.631057,1406.391290,-7698.141797,-2451.505594
441.631379,1776.494261,-9178.553681,-2374.896044
441.631701,518.144159,-8808.450710,-1149.143247
441.632022,-888.247130,-7846.182985,-1302.362347
441.632344,-2960.823768,-8438.347739,-2451.505594
441.632666,-4219.173869,-10362.883188,-2298.286494
441.632988,-5773.606348,-10362.883188,-3140.991542
441.633310,-4811.338623,-10140.821405,-3753.867940
441.633631,-2664.741391,-10140.821405,-2528.115143
441.633953,-592.164754,-9992.780217,-1225.752797
441.634275,-370.102971,-9400.615463,76.609550
441.634597,444.123565,-8512.368333,229.828649
441.634919,1258.350101,-7994.224174,-1072.533697
441.635240,3182.885551,-8142.265362,-2451.505594
441.635562,4515.256246,-8586.388927,-1378.971896
441.635884,4811.338623,-8734.430116,-383.047749
441.636206,4145.153275,-9252.574275,842.705048
441.636528,3849.070898,-9696.697840,-153.219100
441.636849,3108.864956,-9326.594869,-1991.848295
441.637171,1332.370696,-9252.574275,-2374.896044
441.637493,-1184.329507,-9918.759623,-2145.067394
441.637815,-2294.638420,-10881.027347,-2221.676944
441.638137,-1776.494261,-11621.233289,-2374.896044
441.638458,-1036.288319,-11991.336260,-1838.629195
441.638780,-962.267725,-11695.253884,-1149.143247
441.639102,-370.102971,-9548.656652,-842.705048
441.639424,-296.082377,-9326.594869,-1762.019645
441.639746,-444.123565,-8660.409521,-1608.800546
441.640068,-592.164754,-7920.203579,-1378.971896
441.640389,148.041188,-7846.182985,-2451.505594
441.640711,148.041188,-8660.409521,-2451.505594
441.641033,-962.267725,-9770.718434,-1225.752797
441.641355,-2664.741391,-8882.471304,-1072.533697
441.641677,-3478.967927,-9844.739029,-1838.629195
441.641998,-3849.070898,-10066.800811,-2221.676944
441.642320,-3552.988522,-9474.636058,-1532.190996
441.642642,-2072.576638,-8142.265362,-2298.286494
441.642964,0.000000,-8734.430116,-2298.286494
441.643286,444.123565,-9326.594869,-919.314598
441.643607,0.000000,-9030.512492,153.219100
441.643929,-296.082377,-8808.450710,-459.657299
441.644251,370.102971,-9622.677246,-1302.362347
441.644573,1036.288319,-9326.594869,-1685.410096
441.644895,1406.391290,-8586.388927,-1685.410096
441.645216,2516.700203,-8660.409521,-383.047749
441.645538,2664.741391,-8660.409521,0.000000
441.645860,1554.432478,-8734.430116,-459.657299
441.646182,-444.123565,-8734.430116,-2221.676944
441.646504,-2590.720797,-9696.697840,-2298.286494
441.646825,-3997.112087,-10584.944971,-2221.676944
441.647147,-4441.235652,-10436.903782,-2298.286494
441.647469,-2886.803174,-10140.821405,-2451.505594
441.647791,-592.164754,-10436.903782,-1225.752797
441.648113,296.082377,-10214.842000,0.000000
441.648434,148.041188,-10214.842000,-919.314598
441.648756,0.000000,-9474.636058,-1225.752797
441.649078,740.205942,-9030.512492,-1378.971896
441.649400,1332.370696,-8956.491898,-1532.190996
441.649722,1332.370696,-8882.471304,-689.485948
441.650043,1406.391290,-8660.409521,-306.438199
441.650365,444.123565,-9030.512492,-766.095498
441.650687,-518.144159,-9030.512492,-1225.752797
441.651009,-1332.370696,-9844.739029,-1608.800546
441.651331,-2812.782580,-10066.800811,-2068.457845
441.651653,-3849.070898,-10066.800811,-1532.190996
441.651974,-3997.112087,-9622.677246,-1302.362347
441.652296,-2516.700203,-9770.718434,-1608.800546
441.652618,-1332.370696,-9844.739029,-1991.848295
441.652940,-814.226536,-10066.800811,-995.924147
441.653262,-740.205942,-8438.347739,-766.095498
441.653583,-666.185348,-8364.327145,-766.095498
441.653905,148.041188,-8512.368333,-919.314598
441.654227,2368.659014,-9474.636058,-2374.896044
441.654549,3923.091493,-9918.759623,-2451.505594
441.654871,3330.926739,-8364.327145,0.000000
441.655192,1924.535449,-7920.203579,919.314598
441.655514,222.061783,-7920.203579,-766.095498
441.655836,-1480.411884,-9104.533087,-2451.505594
441.656158,-3330.926739,-9992.780217,-2145.067394
441.656480,-3256.906145,-10066.800811,-1378.971896
441.656801,-1998.556043,-9400.615463,-2298.286494
441.657123,0.000000,-9474.636058,-459.657299
441.657445,592.164754,-9622.677246,1302.362347
441.657767,1036.288319,-8512.368333,-536.266849
441.658089,1628.453072,-7254.018232,-3600.648841
441.658410,1554.432478,-9326.594869,-2451.505594
441.658732,1258.350101,-9696.697840,-612.876398
441.659054,1480.411884,-9474.636058,-919.314598
441.659376,2442.679609,-10214.842000,-2145.067394
441.659698,3034.844362,-10955.047942,-689.485948
441.660019,1406.391290,-9474.636058,-919.314598
441.660341,-592.164754,-7698.141797,-3140.991542
441.660663,-1702.473667,-7920.203579,-3447.429741
441.660985,-2664.741391,-10214.842000,-3677.258390
441.661307,-3552.988522,-11177.109724,-3753.867940
441.661628,-3701.029710,-11029.068536,-1838.629195
441.661950,-2960.823768,-11917.315666,0.000000
441.662272,-1628.453072,-11991.336260,-766.095498
441.662594,-1776.494261,-9622.677246,-1991.848295
441.662916,-1554.432478,-8438.347739,-2221.676944
441.663238,222.061783,-8882.471304,-842.705048
441.663559,2368.659014,-8882.471304,-1608.800546
441.663881,2738.761985,-8142.265362,-1991.848295
441.664203,1850.514855,-8660.409521,842.705048
441.664525,1036.288319,-9178.553681,1149.143247
441.664847,-444.123565,-9252.574275,-1991.848295
441.665168,-1406.391290,-10066.800811,-2298.286494
441.665490,-2368.659014,-9548.656652,-536.266849
441.665812,-2664.741391,-8734.430116,-1608.800546
441.666134,-1628.453072,-9178.553681,-1762.019645
441.666456,-1036.288319,-9252.574275,-689.485948
441.666777,-888.247130,-8808.450710,-766.095498
441.667099,-888.247130,-8290.306550,-2374.896044
441.667421,-1184.329507,-8956.491898,-2451.505594
441.667743,-1036.288319,-9474.636058,-1608.800546
441.668065,-666.185348,-9252.574275,-1455.581446
441.668386,0.000000,-8956.491898,-995.924147
441.668708,296.082377,-8660.409521,-1072.533697
441.669030,0.000000,-9178.553681,-1762.019645
441.669352,-1332.370696,-9178.553681,-1225.752797
441.669674,-1924.535449,-8808.450710,-1838.629195
441.669995,-2072.576638,-9474.636058,-2145.067394
441.670317,-1924.535449,-10436.903782,-689.485948
441.670639,-1628.453072,-9844.739029,76.609550
441.670961,-1406.391290,-8290.306550,-689.485948
441.671283,-444.123565,-8290.306550,-1532.190996
441.671604,370.102971,-8808.450710,-2068.457845
441.671926,814.226536,-10140.821405,-2374.896044
441.672248,1480.411884,-10436.903782,-1149.143247
441.672570,3256.906145,-10584.944971,-689.485948
441.672892,4663.297435,-10066.800811,-766.095498
441.673213,4515.256246,-9918.759623,-919.314598
441.673535,2442.679609,-8364.327145,-842.705048
441.673857,592.164754,-7698.141797,-1915.238745
441.674179,-666.185348,-9030.512492,-3447.429741
441.674501,-2220.617826,-10584.944971,-3217.601092
441.674823,-4219.173869,-11103.089130,-1302.362347
441.675144,-4885.359217,-11029.068536,-995.924147
441.675466,-4441.235652,-10732.986159,-1378.971896
441.675788,-3997.112087,-9622.677246,-2451.505594
441.676110,-3478.967927,-8956.491898,-3064.381992
441.676432,-2072.576638,-8364.327145,-3294.210641
441.676753,-888.247130,-7920.203579,-2451.505594
441.677075,222.061783,-9030.512492,-1149.143247
441.677397,1702.473667,-9548.656652,-1225.752797
441.677719,2886.803174,-9622.677246,-1302.362347
441.678041,2368.659014,-10066.800811,-1225.752797
441.678362,1554.432478,-9992.780217,-1149.143247
441.678684,518.144159,-8438.347739,-1838.629195
441.679006,0.000000,-8364.327145,-1915.238745
441.679328,-962.267725,-9474.636058,-1225.752797
441.679650,-1628.453072,-8438.347739,-766.095498
441.679971,-1184.329507,-7550.100608,-1532.190996
441.680293,-222.061783,-8586.388927,-1149.143247
441.680615,-222.061783,-9696.697840,0.000000
441.680937,-592.164754,-8142.265362,0.000000
441.681259,-444.123565,-7846.182985,-766.095498
441.681580,592.164754,-9770.718434,-689.485948
441.681902,1184.329507,-10214.842000,-995.924147
441.682224,1036.288319,-8808.450710,-1991.848295
441.682546,1702.473667,-9252.574275,-1838.629195
441.682868,2220.617826,-9696.697840,-1225.752797
441.683189,1332.370696,-9030.512492,-2604.724693
441.683511,-518.144159,-8808.450710,-2987.772442
441.683833,-1850.514855,-9474.636058,-2145.067394
441.684155,-2220.617826,-10214.842000,-2451.505594
441.684477,-2220.617826,-10881.027347,-3524.039291
441.684798,-2146.597232,-11325.150913,-1838.629195
441.685120,-2146.597232,-11843.295072,-153.219100
441.685442,-2072.576638,-10658.965565,-1149.143247
441.685764,-1480.411884,-9770.718434,-1225.752797
441.686086,-1258.350101,-9400.615463,-153.219100
441.686408,-888.247130,-8808.450710,-919.314598
441.686729,666.185348,-8734.430116,-1685.410096
441.687051,1924.535449,-8364.327145,-153.219100
441.687373,2664.741391,-8512.368333,536.266849
441.687695,2738.761985,-8512.368333,-689.485948
441.688017,2294.638420,-8734.430116,-2145.067394
441.688338,296.082377,-9770.718434,-1532.190996
441.688660,-1036.288319,-11177.109724,-1072.533697
441.688982,-1702.473667,-11399.171507,-1532.190996
441.689304,-1554.432478,-9844.739029,-1225.752797
441.689626,-1406.391290,-9030.512492,-1455.581446
441.689947,-1924.535449,-9030.512492,-1685.410096
441.690269,-2590.720797,-6809.894666,-1455.581446
441.690591,-2960.823768,-6661.853478,-1915.238745
441.690913,-2442.679609,-7920.203579,-2604.724693
441.691235,-1480.411884,-8068.244768,-1685.410096
441.691556,-1258.350101,-7328.038826,-1072.533697
441.691878,-1110.308913,-8956.491898,-153.219100
441.692200,-1036.288319,-9696.697840,229.828649
441.692522,-1480.411884,-8660.409521,-1915.238745
441.692844,-1850.514855,-9178.553681,-2528.115143
441.693165,-2220.617826,-9474.636058,0.000000
441.693487,-2368.659014,-8808.450710,-306.438199
441.693809,-814.226536,-8068.244768,-1532.190996
441.694131,1332.370696,-9992.780217,-1838.629195
441.694453,2072.576638,-10955.047942,-1149.143247
441.694774,2220.617826,-9918.759623,-1072.533697
441.695096,1998.556043,-8882.471304,-1302.362347
441.695418,1850.514855,-9992.780217,-1072.533697
441.695740,1628.453072,-9326.594869,-1532.190996
441.696062,1332.370696,-8808.450710,-2757.943793
441.696383,1628.453072,-9622.677246,-2528.115143
441.696705,1628.453072,-9844.739029,-2451.505594
441.697027,740.205942,-9474.636058,-2451.505594
441.697349,-518.144159,-10066.800811,-2528.115143
441.697671,-2072.576638,-11251.130318,-2221.676944
441.697993,-3849.070898,-11177.109724,-2834.553343
441.698314,-4663.297435,-11029.068536,-3064.381992
441.698636,-4811.338623,-11695.253884,-2451.505594
441.698958,-3923.091493,-11547.212695,-2604.724693
441.699280,-2738.761985,-9474.636058,-2451.505594
441.699602,-1110.308913,-7994.224174,-1302.362347
441.699923,296.082377,-7328.038826,-1302.362347
441.700245,1924.535449,-7105.977043,-1455.581446
441.700567,2368.659014,-7031.956449,-1378.971896
441.700889,2220.617826,-8216.285956,-1072.533697
441.701211,1998.556043,-10214.842000,-766.095498
441.701532,1628.453072,-10732.986159,-766.095498
441.701854,518.144159,-10288.862594,-1532.190996
441.702176,370.102971,-10584.944971,-1915.238745
441.702498,-740.205942,-9622.677246,-1072.533697
441.702820,-1258.350101,-8438.347739,-1532.190996
441.703141,-962.267725,-8290.306550,-2451.505594
441.703463,-888.247130,-9178.553681,-1838.629195
441.703785,-1258.350101,-8512.368333,-459.657299
441.704111,-2146.597232,-8512.368333,-383.047749
441.704432,-2738.761985,-8882.471304,-306.438199
441.704754,-3108.864956,-9252.574275,-612.876398
441.705076,-3627.009116,-8290.306550,-1225.752797
441.705398,-3182.885551,-7328.038826,-612.876398
441.705720,-1480.411884,-8142.265362,-1608.800546
441.706042,-592.164754,-8290.306550,-2068.457845
441.706363,-962.267725,-9104.533087,-1302.362347
441.706685,-2220.617826,-9474.636058,-766.095498
441.707007,-2886.803174,-9770.718434,-1455.581446
441.707329,-3849.070898,-9844.739029,-3447.429741
441.707651,-4885.359217,-10658.965565,-3217.601092
441.707973,-5329.482782,-10807.006753,-2451.505594
441.708294,-4293.194464,-11251.130318,-2604.724693
441.708616,-3478.967927,-10955.047942,-1991.848295
441.708938,-3627.009116,-11029.068536,-919.314598
441.709260,-3552.988522,-10436.903782,-536.266849
441.709582,-3034.844362,-9770.718434,-766.095498
441.709904,-1924.535449,-8734.430116,-1685.410096
441.710225,-1776.494261,-7846.182985,-1225.752797
441.710547,-1554.432478,-7624.121203,0.000000
441.710869,-1480.411884,-7624.121203,0.000000
441.711191,-1554.432478,-7994.224174,-1149.143247
441.711513,-2516.700203,-9178.553681,-1685.410096
441.711835,-4219.173869,-10510.924376,-1378.971896
441.712156,-6069.688724,-10881.027347,-1608.800546
441.712478,-7179.997637,-9992.780217,-2298.286494
441.712800,-7031.956449,-10140.821405,-2834.553343
441.713122,-5995.668130,-9770.718434,-2451.505594
441.713444,-4885.359217,-9326.594869,-2987.772442
441.713766,-4145.153275,-8808.450710,-3064.381992
441.714087,-3330.926739,-8660.409521,-1378.971896
441.714409,-2516.700203,-8808.450710,-766.095498
441.714731,-2072.576638,-9326.594869,-1991.848295
441.715053,-2072.576638,-8882.471304,-1378.971896
441.715375,-2294.638420,-8068.244768,-766.095498
441.715696,-1776.494261,-7624.121203,-459.657299
441.716018,-1110.308913,-7328.038826,-1685.410096
441.716340,-148.041188,-7698.141797,-1762.019645
441.716662,-1036.288319,-7772.162391,-995.924147
441.716984,-1998.556043,-9252.574275,612.876398
441.717306,-2886.803174,-10436.903782,-383.047749
441.717627,-4959.379811,-10436.903782,-2221.676944
441.717949,-6143.709319,-10955.047942,-2604.724693
441.718271,-5921.647536,-10658.965565,-2374.896044
441.718593,-4293.194464,-10140.821405,-2987.772442
441.718915,-2516.700203,-9622.677246,-2298.286494
441.719237,-666.185348,-9474.636058,-1532.190996
441.719558,888.247130,-8586.388927,-459.657299
441.719880,1332.370696,-8438.347739,-1608.800546
441.720202,444.123565,-8734.430116,-2451.505594
441.720524,-1332.370696,-8956.491898,-2604.724693
441.720846,-3108.864956,-7994.224174,-2987.772442
441.721168,-3256.906145,-8290.306550,-2528.115143
441.721489,-4145.153275,-9474.636058,-3524.039291
441.721811,-3849.070898,-9770.718434,-3753.867940
441.722133,-3923.091493,-10214.842000,-2451.505594
441.722455,-3997.112087,-11103.089130,-1838.629195
441.722777,-4367.215058,-11917.315666,-1762.019645
441.723099,-5773.606348,-11769.274478,-2068.457845
441.723420,-7698.141797,-11473.192101,-1149.143247
441.723742,-8956.491898,-10658.965565,-766.095498
441.724064,-8438.347739,-9844.739029,-2451.505594
441.724386,-6883.915261,-8364.327145,-2911.162892
441.724708,-4441.235652,-8364.327145,-766.095498
441.725030,-2516.700203,-8068.244768,689.485948
441.725351,-962.267725,-7402.059420,689.485948
441.725673,666.185348,-7105.977043,383.047749
441.725995,1776.494261,-7402.059420,-1302.362347
441.726317,962.267725,-7550.100608,-2451.505594
441.726639,-888.247130,-7994.224174,-1915.238745
441.726960,-3701.029710,-8290.306550,-1991.848295
441.727282,-5625.565159,-9252.574275,-2451.505594
441.727604,-6809.894666,-9992.780217,-3600.648841
441.727926,-7105.977043,-10510.924376,-4290.134789
441.728248,-6587.832884,-11103.089130,-4136.915689
441.728570,-5403.503377,-11695.253884,-2834.553343
441.728891,-4737.318029,-11399.171507,-383.047749
441.729213,-4589.276840,-10214.842000,536.266849
441.729535,-4515.256246,-8290.306550,-229.828649
441.729857,-4515.256246,-7550.100608,-1302.362347
441.730179,-4663.297435,-8364.327145,-459.657299
441.730501,-4589.276840,-9326.594869,383.047749
441.730822,-3849.070898,-9400.615463,1302.362347
441.731144,-2368.659014,-8290.306550,2068.457845
441.731466,-148.041188,-7254.018232,1838.629195
441.731788,1480.411884,-7031.956449,153.219100
441.732110,1702.473667,-6143.709319,-995.924147
441.732432,444.123565,-6217.729913,-1225.752797
441.732753,-444.123565,-7328.038826,-1762.019645
441.733075,-962.267725,-8882.471304,-2604.724693
441.733397,-1776.494261,-10658.965565,-3983.696590
441.733719,-3330.926739,-11769.274478,-4826.401637
441.734041,-4515.256246,-11917.315666,-4826.401637
441.734363,-5033.400406,-11769.274478,-4903.011187
441.734684,-4737.318029,-12361.439231,-4290.134789
441.735006,-4885.359217,-11177.109724,-2834.553343
441.735328,-5329.482782,-9844.739029,-3907.087040
441.735650,-4737.318029,-9770.718434,-3677.258390
441.735972,-4811.338623,-10140.821405,-2221.676944
441.736294,-5107.421000,-10066.800811,-689.485948
441.736615,-5255.462188,-8734.430116,766.095498
441.736937,-3923.091493,-7698.141797,1608.800546
441.737259,-1702.473667,-7476.080014,229.828649
441.737581,296.082377,-7328.038826,-1302.362347
441.737903,1924.535449,-7105.977043,-153.219100
441.738224,4441.235652,-7254.018232,1302.362347
441.738546,5551.544565,-7550.100608,0.000000
441.738868,5403.503377,-10436.903782,-2757.943793
441.739190,4071.132681,-13101.645173,-2298.286494
441.739512,1036.288319,-14211.954086,-1072.533697
441.739834,-3849.070898,-14211.954086,-1302.362347
441.740155,-7698.141797,-13471.748144,-1915.238745
441.740477,-10436.903782,-10732.986159,-2604.724693
441.740799,-11399.171507,-7402.059420,-5132.839837
441.741121,-12435.459826,-5551.544565,-5975.544884
441.741443,-12657.521608,-6513.812290,-3600.648841
441.741765,-12139.377449,-7105.977043,-1991.848295
441.742086,-10214.842000,-7254.018232,-1532.190996
441.742408,-7105.977043,-8512.368333,-1608.800546
441.742730,-4811.338623,-9548.656652,-1378.971896
441.743052,-3849.070898,-9474.636058,-1225.752797
441.743374,-2516.700203,-7772.162391,-1455.581446
441.743696,-518.144159,-7254.018232,-1991.848295
441.744017,666.185348,-7994.224174,-2451.505594
441.744339,740.205942,-7994.224174,-2298.286494
441.744661,-296.082377,-8734.430116,-2374.896044
441.744983,-1480.411884,-10881.027347,-1915.238745
441.745305,-2146.597232,-12731.542202,76.609550
441.745627,-3849.070898,-12731.542202,-229.828649
441.745948,-4515.256246,-12065.356855,-306.438199
441.746270,-5107.421000,-10732.986159,766.095498
441.746592,-5699.585753,-9400.615463,1378.971896
441.746914,-5477.523971,-6587.832884,1072.533697
441.747236,-3627.009116,-4515.256246,-306.438199
441.747558,-2072.576638,-4737.318029,-1608.800546
441.747879,-1406.391290,-6291.750507,-1225.752797
441.748201,-1554.432478,-7476.080014,-536.266849
441.748523,-1850.514855,-8882.471304,-1685.410096
441.748845,-1702.473667,-11325.150913,-3294.210641
441.749167,-1924.535449,-13175.665768,-3524.039291
441.749488,-3849.070898,-12879.583391,-3140.991542
441.749810,-5477.523971,-12287.418637,-2911.162892
441.750132,-5551.544565,-12509.480420,-3217.601092
441.750454,-5033.400406,-12509.480420,-3140.991542
441.750776,-5773.606348,-11103.089130,-2221.676944
441.751098,-7179.997637,-9030.512492,-766.095498
441.751419,-7105.977043,-7994.224174,-766.095498
441.751741,-6217.729913,-7402.059420,-1532.190996
441.752063,-4737.318029,-7031.956449,-2298.286494
441.752385,-2886.803174,-6809.894666,-2757.943793
441.752707,-1258.350101,-7328.038826,-1608.800546
441.753029,-296.082377,-7328.038826,0.000000
441.753350,370.102971,-7105.977043,0.000000
441.753672,444.123565,-8438.347739,-1762.019645
441.753994,148.041188,-11325.150913,-2604.724693
441.754316,-1258.350101,-13175.665768,-2987.772442
441.754638,-2220.617826,-15544.324782,-459.657299
441.754960,-2368.659014,-15248.242405,1762.019645
441.755281,0.000000,-12213.398043,2374.896044
441.755603,2294.638420,-10436.903782,766.095498
441.755925,3701.029710,-9770.718434,459.657299
441.756247,2368.659014,-9178.553681,2911.162892
441.756569,148.041188,-7328.038826,5056.230287
441.756891,-1998.556043,-5107.421000,4749.792088
441.757212,-4145.153275,-4145.153275,3140.991542
441.757534,-7698.141797,-2738.761985,0.000000
441.757856,-10362.883188,-2368.659014,-1455.581446
441.758178,-10955.047942,-4071.132681,-4596.572988
441.758500,-9622.677246,-6143.709319,-5822.325785
441.758821,-8364.327145,-7179.997637,-5669.106685
441.759143,-7254.018232,-9770.718434,-4903.011187
441.759465,-6809.894666,-15174.221811,-4519.963438
441.759787,-6661.853478,-18283.086767,-3677.258390
441.760109,-6143.709319,-18061.024985,-4366.744339
441.760431,-3701.029710,-16062.468941,-4213.525239
441.760752,-1036.288319,-13767.830521,-2298.286494
441.761074,-148.041188,-10510.924376,995.924147
441.761396,-740.205942,-6735.874072,3907.087040
441.761718,0.000000,-3997.112087,5592.497135
441.762040,444.123565,-3478.967927,4136.915689
441.762362,148.041188,-3182.885551,2681.334243
441.762683,-962.267725,-4367.215058,2221.676944
441.763005,-1406.391290,-7031.956449,2681.334243
441.763327,-1258.350101,-9770.718434,3370.820191
441.763649,0.000000,-11843.295072,1608.800546
441.763971,1406.391290,-12657.521608,-1608.800546
441.764293,2368.659014,-10732.986159,-3217.601092
441.764614,1480.411884,-10955.047942,-3524.039291
441.764936,0.000000,-14952.160028,-3524.039291
441.765258,-1332.370696,-17690.922014,-2451.505594
441.765580,-1406.391290,-16580.613101,-2604.724693
441.765902,-962.267725,-14952.160028,-2834.553343
441.766224,666.185348,-13323.706956,306.438199
441.766545,-148.041188,-9844.739029,2528.115143
441.766867,-1480.411884,-5847.626942,3753.867940
441.767189,-1332.370696,-2516.700203,5056.230287
441.767511,740.205942,-962.267725,3600.648841
441.767833,2812.782580,444.123565,0.000000
441.768155,2960.823768,-1924.535449,842.705048
441.768476,1332.370696,-5255.462188,4903.011187
441.768798,888.247130,-7476.080014,5362.668486
441.769120,2812.782580,-10288.862594,0.000000
441.769442,4737.318029,-11843.295072,-4290.134789
441.769764,3775.050304,-11621.233289,-4903.011187
441.770085,1332.370696,-13915.871710,-2221.676944
441.770407,-888.247130,-17098.757260,995.924147
441.770729,-1998.556043,-17912.983796,1455.581446
441.771051,-2812.782580,-15026.180623,-1455.581446
441.771373,-2812.782580,-12657.521608,-1149.143247
441.771695,-2886.803174,-11843.295072,2681.334243
441.772016,-3552.988522,-10510.924376,4596.572988
441.772338,-3701.029710,-7920.203579,6818.249932
441.772660,-3478.967927,-6439.791695,8503.660028
441.772982,-3404.947333,-6439.791695,6358.592633
441.773304,-4145.153275,-7550.100608,3524.039291
441.773626,-5329.482782,-7920.203579,3907.087040
441.773947,-3478.967927,-6661.853478,4519.963438
441.774269,1628.453072,-7031.956449,1915.238745
441.774591,5181.441594,-6217.729913,0.000000
441.774913,4885.359217,-3552.988522,612.876398
441.775235,2368.659014,-5329.482782,612.876398
441.775557,222.061783,-10584.944971,-1762.019645
441.775878,-1406.391290,-14211.954086,-4903.011187
441.776200,-4293.194464,-15988.448347,-6894.859482
441.776522,-7772.162391,-16950.716072,-2757.943793
441.776844,-9844.739029,-17320.819043,3677.258390
441.777166,-11029.068536,-14656.077652,6128.763984
441.777488,-9474.636058,-11029.068536,4290.134789
441.777809,-7476.080014,-8882.471304,3217.601092
441.778131,-5181.441594,-8808.450710,4903.011187
441.778453,-4293.194464,-7105.977043,6281.983084
441.778775,-1998.556043,-3404.947333,10955.165621
441.779097,1850.514855,814.226536,12104.308868
441.779419,6957.935855,1258.350101,6588.421283
441.779740,9844.739029,-2294.638420,1302.362347
441.780062,8882.471304,-4663.297435,306.438199
441.780384,5773.606348,-7698.141797,2451.505594
441.780706,3627.009116,-14137.933492,4290.134789
441.781028,1850.514855,-19615.457463,2374.896044
441.781349,-962.267725,-19245.354492,-1838.629195
441.781671,-3552.988522,-16210.510130,-3677.258390
441.781993,-4219.173869,-15100.201217,-1991.848295
441.782315,-3701.029710,-12435.459826,0.000000
441.782637,-4219.173869,-6587.832884,-689.485948
441.782959,-4293.194464,-4589.276840,459.657299
441.783280,-3256.906145,-7624.121203,3677.258390
441.783602,-3478.967927,-7920.203579,3830.477490
441.783924,-3552.988522,-7031.956449,2145.067394
441.784246,-1184.329507,-6883.915261,2911.162892
441.784568,2664.741391,-8956.491898,5132.839837
441.784890,3997.112087,-9326.594869,7660.954980
441.785211,4441.235652,-5255.462188,7890.783629
441.785533,7698.141797,-2738.761985,1302.362347
441.785855,11473.192101,-5403.503377,-5669.106685
441.786177,9474.636058,-7031.956449,-5362.668486
441.786499,3034.844362,-8660.409521,-612.876398
441.786821,-1998.556043,-14656.077652,459.657299
441.787142,-4145.153275,-21317.931130,-1608.800546
441.787464,-5625.565159,-21317.931130,-5132.839837
441.787786,-5921.647536,-17172.777854,-7277.907231
441.788108,-3330.926739,-13619.789333,-5439.278036
441.788430,-962.267725,-10362.883188,-1532.190996
441.788752,0.000000,-7476.080014,2068.457845
441.789073,1480.411884,-5625.565159,3983.696590
441.789395,2368.659014,-6513.812290,1838.629195
441.789717,1850.514855,-9548.656652,-459.657299
441.790039,370.102971,-10584.944971,2221.676944
441.790361,1258.350101,-6217.729913,4443.353888
441.790683,3701.029710,-4885.359217,1455.581446
441.791004,6883.915261,-8290.306550,-612.876398
441.791326,4959.379811,-10658.965565,1302.362347
441.791648,-2220.617826,-9474.636058,2068.457845
441.791970,-8956.491898,-9178.553681,1685.410096
441.792292,-10436.903782,-11251.130318,-1685.410096
441.792613,-10881.027347,-10510.924376,-7201.297681
441.792935,-11325.150913,-9474.636058,-10265.679673
441.793257,-11177.109724,-12361.439231,-5515.887586
441.793579,-8290.306550,-15840.407159,459.657299
441.793901,-5033.400406,-14508.036463,1838.629195
441.794223,-1924.535449,-12805.562797,1915.238745
441.794544,-444.123565,-11325.150913,2528.115143
441.794866,1628.453072,-7476.080014,2451.505594
441.795188,4293.194464,-2812.782580,612.876398
441.795510,7105.977043,148.041188,2374.896044
441.795832,9474.636058,-370.102971,5362.668486
441.796154,8364.327145,-4219.173869,8120.612279
441.796475,3552.988522,-7698.141797,8197.221829
441.796797,-814.226536,-11103.089130,7354.516781
441.797119,-2812.782580,-13471.748144,3907.087040
441.797441,-3627.009116,-13471.748144,306.438199
441.797763,-3478.967927,-10584.944971,-459.657299
441.798085,-3404.947333,-8216.285956,1225.752797
441.798406,-2960.823768,-7920.203579,3217.601092
441.798728,-3182.885551,-9474.636058,2911.162892
441.799050,-4663.297435,-10066.800811,383.047749
441.799372,-5181.441594,-11547.212695,-1378.971896
441.799694,-5329.482782,-13101.645173,-1378.971896
441.800016,-3775.050304,-13545.768739,1455.581446
441.800337,-1258.350101,-11621.233289,4060.306139
441.800659,1332.370696,-9622.677246,4366.744339
441.800981,3552.988522,-8142.265362,4749.792088
441.801303,4441.235652,-8068.244768,5439.278036
441.801625,4811.338623,-7624.121203,4979.620737
441.801947,5477.523971,-7105.977043,3907.087040
441.802268,6439.791695,-7179.997637,3064.381992
441.802590,6439.791695,-7550.100608,3983.696590
441.802912,4441.235652,-9548.656652,5745.716235
441.803234,888.247130,-10066.800811,4826.401637
441.803556,-1924.535449,-11843.295072,2145.067394
441.803877,-3849.070898,-13619.789333,-842.705048
441.804199,-4663.297435,-14656.077652,-842.705048
441.804521,-4663.297435,-13693.809927,995.924147
441.804843,-2516.700203,-11843.295072,2068.457845
441.805165,222.061783,-11251.130318,2834.553343
441.805487,1406.391290,-10881.027347,2451.505594
441.805809,0.000000,-10288.862594,2528.115143
441.806130,-2960.823768,-9326.594869,3140.991542
441.806452,-3997.112087,-7994.224174,3600.648841
441.806774,-2442.679609,-6587.832884,2834.553343
441.807096,518.144159,-5551.544565,1532.190996
441.807418,3256.906145,-4959.379811,2221.676944
441.807740,4663.297435,-5699.585753,3753.867940
441.808061,4441.235652,-7328.038826,4826.401637
441.808383,2664.741391,-8364.327145,3830.477490
441.808705,-296.082377,-9474.636058,1302.362347
441.809027,-2886.803174,-10140.821405,-1685.410096
441.809349,-4737.318029,-10658.965565,-3064.381992
441.809671,-5699.585753,-10955.047942,-3600.648841
441.809992,-5995.668130,-11695.253884,-2604.724693
441.810314,-5107.421000,-11991.336260,-1225.752797
441.810636,-3627.009116,-12213.398043,-689.485948
441.810958,-2664.741391,-12361.439231,-536.266849
441.811280,-3404.947333,-11843.295072,306.438199
441.811602,-4219.173869,-10214.842000,1302.362347
441.811924,-3404.947333,-7994.224174,1532.190996
441.812245,-1628.453072,-6143.709319,995.924147
441.812567,74.020594,-5329.482782,842.705048
441.812889,2516.700203,-4589.276840,1072.533697
441.813211,5181.441594,-4885.359217,689.485948
441.813533,6143.709319,-7254.018232,766.095498
441.813855,6439.791695,-9622.677246,229.828649
441.814176,4441.235652,-10288.862594,-459.657299
441.814498,1406.391290,-9104.533087,-1455.581446
441.814820,-666.185348,-8364.327145,-3677.258390
441.815142,-2294.638420,-9400.615463,-6741.640382
441.815464,-4737.318029,-11621.233289,-7124.688131
441.815786,-6735.874072,-14211.954086,-4673.182538
441.816107,-6957.935855,-16432.571912,-1685.410096
441.816429,-5995.668130,-17172.777854,-766.095498
441.816751,-4071.132681,-14582.057057,-919.314598
441.817073,-3330.926739,-10881.027347,-919.314598
441.817395,-1036.288319,-7550.100608,-153.219100
441.817717,1332.370696,-5625.565159,536.266849
441.818039,3330.926739,-4737.318029,1149.143247
441.818360,3923.091493,-5403.503377,3447.429741
441.818682,3701.029710,-6735.874072,4979.620737
441.819004,4219.173869,-7920.203579,2757.943793
441.819326,4663.297435,-7476.080014,76.609550
441.819648,4367.215058,-7179.997637,-1915.238745
441.819970,4293.194464,-8290.306550,-1915.238745
441.820291,2516.700203,-10658.965565,-1225.752797
441.820613,-370.102971,-12287.418637,-1685.410096
441.820935,-4441.235652,-14434.015869,-2298.286494
441.821257,-7105.977043,-16062.468941,-2451.505594
441.821579,-8216.285956,-15766.386565,-2911.162892
441.821901,-7031.956449,-12583.501014,-3447.429741
441.822222,-4885.359217,-9474.636058,-2145.067394
441.822544,-2368.659014,-7105.977043,689.485948
441.822866,222.061783,-5477.523971,3447.429741
441.823188,1702.473667,-4885.359217,3983.696590
441.823510,2220.617826,-4441.235652,2374.896044
441.823832,1776.494261,-5107.421000,2374.896044
441.824154,1850.514855,-4737.318029,2221.676944
441.824475,2442.679609,-4811.338623,1991.848295
441.824797,4663.297435,-7328.038826,536.266849
441.825119,5181.441594,-9252.574275,383.047749
441.825441,4293.194464,-9326.594869,919.314598
441.825763,1258.350101,-11325.150913,153.219100
441.826085,-1406.391290,-14952.160028,-842.705048
441.826406,-4145.153275,-15100.201217,-2987.772442
441.826728,-5477.523971,-13027.624579,-4673.182538
441.827050,-4219.173869,-11843.295072,-3600.648841
441.827372,-1924.535449,-11547.212695,-1608.800546
441.827694,-740.205942,-10807.006753,-766.095498
441.828016,-1036.288319,-9474.636058,612.876398
441.828337,-1258.350101,-9252.574275,2834.553343
441.828659,-962.267725,-8142.265362,1378.971896
441.828981,222.061783,-5773.606348,-1072.533697
441.829303,1850.514855,-4811.338623,-1915.238745
441.829625,2442.679609,-5329.482782,-689.485948
441.829947,1628.453072,-7402.059420,383.047749
441.830268,1036.288319,-10584.944971,1072.533697
441.830590,-740.205942,-12805.562797,306.438199
441.830912,-3701.029710,-12731.542202,-2451.505594
441.831234,-6439.791695,-11769.274478,-3983.696590
441.831556,-5921.647536,-12805.562797,-4903.011187
441.831878,-4515.256246,-12805.562797,-4519.963438
441.832200,-2368.659014,-10510.924376,-3294.210641
441.832521,0.000000,-9326.594869,-766.095498
441.832843,1184.329507,-9104.533087,919.314598
441.833165,296.082377,-8734.430116,153.219100
441.833487,-1184.329507,-7624.121203,-689.485948
441.833809,-444.123565,-5921.647536,-842.705048
441.834131,1554.432478,-4293.194464,-1149.143247
441.834452,2886.803174,-4811.338623,-1225.752797
441.834774,2368.659014,-6291.750507,0.000000
441.835096,740.205942,-8290.306550,2221.676944
441.835418,-444.123565,-9474.636058,2374.896044
441.835740,-444.123565,-9918.759623,-1608.800546
441.836062,74.020594,-9326.594869,-6052.154434
441.836383,-740.205942,-8734.430116,-4903.011187
441.836705,-1110.308913,-9400.615463,-1225.752797
441.837027,0.000000,-10955.047942,-383.047749
441.837349,1036.288319,-11399.171507,-2834.553343
441.837671,296.082377,-10807.006753,-4443.353888
441.837993,-1406.391290,-10658.965565,-2681.334243
441.838315,-592.164754,-9326.594869,-1762.019645
441.838636,1850.514855,-7772.162391,-2681.334243
441.838958,3701.029710,-7105.977043,-3064.381992
441.839280,3478.967927,-5625.565159,-1225.752797
441.839602,2738.761985,-6957.935855,-153.219100
441.839924,296.082377,-9326.594869,-1072.533697
441.840246,-2294.638420,-12657.521608,-2221.676944
441.840567,-3923.091493,-13693.809927,-2528.115143
441.840889,-3256.906145,-12731.542202,-2528.115143
441.841211,-1480.411884,-12213.398043,-1608.800546
441.841533,370.102971,-11547.212695,-1225.752797
441.841855,1702.473667,-9474.636058,-2068.457845
441.842177,1998.556043,-7254.018232,-3217.601092
441.842498,1406.391290,-8068.244768,-3064.381992
441.842820,518.144159,-9474.636058,-2757.943793
441.843142,-1406.391290,-9696.697840,-3140.991542
441.843464,-1776.494261,-11399.171507,-3140.991542
441.843786,-1110.308913,-13323.706956,-2681.334243
441.844108,-740.205942,-13101.645173,-1302.362347
441.844430,-1480.411884,-11103.089130,612.876398
441.844751,-2664.741391,-9622.677246,1072.533697
441.845073,-2886.803174,-7698.141797,-306.438199
441.845395,-1998.556043,-6661.853478,-2221.676944
441.845717,-1036.288319,-6735.874072,-1991.848295
441.846039,-444.123565,-7994.224174,0.000000
441.846361,296.082377,-8586.388927,1532.190996
441.846682,296.082377,-8438.347739,2451.505594
441.847004,740.205942,-9104.533087,1838.629195
441.847326,814.226536,-8364.327145,0.000000
441.847648,666.185348,-6735.874072,-1838.629195
441.847970,740.205942,-5699.585753,-1762.019645
441.848292,1702.473667,-6883.915261,-766.095498
441.848613,1036.288319,-7179.997637,-689.485948
441.848935,444.123565,-8364.327145,-766.095498
441.849257,-1184.329507,-10140.821405,-459.657299
441.849579,-2442.679609,-12361.439231,-1378.971896
441.849901,-3108.864956,-11695.253884,-1838.629195
441.850223,-2886.803174,-10510.924376,-1072.533697
441.850545,-1332.370696,-10140.821405,0.000000
441.850866,444.123565,-8956.491898,536.266849
441.851188,1258.350101,-6957.935855,536.266849
441.851510,1850.514855,-6143.709319,-536.266849
441.851832,1702.473667,-6587.832884,-1225.752797
441.852154,1406.391290,-7476.080014,-1762.019645
441.852476,1406.391290,-8364.327145,-1685.410096
441.852797,740.205942,-10066.800811,-1455.581446
441.853119,0.000000,-11991.336260,-2068.457845
441.853441,-74.020594,-12361.439231,-1991.848295
441.853763,-1332.370696,-12509.480420,-2604.724693
441.854085,-2664.741391,-13101.645173,-3217.601092
441.854407,-3775.050304,-12361.439231,-3830.477490
441.854728,-3701.029710,-10807.006753,-4060.306139
441.855050,-2516.700203,-10807.006753,-3294.210641
441.855372,-1110.308913,-12213.398043,-2068.457845
441.855694,-222.061783,-11769.274478,-766.095498
441.856016,74.020594,-9770.718434,-383.047749
441.856338,222.061783,-8586.388927,0.000000
441.856659,1184.329507,-7550.100608,-1378.971896
441.856981,2072.576638,-6365.771101,-2528.115143
441.857303,1924.535449,-6439.791695,-2681.334243
441.857625,1924.535449,-7846.182985,-306.438199
441.857947,2220.617826,-9252.574275,229.828649
441.858269,1924.535449,-10288.862594,-1378.971896
441.858591,-444.123565,-11399.171507,-1915.238745
441.858912,-3256.906145,-11621.233289,-306.438199
441.859234,-3330.926739,-11399.171507,-766.095498
441.859556,-1332.370696,-10807.006753,-3140.991542
441.859878,-222.061783,-10214.842000,-3217.601092
441.860200,74.020594,-9622.677246,-689.485948
441.860522,74.020594,-8438.347739,1991.848295
441.860843,1036.288319,-7031.956449,1302.362347
441.861165,1110.308913,-6217.729913,-1532.190996
441.861487,1184.329507,-5033.400406,-3447.429741
441.861809,1036.288319,-4663.297435,-2298.286494
441.862131,148.041188,-5995.668130,229.828649
441.862453,-296.082377,-8290.306550,306.438199
441.862774,-1110.308913,-9474.636058,-536.266849
441.863096,-1776.494261,-10288.862594,-1532.190996
441.863418,-2368.659014,-10955.047942,-1915.238745
441.863740,-3627.009116,-10214.842000,-2068.457845
441.864062,-3627.009116,-9326.594869,-1685.410096
441.864384,-2368.659014,-9696.697840,-383.047749
441.864706,-296.082377,-8734.430116,-689.485948
441.865027,1554.432478,-7402.059420,-2451.505594
441.865349,2294.638420,-8068.244768,-2757.943793
441.865671,1628.453072,-9770.718434,-1838.629195
441.865993,1036.288319,-10510.924376,-1685.410096
441.866315,1480.411884,-10436.903782,-1532.190996
441.866637,2590.720797,-10658.965565,-2068.457845
441.866958,3478.967927,-10807.006753,-2451.505594
441.867280,3256.906145,-9400.615463,-3447.429741
441.867602,1998.556043,-9992.780217,-2757.943793
441.867924,-444.123565,-11621.233289,-2374.896044
441.868246,-2960.823768,-12509.480420,-1455.581446
441.868568,-4293.194464,-13471.748144,-536.266849
441.868889,-4219.173869,-13471.748144,-766.095498
441.869211,-2812.782580,-11103.089130,-2374.896044
441.869533,-962.267725,-9474.636058,-1685.410096
441.869855,666.185348,-7550.100608,-612.876398
441.870177,888.247130,-5995.668130,-383.047749
441.870499,666.185348,-5921.647536,-1149.143247
441.870821,-148.041188,-7105.977043,-1991.848295
441.871142,-1036.288319,-8512.368333,-2834.553343
441.871464,-1184.329507,-9474.636058,-3217.601092
441.871786,-962.267725,-10584.944971,-3064.381992
441.872108,-962.267725,-10436.903782,-2451.505594
441.872430,-1924.535449,-9622.677246,-919.314598
441.872752,-2812.782580,-10214.842000,-1072.533697
441.873073,-3182.885551,-10066.800811,-1838.629195
441.873395,-3034.844362,-9400.615463,-3600.648841
441.873717,-2146.597232,-8660.409521,-2604.724693
441.874039,-444.123565,-8956.491898,0.000000
441.874361,1036.288319,-7550.100608,612.876398
441.874683,1776.494261,-6587.832884,459.657299
441.875004,2590.720797,-6365.771101,153.219100
441.875326,3775.050304,-5921.647536,-689.485948
441.875648,5033.400406,-6513.812290,-2145.067394
441.875970,5255.462188,-7920.203579,-3217.601092
441.876292,4145.153275,-9844.739029,-1149.143247
441.876614,3478.967927,-10510.924376,-689.485948
441.876935,2738.761985,-10955.047942,-2145.067394
441.877257,740.205942,-12139.377449,-2987.772442
441.877579,-2294.638420,-12731.542202,-2298.286494
441.877901,-4885.359217,-12435.459826,-3140.991542
441.878223,-5625.565159,-12139.377449,-2987.772442
441.878545,-4367.215058,-12287.418637,-2451.505594
441.878867,-2590.720797,-10140.821405,-1608.800546
441.879188,-1998.556043,-7402.059420,0.000000
441.879510,-1628.453072,-5255.462188,0.000000
441.879832,-2368.659014,-5773.606348,-766.095498
441.880154,-2368.659014,-6587.832884,-2604.724693
441.880476,-2368.659014,-7994.224174,-2834.553343
441.880798,-2516.700203,-9474.636058,-1762.019645
441.881119,-2146.597232,-10955.047942,-1225.752797
441.881441,-740.205942,-11991.336260,-1762.019645
441.881763,-444.123565,-12065.356855,-1378.971896
441.882085,-666.185348,-12139.377449,-1072.533697
441.882407,-1258.350101,-11621.233289,-2145.067394
441.882729,-518.144159,-11251.130318,-2221.676944
441.883050,740.205942,-10881.027347,-1608.800546
441.883372,1628.453072,-9918.759623,-689.485948
441.883694,2368.659014,-8734.430116,536.266849
441.884016,3478.967927,-8290.306550,2298.286494
441.884338,3923.091493,-7179.997637,2451.505594
441.884660,3701.029710,-6069.688724,842.705048
441.884982,3849.070898,-5551.544565,383.047749
441.885303,3775.050304,-6883.915261,306.438199
441.885625,2886.803174,-7772.162391,612.876398
441.885947,1702.473667,-7254.018232,0.000000
441.886269,814.226536,-8586.388927,-689.485948
441.886591,-888.247130,-9474.636058,-1149.143247
441.886913,-3182.885551,-10955.047942,-1838.629195
441.887234,-5107.421000,-12583.501014,-1991.848295
441.887556,-5477.523971,-13841.851115,-1532.190996
441.887878,-4293.194464,-12953.603985,-766.095498
441.888200,-3034.844362,-9622.677246,-1991.848295
441.888522,-1554.432478,-7402.059420,-1532.190996
441.888844,-1036.288319,-5329.482782,-995.924147
441.889165,-814.226536,-4885.359217,-1225.752797
441.889487,-666.185348,-5477.523971,-2221.676944
441.889809,-888.247130,-7550.100608,-1608.800546
441.890131,-1406.391290,-10510.924376,-689.485948
441.890453,-2590.720797,-11325.150913,-612.876398
441.890775,-2220.617826,-10955.047942,-2068.457845
441.891097,-666.185348,-10658.965565,-3600.648841
441.891418,-962.267725,-11547.212695,-3447.429741
441.891740,-2368.659014,-11843.295072,-2604.724693
441.892062,-2960.823768,-12731.542202,-2145.067394
441.892384,-1628.453072,-12805.562797,-1915.238745
441.892706,666.185348,-11843.295072,-2911.162892
441.893028,2812.782580,-9474.636058,-3217.601092
441.893349,4293.194464,-7328.038826,-2451.505594
441.893671,4737.318029,-7105.977043,-1532.190996
441.893993,4367.215058,-6957.935855,-1455.581446
441.894315,3849.070898,-7772.162391,-1302.362347
441.894637,2886.803174,-9474.636058,-1302.362347
441.894959,1480.411884,-9622.677246,-2451.505594
441.895280,296.082377,-9252.574275,-3217.601092
441.895602,74.020594,-8660.409521,-3447.429741
441.895924,-148.041188,-9474.636058,-3217.601092
441.896246,-1702.473667,-10214.842000,-3370.820191
441.896568,-3256.906145,-11843.295072,-2528.115143
441.896890,-4071.132681,-13619.789333,-1608.800546
441.897212,-4071.132681,-13101.645173,-1378.971896
441.897533,-2886.803174,-10214.842000,-2145.067394
441.897855,-1480.411884,-7105.977043,-3064.381992
441.898177,0.000000,-4589.276840,-1915.238745
441.898499,296.082377,-3849.070898,-1149.143247
441.898821,148.041188,-5181.441594,-1378.971896
441.899143,-222.061783,-7624.121203,-919.314598
441.899464,-888.247130,-9030.512492,-383.047749
441.899786,-1258.350101,-8734.430116,-1608.800546
441.900108,148.041188,-7994.224174,-3370.820191
441.900430,1110.308913,-8512.368333,-3217.601092
441.900752,222.061783,-9992.780217,-2528.115143
441.901074,-1850.514855,-10658.965565,-1302.362347
441.901395,-3182.885551,-11547.212695,-689.485948
441.901717,-2886.803174,-12731.542202,-1072.533697
441.902039,-1480.411884,-12879.583391,-2068.457845
441.902361,-740.205942,-9844.739029,-2451.505594
441.902683,592.164754,-7846.182985,-612.876398
441.903005,2220.617826,-6735.874072,919.314598
441.903326,2960.823768,-5107.421000,-383.047749
441.903648,3182.885551,-5329.482782,-1149.143247
441.903970,1998.556043,-7254.018232,-1455.581446
441.904292,518.144159,-9696.697840,-1762.019645
441.904614,-444.123565,-10881.027347,-2451.505594
441.904936,-1406.391290,-12805.562797,-2374.896044
441.905257,-2072.576638,-14211.954086,-1378.971896
441.905579,-2960.823768,-12509.480420,-1378.971896
441.905901,-3034.844362,-10584.944971,-2451.505594
441.906223,-1924.535449,-11029.068536,-2757.943793
441.906545,-962.267725,-12065.356855,-2987.772442
441.906867,-888.247130,-10658.965565,-1991.848295
441.907188,-888.247130,-9326.594869,-229.828649
441.907510,0.000000,-10140.821405,1302.362347
441.907832,0.000000,-9178.553681,383.047749
441.908154,-888.247130,-7031.956449,-1225.752797
441.908476,-370.102971,-5995.668130,-1225.752797
441.908798,1258.350101,-6365.771101,-919.314598
441.909119,1554.432478,-7254.018232,-1915.238745
441.909441,592.164754,-9326.594869,-766.095498
441.909763,-1184.329507,-11325.150913,766.095498
441.910085,-2664.741391,-12361.439231,153.219100
441.910407,-3034.844362,-12065.356855,-1378.971896
441.910729,-3108.864956,-10214.842000,-2451.505594
441.911051,-2294.638420,-9030.512492,-1838.629195
441.911372,-1332.370696,-7846.182985,-1762.019645
441.911694,444.123565,-7994.224174,-766.095498
441.912016,1258.350101,-8364.327145,1302.362347
441.912338,222.061783,-7846.182985,2068.457845
441.912660,-74.020594,-6439.791695,459.657299
441.912982,666.185348,-5107.421000,-536.266849
441.913303,2220.617826,-5551.544565,-1455.581446
441.913625,2220.617826,-6587.832884,-1302.362347
441.913947,592.164754,-7402.059420,-1072.533697
441.914269,-814.226536,-9400.615463,0.000000
441.914591,-1628.453072,-12509.480420,0.000000
441.914913,-2812.782580,-13101.645173,-1915.238745
441.915234,-3627.009116,-12583.501014,-3447.429741
441.915556,-2368.659014,-11473.192101,-3294.210641
441.915878,-888.247130,-10436.903782,-1991.848295
441.916200,1480.411884,-9844.739029,-612.876398
441.916522,1850.514855,-8734.430116,-383.047749
441.916844,1110.308913,-8142.265362,-612.876398
441.917165,222.061783,-7920.203579,-1455.581446
441.917487,592.164754,-8438.347739,-2757.943793
441.917809,814.226536,-8438.347739,-3294.210641
441.918131,222.061783,-9326.594869,-2834.553343
441.918453,-370.102971,-10066.800811,-1455.581446
441.918775,-962.267725,-10807.006753,-1072.533697
441.919096,-1702.473667,-10881.027347,-2757.943793
441.919418,-3182.885551,-11251.130318,-3600.648841
441.919740,-3923.091493,-11547.212695,-4290.134789
441.920062,-3627.009116,-11695.253884,-4060.306139
441.920384,-2516.700203,-12361.439231,-3217.601092
441.920706,-1036.288319,-11695.253884,-1762.019645
441.921027,740.205942,-10066.800811,-689.485948
441.921349,1628.453072,-9252.574275,-1378.971896
441.921671,1554.432478,-8290.306550,-1378.971896
441.921993,1628.453072,-6809.894666,-2145.067394
441.922315,2220.617826,-5921.647536,-2604.724693
441.922637,3108.864956,-6587.832884,-1838.629195
441.922958,3182.885551,-7105.977043,-1838.629195
441.923280,1406.391290,-7994.224174,-2068.457845
441.923602,-888.247130,-9400.615463,-1608.800546
441.923924,-2664.741391,-11177.109724,-1915.238745
441.924246,-3997.112087,-11769.274478,-3753.867940
441.924568,-4367.215058,-10881.027347,-4366.744339
441.924889,-3775.050304,-11325.150913,-2604.724693
441.925211,-2590.720797,-10807.006753,-1838.629195
441.925533,-1110.308913,-9474.636058,-1608.800546
441.925855,-222.061783,-8586.388927,-689.485948
441.926177,-518.144159,-7772.162391,-689.485948
441.926499,-444.123565,-7254.018232,-1608.800546
441.926820,0.000000,-6217.729913,-1915.238745
441.927142,1184.329507,-6883.915261,-995.924147
441.927464,2146.597232,-7179.997637,-536.266849
441.927786,2664.741391,-7105.977043,-1378.971896
441.928108,2368.659014,-8586.388927,-1072.533697
441.928430,962.267725,-10732.986159,229.828649
441.928751,-1480.411884,-11547.212695,-1072.533697
441.929073,-2516.700203,-11917.315666,-2757.943793
441.929395,-2590.720797,-11917.315666,-1991.848295
441.929717,-2072.576638,-10732.986159,-1072.533697
441.930039,-666.185348,-9030.512492,-1991.848295
441.930361,518.144159,-7772.162391,-1149.143247
441.930682,962.267725,-7698.141797,-459.657299
441.931004,-222.061783,-8512.368333,-995.924147
441.931326,-1110.308913,-8660.409521,-1532.190996
441.931648,-1110.308913,-8956.491898,-1455.581446
441.931970,-888.247130,-9696.697840,-383.047749
441.932292,-666.185348,-9178.553681,-1302.362347
441.932613,-148.041188,-8364.327145,-1838.629195
441.932935,148.041188,-8586.388927,-1838.629195
441.933257,-962.267725,-9696.697840,-1302.362347
441.933579,-2146.597232,-11029.068536,-1991.848295
441.933901,-2368.659014,-11769.274478,-1608.800546
441.934223,-1554.432478,-12805.562797,-919.314598
441.934544,-222.061783,-12139.377449,-1225.752797
441.934866,1036.288319,-9104.533087,-1608.800546
441.935188,2220.617826,-7476.080014,-1149.143247
441.935510,2812.782580,-7846.182985,-1378.971896
441.935832,1554.432478,-8660.409521,-2145.067394
441.936154,222.061783,-10288.862594,-1838.629195
441.936475,-666.185348,-11621.233289,-689.485948
441.936797,-1554.432478,-10955.047942,-612.876398
441.937119,-1554.432478,-8882.471304,-1455.581446
441.937441,-1332.370696,-7105.977043,-2068.457845
441.937763,-1258.350101,-7772.162391,-2145.067394
441.938085,-2590.720797,-9030.512492,-1685.410096
441.938406,-4145.153275,-10658.965565,-1072.533697
441.938728,-4589.276840,-11547.212695,0.000000
441.939050,-3552.988522,-12361.439231,1225.752797
441.939372,-1036.288319,-9474.636058,1072.533697
441.939694,888.247130,-5847.626942,-536.266849
441.940016,2590.720797,-3182.885551,-1149.143247
441.940337,3552.988522,-5107.421000,-1455.581446
441.940659,3108.864956,-7920.203579,-995.924147
441.940981,1258.350101,-9844.739029,459.657299
441.941303,0.000000,-12065.356855,1455.581446
441.941625,0.000000,-11843.295072,459.657299
441.941947,814.226536,-9474.636058,-2298.286494
441.942268,518.144159,-8290.306550,-3524.039291
441.942590,0.000000,-8808.450710,-2681.334243
441.942912,-1036.288319,-8956.491898,-2298.286494
441.943234,-2368.659014,-9622.677246,-2374.896044
441.943556,-2812.782580,-11769.274478,-1072.533697
441.943878,-3034.844362,-12509.480420,-229.828649
441.944199,-2812.782580,-9696.697840,-2221.676944
441.944521,-1258.350101,-7920.203579,-2757.943793
441.944843,518.144159,-8364.327145,-1838.629195
441.945165,518.144159,-7031.956449,-2451.505594
441.945487,-74.020594,-6661.853478,-1991.848295
441.945809,-370.102971,-8512.368333,-306.438199
441.946130,148.041188,-10140.821405,-1378.971896
441.946452,518.144159,-9474.636058,-4826.401637
441.946774,666.185348,-9622.677246,-4903.011187
441.947096,0.000000,-11325.150913,-1991.848295
441.947418,-444.123565,-11325.150913,-612.876398
441.947740,-888.247130,-10214.842000,-2221.676944
441.948061,-296.082377,-10955.047942,-3140.991542
441.948383,-444.123565,-12139.377449,-2604.724693
441.948705,-370.102971,-11473.192101,-2145.067394
441.949027,1110.308913,-9770.718434,-612.876398
441.949349,2072.576638,-7698.141797,0.000000
441.949671,2664.741391,-6735.874072,-1225.752797
441.949992,2738.761985,-6365.771101,-2298.286494
441.950314,2146.597232,-7476.080014,-1991.848295
441.950636,370.102971,-9178.553681,-1455.581446
441.950958,-1480.411884,-10066.800811,-919.314598
441.951280,-1924.535449,-10362.883188,-1072.533697
441.951602,-2220.617826,-10510.924376,-1455.581446
441.951923,-3256.906145,-10214.842000,-2298.286494
441.952245,-4071.132681,-8660.409521,-2681.334243
441.952567,-3478.967927,-8068.244768,-3064.381992
441.952889,-1850.514855,-9622.677246,-2221.676944
441.953211,-1036.288319,-10066.800811,-1302.362347
441.953533,-1110.308913,-9474.636058,-842.705048
441.953854,-592.164754,-9030.512492,-995.924147
441.954176,370.102971,-9474.636058,-1225.752797
441.954498,1184.329507,-9178.553681,-2221.676944
441.954820,1184.329507,-7772.162391,-2604.724693
441.955142,1628.453072,-7698.141797,-1455.581446
441.955464,1850.514855,-8438.347739,0.000000
441.955785,1258.350101,-8142.265362,-766.095498
441.956107,740.205942,-8364.327145,-1532.190996
441.956429,-740.205942,-10732.986159,-1455.581446
441.956751,-2368.659014,-11251.130318,-1149.143247
441.957073,-3404.947333,-10510.924376,-1455.581446
441.957395,-2738.761985,-9918.759623,-2145.067394
441.957716,-814.226536,-10658.965565,-2221.676944
441.958038,74.020594,-9474.636058,-842.705048
441.958360,888.247130,-7698.141797,-995.924147
441.958682,1036.288319,-7550.100608,-1072.533697
441.959004,1036.288319,-8438.347739,-1302.362347
441.959326,888.247130,-8438.347739,-2374.896044
441.959647,0.000000,-8660.409521,-2834.553343
441.959969,-666.185348,-9992.780217,-2221.676944
441.960291,-1258.350101,-11325.150913,-1685.410096
441.960613,-2220.617826,-11621.233289,-1838.629195
441.960935,-2812.782580,-11325.150913,-1455.581446
441.961257,-3552.988522,-11177.109724,-1378.971896
441.961578,-3034.844362,-10584.944971,-2374.896044
441.961900,-2220.617826,-9326.594869,-3064.381992
441.962222,-1480.411884,-9844.739029,-2068.457845
441.962544,-1480.411884,-10807.006753,-306.438199
441.962866,-1110.308913,-10140.821405,1149.143247
441.963188,-148.041188,-8660.409521,995.924147
441.963509,1258.350101,-8438.347739,-919.314598
441.963831,2368.659014,-6883.915261,-2757.943793
441.964153,2886.803174,-5921.647536,-1915.238745
441.964475,3923.091493,-6883.915261,842.705048
441.964797,4367.215058,-7994.224174,229.828649
441.965119,3627.009116,-9252.574275,-1762.019645
441.965440,962.267725,-11325.150913,-1532.190996
441.965762,-2146.597232,-13471.748144,153.219100
441.966084,-4367.215058,-13027.624579,459.657299
441.966406,-4663.297435,-10584.944971,-1915.238745
441.966728,-2516.700203,-9400.615463,-2757.943793
441.967050,-814.226536,-8808.450710,-2145.067394
441.967371,-518.144159,-6957.935855,-689.485948
441.967693,0.000000,-5773.606348,-229.828649
441.968015,296.082377,-6217.729913,-383.047749
441.968337,444.123565,-7772.162391,-1149.143247
441.968659,296.082377,-8586.388927,-1991.848295
441.968981,-444.123565,-8734.430116,-1532.190996
441.969302,-444.123565,-9696.697840,-383.047749
441.969624,296.082377,-10214.842000,0.000000
441.969946,1480.411884,-9770.718434,-459.657299
441.970268,592.164754,-9992.780217,-612.876398
441.970590,-1332.370696,-10140.821405,-306.438199
441.970912,-2442.679609,-9326.594869,-612.876398
441.971233,-814.226536,-8882.471304,-1991.848295
441.971555,740.205942,-9030.512492,-2298.286494
441.971877,74.020594,-9474.636058,-2221.676944
441.972199,-1036.288319,-9474.636058,-536.266849
441.972521,-1184.329507,-9992.780217,612.876398
441.972843,-1036.288319,-10658.965565,-1225.752797
441.973164,-1184.329507,-9030.512492,-3447.429741
441.973486,-1258.350101,-7476.080014,-3524.039291
441.973808,-518.144159,-7550.100608,-3524.039291
441.974130,148.041188,-8216.285956,-3830.477490
441.974452,0.000000,-10140.821405,-4136.915689
441.974774,-1850.514855,-12805.562797,-3370.820191
441.975095,-4071.132681,-14878.139434,-2068.457845
441.975417,-5403.503377,-14730.098246,-842.705048
441.975739,-4219.173869,-12213.398043,-2451.505594
441.976061,-740.205942,-9326.594869,-3524.039291
441.976383,2442.679609,-6883.915261,-2911.162892
441.976705,4811.338623,-4293.194464,-766.095498
441.977026,5773.606348,-4293.194464,612.876398
441.977348,5107.421000,-7105.977043,995.924147
441.977670,3478.967927,-9844.739029,153.219100
441.977992,1776.494261,-10066.800811,-1302.362347
441.978314,1184.329507,-9400.615463,-3064.381992
441.978636,1554.432478,-9844.739029,-2145.067394
441.978957,2886.803174,-9252.574275,-2221.676944
441.979279,2072.576638,-8734.430116,-2221.676944
441.979601,-518.144159,-10066.800811,-1838.629195
441.979923,-3552.988522,-11325.150913,-995.924147
441.980245,-5921.647536,-11695.253884,-1915.238745
441.980567,-6661.853478,-10510.924376,-3294.210641
441.980888,-5625.565159,-9178.553681,-3294.210641
441.981210,-3923.091493,-7994.224174,-2221.676944
441.981532,-2368.659014,-6735.874072,-1072.533697
441.981854,-1850.514855,-7105.977043,76.609550
441.982176,-2738.761985,-7846.182985,229.828649
441.982498,-3330.926739,-8216.285956,-1378.971896
441.982819,-2368.659014,-7179.997637,-2604.724693
441.983141,0.000000,-6587.832884,-2987.772442
441.983463,2220.617826,-6587.832884,-3294.210641
441.983785,3552.988522,-8438.347739,-3753.867940
441.984107,2368.659014,-12213.398043,-1991.848295
441.984429,-740.205942,-15766.386565,229.828649
441.984750,-3404.947333,-17912.983796,536.266849
441.985072,-4071.132681,-16284.530724,-1072.533697
441.985394,-1332.370696,-11695.253884,-2757.943793
441.985716,2738.761985,-7920.203579,-2911.162892
441.986038,5995.668130,-3478.967927,-1455.581446
441.986360,7698.141797,-2442.679609,1149.143247
441.986681,6587.832884,-4737.318029,3064.381992
441.987003,3701.029710,-7698.141797,2604.724693
441.987325,1184.329507,-10807.006753,995.924147
441.987647,0.000000,-11917.315666,-919.314598
441.987969,-370.102971,-11177.109724,-1378.971896
441.988291,814.226536,-8882.471304,-2221.676944
441.988612,2146.597232,-7402.059420,-1608.800546
441.988934,888.247130,-8882.471304,0.000000
441.989256,-2886.803174,-11621.233289,-383.047749
441.989578,-6439.791695,-14137.933492,-1072.533697
441.989900,-7402.059420,-15026.180623,-2451.505594
441.990222,-6957.935855,-13323.706956,-2528.115143
441.990543,-4663.297435,-9844.739029,-1532.190996
441.990865,-1406.391290,-5477.523971,-153.219100
441.991187,222.061783,-3478.967927,-459.657299
441.991509,888.247130,-5033.400406,-536.266849
441.991831,-148.041188,-8290.306550,536.266849
441.992153,-2146.597232,-9622.677246,1302.362347
441.992474,-2368.659014,-10288.862594,1072.533697
441.992796,0.000000,-9030.512492,-1302.362347
441.993118,2664.741391,-7179.997637,-2681.334243
441.993440,3997.112087,-5995.668130,-1991.848295
441.993762,2294.638420,-8068.244768,-459.657299
441.994084,-222.061783,-11769.274478,0.000000
441.994405,-2886.803174,-14211.954086,-689.485948
441.994727,-3552.988522,-15692.365970,-842.705048
441.995049,-2368.659014,-12953.603985,-1532.190996
441.995371,444.123565,-8438.347739,-1838.629195
441.995693,3404.947333,-3849.070898,-1532.190996
441.996015,4441.235652,-2220.617826,-919.314598
441.996336,3552.988522,-3627.009116,0.000000
441.996658,1554.432478,-6069.688724,0.000000
441.996980,-740.205942,-9326.594869,-1455.581446
441.997302,-2220.617826,-12657.521608,-2834.553343
441.997624,-2146.597232,-12583.501014,-3753.867940
441.997946,-740.205942,-10214.842000,-3753.867940
441.998267,222.061783,-9548.656652,-2987.772442
441.998589,-518.144159,-9992.780217,-2834.553343
441.998911,-2442.679609,-11103.089130,-2834.553343
441.999233,-4515.256246,-12287.418637,-2757.943793
441.999555,-3775.050304,-13545.768739,-3217.601092
441.999877,-1850.514855,-11843.295072,-4213.525239
442.000198,296.082377,-8956.491898,-4443.353888
442.000520,1628.453072,-6661.853478,-2298.286494
442.000842,2368.659014,-6365.771101,-1225.752797
442.001164,2886.803174,-7105.977043,-1762.019645
442.001486,1184.329507,-9474.636058,-2681.334243
442.001808,-666.185348,-11769.274478,-1915.238745
442.002129,-962.267725,-11843.295072,-1532.190996
442.002451,0.000000,-9696.697840,-2834.553343
442.002773,1184.329507,-7920.203579,-2451.505594
442.003095,1850.514855,-8586.388927,-1455.581446
442.003417,222.061783,-8956.491898,-1991.848295
442.003738,-1554.432478,-10362.883188,-2145.067394
442.004060,-2738.761985,-13175.665768,-1072.533697
442.004382,-3034.844362,-14285.974681,-536.266849
442.004704,-1998.556043,-11251.130318,-919.314598
442.005026,148.041188,-7179.997637,-612.876398
442.005347,2516.700203,-4441.235652,-919.314598
442.005669,3404.947333,-2368.659014,-2221.676944
442.005991,3034.844362,-3552.988522,-2068.457845
442.006313,1702.473667,-7105.977043,229.828649
442.006634,0.000000,-11177.109724,306.438199
442.006956,-2072.576638,-12731.542202,-612.876398
442.007278,-2590.720797,-12139.377449,-1532.190996
442.007600,-2220.617826,-11251.130318,-919.314598
442.007921,-1924.535449,-9030.512492,-1532.190996
442.008243,-1628.453072,-7846.182985,-1302.362347
442.008565,-1184.329507,-8364.327145,-229.828649
442.008887,-1554.432478,-10140.821405,995.924147
442.009209,-1850.514855,-10732.986159,612.876398
442.009530,-1036.288319,-9252.574275,383.047749
442.009852,0.000000,-7031.956449,0.000000
442.010174,1406.391290,-6291.750507,-1149.143247
442.010496,2220.617826,-5625.565159,-2221.676944
442.010817,1850.514855,-6809.894666,-1455.581446
442.011139,814.226536,-10066.800811,229.828649
442.011461,-666.185348,-12139.377449,-306.438199
442.011783,-962.267725,-12657.521608,-1838.629195
442.012104,-888.247130,-12657.521608,-2757.943793
442.012426,-1110.308913,-11917.315666,-2681.334243
442.012748,-1406.391290,-10732.986159,-2681.334243
442.013070,-1184.329507,-9770.718434,-1838.629195
442.013392,-666.185348,-10288.862594,-1685.410096
442.013713,-1036.288319,-11695.253884,-995.924147
442.014035,-1480.411884,-11399.171507,-229.828649
442.014357,-1258.350101,-9696.697840,-306.438199
442.014679,-370.102971,-8660.409521,459.657299
442.015000,1406.391290,-6957.935855,229.828649
442.015322,2886.803174,-4589.276840,-919.314598
442.015644,3997.112087,-4219.173869,-1991.848295
442.015966,2886.803174,-6513.812290,-1302.362347
442.016287,814.226536,-9474.636058,-383.047749
442.016609,-1036.288319,-11917.315666,-919.314598
442.016931,-2368.659014,-14211.954086,-2221.676944
442.017253,-4293.194464,-14434.015869,-2298.286494
442.017575,-4663.297435,-13249.686362,-1915.238745
442.017896,-3775.050304,-11325.150913,-2451.505594
442.018218,-2294.638420,-9918.759623,-1532.190996
442.018540,-1480.411884,-7698.141797,-766.095498
442.018862,-740.205942,-5995.668130,0.000000
442.019183,-370.102971,-5107.421000,0.000000
442.019505,-592.164754,-4959.379811,-995.924147
442.019827,-296.082377,-5995.668130,-1915.238745
442.020149,0.000000,-7476.080014,-1532.190996
442.020470,-444.123565,-9104.533087,0.000000
442.020792,-592.164754,-9548.656652,229.828649
442.021114,592.164754,-9918.759623,-1302.362347
442.021436,814.226536,-10436.903782,-2681.334243
442.021758,-592.164754,-11103.089130,-2528.115143
442.022079,-888.247130,-9918.759623,-1685.410096
442.022401,-888.247130,-10066.800811,-2068.457845
442.022723,296.082377,-10510.924376,-1915.238745
442.023045,1406.391290,-10510.924376,-2145.067394
442.023366,1480.411884,-9474.636058,-1532.190996
442.023688,1332.370696,-9548.656652,-306.438199
442.024010,1332.370696,-9474.636058,-383.047749
442.024332,1332.370696,-7698.141797,-1149.143247
442.024654,2072.576638,-6735.874072,-1915.238745
442.024975,2220.617826,-6809.894666,-1915.238745
442.025297,1480.411884,-8068.244768,-1762.019645
442.025619,518.144159,-8512.368333,-1532.190996
442.025941,0.000000,-9770.718434,-2604.724693
442.026262,-1332.370696,-12361.439231,-3064.381992
442.026584,-2812.782580,-13841.851115,-2451.505594
442.026906,-3627.009116,-13471.748144,-2374.896044
442.027228,-3330.926739,-12509.480420,-2145.067394
442.027549,-2072.576638,-11917.315666,-2451.505594
442.027871,-666.185348,-10362.883188,-2451.505594
442.028193,74.020594,-8438.347739,-2145.067394
442.028515,-444.123565,-7476.080014,-766.095498
442.028837,-592.164754,-7105.977043,-536.266849
442.029158,148.041188,-6513.812290,-1225.752797
442.029480,814.226536,-6661.853478,-2451.505594
442.029802,814.226536,-7846.182985,-2068.457845
442.030124,148.041188,-9474.636058,-1532.190996
442.030445,-814.226536,-10510.924376,-1991.848295
442.030767,-1480.411884,-11843.295072,-1378.971896
442.031089,-2146.597232,-13397.727550,-1378.971896
442.031411,-3108.864956,-12731.542202,-1225.752797
442.031732,-2886.803174,-10584.944971,-1378.971896
442.032054,-1258.350101,-9030.512492,-1072.533697
442.032376,962.267725,-7476.080014,-1378.971896
442.032698,2886.803174,-5625.565159,-689.485948
442.033020,3108.864956,-5107.421000,0.000000
442.033341,2368.659014,-6439.791695,0.000000
442.033663,1110.308913,-7994.224174,-383.047749
442.033985,370.102971,-9400.615463,-612.876398
442.034307,0.000000,-10362.883188,0.000000
442.034628,0.000000,-9548.656652,-1302.362347
442.034950,296.082377,-7846.182985,-2451.505594
442.035272,518.144159,-7772.162391,-2528.115143
442.035594,-814.226536,-9548.656652,-1608.800546
442.035915,-2738.761985,-10288.862594,-1149.143247
442.036237,-3923.091493,-12213.398043,-2374.896044
442.036559,-4367.215058,-13323.706956,-2987.772442
442.036881,-3627.009116,-13545.768739,-2451.505594
442.037203,-2368.659014,-10955.047942,-1532.190996
442.037524,-518.144159,-9178.553681,-919.314598
442.037846,370.102971,-7476.080014,-1302.362347
442.038168,1036.288319,-6735.874072,-1378.971896
442.038490,1702.473667,-7105.977043,-1302.362347
442.038811,1924.535449,-7105.977043,-536.266849
442.039133,1332.370696,-7994.224174,-1302.362347
442.039455,1110.308913,-8808.450710,-995.924147
442.039777,1702.473667,-9474.636058,-1532.190996
442.040098,1776.494261,-11103.089130,-2451.505594
442.040420,0.000000,-12435.459826,-2145.067394
442.040742,-2368.659014,-13545.768739,-229.828649
442.041064,-3108.864956,-13471.748144,0.000000
442.041386,-2220.617826,-12509.480420,-459.657299
442.041707,148.041188,-9474.636058,-995.924147
442.042029,1628.453072,-6291.750507,-1455.581446
442.042351,1924.535449,-4589.276840,0.000000
442.042673,1036.288319,-5403.503377,1302.362347
442.042994,148.041188,-6809.894666,1378.971896
442.043316,-1258.350101,-8512.368333,0.000000
442.043638,-2664.741391,-9474.636058,306.438199
442.043960,-2516.700203,-9548.656652,-689.485948
442.044281,-1406.391290,-8882.471304,-2757.943793
442.044603,-370.102971,-8364.327145,-3370.820191
442.044925,-814.226536,-9252.574275,-1762.019645
442.045247,-2220.617826,-9770.718434,-689.485948
442.045569,-2886.803174,-10288.862594,-919.314598
442.045890,-3182.885551,-11251.130318,-1685.410096
442.046212,-2516.700203,-11473.192101,-2757.943793
442.046534,-222.061783,-9548.656652,-3140.991542
442.046856,1258.350101,-8734.430116,-1762.019645
442.047177,1628.453072,-8882.471304,459.657299
442.047499,1406.391290,-8068.244768,995.924147
442.047821,1628.453072,-7105.977043,0.000000
442.048143,2738.761985,-6735.874072,-1915.238745
442.048464,3108.864956,-7105.977043,-2604.724693
442.048786,2442.679609,-7254.018232,-2757.943793
442.049108,1480.411884,-8956.491898,-1608.800546
442.049430,666.185348,-11251.130318,-612.876398
442.049752,-296.082377,-12953.603985,-1762.019645
442.050073,-1702.473667,-13545.768739,-2528.115143
442.050395,-2442.679609,-13693.809927,-2528.115143
442.050717,-2368.659014,-12879.583391,-2451.505594
442.051039,-222.061783,-10140.821405,-3064.381992
442.051360,2146.597232,-7550.100608,-2987.772442
442.051682,3182.885551,-6217.729913,-2604.724693
442.052004,1702.473667,-6291.750507,-2145.067394
442.052326,-592.164754,-7624.121203,-2298.286494
442.052648,-2590.720797,-10140.821405,-1762.019645
442.052969,-3552.988522,-12213.398043,-766.095498
442.053291,-4145.153275,-10955.047942,-2221.676944
442.053613,-3552.988522,-8882.471304,-2221.676944
442.053935,-2368.659014,-8364.327145,-1608.800546
442.054256,-1924.535449,-9326.594869,-2221.676944
442.054578,-2960.823768,-9252.574275,-2987.772442
442.054900,-4145.153275,-9326.594869,-2145.067394
442.055222,-3478.967927,-11399.171507,-1072.533697
442.055543,-2146.597232,-11843.295072,-2068.457845
442.055865,-444.123565,-10140.821405,-2451.505594
442.056187,888.247130,-9030.512492,-1225.752797
442.056509,1998.556043,-8808.450710,-383.047749
442.056831,3182.885551,-7105.977043,-1225.752797
442.057152,3182.885551,-6735.874072,-995.924147
442.057474,3330.926739,-7328.038826,76.609550
442.057796,3034.844362,-7772.162391,-1149.143247
442.058118,3182.885551,-7698.141797,-2374.896044
442.058439,2738.761985,-8734.430116,-1685.410096
442.058761,666.185348,-10140.821405,76.609550
442.059083,-1258.350101,-10140.821405,0.000000
442.059405,-2294.638420,-9918.759623,-76.609550
442.059726,-1850.514855,-9844.739029,-306.438199
442.060048,-962.267725,-9548.656652,-1225.752797
442.060370,-370.102971,-8586.388927,-1149.143247
442.060692,296.082377,-7846.182985,-306.438199
442.061014,222.061783,-8438.347739,76.609550
442.061335,0.000000,-9030.512492,-842.705048
442.061657,-370.102971,-8364.327145,-1762.019645
442.061979,0.000000,-8438.347739,-2834.553343
442.062301,-444.123565,-9622.677246,-2604.724693
442.062622,-296.082377,-10584.944971,-2681.334243
442.062944,-444.123565,-11251.130318,-2374.896044
442.063266,-1406.391290,-11843.295072,-1378.971896
442.063588,-3108.864956,-12361.439231,-383.047749
442.063909,-4071.132681,-11251.130318,-1991.848295
442.064231,-3701.029710,-9474.636058,-3447.429741
442.064553,-2516.700203,-9770.718434,-2834.553343
442.064875,-1406.391290,-9918.759623,-1378.971896
442.065197,-370.102971,-9252.574275,459.657299
442.065518,666.185348,-8956.491898,1838.629195
442.065840,592.164754,-9992.780217,1072.533697
442.066162,444.123565,-9992.780217,-1302.362347
442.066484,444.123565,-9030.512492,-2451.505594
442.066805,666.185348,-8512.368333,-1225.752797
442.067127,1406.391290,-8808.450710,0.000000
442.067449,1776.494261,-8068.244768,-459.657299
442.067771,1480.411884,-8512.368333,-1225.752797
442.068092,0.000000,-10955.047942,-766.095498
442.068414,-2294.638420,-11547.212695,-919.314598
442.068736,-2812.782580,-11177.109724,-2298.286494
442.069058,-2146.597232,-11029.068536,-1149.143247
442.069380,-1406.391290,-10732.986159,76.609550
442.069701,-296.082377,-7846.182985,459.657299
442.070023,1184.329507,-5107.421000,0.000000
442.070345,1628.453072,-4663.297435,-1072.533697
442.070667,1702.473667,-5699.585753,-1685.410096
442.070988,518.144159,-6291.750507,-1225.752797
442.071310,-518.144159,-7698.141797,-612.876398
442.071632,-1406.391290,-10140.821405,229.828649
442.071954,-1110.308913,-10510.924376,-536.266849
442.072275,-666.185348,-10214.842000,-2604.724693
442.072597,-1184.329507,-9844.739029,-2757.943793
442.072919,-2886.803174,-10732.986159,-2681.334243
442.073241,-3923.091493,-10510.924376,-2604.724693
442.073563,-3034.844362,-10436.903782,-2451.505594
442.073884,-1480.411884,-10807.006753,-2911.162892
442.074206,-518.144159,-9844.739029,-2451.505594
442.074528,814.226536,-8438.347739,-2834.553343
442.074850,1628.453072,-8290.306550,-2528.115143
442.075171,1406.391290,-9622.677246,-2528.115143
442.075493,518.144159,-9548.656652,-2298.286494
442.075815,592.164754,-9104.533087,-1915.238745
442.076137,666.185348,-9252.574275,-1838.629195
442.076458,1924.535449,-9252.574275,-2528.115143
442.076780,2072.576638,-9474.636058,-3217.601092
442.077102,888.247130,-9992.780217,-2221.676944
442.077424,-370.102971,-11695.253884,-766.095498
442.077746,-1628.453072,-12509.480420,-842.705048
442.078067,-2220.617826,-12139.377449,-2221.676944
442.078389,-1776.494261,-11621.233289,-1762.019645
442.078711,-814.226536,-11325.150913,-1225.752797
442.079033,740.205942,-9326.594869,-1378.971896
442.079354,2368.659014,-7624.121203,-1608.800546
442.079676,2072.576638,-7105.977043,-383.047749
442.079998,1110.308913,-6883.915261,-1225.752797
442.080320,962.267725,-6439.791695,-2298.286494
442.080641,518.144159,-6513.812290,-3064.381992
442.080963,-518.144159,-8956.491898,-2757.943793
442.081285,-1332.370696,-10066.800811,-1991.848295
442.081607,-2294.638420,-11473.192101,-1762.019645
442.081929,-3627.009116,-12065.356855,-1532.190996
442.082250,-4811.338623,-12287.418637,-536.266849
442.082572,-4959.379811,-10362.883188,-995.924147
442.082894,-3182.885551,-7476.080014,-2604.724693
442.083216,-1480.411884,-6809.894666,-1915.238745
442.083537,-222.061783,-6883.915261,-306.438199
442.083859,1258.350101,-6809.894666,306.438199
442.084181,1924.535449,-7105.977043,0.000000
442.084503,1554.432478,-8956.491898,-76.609550
442.084825,1036.288319,-9918.759623,76.609550
442.085146,1480.411884,-8956.491898,-995.924147
442.085468,3108.864956,-7772.162391,-2221.676944
442.085790,3923.091493,-7994.224174,-1915.238745
442.086112,3775.050304,-8216.285956,-1608.800546
442.086433,1924.535449,-9548.656652,-1991.848295
442.086755,-1036.288319,-11547.212695,-1302.362347
442.087077,-3404.947333,-13175.665768,-995.924147
442.087399,-4367.215058,-13693.809927,-1991.848295
442.087720,-3849.070898,-11917.315666,-2451.505594
442.088042,-1776.494261,-9770.718434,-2451.505594
442.088364,-592.164754,-7698.141797,-1302.362347
442.088686,0.000000,-5921.647536,0.000000
442.089008,-370.102971,-5625.565159,-689.485948
442.089329,-1036.288319,-7254.018232,-1991.848295
442.089651,-2220.617826,-9844.739029,-2528.115143
442.089973,-2738.761985,-10362.883188,-1991.848295
442.090295,-3108.864956,-11769.274478,-1532.190996
442.090616,-2072.576638,-11251.130318,-2451.505594
442.090938,-1036.288319,-10436.903782,-2528.115143
442.091260,-888.247130,-10732.986159,-1378.971896
442.091582,-1332.370696,-11029.068536,-1838.629195
442.091903,-1332.370696,-10955.047942,-2987.772442
442.092225,-1036.288319,-11325.150913,-2604.724693
442.092547,-296.082377,-11991.336260,153.219100
442.092869,1184.329507,-9918.759623,995.924147
442.093191,3108.864956,-7254.018232,-459.657299
442.093512,4071.132681,-5329.482782,-1225.752797
442.093834,4071.132681,-6587.832884,-536.266849
442.094156,2886.803174,-7105.977043,-383.047749
442.094478,1998.556043,-8142.265362,-306.438199
442.094799,1702.473667,-9992.780217,153.219100
442.095121,1406.391290,-10955.047942,-919.314598
442.095443,518.144159,-9992.780217,-1838.629195
442.095765,-1332.370696,-8364.327145,-1378.971896
442.096086,-3478.967927,-8734.430116,-1455.581446
442.096408,-4367.215058,-8660.409521,-2987.772442
442.096730,-3627.009116,-8882.471304,-4519.963438
442.097052,-3775.050304,-9844.739029,-2834.553343
442.097374,-4145.153275,-11621.233289,-1149.143247
442.097695,-3552.988522,-11843.295072,-612.876398
442.098017,-2368.659014,-9918.759623,-995.924147
442.098339,-1036.288319,-8512.368333,-1302.362347
442.098661,296.082377,-6291.750507,-2145.067394
442.098982,1406.391290,-3701.029710,-3830.477490
442.099304,2516.700203,-3923.091493,-3524.039291
442.099626,3034.844362,-7402.059420,-1532.190996
442.099948,2960.823768,-10584.944971,-1532.190996
442.100269,1628.453072,-12509.480420,-1378.971896
442.100591,-592.164754,-15988.448347,-229.828649
442.100913,-3108.864956,-16950.716072,689.485948
442.101235,-3701.029710,-13249.686362,-1455.581446
442.101557,-1776.494261,-9252.574275,-3294.210641
442.101878,1702.473667,-6661.853478,-3217.601092
442.102200,3404.947333,-4367.215058,-1991.848295
442.102522,3330.926739,-4071.132681,-612.876398
442.102844,2516.700203,-6883.915261,612.876398
442.103165,1036.288319,-10140.821405,-383.047749
442.103487,-740.205942,-10436.903782,-2451.505594
442.103809,-814.226536,-9178.553681,-4060.306139
442.104131,-296.082377,-9252.574275,-3447.429741
442.104452,0.000000,-9548.656652,-3370.820191
442.104774,-518.144159,-8660.409521,-3524.039291
442.105096,-1850.514855,-8586.388927,-2987.772442
442.105418,-2960.823768,-10881.027347,-2757.943793
442.105740,-4885.359217,-12287.418637,-4366.744339
442.106061,-5699.585753,-13175.665768,-5209.449386
442.106383,-5033.400406,-12361.439231,-3447.429741
442.106705,-2664.741391,-11621.233289,-1838.629195
442.107027,148.041188,-8956.491898,-842.705048
442.107348,1184.329507,-6069.688724,-1072.533697
442.107670,1480.411884,-4293.194464,-1072.533697
442.107992,2442.679609,-4293.194464,-3217.601092
442.108314,3701.029710,-5329.482782,-4596.572988
442.108636,4589.276840,-7031.956449,-3447.429741
442.108957,4071.132681,-9252.574275,-2145.067394
442.109279,3034.844362,-10807.006753,-2451.505594
442.109601,2294.638420,-12361.439231,-2911.162892
442.109923,592.164754,-13841.851115,-2987.772442
442.110244,-2664.741391,-13915.871710,-3524.039291
442.110566,-4885.359217,-10807.006753,-4366.744339
442.110888,-4441.235652,-8512.368333,-5745.716235
442.111210,-2220.617826,-8364.327145,-4979.620737
442.111531,-592.164754,-8808.450710,-4136.915689
442.111853,-444.123565,-6513.812290,-2451.505594
442.112175,-296.082377,-5921.647536,-766.095498
442.112497,0.000000,-7105.977043,-1072.533697
442.112819,-592.164754,-8142.265362,-3983.696590
442.113140,-1480.411884,-6661.853478,-5592.497135
442.113462,-1332.370696,-6957.935855,-5592.497135
442.113784,-370.102971,-7994.224174,-5515.887586
442.114106,740.205942,-9696.697840,-6128.763984
442.114427,1036.288319,-11029.068536,-5975.544884
442.114749,-592.164754,-12287.418637,-4826.401637
442.115071,-2220.617826,-13915.871710,-4826.401637
442.115393,-2960.823768,-13693.809927,-4979.620737
442.115715,-3552.988522,-11769.274478,-5439.278036
442.116036,-3404.947333,-9770.718434,-4749.792088
442.116358,-2516.700203,-8660.409521,-3370.820191
442.116680,0.000000,-7698.141797,-2757.943793
442.117002,2368.659014,-6735.874072,-2681.334243
442.117323,3627.009116,-7772.162391,-1838.629195
442.117645,3849.070898,-8438.347739,-229.828649
442.117967,4737.318029,-8364.327145,-2068.457845
442.118289,4515.256246,-7105.977043,-3524.039291
442.118610,3256.906145,-6439.791695,-4673.182538
442.118932,2442.679609,-6217.729913,-4826.401637
442.119254,2220.617826,-6291.750507,-6894.859482
442.119576,2294.638420,-9992.780217,-7431.126331
442.119898,222.061783,-13101.645173,-5669.106685
442.120219,-2072.576638,-15988.448347,-2834.553343
442.120541,-4293.194464,-15840.407159,-2145.067394
442.120863,-5033.400406,-13989.892304,-2528.115143
442.121185,-4885.359217,-10732.986159,-4903.011187
442.121506,-4663.297435,-6735.874072,-4903.011187
442.121828,-3330.926739,-2960.823768,-3677.258390
442.122150,-1110.308913,-1480.411884,-2221.676944
442.122472,1480.411884,-4515.256246,-1149.143247
442.122793,2886.803174,-7402.059420,-153.219100
442.123115,2812.782580,-8808.450710,-995.924147
442.123437,2886.803174,-9548.656652,-2374.896044
