#time,accel_x,accel_y,accel_z
406.843200,-222.061783,-9474.636058,-1225.752797
406.843522,-148.041188,-9400.615463,-1302.362347
406.843844,0.000000,-9474.636058,-1302.362347
406.844166,222.061783,-9474.636058,-1455.581446
406.844487,-296.082377,-9104.533087,-1378.971896
406.844809,-370.102971,-9030.512492,-1532.190996
406.845131,-148.041188,-9400.615463,-1225.752797
406.845453,-370.102971,-9400.615463,-1378.971896
406.845775,0.000000,-9548.656652,-1378.971896
406.846097,-296.082377,-9474.636058,-1455.581446
406.846418,-148.041188,-9400.615463,-1608.800546
406.846740,-296.082377,-9178.553681,-1532.190996
406.847062,-148.041188,-9252.574275,-1532.190996
406.847384,0.000000,-9030.512492,-1378.971896
406.847706,-518.144159,-9178.553681,-2068.457845
406.848027,-296.082377,-9548.656652,-1685.410096
406.848349,-518.144159,-9474.636058,-1608.800546
406.848671,-740.205942,-9474.636058,-1225.752797
406.848993,-592.164754,-9326.594869,-1455.581446
406.849315,-370.102971,-9178.553681,-1532.190996
406.849637,-296.082377,-9474.636058,-1762.019645
406.849958,-370.102971,-9474.636058,-1762.019645
406.850280,-592.164754,-9400.615463,-1455.581446
406.850602,-518.144159,-9622.677246,-1608.800546
406.850924,-592.164754,-9696.697840,-1149.143247
406.851246,-666.185348,-9474.636058,-1915.238745
406.851568,-518.144159,-9474.636058,-1762.019645
406.851889,-518.144159,-9474.636058,-1838.629195
406.852211,-444.123565,-9474.636058,-1685.410096
406.852533,-370.102971,-9178.553681,-1685.410096
406.852855,-370.102971,-9622.677246,-1608.800546
406.853177,-296.082377,-9474.636058,-1455.581446
406.853498,-518.144159,-9696.697840,-1532.190996
406.853820,-444.123565,-9548.656652,-1685.410096
406.854142,-444.123565,-9474.636058,-1915.238745
406.854464,-444.123565,-9178.553681,-1149.143247
406.854786,-296.082377,-9400.615463,-1532.190996
406.855108,-444.123565,-9326.594869,-1455.581446
406.855429,-444.123565,-9474.636058,-1455.581446
406.855751,-296.082377,-9474.636058,-1302.362347
406.856073,-296.082377,-9326.594869,-919.314598
406.856395,74.020594,-9474.636058,-1915.238745
406.856717,-444.123565,-9252.574275,-1302.362347
406.857038,-222.061783,-9252.574275,-1455.581446
406.857360,-296.082377,-9474.636058,-1149.143247
406.857682,-222.061783,-9400.615463,-1378.971896
406.858004,-370.102971,-9400.615463,-1225.752797
406.858326,-296.082377,-9400.615463,-1378.971896
406.858648,222.061783,-9326.594869,-1378.971896
406.858969,1036.288319,-9474.636058,-1225.752797
406.859291,1258.350101,-9548.656652,-1072.533697
406.859613,1110.308913,-9474.636058,-306.438199
406.859935,1036.288319,-8808.450710,-459.657299
406.860257,592.164754,-8956.491898,-995.924147
406.860578,0.000000,-9252.574275,-1762.019645
406.860900,-740.205942,-9178.553681,-1302.362347
406.861222,-1480.411884,-8734.430116,-919.314598
406.861544,-148.041188,-9326.594869,-1225.752797
406.861866,370.102971,-9622.677246,-1455.581446
406.862188,444.123565,-10066.800811,-995.924147
406.862509,0.000000,-9400.615463,-689.485948
406.862831,222.061783,-9030.512492,-1532.190996
406.863153,1628.453072,-9770.718434,-1608.800546
406.863475,1924.535449,-10807.006753,-1608.800546
406.863797,1036.288319,-9474.636058,-612.876398
406.864119,1184.329507,-8438.347739,-229.828649
406.864440,2738.761985,-9400.615463,-995.924147
406.864762,3849.070898,-9548.656652,-1072.533697
406.865084,3256.906145,-9030.512492,0.000000
406.865406,2516.700203,-8290.306550,-153.219100
406.865728,3330.926739,-8364.327145,-612.876398
406.866049,3775.050304,-9252.574275,-919.314598
406.866371,3182.885551,-9326.594869,-919.314598
406.866693,3182.885551,-8142.265362,-842.705048
406.867015,3775.050304,-8364.327145,-2298.286494
406.867337,4441.235652,-9918.759623,-2604.724693
406.867659,4367.215058,-10955.047942,-1608.800546
406.867980,3627.009116,-10066.800811,-1378.971896
406.868302,3701.029710,-9548.656652,-1685.410096
406.868624,4071.132681,-10658.965565,-1838.629195
406.868946,3997.112087,-10214.842000,-2528.115143
406.869268,2738.761985,-9474.636058,-2604.724693
406.869589,2294.638420,-9030.512492,-1762.019645
406.869911,2590.720797,-9178.553681,-1378.971896
406.870233,3701.029710,-8660.409521,-1378.971896
406.870555,4145.153275,-8956.491898,-2221.676944
406.870877,4663.297435,-9104.533087,-1455.581446
406.871199,5181.441594,-9474.636058,-1072.533697
406.871520,5625.565159,-8882.471304,-1378.971896
406.871842,5625.565159,-8586.388927,-1838.629195
406.872164,4811.338623,-9030.512492,-2145.067394
406.872486,3182.885551,-9770.718434,-2451.505594
406.872808,2146.597232,-10955.047942,-2451.505594
406.873130,888.247130,-12435.459826,-1915.238745
406.873451,444.123565,-13249.686362,-919.314598
406.873773,740.205942,-13471.748144,0.000000
406.874095,740.205942,-12213.398043,536.266849
406.874417,1184.329507,-11251.130318,919.314598
406.874739,1332.370696,-9992.780217,1149.143247
406.875060,888.247130,-8290.306550,1762.019645
406.875382,370.102971,-6957.935855,1072.533697
406.875704,-740.205942,-5329.482782,536.266849
406.876026,-370.102971,-4811.338623,-995.924147
406.876348,518.144159,-4737.318029,-2221.676944
406.876670,2072.576638,-5107.421000,-2987.772442
406.876991,3997.112087,-5403.503377,-3294.210641
406.877313,5773.606348,-7105.977043,-4519.963438
406.877635,6439.791695,-9696.697840,-4366.744339
406.877957,5773.606348,-12065.356855,-3447.429741
406.878279,5033.400406,-13397.727550,-3217.601092
406.878600,5033.400406,-14434.015869,-3294.210641
406.878922,5329.482782,-15026.180623,-2451.505594
406.879244,3775.050304,-13693.809927,0.000000
406.879566,2072.576638,-11399.171507,2298.286494
406.879888,962.267725,-9474.636058,3064.381992
406.880210,1332.370696,-7624.121203,2834.553343
406.880531,1480.411884,-5477.523971,2604.724693
406.880853,814.226536,-4071.132681,2528.115143
406.881175,222.061783,-3701.029710,2221.676944
406.881497,296.082377,-5107.421000,1072.533697
406.881819,1184.329507,-7179.997637,0.000000
406.882141,1702.473667,-7846.182985,-995.924147
406.882462,1480.411884,-9474.636058,-3600.648841
406.882784,1406.391290,-12065.356855,-5132.839837
406.883106,1998.556043,-14359.995275,-4979.620737
406.883428,2146.597232,-15766.386565,-5439.278036
406.883750,1480.411884,-16654.633695,-4903.011187
406.884071,740.205942,-15692.365970,-2911.162892
406.884393,1702.473667,-11843.295072,-3294.210641
406.884715,2294.638420,-9474.636058,-4290.134789
406.885037,3775.050304,-9474.636058,-2221.676944
406.885359,4515.256246,-9104.533087,459.657299
406.885681,4515.256246,-7254.018232,1991.848295
406.886002,5847.626942,-5773.606348,3370.820191
406.886324,7624.121203,-4811.338623,3370.820191
406.886646,8068.244768,-4367.215058,1915.238745
406.886968,5995.668130,-4441.235652,2374.896044
406.887290,3182.885551,-3404.947333,3064.381992
406.887611,2368.659014,-5107.421000,0.000000
406.887933,2294.638420,-9400.615463,-4213.525239
406.888255,888.247130,-10807.006753,-3983.696590
406.888577,-1184.329507,-10658.965565,-3217.601092
406.888899,-1628.453072,-13841.851115,-3447.429741
406.889221,-1480.411884,-17468.860231,-3677.258390
406.889542,-2738.761985,-15248.242405,-4519.963438
406.889864,-2960.823768,-11029.068536,-5209.449386
406.890186,-518.144159,-9696.697840,-5056.230287
406.890508,1850.514855,-9992.780217,-4749.792088
406.890830,3775.050304,-8142.265362,-3600.648841
406.891152,5625.565159,-7179.997637,-689.485948
406.891473,7846.182985,-8882.471304,383.047749
406.891795,8808.450710,-10214.842000,1685.410096
406.892117,7550.100608,-9252.574275,2374.896044
406.892439,6439.791695,-7105.977043,1378.971896
406.892761,5921.647536,-6957.935855,0.000000
406.893082,4441.235652,-8512.368333,229.828649
406.893404,814.226536,-8438.347739,995.924147
406.893726,-2072.576638,-7698.141797,1072.533697
406.894048,-2738.761985,-8512.368333,153.219100
406.894370,-2146.597232,-11325.150913,-1608.800546
406.894692,-666.185348,-11843.295072,-3217.601092
406.895013,-666.185348,-10955.047942,-2451.505594
406.895335,1036.288319,-9992.780217,-689.485948
406.895657,4071.132681,-9622.677246,-1455.581446
406.895979,5921.647536,-9400.615463,-3677.258390
406.896301,6291.750507,-8956.491898,-3983.696590
406.896622,5477.523971,-9178.553681,-2528.115143
406.896944,5033.400406,-9252.574275,-1532.190996
406.897266,4367.215058,-9030.512492,-1225.752797
406.897588,3701.029710,-8512.368333,-1225.752797
406.897910,2960.823768,-7254.018232,-689.485948
406.898232,2368.659014,-7179.997637,-1149.143247
406.898553,2442.679609,-8660.409521,-2374.896044
406.898875,1110.308913,-10584.944971,-1685.410096
406.899197,-370.102971,-9844.739029,1225.752797
406.899519,-1702.473667,-7772.162391,1915.238745
406.899841,-1036.288319,-9326.594869,-306.438199
406.900163,888.247130,-10881.027347,-3140.991542
406.900484,2664.741391,-12805.562797,-3140.991542
406.900806,2812.782580,-13545.768739,-1532.190996
406.901128,3256.906145,-14063.912898,1378.971896
406.901450,4737.318029,-12657.521608,1838.629195
406.901772,5699.585753,-10658.965565,306.438199
406.902093,6365.771101,-8290.306550,-1225.752797
406.902415,6513.812290,-7031.956449,-2221.676944
406.902737,7105.977043,-7920.203579,-3294.210641
406.903059,8364.327145,-8586.388927,-1225.752797
406.903381,9400.615463,-7550.100608,1378.971896
406.903703,7698.141797,-6365.771101,2068.457845
406.904024,5699.585753,-6587.832884,1838.629195
406.904346,2590.720797,-5699.585753,153.219100
406.904668,-962.267725,-4589.276840,-2221.676944
406.904990,-3552.988522,-5033.400406,-3370.820191
406.905312,-3923.091493,-9844.739029,-3753.867940
406.905633,-3034.844362,-11547.212695,-3983.696590
406.905955,-2294.638420,-12065.356855,-3907.087040
406.906277,-1554.432478,-13545.768739,-2068.457845
406.906599,-888.247130,-13249.686362,-306.438199
406.906921,-1628.453072,-12509.480420,-2604.724693
406.907243,-2442.679609,-11621.233289,-4290.134789
406.907564,-222.061783,-11177.109724,-4213.525239
406.907886,1998.556043,-11843.295072,-3294.210641
406.908208,3923.091493,-11769.274478,-1838.629195
406.908530,5847.626942,-10658.965565,1225.752797
406.908852,7476.080014,-8364.327145,3370.820191
406.909173,8438.347739,-6143.709319,2757.943793
406.909495,9178.553681,-6735.874072,-153.219100
406.909817,8734.430116,-8364.327145,-2374.896044
406.910139,6883.915261,-7402.059420,-306.438199
406.910461,2886.803174,-5033.400406,1608.800546
406.910782,0.000000,-5847.626942,995.924147
406.911104,-1332.370696,-7550.100608,-766.095498
406.911426,-3701.029710,-7254.018232,-3370.820191
406.911748,-5995.668130,-7772.162391,-5439.278036
406.912070,-7624.121203,-10807.006753,-4826.401637
406.912391,-8290.306550,-13249.686362,-2374.896044
406.912713,-8808.450710,-13619.789333,-2451.505594
406.913035,-9104.533087,-13027.624579,-4060.306139
406.913357,-8290.306550,-11843.295072,-4903.011187
406.913679,-7624.121203,-12213.398043,-4290.134789
406.914000,-6143.709319,-11769.274478,-3370.820191
406.914322,-2960.823768,-9400.615463,-2681.334243
406.914644,1628.453072,-7846.182985,-1915.238745
406.914966,5773.606348,-8364.327145,536.266849
406.915288,7772.162391,-6661.853478,2528.115143
406.915609,7698.141797,-3256.906145,1225.752797
406.915931,7328.038826,-3701.029710,766.095498
406.916253,6143.709319,-7179.997637,459.657299
406.916575,4663.297435,-8142.265362,-842.705048
406.916897,4071.132681,-8956.491898,-2451.505594
406.917219,3701.029710,-10584.944971,-766.095498
406.917540,2886.803174,-11399.171507,-842.705048
406.917862,1406.391290,-10510.924376,-1991.848295
406.918184,-740.205942,-11843.295072,-2528.115143
406.918506,-3034.844362,-13545.768739,-1991.848295
406.918828,-6217.729913,-12657.521608,-1915.238745
406.919149,-8068.244768,-11399.171507,-2834.553343
406.919471,-7105.977043,-12065.356855,-2987.772442
406.919793,-5477.523971,-12509.480420,-2834.553343
406.920115,-3923.091493,-10510.924376,-1149.143247
406.920437,-2442.679609,-8290.306550,1378.971896
406.920758,740.205942,-6883.915261,689.485948
406.921080,3182.885551,-6439.791695,-1225.752797
406.921402,3256.906145,-6069.688724,0.000000
406.921724,1332.370696,-4515.256246,612.876398
406.922046,1480.411884,-4367.215058,-1302.362347
406.922367,2738.761985,-6587.832884,-3907.087040
406.922689,2960.823768,-9178.553681,-3600.648841
406.923011,1406.391290,-9104.533087,-1838.629195
406.923333,1036.288319,-10214.842000,-2451.505594
406.923655,1850.514855,-13767.830521,-2681.334243
406.923976,740.205942,-14952.160028,-2068.457845
406.924298,-1554.432478,-13175.665768,-2221.676944
406.924620,-2812.782580,-11843.295072,-1532.190996
406.924942,-1628.453072,-11843.295072,-1608.800546
406.925264,222.061783,-12879.583391,-1302.362347
406.925586,1628.453072,-11473.192101,995.924147
406.925907,2886.803174,-8364.327145,4136.915689
406.926229,4441.235652,-6883.915261,4213.525239
406.926551,4515.256246,-5847.626942,2298.286494
406.926873,3923.091493,-3108.864956,383.047749
406.927195,1998.556043,-2294.638420,-919.314598
406.927516,666.185348,-3775.050304,-1532.190996
406.927838,-888.247130,-6291.750507,-1378.971896
406.928160,-2886.803174,-7920.203579,-2374.896044
406.928482,-4737.318029,-9992.780217,-3140.991542
406.928804,-6069.688724,-10362.883188,-4366.744339
406.929125,-7254.018232,-12065.356855,-4903.011187
406.929447,-8956.491898,-13915.871710,-5975.544884
406.929769,-9770.718434,-14137.933492,-4673.182538
406.930091,-9104.533087,-12583.501014,-5362.668486
406.930413,-5847.626942,-12361.439231,-4596.572988
406.930734,-2368.659014,-12361.439231,-2374.896044
406.931056,-518.144159,-10807.006753,-919.314598
406.931378,1258.350101,-8512.368333,76.609550
406.931700,4663.297435,-7105.977043,1149.143247
406.932022,7402.059420,-6291.750507,612.876398
406.932343,8290.306550,-5699.585753,1225.752797
406.932665,7328.038826,-5107.421000,1378.971896
406.932987,6735.874072,-6069.688724,1378.971896
406.933309,5921.647536,-7179.997637,0.000000
406.933631,4737.318029,-7994.224174,-1991.848295
406.933952,3108.864956,-8956.491898,-3907.087040
406.934274,814.226536,-9622.677246,-4213.525239
406.934596,-2146.597232,-11547.212695,-2221.676944
406.934918,-4885.359217,-13545.768739,-2068.457845
406.935240,-7031.956449,-14211.954086,-4136.915689
406.935562,-8142.265362,-13693.809927,-6052.154434
406.935883,-7698.141797,-13323.706956,-6128.763984
406.936205,-5255.462188,-12139.377449,-3294.210641
406.936527,-2516.700203,-11103.089130,-2221.676944
406.936849,-666.185348,-10066.800811,-766.095498
406.937171,592.164754,-9548.656652,1072.533697
406.937492,666.185348,-8512.368333,1532.190996
406.937814,222.061783,-7179.997637,612.876398
406.938136,148.041188,-5921.647536,-1378.971896
406.938458,740.205942,-4737.318029,-1608.800546
406.938780,962.267725,-4811.338623,612.876398
406.939101,444.123565,-5699.585753,2451.505594
406.939423,444.123565,-6735.874072,842.705048
406.939745,592.164754,-7550.100608,-2911.162892
406.940067,0.000000,-9178.553681,-3907.087040
406.940389,-2072.576638,-11547.212695,-2374.896044
406.940710,-3775.050304,-13619.789333,-995.924147
406.941032,-4441.235652,-12731.542202,-1532.190996
406.941354,-2368.659014,-12361.439231,-1915.238745
406.941676,592.164754,-13545.768739,-2451.505594
406.941998,2960.823768,-12361.439231,-1072.533697
406.942319,3404.947333,-9548.656652,383.047749
406.942641,4885.359217,-7031.956449,1915.238745
406.942963,6439.791695,-6735.874072,1762.019645
406.943285,5255.462188,-5699.585753,995.924147
406.943607,3034.844362,-5255.462188,459.657299
406.943929,888.247130,-4811.338623,306.438199
406.944250,222.061783,-5847.626942,229.828649
406.944572,0.000000,-7328.038826,-306.438199
406.944894,-962.267725,-7772.162391,-842.705048
406.945216,-2072.576638,-7550.100608,-1532.190996
406.945538,-3478.967927,-8438.347739,-2451.505594
406.945859,-6069.688724,-10510.924376,-3217.601092
406.946181,-8660.409521,-12361.439231,-4366.744339
406.946503,-9770.718434,-12435.459826,-5669.106685
406.946825,-8364.327145,-13915.871710,-5669.106685
406.947147,-4293.194464,-15322.262999,-4060.306139
406.947468,-222.061783,-14285.974681,-2681.334243
406.947790,3108.864956,-12139.377449,-1685.410096
406.948112,6439.791695,-10140.821405,-153.219100
406.948434,7846.182985,-9104.533087,612.876398
406.948756,7105.977043,-8660.409521,306.438199
406.949077,4737.318029,-7105.977043,459.657299
406.949399,3108.864956,-4737.318029,383.047749
406.949721,2886.803174,-4885.359217,-919.314598
406.950043,2590.720797,-7550.100608,-689.485948
406.950365,1998.556043,-9474.636058,995.924147
406.950686,-518.144159,-8660.409521,1532.190996
406.951008,-2442.679609,-8290.306550,-229.828649
406.951330,-4811.338623,-8512.368333,-3064.381992
406.951652,-7846.182985,-9622.677246,-5286.058936
406.951974,-9622.677246,-11769.274478,-5822.325785
406.952295,-9474.636058,-13693.809927,-4366.744339
406.952617,-6957.935855,-14211.954086,-3524.039291
406.952939,-2368.659014,-14211.954086,-2757.943793
406.953261,1480.411884,-13101.645173,-1072.533697
406.953583,3701.029710,-10066.800811,536.266849
406.953905,4515.256246,-7105.977043,-459.657299
406.954226,4293.194464,-5847.626942,-919.314598
406.954548,2590.720797,-4885.359217,-919.314598
406.954870,666.185348,-3552.988522,-995.924147
406.955192,0.000000,-4589.276840,-689.485948
406.955514,0.000000,-6365.771101,0.000000
406.955835,-740.205942,-7105.977043,1072.533697
406.956157,-1850.514855,-6883.915261,1072.533697
406.956479,-2516.700203,-7254.018232,76.609550
406.956801,-4515.256246,-7402.059420,-1838.629195
406.957123,-7105.977043,-9252.574275,-3140.991542
406.957444,-8586.388927,-13027.624579,-3753.867940
406.957766,-7772.162391,-14730.098246,-3447.429741
406.958088,-4663.297435,-14952.160028,-4673.182538
406.958410,592.164754,-15174.221811,-3447.429741
406.958732,5403.503377,-14137.933492,-536.266849
406.959053,8068.244768,-10955.047942,689.485948
406.959375,8438.347739,-7624.121203,-689.485948
406.959697,8142.265362,-6439.791695,-1072.533697
406.960019,6809.894666,-6217.729913,-1455.581446
406.960341,3997.112087,-5847.626942,-2528.115143
406.960662,1776.494261,-5995.668130,-1991.848295
406.960984,148.041188,-7994.224174,229.828649
406.961306,-962.267725,-9178.553681,689.485948
406.961628,-1850.514855,-8290.306550,0.000000
406.961950,-2516.700203,-8438.347739,-1302.362347
406.962272,-3478.967927,-8808.450710,-4290.134789
406.962593,-4959.379811,-10288.862594,-4519.963438
406.962915,-7031.956449,-11843.295072,-3524.039291
406.963237,-7328.038826,-13101.645173,-2604.724693
406.963559,-5551.544565,-13767.830521,-2451.505594
406.963881,-1924.535449,-13545.768739,-3677.258390
406.964202,2072.576638,-13841.851115,-2528.115143
406.964524,5033.400406,-13471.748144,-1072.533697
406.964846,6143.709319,-10807.006753,0.000000
406.965168,6291.750507,-8364.327145,689.485948
406.965490,5995.668130,-7031.956449,1378.971896
406.965811,4737.318029,-4737.318029,229.828649
406.966133,2368.659014,-3034.844362,-459.657299
406.966455,740.205942,-5181.441594,-689.485948
406.966777,-962.267725,-7476.080014,612.876398
406.967099,-2516.700203,-8364.327145,1378.971896
406.967420,-3997.112087,-7550.100608,1302.362347
406.967742,-4663.297435,-8142.265362,-689.485948
406.968064,-5329.482782,-8882.471304,-2911.162892
406.968386,-6957.935855,-10955.047942,-3983.696590
406.968708,-7179.997637,-12953.603985,-2451.505594
406.969029,-5847.626942,-13397.727550,-919.314598
406.969351,-2590.720797,-11843.295072,-1455.581446
406.969673,1776.494261,-11695.253884,-2221.676944
406.969995,4589.276840,-11621.233289,-1378.971896
406.970317,5255.462188,-9474.636058,-383.047749
406.970638,4885.359217,-6439.791695,383.047749
406.970960,3552.988522,-5107.421000,689.485948
406.971282,2368.659014,-4145.153275,-229.828649
406.971604,1258.350101,-4145.153275,-1838.629195
406.971926,74.020594,-5699.585753,-2451.505594
406.972248,-370.102971,-7994.224174,-229.828649
406.972569,-1184.329507,-8586.388927,1685.410096
406.972891,-1998.556043,-8956.491898,536.266849
406.973213,-4219.173869,-9030.512492,-1378.971896
406.973535,-6587.832884,-10066.800811,-2834.553343
406.973857,-8882.471304,-11991.336260,-4136.915689
406.974178,-8512.368333,-13397.727550,-4673.182538
406.974500,-6291.750507,-13027.624579,-4979.620737
406.974822,-2220.617826,-14137.933492,-4060.306139
406.975144,1776.494261,-14656.077652,-2068.457845
406.975466,4441.235652,-12805.562797,-153.219100
406.975787,6365.771101,-9918.759623,-1302.362347
406.976109,6735.874072,-7179.997637,-2681.334243
406.976431,6513.812290,-7846.182985,-3064.381992
406.976753,3330.926739,-7772.162391,-1991.848295
406.977075,1258.350101,-7031.956449,-536.266849
406.977396,1110.308913,-7476.080014,-383.047749
406.977718,1332.370696,-8512.368333,-1149.143247
406.978040,74.020594,-9252.574275,-766.095498
406.978362,-2516.700203,-9178.553681,919.314598
406.978684,-4367.215058,-8808.450710,-459.657299
406.979005,-5551.544565,-9474.636058,-2681.334243
406.979327,-6809.894666,-10955.047942,-3217.601092
406.979649,-7550.100608,-11177.109724,-3217.601092
406.979971,-7105.977043,-10955.047942,-2681.334243
406.980293,-3997.112087,-11621.233289,-2451.505594
406.980615,-296.082377,-12361.439231,-1532.190996
406.980936,3182.885551,-11547.212695,0.000000
406.981258,5033.400406,-9252.574275,-229.828649
406.981580,6069.688724,-7550.100608,-689.485948
406.981902,5847.626942,-7254.018232,-766.095498
406.982224,4589.276840,-6143.709319,-766.095498
406.982545,3849.070898,-5107.421000,-1149.143247
406.982867,3256.906145,-5551.544565,-766.095498
406.983189,2442.679609,-7994.224174,153.219100
406.983511,592.164754,-7994.224174,1149.143247
406.983833,-1184.329507,-7624.121203,1532.190996
406.984154,-2368.659014,-8364.327145,459.657299
406.984476,-3997.112087,-9474.636058,-1149.143247
406.984798,-6439.791695,-10140.821405,-2068.457845
406.985120,-8068.244768,-9474.636058,-1762.019645
406.985442,-6735.874072,-10732.986159,-2374.896044
406.985763,-3701.029710,-11843.295072,-3524.039291
406.986085,-740.205942,-11843.295072,-2987.772442
406.986407,2072.576638,-10955.047942,-1685.410096
406.986729,4737.318029,-10510.924376,-842.705048
406.987051,5403.503377,-10436.903782,-995.924147
406.987372,5033.400406,-9770.718434,-1915.238745
406.987694,3923.091493,-7994.224174,-2451.505594
406.988016,3552.988522,-7476.080014,-2374.896044
406.988338,3330.926739,-7105.977043,-2451.505594
406.988660,1406.391290,-7920.203579,-1762.019645
406.988981,-814.226536,-7920.203579,-1378.971896
406.989303,-1850.514855,-9104.533087,-1149.143247
406.989625,-2886.803174,-11325.150913,-2221.676944
406.989947,-4367.215058,-12139.377449,-1991.848295
406.990269,-6661.853478,-11029.068536,-1685.410096
406.990591,-6957.935855,-10362.883188,-2145.067394
406.990912,-4737.318029,-10881.027347,-3140.991542
406.991234,-2368.659014,-12139.377449,-3524.039291
406.991556,-370.102971,-11177.109724,-1991.848295
406.991878,2368.659014,-10732.986159,-1455.581446
406.992200,4441.235652,-10807.006753,-1072.533697
406.992521,5107.421000,-11621.233289,-1149.143247
406.992843,3775.050304,-10288.862594,-306.438199
406.993165,1850.514855,-7550.100608,-766.095498
406.993487,1998.556043,-6587.832884,-2374.896044
406.993809,814.226536,-5551.544565,-3294.210641
406.994130,-888.247130,-6735.874072,-2068.457845
406.994452,-3182.885551,-6587.832884,0.000000
406.994774,-4145.153275,-7920.203579,-153.219100
406.995096,-4145.153275,-9918.759623,-2221.676944
406.995418,-5329.482782,-10658.965565,-2298.286494
406.995739,-7994.224174,-10584.944971,-689.485948
406.996061,-8068.244768,-9548.656652,-919.314598
406.996383,-5625.565159,-9622.677246,-2604.724693
406.996705,-2368.659014,-11029.068536,-3140.991542
406.997027,0.000000,-9992.780217,-1149.143247
406.997348,1924.535449,-8660.409521,459.657299
406.997670,4515.256246,-8586.388927,-306.438199
406.997992,6217.729913,-9400.615463,-1302.362347
406.998314,6365.771101,-8956.491898,-919.314598
406.998636,4367.215058,-7402.059420,0.000000
406.998958,3330.926739,-7031.956449,-306.438199
406.999279,2738.761985,-7994.224174,-2374.896044
406.999601,1406.391290,-7920.203579,-2987.772442
406.999923,0.000000,-7772.162391,-1225.752797
407.000245,-1554.432478,-7920.203579,0.000000
407.000567,-2590.720797,-9252.574275,-1378.971896
407.000888,-4219.173869,-11251.130318,-2221.676944
407.001210,-6809.894666,-12583.501014,-1532.190996
407.001532,-7698.141797,-11843.295072,-1532.190996
407.001854,-5699.585753,-11769.274478,-3753.867940
407.002176,-2220.617826,-11621.233289,-4136.915689
407.002497,74.020594,-11325.150913,-2374.896044
407.002819,2368.659014,-9474.636058,-612.876398
407.003141,4441.235652,-9104.533087,-689.485948
407.003463,6143.709319,-9918.759623,-1455.581446
407.003785,5625.565159,-9770.718434,-1608.800546
407.004106,3923.091493,-8438.347739,-1685.410096
407.004428,3478.967927,-7624.121203,-1915.238745
407.004750,3775.050304,-8142.265362,-2528.115143
407.005072,3849.070898,-8882.471304,-1685.410096
407.005394,1776.494261,-8068.244768,-612.876398
407.005715,-814.226536,-8068.244768,689.485948
407.006037,-3404.947333,-10066.800811,-919.314598
407.006359,-5625.565159,-11547.212695,-1915.238745
407.006681,-7624.121203,-11547.212695,-1915.238745
407.007003,-7698.141797,-10436.903782,-1685.410096
407.007324,-5329.482782,-11103.089130,-1762.019645
407.007646,-2368.659014,-11177.109724,-919.314598
407.007968,-74.020594,-9770.718434,689.485948
407.008290,1998.556043,-7550.100608,689.485948
407.008612,3849.070898,-7179.997637,-459.657299
407.008933,4441.235652,-7698.141797,-919.314598
407.009255,2738.761985,-7105.977043,-689.485948
407.009577,518.144159,-5773.606348,-689.485948
407.009898,74.020594,-6883.915261,-1685.410096
407.010220,592.164754,-8882.471304,-2987.772442
407.010542,222.061783,-9326.594869,-2528.115143
407.010864,-1036.288319,-8068.244768,-1532.190996
407.011185,-1776.494261,-8068.244768,-689.485948
407.011507,-2368.659014,-10584.944971,-1225.752797
407.011829,-3775.050304,-11325.150913,-1762.019645
407.012151,-5995.668130,-10658.965565,-1991.848295
407.012472,-5921.647536,-10362.883188,-2221.676944
407.012794,-3849.070898,-10881.027347,-2451.505594
407.013116,-814.226536,-11029.068536,-1915.238745
407.013437,1258.350101,-9622.677246,-995.924147
407.013759,3775.050304,-8660.409521,383.047749
407.014081,6143.709319,-8586.388927,76.609550
407.014403,7179.997637,-8808.450710,-1072.533697
407.014724,5995.668130,-8364.327145,-2145.067394
407.015046,3701.029710,-7550.100608,-2298.286494
407.015368,3034.844362,-8586.388927,-2834.553343
407.015690,1850.514855,-9548.656652,-3140.991542
407.016011,0.000000,-9548.656652,-2834.553343
407.016333,-1998.556043,-9030.512492,-3140.991542
407.016655,-3108.864956,-10436.903782,-3447.429741
407.016976,-4219.173869,-12657.521608,-3677.258390
407.017298,-6365.771101,-13027.624579,-3753.867940
407.017620,-8142.265362,-12139.377449,-3140.991542
407.017942,-7698.141797,-11769.274478,-2374.896044
407.018263,-4811.338623,-11547.212695,-2681.334243
407.018585,-2146.597232,-10881.027347,-2298.286494
407.018907,0.000000,-9696.697840,229.828649
407.019229,2368.659014,-8290.306550,1762.019645
407.019550,4959.379811,-7772.162391,0.000000
407.019872,6809.894666,-7624.121203,-1149.143247
407.020194,5847.626942,-7476.080014,229.828649
407.020515,3923.091493,-6217.729913,306.438199
407.020837,3034.844362,-6217.729913,-1149.143247
407.021159,2664.741391,-8660.409521,-2451.505594
407.021481,1702.473667,-10140.821405,-2528.115143
407.021802,-962.267725,-9030.512492,-1608.800546
407.022124,-1850.514855,-9474.636058,-1149.143247
407.022446,-2368.659014,-11695.253884,-1685.410096
407.022768,-4071.132681,-11843.295072,-1915.238745
407.023089,-6587.832884,-10140.821405,-995.924147
407.023411,-7179.997637,-9326.594869,-689.485948
407.023733,-5699.585753,-9326.594869,-919.314598
407.024054,-3034.844362,-8882.471304,-2145.067394
407.024376,-444.123565,-8956.491898,-689.485948
407.024698,2220.617826,-7550.100608,1991.848295
407.025020,3849.070898,-6735.874072,2374.896044
407.025341,4737.318029,-7550.100608,1302.362347
407.025663,4145.153275,-6809.894666,76.609550
407.025985,2220.617826,-5477.523971,-1532.190996
407.026307,1332.370696,-6069.688724,-2834.553343
407.026628,1406.391290,-8216.285956,-2911.162892
407.026950,666.185348,-9474.636058,-2911.162892
407.027272,-1258.350101,-9474.636058,-1915.238745
407.027593,-2368.659014,-11621.233289,-919.314598
407.027915,-3256.906145,-14063.912898,-2298.286494
407.028237,-4811.338623,-14063.912898,-4519.963438
407.028559,-6735.874072,-12731.542202,-3524.039291
407.028880,-6291.750507,-11695.253884,-2374.896044
407.029202,-4219.173869,-10881.027347,-2528.115143
407.029524,-1258.350101,-10732.986159,-2528.115143
407.029846,1184.329507,-10732.986159,-766.095498
407.030167,3478.967927,-8290.306550,0.000000
407.030489,5625.565159,-7772.162391,536.266849
407.030811,6291.750507,-8364.327145,-153.219100
407.031133,5625.565159,-8068.244768,-306.438199
407.031454,3330.926739,-6587.832884,-1302.362347
407.031776,2516.700203,-7476.080014,-2298.286494
407.032098,1406.391290,-9104.533087,-2911.162892
407.032419,0.000000,-9474.636058,-3370.820191
407.032741,-2220.617826,-9474.636058,-2604.724693
407.033063,-2886.803174,-11843.295072,-1532.190996
407.033385,-3997.112087,-13471.748144,-1455.581446
407.033706,-5181.441594,-12509.480420,-2834.553343
407.034028,-7254.018232,-10732.986159,-1915.238745
407.034350,-7105.977043,-9474.636058,-2451.505594
407.034672,-5329.482782,-9992.780217,-3140.991542
407.034993,-2960.823768,-10140.821405,-1838.629195
407.035315,-1332.370696,-8956.491898,1532.190996
407.035637,1924.535449,-6957.935855,2298.286494
407.035958,4737.318029,-6661.853478,842.705048
407.036280,5995.668130,-7105.977043,153.219100
407.036602,5181.441594,-6735.874072,1149.143247
407.036924,2960.823768,-4441.235652,995.924147
407.037245,3256.906145,-4811.338623,-1072.533697
407.037567,3404.947333,-7550.100608,-3217.601092
407.037889,1776.494261,-9178.553681,-3294.210641
407.038211,-1258.350101,-8734.430116,-1455.581446
407.038532,-3108.864956,-10066.800811,-383.047749
407.038854,-3256.906145,-12879.583391,-1685.410096
407.039176,-5033.400406,-13323.706956,-3600.648841
407.039497,-7031.956449,-12065.356855,-3294.210641
407.039819,-6957.935855,-11621.233289,-1685.410096
407.040141,-4589.276840,-11843.295072,-1685.410096
407.040463,-1628.453072,-10362.883188,-1532.190996
407.040784,592.164754,-8438.347739,0.000000
407.041106,2812.782580,-6883.915261,919.314598
407.041428,4737.318029,-7179.997637,0.000000
407.041750,5329.482782,-8068.244768,-919.314598
407.042071,4367.215058,-7698.141797,-459.657299
407.042393,2812.782580,-7105.977043,-1225.752797
407.042715,3330.926739,-8068.244768,-2298.286494
407.043036,3182.885551,-9400.615463,-3370.820191
407.043358,1110.308913,-9326.594869,-3217.601092
407.043680,-2368.659014,-8734.430116,-2451.505594
407.044002,-4219.173869,-10288.862594,-2681.334243
407.044323,-5329.482782,-12805.562797,-4596.572988
407.044645,-7328.038826,-14285.974681,-4979.620737
407.044967,-8882.471304,-13693.809927,-3370.820191
407.045289,-7846.182985,-13027.624579,-2604.724693
407.045610,-3923.091493,-12509.480420,-2757.943793
407.045932,-444.123565,-11843.295072,-1915.238745
407.046254,1480.411884,-9104.533087,612.876398
407.046575,3478.967927,-6291.750507,1378.971896
407.046897,6217.729913,-5773.606348,383.047749
407.047219,7476.080014,-6957.935855,-306.438199
407.047541,6069.688724,-6291.750507,459.657299
407.047862,3478.967927,-5699.585753,1225.752797
407.048184,2294.638420,-6661.853478,842.705048
407.048506,2220.617826,-8290.306550,-1455.581446
407.048828,1036.288319,-8290.306550,-3600.648841
407.049149,-1258.350101,-7772.162391,-2451.505594
407.049471,-3478.967927,-9104.533087,-1225.752797
407.049793,-5107.421000,-11991.336260,-2068.457845
407.050114,-7254.018232,-12657.521608,-3447.429741
407.050436,-9474.636058,-11991.336260,-2834.553343
407.050758,-9992.780217,-10658.965565,-2145.067394
407.051080,-7105.977043,-10584.944971,-3140.991542
407.051401,-3182.885551,-9770.718434,-3064.381992
407.051723,518.144159,-9474.636058,-306.438199
407.052045,3182.885551,-8290.306550,1991.848295
407.052367,5995.668130,-7402.059420,2681.334243
407.052688,7624.121203,-6957.935855,1378.971896
407.053010,6661.853478,-5921.647536,383.047749
407.053332,4293.194464,-5773.606348,229.828649
407.053653,2886.803174,-5995.668130,0.000000
407.053975,2368.659014,-7550.100608,-2145.067394
407.054297,2738.761985,-8956.491898,-2451.505594
407.054619,740.205942,-8956.491898,-995.924147
407.054940,-1480.411884,-9992.780217,-1225.752797
407.055262,-3627.009116,-12805.562797,-2221.676944
407.055584,-5699.585753,-14508.036463,-3753.867940
407.055906,-7476.080014,-14211.954086,-4290.134789
407.056227,-7698.141797,-12583.501014,-3907.087040
407.056549,-5551.544565,-12361.439231,-3294.210641
407.056871,-2146.597232,-11991.336260,-2987.772442
407.057192,666.185348,-10510.924376,-919.314598
407.057514,3034.844362,-8290.306550,1225.752797
407.057836,5255.462188,-6809.894666,229.828649
407.058158,6513.812290,-7179.997637,-1072.533697
407.058479,5477.523971,-7846.182985,-1532.190996
407.058801,2886.803174,-7105.977043,0.000000
407.059123,1332.370696,-6513.812290,0.000000
407.059445,1776.494261,-7846.182985,-2221.676944
407.059766,1924.535449,-9992.780217,-3753.867940
407.060088,0.000000,-9992.780217,-3064.381992
407.060410,-3034.844362,-9844.739029,-1225.752797
407.060731,-5033.400406,-11917.315666,-995.924147
407.061053,-6513.812290,-13619.789333,-2911.162892
407.061375,-8438.347739,-12361.439231,-3983.696590
407.061697,-9030.512492,-11177.109724,-3600.648841
407.062018,-6735.874072,-10881.027347,-2221.676944
407.062340,-2960.823768,-10140.821405,-1302.362347
407.062662,518.144159,-9104.533087,-153.219100
407.062984,3256.906145,-7476.080014,1455.581446
407.063305,6291.750507,-7031.956449,2451.505594
407.063627,7328.038826,-6957.935855,919.314598
407.063949,5699.585753,-6365.771101,0.000000
407.064270,2886.803174,-5699.585753,919.314598
407.064592,1628.453072,-5773.606348,842.705048
407.064914,1258.350101,-6957.935855,-1455.581446
407.065236,666.185348,-7476.080014,-2451.505594
407.065557,-1110.308913,-6957.935855,-1838.629195
407.065879,-2812.782580,-7994.224174,-1225.752797
407.066201,-4737.318029,-11029.068536,-1838.629195
407.066523,-6735.874072,-13397.727550,-2528.115143
407.066844,-9474.636058,-12435.459826,-3753.867940
407.067166,-9844.739029,-11325.150913,-3983.696590
407.067488,-7328.038826,-11695.253884,-3830.477490
407.067809,-3256.906145,-11325.150913,-3294.210641
407.068131,148.041188,-10066.800811,-1532.190996
407.068453,2886.803174,-8438.347739,1991.848295
407.068775,5995.668130,-7402.059420,2221.676944
407.069096,7624.121203,-7105.977043,306.438199
407.069418,7031.956449,-7328.038826,-995.924147
407.069740,4959.379811,-7254.018232,-689.485948
407.070062,3627.009116,-6957.935855,-306.438199
407.070383,2516.700203,-7328.038826,-1685.410096
407.070705,2664.741391,-8882.471304,-2757.943793
407.071027,1036.288319,-9104.533087,-3217.601092
407.071348,-1628.453072,-9400.615463,-2757.943793
407.071670,-3108.864956,-12361.439231,-2604.724693
407.071992,-4811.338623,-15026.180623,-3983.696590
407.072314,-7105.977043,-14508.036463,-3524.039291
407.072635,-8364.327145,-12805.562797,-3447.429741
407.072957,-6217.729913,-12657.521608,-3370.820191
407.073279,-2590.720797,-12213.398043,-3140.991542
407.073601,592.164754,-9622.677246,-1762.019645
407.073922,2738.761985,-7179.997637,306.438199
407.074244,5773.606348,-6661.853478,1072.533697
407.074566,7994.224174,-8216.285956,0.000000
407.074887,7698.141797,-8290.306550,76.609550
407.075209,4959.379811,-6587.832884,919.314598
407.075531,3108.864956,-5329.482782,536.266849
407.075853,1258.350101,-6883.915261,-766.095498
407.076174,-444.123565,-8290.306550,-1762.019645
407.076496,-2442.679609,-8438.347739,-2374.896044
407.076818,-3923.091493,-8586.388927,-2298.286494
407.077140,-3849.070898,-10436.903782,-2068.457845
407.077461,-4959.379811,-12435.459826,-2757.943793
407.077783,-7254.018232,-12139.377449,-2451.505594
407.078105,-8364.327145,-11029.068536,-2451.505594
407.078426,-6439.791695,-11251.130318,-2834.553343
407.078748,-3552.988522,-11991.336260,-3217.601092
407.079070,-1702.473667,-9696.697840,-1915.238745
407.079392,296.082377,-8364.327145,995.924147
407.079713,3849.070898,-8142.265362,1991.848295
407.080035,6513.812290,-7698.141797,919.314598
407.080357,7550.100608,-6439.791695,383.047749
407.080679,6069.688724,-6217.729913,1225.752797
407.081000,3997.112087,-6365.771101,1225.752797
407.081322,2442.679609,-6661.853478,0.000000
407.081644,962.267725,-7846.182985,-1378.971896
407.081966,-740.205942,-8142.265362,-2145.067394
407.082287,-1924.535449,-8068.244768,-2298.286494
407.082609,-2590.720797,-9474.636058,-2451.505594
407.082931,-3997.112087,-12509.480420,-2834.553343
407.083252,-6217.729913,-13101.645173,-2681.334243
407.083574,-7624.121203,-12583.501014,-2834.553343
407.083896,-6661.853478,-12805.562797,-2834.553343
407.084218,-4737.318029,-11917.315666,-3600.648841
407.084539,-2590.720797,-10658.965565,-3524.039291
407.084861,-148.041188,-9474.636058,-1685.410096
407.085183,3182.885551,-8808.450710,383.047749
407.085505,5329.482782,-8290.306550,0.000000
407.085826,5551.544565,-8068.244768,306.438199
407.086148,4367.215058,-7328.038826,459.657299
407.086470,3256.906145,-6809.894666,-306.438199
407.086791,2812.782580,-7550.100608,-1762.019645
407.087113,1850.514855,-8586.388927,-1608.800546
407.087435,0.000000,-8216.285956,-842.705048
407.087757,-1924.535449,-8512.368333,-1149.143247
407.088078,-3256.906145,-10658.965565,-1838.629195
407.088400,-4811.338623,-12805.562797,-2834.553343
407.088722,-7031.956449,-13101.645173,-3600.648841
407.089044,-7476.080014,-12213.398043,-3370.820191
407.089365,-5625.565159,-11695.253884,-2604.724693
407.089687,-2590.720797,-11473.192101,-2221.676944
407.090009,0.000000,-9770.718434,-1532.190996
407.090330,1776.494261,-8290.306550,-995.924147
407.090652,4663.297435,-7772.162391,383.047749
407.090974,6513.812290,-8216.285956,842.705048
407.091296,6143.709319,-7846.182985,383.047749
407.091617,4293.194464,-6957.935855,1072.533697
407.091939,3182.885551,-6587.832884,1455.581446
407.092261,2590.720797,-6735.874072,0.000000
407.092583,1628.453072,-6291.750507,-2604.724693
407.092904,-296.082377,-5995.668130,-1378.971896
407.093226,-2886.803174,-6513.812290,-842.705048
407.093548,-4589.276840,-8364.327145,-1762.019645
407.093869,-6661.853478,-10584.944971,-3140.991542
407.094191,-8068.244768,-11621.233289,-2834.553343
407.094513,-8438.347739,-12361.439231,-3524.039291
407.094835,-6587.832884,-12435.459826,-4290.134789
407.095156,-3108.864956,-12435.459826,-3370.820191
407.095478,-296.082377,-11843.295072,-1532.190996
407.095800,2368.659014,-10510.924376,-229.828649
407.096122,5107.421000,-8512.368333,0.000000
407.096443,7179.997637,-8512.368333,-995.924147
407.096765,7328.038826,-8290.306550,-995.924147
407.097087,6143.709319,-7105.977043,0.000000
407.097408,5477.523971,-6661.853478,383.047749
407.097730,6143.709319,-7254.018232,-383.047749
407.098052,4811.338623,-7476.080014,-1225.752797
407.098374,1998.556043,-7476.080014,-689.485948
407.098695,-1554.432478,-6957.935855,-612.876398
407.099017,-3923.091493,-9844.739029,-2757.943793
407.099339,-6587.832884,-13101.645173,-4826.401637
407.099661,-9030.512492,-14434.015869,-4366.744339
407.099982,-10066.800811,-14063.912898,-3753.867940
407.100304,-8290.306550,-13175.665768,-3370.820191
407.100626,-4811.338623,-12731.542202,-2987.772442
407.100947,-1924.535449,-11621.233289,-1991.848295
407.101269,296.082377,-8734.430116,-842.705048
407.101591,2146.597232,-7402.059420,-1072.533697
407.101913,3997.112087,-8660.409521,-1072.533697
407.102234,4737.318029,-8512.368333,-612.876398
407.102556,3330.926739,-6735.874072,229.828649
407.102878,3034.844362,-6069.688724,842.705048
407.103200,3330.926739,-8290.306550,536.266849
407.103521,2294.638420,-7846.182985,0.000000
407.103843,0.000000,-6809.894666,0.000000
407.104165,-1554.432478,-6587.832884,0.000000
407.104486,-2516.700203,-8216.285956,-1532.190996
407.104808,-4441.235652,-10288.862594,-2911.162892
407.105130,-6217.729913,-11843.295072,-1915.238745
407.105452,-7624.121203,-11695.253884,-919.314598
407.105773,-6069.688724,-11103.089130,-2221.676944
407.106095,-3182.885551,-11399.171507,-3217.601092
407.106417,-814.226536,-10807.006753,-1608.800546
407.106739,962.267725,-8586.388927,-306.438199
407.107060,3108.864956,-7698.141797,0.000000
407.107382,5255.462188,-8364.327145,-383.047749
407.107704,5699.585753,-8216.285956,0.000000
407.108026,4219.173869,-6809.894666,229.828649
407.108347,3330.926739,-5995.668130,-229.828649
407.108669,3034.844362,-7105.977043,-689.485948
407.108991,2368.659014,-7920.203579,-1532.190996
407.109313,518.144159,-7476.080014,-2221.676944
407.109635,-1110.308913,-7254.018232,-1991.848295
407.109957,-2146.597232,-9326.594869,-1685.410096
407.110279,-3404.947333,-11843.295072,-3294.210641
407.110600,-5625.565159,-12583.501014,-3600.648841
407.110922,-6809.894666,-11843.295072,-2911.162892
407.111244,-5403.503377,-12065.356855,-2987.772442
407.111566,-2516.700203,-12361.439231,-4213.525239
407.111888,222.061783,-11769.274478,-3830.477490
407.112210,1776.494261,-10362.883188,-1149.143247
407.112532,3182.885551,-9622.677246,306.438199
407.112853,4737.318029,-9178.553681,-689.485948
407.113175,5403.503377,-8586.388927,-2145.067394
407.113497,4589.276840,-7624.121203,-1838.629195
407.113819,3849.070898,-7254.018232,-1072.533697
407.114141,3701.029710,-7179.997637,-1302.362347
407.114463,3034.844362,-8586.388927,-1532.190996
407.114784,1258.350101,-9844.739029,-689.485948
407.115106,-1480.411884,-9400.615463,-842.705048
407.115428,-3034.844362,-10584.944971,-2221.676944
407.115750,-4071.132681,-12583.501014,-3907.087040
407.116072,-5551.544565,-12435.459826,-3524.039291
407.116394,-7031.956449,-10584.944971,-2604.724693
407.116716,-6143.709319,-9770.718434,-2221.676944
407.117037,-3627.009116,-10658.965565,-2528.115143
407.117359,-2220.617826,-10658.965565,-2145.067394
407.117681,-1036.288319,-9400.615463,-919.314598
407.118003,1184.329507,-8364.327145,383.047749
407.118325,3034.844362,-8216.285956,689.485948
407.118647,3923.091493,-7550.100608,76.609550
407.118969,2812.782580,-5921.647536,383.047749
407.119290,1998.556043,-5181.441594,383.047749
407.119612,2220.617826,-6069.688724,-1149.143247
407.119934,1776.494261,-7105.977043,-2068.457845
407.120256,444.123565,-7698.141797,-1149.143247
407.120578,-1184.329507,-8142.265362,0.000000
407.120900,-2590.720797,-9770.718434,-689.485948
407.121222,-4293.194464,-11547.212695,-1762.019645
407.121543,-6069.688724,-11695.253884,-2451.505594
407.121865,-7254.018232,-10658.965565,-2451.505594
407.122187,-6587.832884,-10140.821405,-2451.505594
407.122509,-4737.318029,-10288.862594,-2374.896044
407.122831,-2146.597232,-10436.903782,-1608.800546
407.123153,0.000000,-9622.677246,-536.266849
407.123474,2590.720797,-8882.471304,229.828649
407.123796,4811.338623,-8364.327145,153.219100
407.124118,4811.338623,-7772.162391,-766.095498
407.124440,3849.070898,-7772.162391,-1072.533697
407.124762,3849.070898,-8216.285956,-1302.362347
407.125084,4145.153275,-9252.574275,-2068.457845
407.125406,3627.009116,-9474.636058,-2604.724693
407.125727,1702.473667,-9474.636058,-1225.752797
407.126049,-740.205942,-9474.636058,-1455.581446
407.126371,-1776.494261,-11769.274478,-2834.553343
407.126693,-3256.906145,-13693.809927,-3983.696590
407.127015,-5255.462188,-13915.871710,-3753.867940
407.127337,-7031.956449,-11769.274478,-2451.505594
407.127659,-6365.771101,-10732.986159,-1915.238745
407.127980,-4071.132681,-11103.089130,-2221.676944
407.128302,-1850.514855,-10140.821405,-1762.019645
407.128624,0.000000,-8364.327145,-689.485948
407.128946,1702.473667,-6735.874072,-153.219100
407.129268,3701.029710,-7179.997637,459.657299
407.129590,4737.318029,-7846.182985,-153.219100
407.129912,4145.153275,-7772.162391,76.609550
407.130233,3552.988522,-7254.018232,76.609550
407.130555,3849.070898,-7772.162391,-995.924147
407.130877,4145.153275,-8216.285956,-2145.067394
407.131199,1776.494261,-8364.327145,-1685.410096
407.131521,-740.205942,-8660.409521,-536.266849
407.131843,-2516.700203,-9474.636058,-612.876398
407.132165,-3478.967927,-10510.924376,-2451.505594
407.132486,-4737.318029,-11251.130318,-3677.258390
407.132808,-6143.709319,-10658.965565,-2451.505594
407.133130,-5773.606348,-10436.903782,-995.924147
407.133452,-3849.070898,-9474.636058,-919.314598
407.133774,-1332.370696,-8882.471304,-306.438199
407.134096,444.123565,-7476.080014,0.000000
407.134417,2146.597232,-7179.997637,-612.876398
407.134739,2738.761985,-7105.977043,-536.266849
407.135061,2664.741391,-7994.224174,-842.705048
407.135383,2590.720797,-7846.182985,-689.485948
407.135705,2368.659014,-7624.121203,-612.876398
407.136027,2516.700203,-8290.306550,-1762.019645
407.136349,2960.823768,-8956.491898,-3217.601092
407.136670,1702.473667,-9252.574275,-2987.772442
407.136992,222.061783,-9992.780217,-2374.896044
407.137314,-1406.391290,-11325.150913,-2221.676944
407.137636,-3775.050304,-11251.130318,-3677.258390
407.137958,-5699.585753,-11991.336260,-3370.820191
407.138280,-6513.812290,-12509.480420,-3524.039291
407.138602,-5403.503377,-11695.253884,-3370.820191
407.138923,-3997.112087,-10732.986159,-2911.162892
407.139245,-1332.370696,-10288.862594,-842.705048
407.139567,1110.308913,-9030.512492,536.266849
407.139889,2516.700203,-8068.244768,-689.485948
407.140211,3997.112087,-8438.347739,-1762.019645
407.140533,4589.276840,-8660.409521,-1149.143247
407.140855,3701.029710,-7920.203579,-995.924147
407.141176,2368.659014,-8364.327145,-1762.019645
407.141498,2072.576638,-10066.800811,-995.924147
407.141820,1480.411884,-10658.965565,-1685.410096
407.142142,0.000000,-9918.759623,-2528.115143
407.142464,-1776.494261,-9548.656652,-1991.848295
407.142786,-3404.947333,-10732.986159,-1532.190996
407.143107,-5329.482782,-11473.192101,-3217.601092
407.143429,-7254.018232,-11325.150913,-2528.115143
407.143751,-7624.121203,-11177.109724,-1532.190996
407.144073,-6069.688724,-10214.842000,-1685.410096
407.144395,-4071.132681,-9252.574275,-1532.190996
407.144717,-1554.432478,-8290.306550,0.000000
407.145039,1036.288319,-7105.977043,1149.143247
407.145360,3775.050304,-7698.141797,689.485948
407.145682,5551.544565,-8142.265362,612.876398
407.146004,5329.482782,-7402.059420,1685.410096
407.146326,3552.988522,-5995.668130,2374.896044
407.146648,2442.679609,-4737.318029,459.657299
407.146970,2072.576638,-5699.585753,-1915.238745
407.147292,1702.473667,-7179.997637,-3370.820191
407.147613,148.041188,-8438.347739,-2451.505594
407.147935,-1702.473667,-9400.615463,-1149.143247
407.148257,-2590.720797,-11547.212695,-536.266849
407.148579,-4589.276840,-13175.665768,-1378.971896
407.148901,-6291.750507,-12953.603985,-2374.896044
407.149223,-7624.121203,-10955.047942,-3217.601092
407.149545,-6513.812290,-9622.677246,-3370.820191
407.149866,-4145.153275,-9326.594869,-3294.210641
407.150188,-1258.350101,-8512.368333,-1225.752797
407.150510,1406.391290,-7846.182985,-153.219100
407.150832,5255.462188,-8438.347739,229.828649
407.151154,7920.203579,-9770.718434,0.000000
407.151476,7476.080014,-9252.574275,0.000000
407.151798,5255.462188,-7179.997637,842.705048
407.152119,4145.153275,-6883.915261,0.000000
407.152441,3701.029710,-8512.368333,-2604.724693
407.152763,2146.597232,-9326.594869,-4213.525239
407.153085,-370.102971,-9548.656652,-3524.039291
407.153407,-2442.679609,-10955.047942,-2451.505594
407.153729,-2738.761985,-13249.686362,-1991.848295
407.154050,-3775.050304,-14508.036463,-3140.991542
407.154372,-5403.503377,-13915.871710,-3064.381992
407.154694,-7105.977043,-11695.253884,-2757.943793
407.155016,-5995.668130,-9918.759623,-3294.210641
407.155338,-4145.153275,-9326.594869,-3753.867940
407.155660,-3108.864956,-8808.450710,-2451.505594
407.155982,-2220.617826,-7994.224174,-459.657299
407.156303,444.123565,-7994.224174,383.047749
407.156625,2812.782580,-8660.409521,0.000000
407.156947,4441.235652,-8586.388927,0.000000
407.157269,3775.050304,-7772.162391,459.657299
407.157591,3404.947333,-6735.874072,0.000000
407.157913,3775.050304,-7254.018232,-1915.238745
407.158235,2812.782580,-7772.162391,-2834.553343
407.158556,888.247130,-8438.347739,-2068.457845
407.158878,-740.205942,-8586.388927,-1608.800546
407.159200,-1332.370696,-11251.130318,-1608.800546
407.159522,-2368.659014,-12583.501014,-2374.896044
407.159844,-3923.091493,-12583.501014,-1302.362347
407.160166,-5033.400406,-11473.192101,153.219100
407.160488,-4441.235652,-9918.759623,-229.828649
407.160809,-2886.803174,-9178.553681,-1532.190996
407.161131,-1480.411884,-7550.100608,-842.705048
407.161453,148.041188,-6365.771101,383.047749
407.161775,2072.576638,-5847.626942,919.314598
407.162097,3849.070898,-6735.874072,612.876398
407.162419,3997.112087,-7402.059420,842.705048
407.162740,2368.659014,-7402.059420,76.609550
407.163062,1406.391290,-7254.018232,-1302.362347
407.163384,1406.391290,-8216.285956,-2528.115143
407.163706,1554.432478,-9252.574275,-3217.601092
407.164028,148.041188,-9844.739029,-2834.553343
407.164350,-2146.597232,-9992.780217,-2298.286494
407.164672,-2516.700203,-12361.439231,-2757.943793
407.164993,-3849.070898,-13989.892304,-4060.306139
407.165315,-5033.400406,-13249.686362,-3294.210641
407.165637,-5255.462188,-11769.274478,-2834.553343
407.165959,-4219.173869,-10214.842000,-2451.505594
407.166281,-1776.494261,-9844.739029,-1838.629195
407.166603,296.082377,-8660.409521,-306.438199
407.166925,1776.494261,-7254.018232,459.657299
407.167246,3404.947333,-6809.894666,76.609550
407.167568,4663.297435,-7994.224174,0.000000
407.167890,4515.256246,-9030.512492,-229.828649
407.168212,3034.844362,-8882.471304,76.609550
407.168534,2294.638420,-8142.265362,-995.924147
407.168856,2146.597232,-9326.594869,-2221.676944
407.169178,1184.329507,-10066.800811,-3294.210641
407.169499,-1850.514855,-9844.739029,-3447.429741
407.169821,-4589.276840,-9844.739029,-3064.381992
407.170143,-5255.462188,-12213.398043,-3370.820191
407.170465,-5995.668130,-13545.768739,-4749.792088
407.170787,-6587.832884,-13323.706956,-3140.991542
407.171109,-7550.100608,-11843.295072,-612.876398
407.171431,-6513.812290,-10066.800811,-383.047749
407.171752,-3997.112087,-8956.491898,-766.095498
407.172074,-1110.308913,-8438.347739,-612.876398
407.172396,592.164754,-6809.894666,306.438199
407.172718,2812.782580,-5033.400406,1455.581446
407.173040,5329.482782,-5699.585753,1302.362347
407.173362,6365.771101,-7846.182985,1991.848295
407.173683,5033.400406,-6957.935855,1455.581446
407.174005,3552.988522,-5477.523971,-229.828649
407.174327,3849.070898,-6957.935855,-1608.800546
407.174649,4071.132681,-7994.224174,-3064.381992
407.174971,1628.453072,-8364.327145,-3140.991542
407.175293,-1480.411884,-8882.471304,-1532.190996
407.175615,-3478.967927,-11399.171507,-995.924147
407.175936,-5033.400406,-13101.645173,-3447.429741
407.176258,-6661.853478,-13175.665768,-4673.182538
407.176580,-8068.244768,-12583.501014,-3600.648841
407.176902,-6883.915261,-10807.006753,-2298.286494
407.177224,-4145.153275,-10066.800811,-1838.629195
407.177546,-962.267725,-9252.574275,-306.438199
407.177868,2146.597232,-7550.100608,1378.971896
407.178189,3997.112087,-5995.668130,536.266849
407.178511,6143.709319,-6217.729913,-459.657299
407.178833,6365.771101,-7031.956449,-229.828649
407.179155,5403.503377,-7179.997637,383.047749
407.179477,4589.276840,-7402.059420,-536.266849
407.179799,5255.462188,-9326.594869,-2221.676944
407.180121,4293.194464,-10658.965565,-3140.991542
407.180442,1924.535449,-11177.109724,-2987.772442
407.180764,-444.123565,-10955.047942,-3140.991542
407.181086,-1850.514855,-12213.398043,-3600.648841
407.181408,-3775.050304,-13545.768739,-3983.696590
407.181730,-6291.750507,-13989.892304,-4826.401637
407.182052,-7994.224174,-13471.748144,-3447.429741
407.182373,-7031.956449,-11843.295072,-2757.943793
407.182695,-5033.400406,-11103.089130,-2528.115143
407.183017,-2368.659014,-10955.047942,-842.705048
407.183339,-592.164754,-8438.347739,1302.362347
407.183661,1554.432478,-5847.626942,1991.848295
407.183983,4441.235652,-5921.647536,689.485948
407.184305,5921.647536,-5847.626942,-153.219100
407.184626,4737.318029,-5625.565159,0.000000
407.184948,2368.659014,-5107.421000,1072.533697
407.185270,1998.556043,-7105.977043,-306.438199
407.185592,2294.638420,-9474.636058,-3140.991542
407.185914,1110.308913,-10584.944971,-4060.306139
407.186236,-1924.535449,-10436.903782,-2757.943793
407.186558,-4145.153275,-11177.109724,-1685.410096
407.186879,-5773.606348,-12657.521608,-2451.505594
407.187201,-7105.977043,-12805.562797,-3830.477490
407.187523,-8512.368333,-10955.047942,-3524.039291
407.187845,-7550.100608,-9474.636058,-2374.896044
407.188167,-4737.318029,-9474.636058,-1762.019645
407.188489,-2072.576638,-8882.471304,76.609550
407.188811,296.082377,-6809.894666,1762.019645
407.189132,2886.803174,-5033.400406,2298.286494
407.189454,5329.482782,-5847.626942,842.705048
407.189776,5699.585753,-6217.729913,536.266849
407.190098,4515.256246,-5477.523971,1685.410096
407.190420,2368.659014,-5477.523971,0.000000
407.190742,3108.864956,-8216.285956,-2604.724693
407.191064,3256.906145,-9918.759623,-3524.039291
407.191385,1406.391290,-10584.944971,-3140.991542
407.191707,-962.267725,-11473.192101,-2604.724693
407.192029,-2368.659014,-12879.583391,-2451.505594
407.192351,-3627.009116,-14211.954086,-4366.744339
407.192673,-6143.709319,-13545.768739,-5592.497135
407.192995,-7254.018232,-12139.377449,-3983.696590
407.193316,-5403.503377,-10955.047942,-3217.601092
407.193638,-2368.659014,-10140.821405,-3217.601092
407.193960,666.185348,-10066.800811,-1838.629195
407.194282,2368.659014,-9030.512492,1838.629195
407.194604,3701.029710,-7550.100608,2451.505594
407.194926,5329.482782,-7105.977043,1149.143247
407.195248,6365.771101,-6587.832884,-306.438199
407.195569,5773.606348,-5773.606348,-1225.752797
407.195891,4515.256246,-5921.647536,-1225.752797
407.196213,4071.132681,-8142.265362,-919.314598
407.196535,3627.009116,-10881.027347,-1838.629195
407.196857,1702.473667,-11843.295072,-2528.115143
407.197179,-1036.288319,-11103.089130,-2374.896044
407.197501,-3034.844362,-11251.130318,-3753.867940
407.197822,-4885.359217,-13249.686362,-5056.230287
407.198144,-7105.977043,-13471.748144,-4826.401637
407.198466,-9252.574275,-11177.109724,-3217.601092
407.198788,-8142.265362,-10140.821405,-2451.505594
407.199110,-5477.523971,-10732.986159,-2451.505594
407.199432,-2664.741391,-11103.089130,-1915.238745
407.199754,-740.205942,-9400.615463,459.657299
407.200075,1776.494261,-7105.977043,2451.505594
407.200397,4737.318029,-5921.647536,3217.601092
407.200719,5995.668130,-4885.359217,1685.410096
407.201041,5033.400406,-4589.276840,612.876398
407.201363,3552.988522,-4737.318029,76.609550
407.201685,2738.761985,-6587.832884,0.000000
407.202006,2220.617826,-8586.388927,-1072.533697
407.202328,1258.350101,-9548.656652,-1838.629195
407.202650,-296.082377,-10214.842000,-1762.019645
407.202972,-2072.576638,-11621.233289,-1762.019645
407.203294,-4811.338623,-12953.603985,-2451.505594
407.203616,-7624.121203,-12805.562797,-3447.429741
407.203938,-8956.491898,-11399.171507,-3370.820191
407.204259,-8660.409521,-9770.718434,-4826.401637
407.204581,-5995.668130,-10881.027347,-3983.696590
407.204903,-2960.823768,-10881.027347,-1455.581446
407.205225,-222.061783,-9474.636058,766.095498
407.205547,2812.782580,-7179.997637,1149.143247
407.205869,6513.812290,-6661.853478,1455.581446
407.206191,6957.935855,-7105.977043,536.266849
407.206512,5625.565159,-6217.729913,0.000000
407.206834,3627.009116,-5403.503377,-153.219100
407.207156,3478.967927,-7328.038826,-1455.581446
407.207478,3775.050304,-9844.739029,-2451.505594
407.207800,1850.514855,-9992.780217,-2834.553343
407.208122,-888.247130,-10140.821405,-2374.896044
407.208443,-1924.535449,-12435.459826,-2604.724693
407.208765,-2886.803174,-14211.954086,-4290.134789
407.209087,-4811.338623,-13027.624579,-4903.011187
407.209409,-7105.977043,-11103.089130,-3524.039291
407.209730,-6587.832884,-10288.862594,-3370.820191
407.210052,-4737.318029,-11621.233289,-3753.867940
407.210374,-2442.679609,-11843.295072,-2298.286494
407.210696,0.000000,-10584.944971,306.438199
407.211017,2812.782580,-8364.327145,919.314598
407.211339,5699.585753,-7846.182985,536.266849
407.211661,7105.977043,-7846.182985,1302.362347
407.211983,6217.729913,-5921.647536,1608.800546
407.212305,4885.359217,-3701.029710,919.314598
407.212626,3997.112087,-5033.400406,-153.219100
407.212948,2590.720797,-8068.244768,-1685.410096
407.213270,-222.061783,-9918.759623,-3294.210641
407.213592,-2960.823768,-9474.636058,-2528.115143
407.213913,-3923.091493,-10140.821405,-2451.505594
407.214235,-3701.029710,-12953.603985,-3600.648841
407.214557,-6217.729913,-13397.727550,-4213.525239
407.214879,-8882.471304,-11843.295072,-3064.381992
407.215200,-8808.450710,-9918.759623,-2451.505594
407.215522,-5847.626942,-9622.677246,-3294.210641
407.215844,-2220.617826,-9326.594869,-3830.477490
407.216166,518.144159,-8364.327145,-1608.800546
407.216488,2664.741391,-7179.997637,1302.362347
407.216809,5625.565159,-7402.059420,2987.772442
407.217131,7550.100608,-7698.141797,2451.505594
407.217453,6957.935855,-6291.750507,1532.190996
407.217775,5033.400406,-4515.256246,0.000000
407.218096,4441.235652,-6291.750507,-1532.190996
407.218418,3701.029710,-8660.409521,-1915.238745
407.218740,2072.576638,-9770.718434,-1762.019645
407.219062,-444.123565,-9474.636058,-1838.629195
407.219383,-2368.659014,-10436.903782,-2068.457845
407.219705,-3849.070898,-14137.933492,-3294.210641
407.220027,-7105.977043,-15174.221811,-4519.963438
407.220349,-9548.656652,-13027.624579,-4903.011187
407.220671,-8734.430116,-11103.089130,-4673.182538
407.220992,-4885.359217,-11621.233289,-3983.696590
407.221314,-1628.453072,-11473.192101,-2528.115143
407.221636,-518.144159,-9474.636058,-1455.581446
407.221958,962.267725,-7994.224174,612.876398
407.222279,3330.926739,-9030.512492,1455.581446
407.222601,4737.318029,-9326.594869,0.000000
407.222923,4367.215058,-6809.894666,-536.266849
407.223245,3627.009116,-5699.585753,-459.657299
407.223566,3552.988522,-6661.853478,153.219100
407.223888,3849.070898,-8512.368333,-689.485948
407.224210,3108.864956,-8956.491898,-2451.505594
407.224532,1110.308913,-9030.512492,-2757.943793
407.224854,-1184.329507,-10584.944971,-1532.190996
407.225175,-4293.194464,-13471.748144,-1991.848295
407.225497,-7698.141797,-13101.645173,-2834.553343
407.225819,-9770.718434,-10881.027347,-3983.696590
407.226141,-9326.594869,-9992.780217,-4673.182538
407.226462,-6513.812290,-10658.965565,-3830.477490
407.226784,-3478.967927,-10658.965565,-2451.505594
407.227106,-1184.329507,-9696.697840,-306.438199
407.227428,2146.597232,-9252.574275,2374.896044
407.227750,5033.400406,-8290.306550,3217.601092
407.228071,5847.626942,-6217.729913,2068.457845
407.228393,4885.359217,-3775.050304,-306.438199
407.228715,3701.029710,-3849.070898,0.000000
407.229037,2886.803174,-5847.626942,459.657299
407.229358,1776.494261,-7698.141797,76.609550
407.229680,888.247130,-8660.409521,-306.438199
407.230002,518.144159,-9104.533087,-1072.533697
407.230324,0.000000,-10362.883188,-1685.410096
407.230645,-1998.556043,-11251.130318,-2145.067394
407.230967,-4515.256246,-11769.274478,-2528.115143
407.231289,-7698.141797,-10955.047942,-3294.210641
407.231611,-8438.347739,-11177.109724,-4213.525239
407.231933,-7254.018232,-11399.171507,-4366.744339
407.232254,-4589.276840,-10807.006753,-3677.258390
407.232576,-1332.370696,-9992.780217,-2374.896044
407.232898,2886.803174,-9104.533087,-459.657299
407.233220,7031.956449,-8290.306550,1378.971896
407.233541,8660.409521,-8290.306550,1225.752797
407.233863,7772.162391,-7550.100608,1072.533697
407.234185,5625.565159,-6365.771101,766.095498
407.234507,4663.297435,-6439.791695,-1378.971896
407.234828,3849.070898,-8364.327145,-3600.648841
407.235150,1998.556043,-9474.636058,-2757.943793
407.235472,74.020594,-9770.718434,-1532.190996
407.235794,-1258.350101,-10955.047942,-1838.629195
407.236116,-1998.556043,-12657.521608,-2987.772442
407.236437,-3997.112087,-13693.809927,-3983.696590
407.236759,-6957.935855,-12953.603985,-4213.525239
407.237081,-7772.162391,-11177.109724,-3753.867940
407.237403,-5773.606348,-12139.377449,-3983.696590
407.237724,-3182.885551,-12213.398043,-3600.648841
407.238046,-1332.370696,-11325.150913,-995.924147
407.238368,296.082377,-9104.533087,1762.019645
407.238690,2960.823768,-7624.121203,1685.410096
407.239011,4737.318029,-7994.224174,689.485948
407.239333,4293.194464,-6883.915261,-229.828649
407.239655,2886.803174,-5033.400406,-383.047749
407.239977,3034.844362,-5921.647536,-383.047749
407.240299,3404.947333,-8512.368333,-766.095498
407.240620,1924.535449,-9474.636058,-383.047749
407.240942,-296.082377,-8216.285956,459.657299
407.241264,-1702.473667,-7624.121203,-995.924147
407.241586,-3034.844362,-9622.677246,-3370.820191
407.241907,-5921.647536,-12953.603985,-3830.477490
407.242229,-9104.533087,-12435.459826,-2298.286494
407.242551,-10658.965565,-9844.739029,-1915.238745
407.242873,-7920.203579,-9918.759623,-2374.896044
407.243194,-4145.153275,-10807.006753,-2374.896044
407.243516,-1702.473667,-9400.615463,-919.314598
407.243838,592.164754,-6291.750507,383.047749
407.244160,3997.112087,-5699.585753,1762.019645
407.244482,6365.771101,-6587.832884,1915.238745
407.244803,5699.585753,-6439.791695,1302.362347
407.245125,3256.906145,-5921.647536,536.266849
407.245447,2368.659014,-7624.121203,0.000000
407.245769,2664.741391,-9400.615463,-1072.533697
407.246090,1776.494261,-9696.697840,-2068.457845
407.246412,-222.061783,-9104.533087,-1608.800546
407.246734,-1628.453072,-10436.903782,-689.485948
407.247056,-3182.885551,-12731.542202,-1991.848295
407.247377,-5773.606348,-12657.521608,-3294.210641
407.247699,-7698.141797,-11325.150913,-4060.306139
407.248021,-7698.141797,-10436.903782,-4060.306139
407.248343,-6069.688724,-11177.109724,-3830.477490
407.248665,-3923.091493,-11103.089130,-2528.115143
407.248986,-1110.308913,-10066.800811,-383.047749
407.249308,1924.535449,-9622.677246,0.000000
407.249630,4589.276840,-9178.553681,459.657299
407.249952,5773.606348,-8808.450710,-383.047749
407.250273,6291.750507,-7402.059420,-919.314598
407.250595,5477.523971,-6587.832884,-842.705048
407.250917,5477.523971,-7105.977043,-1225.752797
407.251239,4811.338623,-8808.450710,-1685.410096
407.251561,3108.864956,-9474.636058,-2681.334243
407.251882,740.205942,-10140.821405,-3064.381992
407.252204,-1036.288319,-11843.295072,-2604.724693
407.252526,-2812.782580,-13545.768739,-2528.115143
407.252848,-5625.565159,-13767.830521,-3294.210641
407.253169,-8512.368333,-11547.212695,-2528.115143
407.253491,-8808.450710,-9474.636058,-2145.067394
407.253813,-6661.853478,-9400.615463,-2834.553343
407.254135,-3478.967927,-9030.512492,-3064.381992
407.254456,-888.247130,-8290.306550,-1991.848295
407.254778,1332.370696,-7698.141797,229.828649
407.255100,4145.153275,-7920.203579,2374.896044
407.255422,6365.771101,-7698.141797,2068.457845
407.255744,6513.812290,-5921.647536,0.000000
407.256065,5551.544565,-5255.462188,-229.828649
407.256387,4737.318029,-6957.935855,0.000000
407.256709,3552.988522,-7846.182985,-919.314598
407.257031,2146.597232,-8808.450710,-2068.457845
407.257352,592.164754,-9474.636058,-1302.362347
407.257674,-1036.288319,-9992.780217,-766.095498
407.257996,-2442.679609,-10807.006753,-2298.286494
407.258318,-5551.544565,-11695.253884,-3140.991542
407.258639,-8068.244768,-11991.336260,-2528.115143
407.258961,-9252.574275,-11103.089130,-2604.724693
407.259283,-7772.162391,-10140.821405,-2834.553343
407.259605,-4737.318029,-9844.739029,-2757.943793
407.259927,-2072.576638,-7994.224174,-1991.848295
407.260248,814.226536,-7328.038826,-919.314598
407.260570,3701.029710,-8586.388927,536.266849
407.260892,5181.441594,-9400.615463,1149.143247
407.261214,5181.441594,-8586.388927,-459.657299
407.261535,4737.318029,-8364.327145,-1915.238745
407.261857,4219.173869,-8660.409521,-1991.848295
407.262179,3627.009116,-9252.574275,-1991.848295
407.262501,2072.576638,-9474.636058,-2374.896044
407.262822,296.082377,-10510.924376,-2528.115143
407.263144,-1406.391290,-11917.315666,-2374.896044
407.263466,-2516.700203,-13915.871710,-2681.334243
407.263788,-4515.256246,-13175.665768,-3140.991542
407.264110,-6439.791695,-11843.295072,-2451.505594
407.264431,-7402.059420,-10510.924376,-2221.676944
407.264753,-6883.915261,-10288.862594,-1762.019645
407.265075,-4885.359217,-9400.615463,-1915.238745
407.265397,-2146.597232,-9252.574275,-1455.581446
407.265718,444.123565,-9178.553681,0.000000
407.266040,2590.720797,-8438.347739,1685.410096
407.266362,4737.318029,-7105.977043,1608.800546
407.266684,5625.565159,-6587.832884,229.828649
407.267005,4959.379811,-6883.915261,0.000000
407.267327,3997.112087,-7105.977043,-536.266849
407.267649,2886.803174,-7328.038826,-1991.848295
407.267971,2146.597232,-9030.512492,-2451.505594
407.268293,814.226536,-10140.821405,-1685.410096
407.268614,-814.226536,-10955.047942,-995.924147
407.268936,-3256.906145,-11399.171507,-1455.581446
407.269258,-6069.688724,-12065.356855,-2068.457845
407.269580,-8586.388927,-11251.130318,-2068.457845
407.269901,-9844.739029,-9696.697840,-2528.115143
407.270223,-9030.512492,-8660.409521,-2145.067394
407.270545,-6661.853478,-7846.182985,-1532.190996
407.270867,-3997.112087,-7105.977043,0.000000
407.271189,-1628.453072,-6217.729913,995.924147
407.271510,1924.535449,-5921.647536,1762.019645
407.271832,4367.215058,-6587.832884,766.095498
407.272154,4441.235652,-7031.956449,306.438199
407.272476,2516.700203,-7105.977043,383.047749
407.272797,2368.659014,-7550.100608,-842.705048
407.273119,2664.741391,-9992.780217,-3600.648841
407.273441,2072.576638,-11103.089130,-4443.353888
407.273763,0.000000,-11473.192101,-2757.943793
407.274084,-2590.720797,-11843.295072,-919.314598
407.274406,-3997.112087,-12435.459826,-2528.115143
407.274728,-6217.729913,-12657.521608,-4903.011187
407.275050,-8586.388927,-11769.274478,-4673.182538
407.275372,-10066.800811,-10732.986159,-3983.696590
407.275693,-8512.368333,-10288.862594,-3447.429741
407.276015,-5921.647536,-10362.883188,-2451.505594
407.276337,-3849.070898,-9474.636058,229.828649
407.276659,-2072.576638,-7179.997637,1225.752797
407.276980,740.205942,-6439.791695,-306.438199
407.277302,3034.844362,-7698.141797,-2374.896044
407.277624,3404.947333,-9252.574275,-1225.752797
407.277946,1406.391290,-8216.285956,-229.828649
407.278267,-222.061783,-7994.224174,-1225.752797
407.278589,-592.164754,-9178.553681,-2987.772442
407.278911,-1480.411884,-10955.047942,-4826.401637
407.279233,-3552.988522,-12065.356855,-4673.182538
407.279555,-5477.523971,-12435.459826,-3447.429741
407.279876,-6513.812290,-12361.439231,-2298.286494
407.280198,-6957.935855,-11843.295072,-3140.991542
407.280520,-7698.141797,-11325.150913,-2987.772442
407.280842,-9326.594869,-10436.903782,-2221.676944
407.281163,-11103.089130,-8808.450710,-1685.410096
407.281485,-11399.171507,-7624.121203,-1072.533697
407.281807,-9326.594869,-7698.141797,-766.095498
407.282129,-5995.668130,-7402.059420,-766.095498
407.282450,-2886.803174,-8068.244768,-153.219100
407.282772,-296.082377,-7994.224174,1302.362347
407.283094,2294.638420,-6291.750507,1991.848295
407.283416,4515.256246,-5773.606348,842.705048
407.283738,4811.338623,-5551.544565,0.000000
407.284059,2294.638420,-6143.709319,76.609550
407.284381,-1554.432478,-7105.977043,-1225.752797
407.284703,-4737.318029,-9770.718434,-2604.724693
407.285025,-6587.832884,-12065.356855,-3600.648841
407.285346,-7994.224174,-11695.253884,-4366.744339
407.285668,-7994.224174,-10955.047942,-3677.258390
407.285990,-7105.977043,-10658.965565,-2987.772442
407.286312,-6217.729913,-10510.924376,-2681.334243
407.286633,-6143.709319,-10436.903782,-1915.238745
407.286955,-5699.585753,-9474.636058,-995.924147
407.287277,-4737.318029,-8660.409521,-1378.971896
407.287599,-4441.235652,-8216.285956,-689.485948
407.287921,-3923.091493,-9474.636058,689.485948
407.288242,-2960.823768,-9918.759623,1991.848295
407.288564,-1332.370696,-9474.636058,1685.410096
407.288886,1184.329507,-9252.574275,689.485948
407.289208,2960.823768,-7994.224174,153.219100
407.289529,3182.885551,-6735.874072,-612.876398
407.289851,2368.659014,-6883.915261,-612.876398
407.290173,1258.350101,-7624.121203,-1072.533697
407.290495,-222.061783,-8142.265362,-3294.210641
407.290816,-1184.329507,-8956.491898,-5669.106685
407.291138,-2368.659014,-10955.047942,-6128.763984
407.291460,-3849.070898,-12435.459826,-4903.011187
407.291782,-5329.482782,-12361.439231,-4136.915689
407.292104,-5255.462188,-12435.459826,-3983.696590
407.292425,-4959.379811,-12213.398043,-3447.429741
407.292747,-4071.132681,-12361.439231,-3677.258390
407.293069,-4589.276840,-10732.986159,-3753.867940
407.293391,-5033.400406,-9030.512492,-2068.457845
407.293712,-5033.400406,-8068.244768,0.000000
407.294034,-4663.297435,-7402.059420,766.095498
407.294356,-4071.132681,-6587.832884,383.047749
407.294678,-2960.823768,-6735.874072,76.609550
407.295000,-1110.308913,-7846.182985,-306.438199
407.295321,0.000000,-8290.306550,1378.971896
407.295643,1776.494261,-6661.853478,3064.381992
407.295965,3701.029710,-6217.729913,612.876398
407.296287,5255.462188,-7920.203579,-3907.087040
407.296608,4293.194464,-10807.006753,-5132.839837
407.296930,888.247130,-12731.542202,-2451.505594
407.297252,-4811.338623,-14285.974681,-153.219100
407.297574,-8290.306550,-15026.180623,76.609550
407.297895,-10436.903782,-12435.459826,-2145.067394
407.298217,-10807.006753,-9178.553681,-5515.887586
407.298539,-11177.109724,-7476.080014,-5898.935335
407.298861,-11843.295072,-6661.853478,-2911.162892
407.299183,-11695.253884,-4959.379811,-1072.533697
407.299504,-9770.718434,-4811.338623,-1608.800546
407.299826,-6291.750507,-7105.977043,-2145.067394
407.300148,-4811.338623,-10066.800811,-2834.553343
407.300470,-5181.441594,-11177.109724,-1378.971896
407.300791,-4441.235652,-10214.842000,-153.219100
407.301113,-740.205942,-8660.409521,-919.314598
407.301435,2442.679609,-8882.471304,-2451.505594
407.301757,2590.720797,-8438.347739,-2451.505594
407.302078,1036.288319,-8068.244768,-2374.896044
407.302400,-444.123565,-8956.491898,-2451.505594
407.302722,-1036.288319,-11621.233289,-2374.896044
407.303044,-2812.782580,-13101.645173,-1072.533697
407.303366,-4885.359217,-13175.665768,0.000000
407.303687,-6513.812290,-12139.377449,459.657299
407.304009,-7105.977043,-10362.883188,306.438199
407.304331,-6809.894666,-7624.121203,0.000000
407.304653,-5477.523971,-4885.359217,-1149.143247
407.304974,-3404.947333,-4219.173869,-2528.115143
407.305296,-2886.803174,-5107.421000,-2298.286494
407.305618,-2516.700203,-7031.956449,-383.047749
407.305940,-2738.761985,-7698.141797,-995.924147
407.306261,-1924.535449,-9696.697840,-3600.648841
407.306583,-1480.411884,-12805.562797,-4826.401637
407.306905,-2294.638420,-14211.954086,-3447.429741
407.307227,-3701.029710,-13175.665768,-2145.067394
407.307549,-3701.029710,-12509.480420,-1991.848295
407.307870,-2368.659014,-12583.501014,-2528.115143
407.308192,-2812.782580,-11325.150913,-1915.238745
407.308514,-4367.215058,-8956.491898,-689.485948
407.308836,-5477.523971,-7105.977043,229.828649
407.309157,-4885.359217,-5921.647536,-153.219100
407.309479,-3330.926739,-5773.606348,-1685.410096
407.309801,-2220.617826,-5847.626942,-2145.067394
407.310123,-1924.535449,-7105.977043,-919.314598
407.310444,-1406.391290,-8142.265362,0.000000
407.310766,-1258.350101,-8364.327145,-306.438199
407.311088,-1184.329507,-8438.347739,-1762.019645
407.311410,-1480.411884,-9548.656652,-3447.429741
407.311732,-2664.741391,-11399.171507,-3907.087040
407.312054,-3478.967927,-14434.015869,-2528.115143
407.312375,-3775.050304,-16506.592507,-306.438199
407.312697,-3182.885551,-15544.324782,919.314598
407.313019,-1998.556043,-12583.501014,1455.581446
407.313341,74.020594,-9918.759623,1072.533697
407.313663,962.267725,-7772.162391,2298.286494
407.313984,740.205942,-6513.812290,2757.943793
407.314306,0.000000,-5477.523971,3064.381992
407.314628,-1332.370696,-4737.318029,3064.381992
407.314950,-3627.009116,-5181.441594,2911.162892
407.315272,-7402.059420,-4145.153275,2451.505594
407.315594,-9400.615463,-3478.967927,0.000000
407.315915,-8068.244768,-4811.338623,-5362.668486
407.316237,-6661.853478,-6883.915261,-7277.907231
407.316559,-6587.832884,-8216.285956,-5362.668486
407.316881,-6513.812290,-11399.171507,-3753.867940
407.317203,-6143.709319,-16210.510130,-3294.210641
407.317524,-5773.606348,-17987.004391,-3370.820191
407.317846,-5329.482782,-17172.777854,-4826.401637
407.318168,-3849.070898,-14952.160028,-3907.087040
407.318490,-2442.679609,-12139.377449,-842.705048
407.318812,-2146.597232,-8512.368333,2221.676944
407.319133,-2368.659014,-4737.318029,3830.477490
407.319455,-1332.370696,-2886.803174,4519.963438
407.319777,-962.267725,-3182.885551,2757.943793
407.320099,-370.102971,-4663.297435,919.314598
407.320421,-222.061783,-7179.997637,1455.581446
407.320743,-666.185348,-9992.780217,2834.553343
407.321064,-444.123565,-11917.315666,3217.601092
407.321386,1184.329507,-12065.356855,919.314598
407.321708,2146.597232,-9918.759623,-1991.848295
407.322030,2146.597232,-9252.574275,-4060.306139
407.322352,1036.288319,-12139.377449,-3753.867940
407.322673,518.144159,-16136.489536,-2834.553343
407.322995,518.144159,-16580.613101,-2451.505594
407.323317,888.247130,-16210.510130,-1072.533697
407.323639,1998.556043,-14508.036463,1532.190996
407.323961,2072.576638,-11621.233289,2145.067394
407.324282,444.123565,-7550.100608,1991.848295
407.324604,-1110.308913,-4441.235652,3983.696590
407.324926,-888.247130,-2738.761985,4290.134789
407.325248,222.061783,-296.082377,1838.629195
407.325570,1702.473667,-222.061783,-766.095498
407.325892,1776.494261,-4441.235652,2068.457845
407.326213,962.267725,-7105.977043,4213.525239
407.326535,1036.288319,-8438.347739,2145.067394
407.326857,2220.617826,-11325.150913,-2451.505594
407.327179,2368.659014,-12583.501014,-4826.401637
407.327501,740.205942,-11843.295072,-4290.134789
407.327822,-1258.350101,-14730.098246,-2298.286494
407.328144,-2590.720797,-16950.716072,229.828649
407.328466,-3256.906145,-16136.489536,-459.657299
407.328788,-3552.988522,-13693.809927,-1608.800546
407.329110,-3108.864956,-13027.624579,1838.629195
407.329432,-2738.761985,-12361.439231,4366.744339
407.329753,-3182.885551,-9918.759623,4903.011187
407.330075,-3552.988522,-7476.080014,7201.297681
407.330397,-3108.864956,-6217.729913,8197.221829
407.330719,-2590.720797,-5699.585753,5132.839837
407.331041,-3404.947333,-7105.977043,3064.381992
407.331362,-3330.926739,-7105.977043,5439.278036
407.331684,-444.123565,-7105.977043,5209.449386
407.332006,4071.132681,-7105.977043,1685.410096
407.332328,6069.688724,-4959.379811,612.876398
407.332650,5625.565159,-3182.885551,536.266849
407.332971,3478.967927,-7920.203579,-2374.896044
407.333293,1332.370696,-14063.912898,-3294.210641
407.333615,-2442.679609,-15470.304188,-3907.087040
407.333937,-8364.327145,-15100.201217,-3294.210641
407.334259,-12065.356855,-17542.880825,459.657299
407.334581,-12435.459826,-17172.777854,3370.820191
407.334902,-12879.583391,-11991.336260,2528.115143
407.335224,-11547.212695,-9696.697840,2068.457845
407.335546,-8438.347739,-9992.780217,4979.620737
407.335868,-6883.915261,-10066.800811,7660.954980
407.336190,-5181.441594,-4589.276840,9959.241474
407.336511,-2590.720797,666.185348,11951.089769
407.336833,2664.741391,1924.535449,8197.221829
407.337155,7994.224174,-888.247130,2451.505594
407.337477,10955.047942,-1924.535449,459.657299
407.337799,9400.615463,-3923.091493,1915.238745
407.338120,7920.203579,-11325.150913,4519.963438
407.338442,5995.668130,-18431.127956,6281.983084
407.338764,2516.700203,-20577.725188,1149.143247
407.339086,-1924.535449,-18061.024985,-3753.867940
407.339408,-3108.864956,-18061.024985,-2451.505594
407.339730,-2886.803174,-15174.221811,-536.266849
407.340051,-3404.947333,-7550.100608,-306.438199
407.340373,-2664.741391,-1850.514855,0.000000
407.340695,-1110.308913,-3923.091493,2757.943793
407.341017,-1184.329507,-7698.141797,3753.867940
407.341339,-3997.112087,-7698.141797,3140.991542
407.341660,-4515.256246,-7328.038826,2987.772442
407.341982,-740.205942,-9918.759623,3370.820191
407.342304,1850.514855,-11991.336260,5439.278036
407.342626,1776.494261,-7772.162391,7124.688131
407.342948,5033.400406,-2664.741391,3753.867940
407.343269,10584.944971,-4589.276840,-3907.087040
407.343591,12139.377449,-6365.771101,-5822.325785
407.343913,6217.729913,-7254.018232,-2528.115143
407.344235,-592.164754,-12657.521608,-536.266849
407.344557,-3256.906145,-20281.642811,-1072.533697
407.344879,-5255.462188,-22206.178260,-4290.134789
407.345200,-7105.977043,-19615.457463,-7354.516781
407.345522,-5921.647536,-14952.160028,-5362.668486
407.345844,-3182.885551,-11399.171507,-1762.019645
407.346166,-1924.535449,-8364.327145,536.266849
407.346488,-740.205942,-5255.462188,3294.210641
407.346809,1258.350101,-5699.585753,2604.724693
407.347131,1924.535449,-8216.285956,-612.876398
407.347453,444.123565,-10288.862594,1302.362347
407.347775,1036.288319,-7698.141797,5286.058936
407.348097,3627.009116,-5995.668130,2298.286494
407.348419,6439.791695,-8364.327145,-1072.533697
407.348740,6143.709319,-9844.739029,842.705048
407.349062,592.164754,-9400.615463,2374.896044
407.349384,-5699.585753,-9178.553681,1991.848295
407.349706,-8734.430116,-9400.615463,0.000000
407.350028,-9178.553681,-9178.553681,-4673.182538
407.350349,-9992.780217,-8956.491898,-9422.974625
407.350671,-10732.986159,-10955.047942,-5669.106685
407.350993,-8956.491898,-14063.912898,0.000000
407.351315,-5921.647536,-13989.892304,383.047749
407.351637,-3182.885551,-13027.624579,842.705048
407.351958,-1850.514855,-12879.583391,2987.772442
407.352280,-740.205942,-9696.697840,3677.258390
407.352602,1628.453072,-3627.009116,2068.457845
407.352924,5255.462188,296.082377,306.438199
407.353246,8660.409521,0.000000,2298.286494
407.353568,8734.430116,-3034.844362,6435.202183
407.353889,4589.276840,-6883.915261,8197.221829
407.354211,0.000000,-10214.842000,7737.564530
407.354533,-1924.535449,-13693.809927,4903.011187
407.354855,-3627.009116,-14656.077652,919.314598
407.355177,-4515.256246,-13027.624579,-153.219100
407.355498,-4441.235652,-9770.718434,766.095498
407.355820,-3108.864956,-8216.285956,1838.629195
407.356142,-1850.514855,-7994.224174,2374.896044
407.356464,-2220.617826,-9030.512492,1915.238745
407.356786,-3330.926739,-9474.636058,229.828649
407.357107,-3404.947333,-12213.398043,-842.705048
407.357429,-3552.988522,-14063.912898,689.485948
407.357751,-2590.720797,-12805.562797,3217.601092
407.358073,-666.185348,-10362.883188,4213.525239
407.358395,1924.535449,-8734.430116,4519.963438
407.358717,4145.153275,-7328.038826,4673.182538
407.359038,5329.482782,-6809.894666,3753.867940
407.359360,5773.606348,-6291.750507,2681.334243
407.359682,6217.729913,-7105.977043,2451.505594
407.360004,6217.729913,-8956.491898,3294.210641
407.360326,4959.379811,-10140.821405,4213.525239
407.360647,1924.535449,-10510.924376,3370.820191
407.360969,-1184.329507,-10510.924376,842.705048
407.361291,-3034.844362,-11917.315666,-1685.410096
407.361613,-3997.112087,-13841.851115,-2221.676944
407.361935,-4885.359217,-14582.057057,-766.095498
407.362257,-3775.050304,-14285.974681,766.095498
407.362578,-2294.638420,-12879.583391,2068.457845
407.362900,-370.102971,-11325.150913,2451.505594
407.363222,296.082377,-9770.718434,1762.019645
407.363544,-444.123565,-7254.018232,1302.362347
407.363866,-1258.350101,-6217.729913,1072.533697
407.364187,-1850.514855,-6661.853478,2221.676944
407.364509,-1406.391290,-8216.285956,2757.943793
407.364831,592.164754,-8882.471304,2298.286494
407.365153,2738.761985,-8512.368333,1608.800546
407.365475,4219.173869,-7550.100608,1608.800546
407.365796,4885.359217,-6883.915261,2145.067394
407.366118,3775.050304,-5995.668130,842.705048
407.366440,444.123565,-6291.750507,-1685.410096
407.366762,-3404.947333,-8438.347739,-3370.820191
407.367084,-6513.812290,-9992.780217,-3830.477490
407.367406,-7846.182985,-12139.377449,-4673.182538
407.367727,-7994.224174,-12953.603985,-4749.792088
407.368049,-6439.791695,-13175.665768,-3830.477490
407.368371,-4071.132681,-12583.501014,-2145.067394
407.368693,-1702.473667,-11473.192101,-689.485948
407.369015,-518.144159,-9548.656652,229.828649
407.369336,-1036.288319,-7402.059420,0.000000
407.369658,-2368.659014,-6143.709319,0.000000
407.369980,-2960.823768,-5847.626942,-766.095498
407.370302,-1184.329507,-5403.503377,-995.924147
407.370624,2146.597232,-6217.729913,-1455.581446
407.370945,5403.503377,-9104.533087,-1685.410096
407.371267,6587.832884,-11251.130318,383.047749
407.371589,6365.771101,-10510.924376,2451.505594
407.371911,4145.153275,-9178.553681,1378.971896
407.372233,1998.556043,-7254.018232,-2221.676944
407.372555,-740.205942,-5107.421000,-6281.983084
407.372876,-3478.967927,-5181.441594,-9806.022374
407.373198,-5477.523971,-9844.739029,-8963.317327
407.373520,-6883.915261,-15100.201217,-4903.011187
407.373842,-7179.997637,-18135.045579,-1378.971896
407.374164,-5625.565159,-18357.107362,-536.266849
407.374485,-2516.700203,-17172.777854,-2221.676944
407.374807,-1036.288319,-13397.727550,-3294.210641
407.375129,-296.082377,-7772.162391,-1915.238745
407.375451,-222.061783,-2886.803174,-153.219100
407.375773,1776.494261,-2220.617826,306.438199
407.376094,2886.803174,-4145.153275,383.047749
407.376416,3256.906145,-7105.977043,1302.362347
407.376738,3182.885551,-9252.574275,1302.362347
407.377060,4589.276840,-11325.150913,1762.019645
407.377382,6217.729913,-11473.192101,689.485948
407.377704,5921.647536,-8956.491898,-536.266849
407.378025,4589.276840,-6957.935855,-1225.752797
407.378347,1628.453072,-5921.647536,-2757.943793
407.378669,-1184.329507,-7846.182985,-4979.620737
407.378991,-4145.153275,-9992.780217,-6128.763984
407.379313,-6069.688724,-13027.624579,-4749.792088
407.379634,-5847.626942,-16062.468941,-2298.286494
407.379956,-4737.318029,-16358.551318,383.047749
407.380278,-3775.050304,-13545.768739,1302.362347
407.380600,-2664.741391,-9326.594869,1608.800546
407.380922,-2146.597232,-5181.441594,766.095498
407.381244,-1776.494261,-2442.679609,0.000000
407.381565,-814.226536,-2368.659014,-153.219100
407.381887,814.226536,-4145.153275,1378.971896
407.382209,2960.823768,-7328.038826,2221.676944
407.382531,4589.276840,-10288.862594,2911.162892
407.382853,4811.338623,-11695.253884,3370.820191
407.383174,4737.318029,-10510.924376,766.095498
407.383496,3478.967927,-8142.265362,-1532.190996
407.383818,2220.617826,-7254.018232,-4290.134789
407.384140,444.123565,-8956.491898,-5745.716235
407.384462,-1998.556043,-11029.068536,-5975.544884
407.384783,-3627.009116,-13397.727550,-4136.915689
407.385105,-4589.276840,-16506.592507,-2145.067394
407.385427,-4441.235652,-16950.716072,-995.924147
407.385749,-4367.215058,-14137.933492,-1532.190996
407.386071,-4071.132681,-10881.027347,-1532.190996
407.386393,-4145.153275,-7846.182985,-689.485948
407.386714,-3182.885551,-6439.791695,766.095498
407.387036,-3034.844362,-4959.379811,919.314598
407.387358,-1184.329507,-5921.647536,612.876398
407.387680,1406.391290,-6809.894666,1225.752797
407.388002,2664.741391,-7846.182985,1608.800546
407.388323,2960.823768,-7624.121203,2145.067394
407.388645,2516.700203,-8068.244768,995.924147
407.388967,2146.597232,-7624.121203,-1149.143247
407.389289,962.267725,-7105.977043,-3140.991542
407.389611,-666.185348,-7994.224174,-4596.572988
407.389932,-1998.556043,-9770.718434,-5056.230287
407.390254,-2738.761985,-11843.295072,-5362.668486
407.390576,-3182.885551,-14508.036463,-3753.867940
407.390898,-2590.720797,-16062.468941,-1685.410096
407.391220,-2146.597232,-13397.727550,-1072.533697
407.391542,-666.185348,-10066.800811,-1608.800546
407.391863,-1406.391290,-7624.121203,-1532.190996
407.392185,-1628.453072,-5625.565159,0.000000
407.392507,-1332.370696,-4811.338623,919.314598
407.392829,74.020594,-5181.441594,1532.190996
407.393151,2590.720797,-5921.647536,2298.286494
407.393472,5329.482782,-7476.080014,1685.410096
407.393794,6143.709319,-9474.636058,2528.115143
407.394116,5477.523971,-8734.430116,2757.943793
407.394438,4145.153275,-6365.771101,459.657299
407.394760,3330.926739,-6217.729913,-3064.381992
407.395082,1776.494261,-7624.121203,-5209.449386
407.395403,-1776.494261,-8660.409521,-6435.202183
407.395725,-4219.173869,-10955.047942,-5745.716235
407.396047,-4959.379811,-15396.283594,-4749.792088
407.396369,-4663.297435,-18283.086767,-3370.820191
407.396691,-5107.421000,-17246.798449,-3294.210641
407.397012,-5403.503377,-13175.665768,-2757.943793
407.397334,-4515.256246,-10436.903782,-2604.724693
407.397656,-3108.864956,-7772.162391,-2374.896044
407.397978,-1924.535449,-4959.379811,-1149.143247
407.398300,-222.061783,-3552.988522,0.000000
407.398621,2516.700203,-4663.297435,1302.362347
407.398943,5329.482782,-7846.182985,766.095498
407.399265,5921.647536,-10214.842000,536.266849
407.399587,5403.503377,-10288.862594,919.314598
407.399909,5255.462188,-8734.430116,842.705048
407.400231,5033.400406,-7550.100608,-2145.067394
407.400552,3256.906145,-8438.347739,-5209.449386
407.400874,592.164754,-9622.677246,-5515.887586
407.401196,-2072.576638,-10732.986159,-4979.620737
407.401518,-3330.926739,-13545.768739,-4749.792088
407.401840,-3108.864956,-16210.510130,-3217.601092
407.402161,-3701.029710,-14582.057057,-3600.648841
407.402483,-4515.256246,-11843.295072,-3064.381992
407.402805,-4219.173869,-10066.800811,-1991.848295
407.403127,-3182.885551,-9030.512492,-1532.190996
407.403449,-2442.679609,-6365.771101,-1149.143247
407.403770,-814.226536,-4589.276840,153.219100
407.404092,1998.556043,-4885.359217,383.047749
407.404414,4589.276840,-5699.585753,612.876398
407.404736,5551.544565,-6735.874072,766.095498
407.405058,4737.318029,-7624.121203,1378.971896
407.405380,2960.823768,-8512.368333,1762.019645
407.405701,370.102971,-7920.203579,-612.876398
407.406023,-1406.391290,-9474.636058,-3677.258390
407.406345,-3256.906145,-9918.759623,-5132.839837
407.406667,-4441.235652,-10140.821405,-4443.353888
407.406989,-4367.215058,-12361.439231,-3217.601092
407.407310,-4219.173869,-14359.995275,-1838.629195
407.407632,-4515.256246,-14434.015869,-1378.971896
407.407954,-4737.318029,-12287.418637,-919.314598
407.408276,-4441.235652,-9548.656652,-995.924147
407.408598,-3256.906145,-7846.182985,-1532.190996
407.408919,-2442.679609,-6365.771101,-1378.971896
407.409241,-888.247130,-5921.647536,306.438199
407.409563,1998.556043,-5995.668130,2757.943793
407.409885,5107.421000,-6291.750507,2451.505594
407.410207,6809.894666,-7772.162391,1302.362347
407.410529,6735.874072,-7994.224174,995.924147
407.410851,5773.606348,-7105.977043,919.314598
407.411172,4145.153275,-6735.874072,-1608.800546
407.411494,2442.679609,-9030.512492,-3524.039291
407.411816,-370.102971,-10955.047942,-4290.134789
407.412138,-3330.926739,-11695.253884,-3524.039291
407.412460,-4589.276840,-14359.995275,-2987.772442
407.412782,-4367.215058,-16136.489536,-2451.505594
407.413104,-3849.070898,-14878.139434,-2681.334243
407.413426,-3108.864956,-11621.233289,-3064.381992
407.413748,-2442.679609,-9548.656652,-1225.752797
407.414070,-814.226536,-9104.533087,0.000000
407.414391,-888.247130,-7402.059420,0.000000
407.414713,74.020594,-6735.874072,766.095498
407.415035,2072.576638,-5773.606348,1685.410096
407.415357,5403.503377,-5255.462188,1302.362347
407.415679,7698.141797,-6735.874072,0.000000
407.416001,7920.203579,-7994.224174,-459.657299
407.416323,6365.771101,-8808.450710,842.705048
407.416645,3849.070898,-8808.450710,76.609550
407.416967,1184.329507,-10362.883188,-2221.676944
407.417288,-2664.741391,-11103.089130,-4443.353888
407.417610,-5477.523971,-11029.068536,-5745.716235
407.417932,-7402.059420,-12139.377449,-5515.887586
407.418254,-7031.956449,-14211.954086,-4213.525239
407.418576,-6883.915261,-14211.954086,-2528.115143
407.418898,-7031.956449,-12287.418637,-689.485948
407.419220,-6883.915261,-9622.677246,612.876398
407.419542,-5255.462188,-8364.327145,-842.705048
407.419864,-3256.906145,-6291.750507,-1915.238745
407.420186,-666.185348,-4737.318029,-995.924147
407.420507,2516.700203,-3478.967927,383.047749
407.420829,6069.688724,-3701.029710,536.266849
407.421151,9326.594869,-7179.997637,1302.362347
407.421473,8882.471304,-8882.471304,1838.629195
407.421795,6069.688724,-9474.636058,536.266849
407.422117,2960.823768,-9844.739029,-1685.410096
407.422439,962.267725,-11399.171507,-3983.696590
407.422761,-1332.370696,-9770.718434,-5439.278036
407.423083,-2960.823768,-8956.491898,-5669.106685
407.423405,-4441.235652,-9992.780217,-4673.182538
407.423726,-3923.091493,-13027.624579,-3524.039291
407.424048,-4515.256246,-14359.995275,-3217.601092
407.424370,-5921.647536,-13989.892304,-2451.505594
407.424692,-6217.729913,-13471.748144,-689.485948
407.425014,-5107.421000,-10807.006753,-536.266849
407.425336,-2960.823768,-7846.182985,-1225.752797
407.425658,-296.082377,-4589.276840,-995.924147
407.425980,3404.947333,-3182.885551,-306.438199
407.426302,7179.997637,-4219.173869,229.828649
407.426624,9030.512492,-7105.977043,536.266849
407.426945,8364.327145,-9696.697840,689.485948
407.427267,6069.688724,-10288.862594,459.657299
407.427589,3478.967927,-10288.862594,-1455.581446
407.427911,1332.370696,-11029.068536,-3600.648841
407.428233,-1554.432478,-10584.944971,-5592.497135
407.428555,-3849.070898,-10584.944971,-5515.887586
407.428877,-5773.606348,-11843.295072,-4290.134789
407.429199,-5995.668130,-14211.954086,-2604.724693
407.429521,-6439.791695,-14878.139434,-1685.410096
407.429842,-6587.832884,-12953.603985,-1608.800546
407.430164,-5921.647536,-9622.677246,-1149.143247
407.430486,-4293.194464,-7328.038826,-689.485948
407.430808,-2146.597232,-5847.626942,153.219100
407.431130,-370.102971,-4589.276840,1149.143247
407.431452,1628.453072,-3997.112087,2068.457845
407.431774,5403.503377,-3923.091493,2145.067394
407.432096,8586.388927,-6439.791695,1302.362347
407.432418,8882.471304,-8882.471304,153.219100
407.432740,7550.100608,-8882.471304,689.485948
407.433061,5477.523971,-8142.265362,-153.219100
407.433383,3627.009116,-9400.615463,-2068.457845
407.433705,222.061783,-10807.006753,-4749.792088
407.434027,-3330.926739,-11251.130318,-5362.668486
407.434349,-6587.832884,-13249.686362,-4673.182538
407.434671,-6883.915261,-15470.304188,-2298.286494
407.434993,-6217.729913,-14434.015869,-1302.362347
407.435315,-5995.668130,-10881.027347,-1378.971896
407.435637,-5477.523971,-8660.409521,-153.219100
407.435959,-4515.256246,-8142.265362,536.266849
407.436280,-3775.050304,-7105.977043,459.657299
407.436602,-3034.844362,-5773.606348,1915.238745
407.436924,592.164754,-4737.318029,1762.019645
407.437246,4663.297435,-4515.256246,536.266849
407.437568,7772.162391,-7105.977043,229.828649
407.437890,7846.182985,-8882.471304,1378.971896
407.438212,6365.771101,-8956.491898,995.924147
407.438534,3923.091493,-8068.244768,-1762.019645
407.438856,2146.597232,-9622.677246,-4060.306139
407.439177,-1480.411884,-10955.047942,-5669.106685
407.439499,-4959.379811,-11917.315666,-7124.688131
407.439821,-7105.977043,-13841.851115,-6435.202183
407.440143,-7031.956449,-16432.571912,-4366.744339
407.440465,-6809.894666,-16136.489536,-2221.676944
407.440787,-7105.977043,-12805.562797,-1685.410096
407.441109,-6365.771101,-10288.862594,-1302.362347
407.441431,-4811.338623,-8808.450710,-1532.190996
407.441753,-3256.906145,-5921.647536,-919.314598
407.442075,-888.247130,-2886.803174,-306.438199
407.442396,2368.659014,-2960.823768,1149.143247
407.442718,6735.874072,-4663.297435,1302.362347
407.443040,8956.491898,-7105.977043,842.705048
407.443362,8882.471304,-8882.471304,306.438199
407.443684,8956.491898,-8808.450710,689.485948
407.444006,7105.977043,-7698.141797,-2145.067394
407.444328,4737.318029,-10066.800811,-5132.839837
407.444650,1036.288319,-10881.027347,-5592.497135
407.444972,-2812.782580,-10658.965565,-5209.449386
407.445294,-5403.503377,-12731.542202,-5209.449386
407.445615,-6513.812290,-15914.427753,-4213.525239
407.445937,-7476.080014,-15692.365970,-2298.286494
407.446259,-7698.141797,-12139.377449,-2681.334243
407.446581,-6661.853478,-9696.697840,-2528.115143
407.446903,-4737.318029,-8290.306550,-766.095498
407.447225,-4293.194464,-6069.688724,459.657299
407.447547,-3775.050304,-4737.318029,1685.410096
407.447869,-1332.370696,-4737.318029,2068.457845
407.448191,1924.535449,-5255.462188,995.924147
407.448512,4737.318029,-6883.915261,1072.533697
407.448834,6291.750507,-7772.162391,766.095498
407.449156,7105.977043,-7846.182985,76.609550
407.449478,7031.956449,-8438.347739,-995.924147
407.449800,5107.421000,-8956.491898,-2757.943793
407.450122,1776.494261,-9178.553681,-4443.353888
407.450444,-1110.308913,-9548.656652,-6205.373534
407.450766,-3627.009116,-12287.418637,-5745.716235
407.451088,-6143.709319,-16506.592507,-4366.744339
407.451410,-8068.244768,-17838.963202,-1762.019645
407.451731,-8142.265362,-15100.201217,0.000000
407.452053,-6365.771101,-11251.130318,0.000000
407.452375,-3923.091493,-7994.224174,-995.924147
407.452697,-1850.514855,-5107.421000,-995.924147
407.453019,-296.082377,-2886.803174,1225.752797
407.453341,2072.576638,-3108.864956,3600.648841
407.453663,4663.297435,-4367.215058,3217.601092
407.453985,6513.812290,-5995.668130,2757.943793
407.454307,6883.915261,-6735.874072,1455.581446
407.454629,7105.977043,-8068.244768,-689.485948
407.454950,6957.935855,-8512.368333,-2681.334243
407.455272,5551.544565,-9104.533087,-3830.477490
407.455594,1702.473667,-10510.924376,-3447.429741
407.455916,-2590.720797,-12213.398043,-3217.601092
407.456238,-5699.585753,-14359.995275,-4903.011187
407.456560,-7179.997637,-16284.530724,-6588.421283
407.456882,-8290.306550,-16580.613101,-6128.763984
407.457204,-8586.388927,-13841.851115,-3983.696590
407.457526,-7772.162391,-10066.800811,-1149.143247
407.457848,-5699.585753,-8808.450710,0.000000
407.458169,-3997.112087,-7624.121203,842.705048
407.458491,-2812.782580,-5773.606348,1072.533697
407.458813,-444.123565,-4737.318029,919.314598
407.459135,3034.844362,-4737.318029,842.705048
407.459457,6883.915261,-5403.503377,689.485948
407.459779,8512.368333,-6365.771101,1608.800546
407.460101,7846.182985,-6069.688724,2681.334243
407.460423,6291.750507,-6513.812290,383.047749
407.460745,4515.256246,-9622.677246,-4979.620737
407.461066,1480.411884,-11991.336260,-7201.297681
407.461388,-3182.885551,-12805.562797,-6511.811733
407.461710,-6513.812290,-14211.954086,-4749.792088
407.462032,-7254.018232,-17024.736666,-4060.306139
407.462354,-7254.018232,-16580.613101,-3753.867940
407.462676,-7105.977043,-12361.439231,-3907.087040
407.462998,-6513.812290,-9474.636058,-3217.601092
407.463320,-5847.626942,-8438.347739,-1302.362347
407.463642,-5033.400406,-7698.141797,0.000000
407.463964,-3627.009116,-5551.544565,1225.752797
407.464285,-222.061783,-4219.173869,1991.848295
407.464607,4145.153275,-3330.926739,1378.971896
407.464929,7772.162391,-5995.668130,689.485948
407.465251,8734.430116,-7105.977043,766.095498
407.465573,7698.141797,-7105.977043,1838.629195
407.465895,6735.874072,-6513.812290,0.000000
407.466217,5181.441594,-8660.409521,-3370.820191
407.466539,2294.638420,-11325.150913,-6128.763984
407.466861,-1924.535449,-11251.130318,-5286.058936
407.467183,-4811.338623,-12065.356855,-4826.401637
407.467504,-5551.544565,-15618.345376,-4136.915689
407.467826,-5699.585753,-17764.942608,-2911.162892
407.468148,-6735.874072,-15026.180623,-2451.505594
407.468470,-6809.894666,-11473.192101,-2298.286494
407.468792,-4885.359217,-9918.759623,-459.657299
407.469114,-2738.761985,-7624.121203,306.438199
407.469436,-1850.514855,-4367.215058,612.876398
407.469758,148.041188,-2664.741391,2374.896044
407.470080,3330.926739,-3330.926739,2451.505594
407.470401,6365.771101,-6069.688724,1685.410096
407.470723,6809.894666,-7698.141797,612.876398
407.471045,5847.626942,-7920.203579,1838.629195
407.471367,5477.523971,-8068.244768,153.219100
407.471689,5033.400406,-9992.780217,-3753.867940
407.472011,3034.844362,-11547.212695,-5515.887586
407.472333,-296.082377,-10955.047942,-4673.182538
407.472655,-3478.967927,-11769.274478,-4596.572988
407.472977,-5107.421000,-14878.139434,-4596.572988
407.473299,-6365.771101,-16580.613101,-3217.601092
407.473620,-8142.265362,-14063.912898,-2298.286494
407.473942,-8364.327145,-10955.047942,-1225.752797
407.474264,-6069.688724,-9326.594869,0.000000
407.474586,-3923.091493,-7254.018232,536.266849
407.474908,-2220.617826,-4515.256246,612.876398
407.475230,0.000000,-2960.823768,1838.629195
407.475552,2960.823768,-4071.132681,2451.505594
407.475874,5181.441594,-6365.771101,2681.334243
407.476196,4219.173869,-6661.853478,2451.505594
407.476518,2812.782580,-5995.668130,1378.971896
407.476839,2590.720797,-6883.915261,-1991.848295
407.477161,2812.782580,-9548.656652,-4749.792088
407.477483,222.061783,-10066.800811,-5056.230287
407.477805,-2738.761985,-10066.800811,-4673.182538
407.478127,-4663.297435,-12583.501014,-4366.744339
407.478449,-4885.359217,-16284.530724,-4826.401637
407.478771,-5699.585753,-16358.551318,-5515.887586
407.479093,-5995.668130,-13027.624579,-5056.230287
407.479415,-5181.441594,-10510.924376,-2834.553343
407.479737,-3923.091493,-10140.821405,-1225.752797
407.480058,-2886.803174,-8734.430116,229.828649
407.480380,-1332.370696,-6143.709319,1532.190996
407.480702,1184.329507,-5477.523971,1225.752797
407.481024,4663.297435,-6069.688724,1225.752797
407.481346,7402.059420,-6809.894666,1762.019645
407.481668,9030.512492,-6291.750507,1915.238745
407.481990,9548.656652,-5773.606348,1685.410096
407.482312,8216.285956,-6513.812290,229.828649
407.482634,5921.647536,-8142.265362,-2451.505594
407.482955,2590.720797,-10584.944971,-5745.716235
407.483277,-666.185348,-12065.356855,-6741.640382
407.483599,-3478.967927,-14211.954086,-5439.278036
407.483921,-5403.503377,-16136.489536,-4443.353888
407.484243,-7105.977043,-17024.736666,-3830.477490
407.484565,-7772.162391,-14063.912898,-4136.915689
407.484887,-7031.956449,-10955.047942,-4903.011187
407.485209,-5699.585753,-9104.533087,-4290.134789
407.485531,-5477.523971,-8290.306550,-842.705048
407.485853,-5255.462188,-7105.977043,536.266849
407.486174,-2960.823768,-6883.915261,1532.190996
407.486496,74.020594,-6661.853478,1532.190996
407.486818,2960.823768,-6661.853478,1608.800546
407.487140,4737.318029,-4885.359217,1608.800546
407.487462,7105.977043,-4145.153275,1149.143247
407.487784,7402.059420,-4663.297435,229.828649
407.488106,6661.853478,-7476.080014,-1532.190996
407.488428,4219.173869,-9696.697840,-3600.648841
407.488750,1184.329507,-11769.274478,-4366.744339
407.489072,-1924.535449,-14063.912898,-3294.210641
407.489393,-4145.153275,-16136.489536,-3600.648841
407.489715,-5921.647536,-16210.510130,-4060.306139
407.490037,-6513.812290,-13323.706956,-3983.696590
407.490359,-5699.585753,-10214.842000,-3140.991542
407.490681,-4293.194464,-7476.080014,-1608.800546
407.491003,-3182.885551,-6439.791695,76.609550
407.491325,-2812.782580,-6217.729913,919.314598
407.491647,-1628.453072,-7105.977043,2451.505594
407.491969,814.226536,-6809.894666,3140.991542
407.492290,3997.112087,-6439.791695,1608.800546
407.492612,5033.400406,-5699.585753,1225.752797
407.492934,4737.318029,-5033.400406,2298.286494
407.493256,3849.070898,-4959.379811,1149.143247
407.493578,3182.885551,-7476.080014,-1762.019645
407.493900,1702.473667,-9770.718434,-4060.306139
407.494222,-740.205942,-10510.924376,-4673.182538
407.494544,-3775.050304,-12731.542202,-4366.744339
407.494866,-5181.441594,-15396.283594,-3524.039291
407.495188,-5625.565159,-17024.736666,-3447.429741
407.495509,-5699.585753,-14285.974681,-4826.401637
407.495831,-5403.503377,-11325.150913,-3907.087040
407.496153,-4885.359217,-10288.862594,-2298.286494
407.496475,-4811.338623,-9104.533087,-919.314598
407.496797,-3701.029710,-7105.977043,0.000000
407.497119,-740.205942,-5699.585753,842.705048
407.497441,2516.700203,-5181.441594,919.314598
407.497763,5551.544565,-5255.462188,766.095498
407.498085,6809.894666,-6439.791695,1072.533697
407.498407,6587.832884,-7402.059420,1991.848295
407.498728,5699.585753,-7402.059420,1225.752797
407.499050,4293.194464,-8142.265362,-1838.629195
407.499372,2516.700203,-10066.800811,-4596.572988
407.499694,296.082377,-10288.862594,-6435.202183
407.500016,-1480.411884,-11029.068536,-5975.544884
407.500338,-2442.679609,-14063.912898,-4596.572988
407.500660,-3701.029710,-16580.613101,-3677.258390
407.500982,-5181.441594,-15544.324782,-4596.572988
407.501304,-5847.626942,-13767.830521,-4213.525239
407.501626,-4737.318029,-11843.295072,-3524.039291
407.501947,-3182.885551,-10066.800811,-2221.676944
407.502269,-2220.617826,-6439.791695,-1532.190996
407.502591,0.000000,-4811.338623,536.266849
407.502913,2812.782580,-5329.482782,2145.067394
407.503235,5255.462188,-6809.894666,2298.286494
407.503557,5181.441594,-7254.018232,1532.190996
407.503879,4515.256246,-6439.791695,1608.800546
407.504201,3256.906145,-5625.565159,612.876398
407.504523,2368.659014,-6883.915261,-1302.362347
407.504844,222.061783,-8142.265362,-3983.696590
407.505166,-1998.556043,-9400.615463,-5209.449386
407.505488,-4219.173869,-10881.027347,-4903.011187
407.505810,-5181.441594,-14285.974681,-4060.306139
407.506132,-6735.874072,-16580.613101,-2987.772442
407.506454,-7550.100608,-15174.221811,-2451.505594
407.506776,-7254.018232,-12213.398043,-3830.477490
407.507098,-5033.400406,-9474.636058,-3677.258390
407.507420,-2442.679609,-7031.956449,-1838.629195
407.507742,-1110.308913,-4885.359217,-383.047749
407.508063,1036.288319,-3923.091493,1608.800546
407.508385,3923.091493,-5699.585753,2757.943793
407.508707,6883.915261,-8068.244768,2528.115143
407.509029,7698.141797,-8438.347739,1455.581446
407.509351,7031.956449,-7179.997637,1532.190996
407.509673,6217.729913,-6069.688724,1991.848295
407.509995,5329.482782,-6735.874072,-229.828649
407.510317,3256.906145,-8882.471304,-3447.429741
407.510638,222.061783,-9252.574275,-5209.449386
407.510960,-2886.803174,-10955.047942,-4903.011187
407.511282,-4219.173869,-15322.262999,-3830.477490
407.511604,-4959.379811,-18357.107362,-3217.601092
407.511925,-6069.688724,-16506.592507,-4366.744339
407.512247,-6513.812290,-13175.665768,-4673.182538
407.512569,-5773.606348,-10955.047942,-2911.162892
407.512891,-4663.297435,-9030.512492,-1608.800546
407.513213,-4219.173869,-6587.832884,-1378.971896
407.513534,-2368.659014,-5255.462188,-766.095498
407.513856,1332.370696,-5477.523971,0.000000
407.514178,4737.318029,-7402.059420,766.095498
407.514500,5403.503377,-8660.409521,1302.362347
407.514821,4441.235652,-8142.265362,2221.676944
407.515143,2960.823768,-7328.038826,2145.067394
407.515465,2590.720797,-7105.977043,-689.485948
407.515787,1332.370696,-8290.306550,-4290.134789
407.516108,-1036.288319,-8808.450710,-5822.325785
407.516430,-3182.885551,-9696.697840,-4596.572988
407.516752,-3849.070898,-12879.583391,-2528.115143
407.517074,-4515.256246,-16580.613101,-1302.362347
407.517396,-5255.462188,-15396.283594,-1838.629195
407.517717,-5551.544565,-12213.398043,-2987.772442
407.518039,-4589.276840,-9622.677246,-2681.334243
407.518361,-2442.679609,-7698.141797,-842.705048
407.518683,-1036.288319,-4885.359217,-306.438199
407.519004,1184.329507,-3034.844362,766.095498
407.519326,4441.235652,-3701.029710,2145.067394
407.519648,7031.956449,-6661.853478,2911.162892
407.519970,6513.812290,-7624.121203,2374.896044
407.520292,4959.379811,-6365.771101,1685.410096
407.520613,3404.947333,-5551.544565,1455.581446
407.520935,3182.885551,-7328.038826,-995.924147
407.521257,1628.453072,-9104.533087,-3140.991542
407.521579,-1480.411884,-9474.636058,-3677.258390
407.521900,-4589.276840,-11029.068536,-3447.429741
407.522222,-4885.359217,-14730.098246,-2757.943793
407.522544,-5181.441594,-16506.592507,-2604.724693
407.522866,-5477.523971,-14211.954086,-4060.306139
407.523187,-5255.462188,-11251.130318,-4366.744339
407.523509,-3701.029710,-9474.636058,-2221.676944
407.523831,-2072.576638,-9178.553681,-995.924147
407.524153,-1998.556043,-7624.121203,-1532.190996
407.524475,-666.185348,-7476.080014,-536.266849
407.524796,2220.617826,-8068.244768,1302.362347
407.525118,5107.421000,-8290.306550,842.705048
407.525440,7105.977043,-7254.018232,-1532.190996
407.525762,7772.162391,-7254.018232,-1532.190996
407.526083,6365.771101,-8142.265362,0.000000
407.526405,2664.741391,-9844.739029,-612.876398
407.526727,-1480.411884,-11621.233289,-2604.724693
407.527049,-4441.235652,-12361.439231,-4903.011187
407.527371,-5847.626942,-12879.583391,-6052.154434
407.527692,-6143.709319,-12953.603985,-5362.668486
407.528014,-4737.318029,-12879.583391,-3983.696590
407.528336,-3775.050304,-11103.089130,-3830.477490
407.528658,-3330.926739,-9844.739029,-2298.286494
407.528979,-3701.029710,-9696.697840,-995.924147
407.529301,-3552.988522,-9030.512492,-919.314598
407.529623,-3478.967927,-7624.121203,-2298.286494
407.529945,-1036.288319,-6883.915261,-1608.800546
407.530266,3256.906145,-6143.709319,0.000000
407.530588,7476.080014,-6735.874072,1149.143247
407.530910,9326.594869,-7920.203579,2221.676944
407.531232,8142.265362,-8290.306550,3294.210641
407.531554,5255.462188,-7402.059420,2451.505594
407.531875,2368.659014,-7105.977043,-536.266849
407.532197,666.185348,-6957.935855,-4136.915689
407.532519,-962.267725,-6217.729913,-5822.325785
407.532841,-2664.741391,-7846.182985,-5132.839837
407.533162,-4145.153275,-11399.171507,-2451.505594
407.533484,-5921.647536,-14656.077652,153.219100
407.533806,-7920.203579,-15100.201217,0.000000
407.534128,-8808.450710,-12805.562797,-2374.896044
407.534450,-7698.141797,-9178.553681,-4290.134789
407.534771,-5699.585753,-6661.853478,-4060.306139
407.535093,-3034.844362,-4367.215058,-2374.896044
407.535415,-148.041188,-3701.029710,-689.485948
407.535737,2738.761985,-5107.421000,536.266849
407.536058,4811.338623,-9104.533087,1685.410096
407.536380,5403.503377,-11177.109724,1072.533697
407.536702,5847.626942,-10955.047942,-612.876398
407.537024,6365.771101,-10066.800811,-1685.410096
407.537345,6217.729913,-9252.574275,-1608.800546
407.537667,4145.153275,-7920.203579,-842.705048
407.537989,1702.473667,-7179.997637,-1991.848295
407.538311,-962.267725,-9030.512492,-3753.867940
407.538633,-2960.823768,-12287.418637,-5362.668486
407.538954,-4663.297435,-16358.551318,-3753.867940
407.539276,-5625.565159,-16136.489536,-1608.800546
407.539598,-4885.359217,-13619.789333,-995.924147
407.539920,-3034.844362,-11473.192101,-1762.019645
407.540241,-1850.514855,-9474.636058,-1762.019645
407.540563,-1776.494261,-6957.935855,-842.705048
407.540885,-888.247130,-5477.523971,0.000000
407.541207,1554.432478,-5107.421000,-995.924147
407.541529,4441.235652,-7550.100608,-1225.752797
407.541850,5329.482782,-9326.594869,-383.047749
407.542172,4293.194464,-9622.677246,1149.143247
407.542494,2368.659014,-9326.594869,1532.190996
407.542816,1406.391290,-8512.368333,-995.924147
407.543137,-1332.370696,-9400.615463,-3983.696590
407.543459,-4367.215058,-9918.759623,-5592.497135
407.543781,-7031.956449,-11029.068536,-4903.011187
407.544103,-7476.080014,-12805.562797,-2451.505594
407.544424,-6217.729913,-13471.748144,-995.924147
407.544746,-4959.379811,-10955.047942,-2068.457845
407.545068,-3627.009116,-9400.615463,-2221.676944
407.545390,-3775.050304,-8586.388927,-1455.581446
407.545712,-3997.112087,-8882.471304,0.000000
407.546033,-2812.782580,-8660.409521,1149.143247
407.546355,-518.144159,-7179.997637,1302.362347
407.546677,4811.338623,-5625.565159,1072.533697
407.546999,8734.430116,-5181.441594,1149.143247
407.547320,10807.006753,-5995.668130,1225.752797
407.547642,10807.006753,-5921.647536,1838.629195
407.547964,8956.491898,-5403.503377,1378.971896
407.548286,4811.338623,-7328.038826,0.000000
407.548607,518.144159,-9918.759623,-919.314598
407.548929,-3330.926739,-10362.883188,-2681.334243
407.549251,-6143.709319,-11177.109724,-5132.839837
407.549573,-6735.874072,-13471.748144,-5056.230287
407.549895,-5995.668130,-15248.242405,-2757.943793
407.550216,-6365.771101,-12287.418637,-1838.629195
407.550538,-6069.688724,-9474.636058,-1608.800546
407.550860,-5181.441594,-9030.512492,-2068.457845
407.551182,-4293.194464,-9178.553681,-2528.115143
407.551503,-3256.906145,-8216.285956,-1838.629195
407.551825,-1850.514855,-7476.080014,-1072.533697
407.552147,1406.391290,-7402.059420,-612.876398
407.552469,5403.503377,-8882.471304,842.705048
407.552791,7550.100608,-9030.512492,1762.019645
407.553112,8586.388927,-7698.141797,689.485948
407.553434,8956.491898,-8290.306550,-1991.848295
407.553756,7624.121203,-9918.759623,-2911.162892
407.554078,3478.967927,-10584.944971,-2681.334243
407.554399,-962.267725,-9548.656652,-2681.334243
407.554721,-3923.091493,-10436.903782,-3753.867940
407.555043,-5033.400406,-13767.830521,-5286.058936
407.555365,-6735.874072,-15618.345376,-4213.525239
407.555686,-8734.430116,-14434.015869,-3064.381992
407.556008,-8660.409521,-12805.562797,-1685.410096
407.556330,-6735.874072,-11103.089130,-1455.581446
407.556652,-4515.256246,-9178.553681,-919.314598
407.556974,-3330.926739,-5255.462188,-1302.362347
407.557295,-1036.288319,-3552.988522,-995.924147
407.557617,2442.679609,-4145.153275,-536.266849
407.557939,5699.585753,-6883.915261,0.000000
407.558261,6735.874072,-8956.491898,459.657299
407.558582,6809.894666,-8956.491898,1225.752797
407.558904,5773.606348,-8808.450710,1072.533697
407.559226,4663.297435,-9030.512492,-766.095498
407.559548,2442.679609,-8512.368333,-2068.457845
407.559870,0.000000,-6883.915261,-3294.210641
407.560191,-1998.556043,-7772.162391,-3983.696590
407.560513,-3404.947333,-10955.047942,-2451.505594
407.560835,-4145.153275,-14063.912898,0.000000
407.561157,-5255.462188,-13841.851115,-689.485948
407.561478,-5699.585753,-12287.418637,-612.876398
407.561800,-5181.441594,-10510.924376,766.095498
407.562122,-4515.256246,-7698.141797,1302.362347
407.562444,-3108.864956,-5107.421000,766.095498
407.562765,-814.226536,-2738.761985,-153.219100
407.563087,2368.659014,-3478.967927,-1225.752797
407.563409,4737.318029,-5921.647536,-383.047749
407.563731,4367.215058,-8068.244768,995.924147
407.564053,3701.029710,-9178.553681,1072.533697
407.564374,3701.029710,-10510.924376,-766.095498
407.564696,3182.885551,-10955.047942,-3830.477490
407.565018,1554.432478,-10658.965565,-5669.106685
407.565340,-592.164754,-10066.800811,-5439.278036
407.565661,-1998.556043,-11325.150913,-4979.620737
407.565983,-3775.050304,-13619.789333,-3753.867940
407.566305,-4515.256246,-15470.304188,-2451.505594
407.566627,-5255.462188,-14582.057057,-1838.629195
407.566949,-4737.318029,-12731.542202,-1532.190996
407.567270,-3034.844362,-10584.944971,-1991.848295
407.567592,-1554.432478,-8364.327145,-689.485948
407.567914,740.205942,-5403.503377,536.266849
407.568236,3627.009116,-4959.379811,383.047749
407.568557,5995.668130,-6883.915261,0.000000
407.568879,6957.935855,-9400.615463,2451.505594
407.569201,6291.750507,-10066.800811,2068.457845
407.569523,4811.338623,-9474.636058,383.047749
407.569844,4071.132681,-9030.512492,-1991.848295
407.570166,3330.926739,-8290.306550,-3524.039291
407.570488,740.205942,-8216.285956,-4366.744339
407.570810,-3404.947333,-8734.430116,-5132.839837
407.571132,-5773.606348,-12139.377449,-3907.087040
407.571453,-7254.018232,-15322.262999,-2528.115143
407.571775,-8660.409521,-15914.427753,-2834.553343
407.572097,-9400.615463,-13693.809927,-2145.067394
407.572419,-8438.347739,-9918.759623,-1072.533697
407.572740,-7772.162391,-7179.997637,-995.924147
407.573062,-6661.853478,-5107.421000,-383.047749
407.573384,-4737.318029,-4071.132681,1072.533697
407.573706,-2072.576638,-4589.276840,1608.800546
407.574027,888.247130,-5329.482782,1915.238745
407.574349,4589.276840,-6143.709319,2221.676944
407.574671,7402.059420,-6883.915261,2298.286494
407.574993,9252.574275,-6365.771101,1072.533697
407.575315,9622.677246,-6587.832884,-1225.752797
407.575636,8808.450710,-7920.203579,-3064.381992
407.575958,6587.832884,-9178.553681,-2757.943793
407.576280,2368.659014,-9844.739029,-3064.381992
407.576602,-1184.329507,-11843.295072,-3294.210641
407.576923,-3256.906145,-14434.015869,-3370.820191
407.577245,-4219.173869,-15470.304188,-2757.943793
407.577567,-5033.400406,-13471.748144,-2451.505594
407.577889,-4663.297435,-10955.047942,-1532.190996
407.578211,-4219.173869,-8808.450710,-842.705048
407.578532,-3404.947333,-7550.100608,0.000000
407.578854,-2812.782580,-6291.750507,612.876398
407.579176,-962.267725,-5477.523971,153.219100
407.579498,1110.308913,-6069.688724,-229.828649
407.579819,2812.782580,-7920.203579,0.000000
407.580141,3404.947333,-8882.471304,383.047749
407.580463,4441.235652,-8660.409521,0.000000
407.580785,5773.606348,-8068.244768,-2145.067394
407.581106,5477.523971,-8586.388927,-4596.572988
407.581428,3404.947333,-10584.944971,-5745.716235
407.581750,-222.061783,-12583.501014,-5286.058936
407.582072,-3182.885551,-15026.180623,-4903.011187
407.582394,-4959.379811,-16580.613101,-4443.353888
407.582715,-6365.771101,-16580.613101,-3677.258390
407.583037,-7105.977043,-14211.954086,-2145.067394
407.583359,-6957.935855,-11473.192101,-1915.238745
407.583681,-6217.729913,-8956.491898,-1378.971896
407.584002,-4811.338623,-6809.894666,0.000000
407.584324,-3404.947333,-5403.503377,1685.410096
407.584646,-592.164754,-5255.462188,2221.676944
407.584968,2294.638420,-5255.462188,1685.410096
407.585290,5329.482782,-5921.647536,689.485948
407.585611,7402.059420,-7550.100608,1225.752797
407.585933,7328.038826,-8290.306550,1378.971896
407.586255,5625.565159,-8142.265362,919.314598
407.586577,3404.947333,-8586.388927,-1455.581446
407.586898,1850.514855,-8956.491898,-4136.915689
407.587220,0.000000,-8216.285956,-5822.325785
407.587542,-1998.556043,-8956.491898,-5669.106685
407.587864,-4145.153275,-12509.480420,-3524.039291
407.588185,-5255.462188,-15544.324782,-919.314598
407.588507,-6883.915261,-14211.954086,-459.657299
407.588829,-6291.750507,-11843.295072,-1072.533697
407.589151,-5403.503377,-9548.656652,-1608.800546
407.589473,-5107.421000,-6809.894666,-842.705048
407.589794,-4589.276840,-3849.070898,1378.971896
407.590116,-1850.514855,-2960.823768,2145.067394
407.590438,1554.432478,-5255.462188,1991.848295
407.590760,3627.009116,-7402.059420,1455.581446
407.591081,3552.988522,-8660.409521,2757.943793
407.591403,4885.359217,-7402.059420,2451.505594
407.591725,7031.956449,-6735.874072,-995.924147
407.592047,7402.059420,-6661.853478,-4673.182538
407.592369,5255.462188,-8364.327145,-4443.353888
407.592690,1850.514855,-10510.924376,-4060.306139
407.593012,-888.247130,-13397.727550,-3753.867940
407.593334,-2442.679609,-16728.654289,-3983.696590
407.593656,-4885.359217,-18061.024985,-3447.429741
407.593977,-6661.853478,-14878.139434,-3447.429741
407.594299,-5699.585753,-11103.089130,-3064.381992
407.594621,-3849.070898,-9030.512492,-2451.505594
407.594943,-2738.761985,-7031.956449,-1072.533697
407.595264,-2886.803174,-5181.441594,995.924147
407.595586,-1702.473667,-6217.729913,1838.629195
407.595908,1036.288319,-7402.059420,766.095498
407.596230,3404.947333,-8068.244768,-229.828649
407.596552,4663.297435,-8586.388927,536.266849
407.596873,5847.626942,-8068.244768,459.657299
407.597195,7105.977043,-8216.285956,-1608.800546
407.597517,6735.874072,-9178.553681,-3677.258390
407.597839,4367.215058,-10510.924376,-3983.696590
407.598160,370.102971,-11177.109724,-4749.792088
407.598482,-2368.659014,-13323.706956,-5286.058936
407.598804,-4589.276840,-15692.365970,-4749.792088
407.599126,-5773.606348,-16062.468941,-3830.477490
407.599448,-6809.894666,-13027.624579,-2451.505594
407.599769,-6069.688724,-10436.903782,-995.924147
407.600091,-5625.565159,-8438.347739,-306.438199
407.600413,-4663.297435,-7105.977043,-383.047749
407.600735,-4441.235652,-6069.688724,1302.362347
407.601056,-2812.782580,-5181.441594,2451.505594
407.601378,-370.102971,-4811.338623,2451.505594
407.601700,2738.761985,-4589.276840,2528.115143
407.602022,5329.482782,-5255.462188,1915.238745
407.602343,6587.832884,-5847.626942,536.266849
407.602665,6513.812290,-6291.750507,-459.657299
407.602987,4737.318029,-7772.162391,-2145.067394
407.603309,1998.556043,-9474.636058,-3140.991542
407.603631,-1184.329507,-10066.800811,-3600.648841
407.603952,-3552.988522,-10807.006753,-3600.648841
407.604274,-4367.215058,-13545.768739,-4596.572988
407.604596,-4811.338623,-15100.201217,-4366.744339
407.604918,-5403.503377,-14063.912898,-2528.115143
407.605239,-4959.379811,-11473.192101,0.000000
407.605561,-3997.112087,-8586.388927,0.000000
407.605883,-3034.844362,-6587.832884,-1072.533697
407.606205,-1998.556043,-4885.359217,0.000000
407.606526,-296.082377,-4811.338623,1608.800546
407.606848,2220.617826,-5921.647536,459.657299
407.607170,4737.318029,-7846.182985,-229.828649
407.607492,6661.853478,-10584.944971,1762.019645
407.607814,6883.915261,-10066.800811,2528.115143
407.608135,7402.059420,-8956.491898,-689.485948
407.608457,7328.038826,-9474.636058,-4213.525239
407.608779,5625.565159,-10510.924376,-5056.230287
407.609101,2146.597232,-10288.862594,-5056.230287
407.609422,-1184.329507,-10807.006753,-4903.011187
407.609744,-2960.823768,-14730.098246,-4519.963438
407.610066,-5107.421000,-17024.736666,-4519.963438
407.610388,-8586.388927,-16062.468941,-4366.744339
407.610710,-9696.697840,-13841.851115,-2145.067394
407.611031,-7624.121203,-10881.027347,-1302.362347
407.611353,-5847.626942,-8364.327145,-1915.238745
407.611675,-5033.400406,-5551.544565,-612.876398
407.611997,-3404.947333,-4589.276840,1455.581446
407.612318,-1332.370696,-5995.668130,1991.848295
407.612640,1110.308913,-6883.915261,1685.410096
407.612962,2368.659014,-7402.059420,2145.067394
407.613284,3404.947333,-6809.894666,1915.238745
407.613605,5033.400406,-6513.812290,0.000000
407.613927,6143.709319,-7031.956449,-2834.553343
407.614249,5403.503377,-7846.182985,-3217.601092
407.614571,2590.720797,-9178.553681,-2681.334243
407.614892,-148.041188,-10955.047942,-2374.896044
407.615214,-2220.617826,-13545.768739,-2681.334243
407.615536,-3108.864956,-14878.139434,-3064.381992
407.615858,-4219.173869,-12953.603985,-2298.286494
407.616179,-3997.112087,-9474.636058,-995.924147
407.616501,-2812.782580,-6957.935855,-766.095498
407.616823,-1924.535449,-5921.647536,-306.438199
407.617144,-2072.576638,-6217.729913,995.924147
407.617466,-1776.494261,-6439.791695,3064.381992
407.617788,-296.082377,-7105.977043,2451.505594
407.618110,1702.473667,-7254.018232,689.485948
407.618431,3034.844362,-7476.080014,1225.752797
407.618753,4071.132681,-5921.647536,1302.362347
407.619075,5107.421000,-4885.359217,-766.095498
407.619397,5255.462188,-6291.750507,-3294.210641
407.619718,3256.906145,-9252.574275,-4366.744339
407.620040,-666.185348,-11251.130318,-4673.182538
407.620362,-3478.967927,-14137.933492,-4366.744339
407.620684,-5033.400406,-16210.510130,-5209.449386
407.621005,-5403.503377,-16580.613101,-6205.373534
407.621327,-5773.606348,-13767.830521,-4596.572988
407.621649,-5255.462188,-11695.253884,-3677.258390
407.621970,-4515.256246,-10362.883188,-3217.601092
407.622292,-3849.070898,-9696.697840,-2221.676944
407.622614,-3552.988522,-9474.636058,0.000000
407.622936,-2368.659014,-8660.409521,1072.533697
407.623257,444.123565,-7105.977043,766.095498
407.623579,4367.215058,-7105.977043,0.000000
407.623901,7328.038826,-6883.915261,229.828649
407.624223,7994.224174,-6365.771101,306.438199
407.624544,6661.853478,-6957.935855,842.705048
407.624866,4663.297435,-9030.512492,229.828649
407.625188,2516.700203,-11547.212695,-3524.039291
407.625509,0.000000,-11769.274478,-5975.544884
407.625831,-1554.432478,-11251.130318,-5515.887586
407.626153,-2442.679609,-12287.418637,-4903.011187
407.626475,-2812.782580,-13619.789333,-3600.648841
407.626796,-4145.153275,-13249.686362,-2451.505594
407.627118,-5255.462188,-11843.295072,-1762.019645
407.627440,-6217.729913,-10584.944971,-1149.143247
407.627762,-6439.791695,-9474.636058,-306.438199
407.628083,-5773.606348,-7105.977043,76.609550
407.628405,-3404.947333,-5403.503377,689.485948
407.628727,0.000000,-4071.132681,1762.019645
407.629049,3256.906145,-4515.256246,2221.676944
407.629370,4589.276840,-5699.585753,3600.648841
407.629692,4219.173869,-6217.729913,3753.867940
407.630014,4071.132681,-6291.750507,1915.238745
407.630335,4071.132681,-6513.812290,-2068.457845
