#time,accel_x,accel_y,accel_z
281.468399,-444.123565,-9400.615463,-1608.800546
281.468722,-222.061783,-9030.512492,-1225.752797
281.469044,-296.082377,-9030.512492,-1302.362347
281.469366,-370.102971,-9104.533087,-1302.362347
281.469689,0.000000,-9326.594869,-1225.752797
281.470011,-592.164754,-9326.594869,-1302.362347
281.470333,-592.164754,-9548.656652,-1608.800546
281.470656,-592.164754,-9400.615463,-1455.581446
281.470978,-666.185348,-9030.512492,-1915.238745
281.471301,-370.102971,-8882.471304,-1378.971896
281.471623,-148.041188,-9252.574275,-1378.971896
281.471945,-444.123565,-9326.594869,-1455.581446
281.472268,-444.123565,-9326.594869,-1455.581446
281.472590,-370.102971,-9474.636058,-1072.533697
281.472912,-592.164754,-8956.491898,-1532.190996
281.473235,-592.164754,-9252.574275,-1685.410096
281.473557,-518.144159,-9252.574275,-1455.581446
281.473880,-370.102971,-9178.553681,-1608.800546
281.474202,-370.102971,-9178.553681,-1455.581446
281.474524,-296.082377,-9104.533087,-1378.971896
281.474847,-370.102971,-9178.553681,-1532.190996
281.475169,-666.185348,-9252.574275,-1685.410096
281.475491,-370.102971,-9474.636058,-1608.800546
281.475814,-370.102971,-9474.636058,-1532.190996
281.476136,-370.102971,-9548.656652,-1838.629195
281.476459,-444.123565,-9474.636058,-1608.800546
281.476781,-222.061783,-9252.574275,-1762.019645
281.477103,-444.123565,-9326.594869,-1838.629195
281.477426,-296.082377,-9474.636058,-1532.190996
281.477748,-444.123565,-9622.677246,-1915.238745
281.478070,-222.061783,-9548.656652,-2374.896044
281.478393,-444.123565,-9474.636058,-1838.629195
281.478715,-518.144159,-9400.615463,-1915.238745
281.479038,-370.102971,-9400.615463,-1608.800546
281.479360,-444.123565,-9400.615463,-2145.067394
281.479682,-148.041188,-9030.512492,-1378.971896
281.480005,74.020594,-9474.636058,-1838.629195
281.480327,-222.061783,-9622.677246,-1915.238745
281.480649,-370.102971,-9622.677246,-1762.019645
281.480972,-518.144159,-9696.697840,-1762.019645
281.481294,-222.061783,-9474.636058,-1455.581446
281.481617,0.000000,-9474.636058,-2145.067394
281.481939,-222.061783,-9326.594869,-1608.800546
281.482261,-148.041188,-9474.636058,-1915.238745
281.482584,-148.041188,-9474.636058,-1608.800546
281.482906,-370.102971,-9548.656652,-1378.971896
281.483228,-444.123565,-9104.533087,-1378.971896
281.483551,-518.144159,-9400.615463,-1608.800546
281.483873,-370.102971,-9400.615463,-1685.410096
281.484196,-222.061783,-9326.594869,-2068.457845
281.484518,-296.082377,-9252.574275,-1608.800546
281.484840,0.000000,-9252.574275,-1532.190996
281.485163,-740.205942,-8956.491898,-1532.190996
281.485485,-444.123565,-9548.656652,-1455.581446
281.485807,-592.164754,-9622.677246,-1455.581446
281.486130,-444.123565,-9548.656652,-1378.971896
281.486452,-370.102971,-9474.636058,-1608.800546
281.486775,0.000000,-9400.615463,-1149.143247
281.487097,-444.123565,-9030.512492,-1608.800546
281.487419,-518.144159,-9178.553681,-1378.971896
281.487742,-370.102971,-9178.553681,-1302.362347
281.488064,-444.123565,-9400.615463,-1302.362347
281.488386,-296.082377,-9474.636058,-1455.581446
281.488709,-666.185348,-8956.491898,-1225.752797
281.489031,-592.164754,-9326.594869,-1302.362347
281.489353,0.000000,-9030.512492,-1302.362347
281.489676,1332.370696,-9474.636058,-1762.019645
281.489998,2590.720797,-9400.615463,-1915.238745
281.490321,2738.761985,-9030.512492,0.000000
281.490643,1998.556043,-8734.430116,229.828649
281.490965,1036.288319,-8734.430116,-689.485948
281.491288,0.000000,-9326.594869,-2068.457845
281.491610,-1776.494261,-9400.615463,-1915.238745
281.491932,-3552.988522,-9474.636058,-1532.190996
281.492255,-4441.235652,-9326.594869,-2145.067394
281.492577,-3775.050304,-9400.615463,-2681.334243
281.492900,-1776.494261,-9696.697840,-2834.553343
281.493222,814.226536,-10732.986159,-1991.848295
281.493544,2368.659014,-10732.986159,0.000000
281.493867,3034.844362,-9474.636058,0.000000
281.494189,2442.679609,-8586.388927,-612.876398
281.494511,3256.906145,-9252.574275,-2068.457845
281.494834,3478.967927,-9918.759623,-2451.505594
281.495156,2294.638420,-9474.636058,-1302.362347
281.495479,814.226536,-7920.203579,0.000000
281.495801,74.020594,-7328.038826,-689.485948
281.496123,1480.411884,-9326.594869,-2298.286494
281.496446,1332.370696,-10436.903782,-2298.286494
281.496768,-296.082377,-9548.656652,-383.047749
281.497090,-962.267725,-9030.512492,-766.095498
281.497413,0.000000,-9030.512492,-3600.648841
281.497735,666.185348,-9548.656652,-3830.477490
281.498058,1110.308913,-10288.862594,-1762.019645
281.498380,1258.350101,-10881.027347,-995.924147
281.498702,2442.679609,-9844.739029,-2298.286494
281.499025,3478.967927,-9178.553681,-1991.848295
281.499347,4589.276840,-10362.883188,-919.314598
281.499669,4589.276840,-10807.006753,-306.438199
281.499992,3775.050304,-9622.677246,-1302.362347
281.500314,2368.659014,-7772.162391,-1378.971896
281.500637,2220.617826,-7772.162391,-229.828649
281.500959,2072.576638,-8364.327145,-1532.190996
281.501281,1184.329507,-7846.182985,-1915.238745
281.501604,148.041188,-7920.203579,-1608.800546
281.501926,666.185348,-9474.636058,-842.705048
281.502248,1702.473667,-10881.027347,-842.705048
281.502571,2220.617826,-9474.636058,-2068.457845
281.502893,1480.411884,-9474.636058,-2451.505594
281.503216,2220.617826,-10362.883188,-1685.410096
281.503538,2812.782580,-9918.759623,-1378.971896
281.503860,2738.761985,-9696.697840,-2604.724693
281.504183,2442.679609,-10140.821405,-2374.896044
281.504505,2738.761985,-11399.171507,-995.924147
281.504827,3256.906145,-10362.883188,-536.266849
281.505150,3182.885551,-9474.636058,-1685.410096
281.505472,2960.823768,-9178.553681,-1149.143247
281.505795,2516.700203,-8956.491898,0.000000
281.506117,1776.494261,-7179.997637,0.000000
281.506439,148.041188,-7105.977043,-766.095498
281.506762,-740.205942,-7920.203579,-1532.190996
281.507084,-1480.411884,-8882.471304,-1072.533697
281.507406,-1480.411884,-9622.677246,-842.705048
281.507729,-1850.514855,-10436.903782,-612.876398
281.508051,-962.267725,-11325.150913,-1149.143247
281.508374,0.000000,-10955.047942,-842.705048
281.508696,740.205942,-10140.821405,-459.657299
281.509018,888.247130,-9474.636058,-1149.143247
281.509341,814.226536,-8882.471304,-1455.581446
281.509663,592.164754,-8290.306550,-1455.581446
281.509985,0.000000,-8438.347739,-919.314598
281.510308,-296.082377,-8808.450710,-842.705048
281.510630,-296.082377,-8808.450710,-1915.238745
281.510952,0.000000,-8586.388927,-1378.971896
281.511275,74.020594,-8808.450710,-1225.752797
281.511597,370.102971,-8586.388927,-1225.752797
281.511920,370.102971,-7994.224174,-1608.800546
281.512242,444.123565,-8586.388927,-1838.629195
281.512564,518.144159,-9474.636058,-1225.752797
281.512887,814.226536,-9844.739029,-1838.629195
281.513209,148.041188,-9696.697840,-2298.286494
281.513531,148.041188,-10510.924376,-1991.848295
281.513854,222.061783,-11029.068536,-1532.190996
281.514176,222.061783,-10881.027347,-1608.800546
281.514499,-222.061783,-10214.842000,-1608.800546
281.514821,-1184.329507,-9918.759623,-995.924147
281.515143,-1184.329507,-9548.656652,-919.314598
281.515466,-962.267725,-9178.553681,-1685.410096
281.515788,-1258.350101,-8142.265362,-1991.848295
281.516110,-962.267725,-7920.203579,-1685.410096
281.516433,-222.061783,-7698.141797,-1378.971896
281.516755,0.000000,-7698.141797,-2145.067394
281.517078,222.061783,-7994.224174,-2604.724693
281.517400,222.061783,-8882.471304,-2911.162892
281.517722,592.164754,-10140.821405,-3447.429741
281.518045,592.164754,-10955.047942,-3983.696590
281.518367,888.247130,-11399.171507,-3600.648841
281.518689,962.267725,-11177.109724,-2834.553343
281.519012,1184.329507,-10584.944971,-2145.067394
281.519334,888.247130,-9992.780217,-2298.286494
281.519657,370.102971,-9770.718434,-2528.115143
281.519979,-592.164754,-10362.883188,-1838.629195
281.520301,-1702.473667,-9696.697840,-612.876398
281.520624,-2072.576638,-9030.512492,0.000000
281.520946,-2442.679609,-7846.182985,-766.095498
281.521268,-2072.576638,-7105.977043,-1225.752797
281.521591,-1998.556043,-6809.894666,-766.095498
281.521913,-1850.514855,-6513.812290,-766.095498
281.522236,-1628.453072,-7105.977043,-1149.143247
281.522558,-1184.329507,-8142.265362,-2298.286494
281.522880,-1258.350101,-9474.636058,-2681.334243
281.523203,-1110.308913,-11177.109724,-2911.162892
281.523525,-888.247130,-11991.336260,-2757.943793
281.523847,0.000000,-11547.212695,-3140.991542
281.524170,444.123565,-10436.903782,-3447.429741
281.524492,592.164754,-9252.574275,-3217.601092
281.524815,0.000000,-9326.594869,-2757.943793
281.525137,-1258.350101,-10658.965565,-2221.676944
281.525459,-3404.947333,-11473.192101,-1302.362347
281.525782,-4663.297435,-11473.192101,-459.657299
281.526104,-4515.256246,-10584.944971,0.000000
281.526426,-2812.782580,-9178.553681,-459.657299
281.526749,-888.247130,-7179.997637,-383.047749
281.527071,444.123565,-6217.729913,153.219100
281.527394,1850.514855,-5773.606348,1072.533697
281.527716,2220.617826,-5995.668130,536.266849
281.528038,1998.556043,-7328.038826,-1149.143247
281.528361,1702.473667,-9622.677246,-2528.115143
281.528683,1258.350101,-11621.233289,-2987.772442
281.529005,1480.411884,-12731.542202,-2604.724693
281.529328,1850.514855,-12213.398043,-2451.505594
281.529650,2368.659014,-11251.130318,-2221.676944
281.529973,2368.659014,-9622.677246,-2451.505594
281.530295,1036.288319,-9918.759623,-1915.238745
281.530617,-888.247130,-11029.068536,-995.924147
281.530940,-3108.864956,-11547.212695,-459.657299
281.531262,-3849.070898,-10732.986159,229.828649
281.531584,-2960.823768,-9252.574275,1072.533697
281.531907,-1554.432478,-6439.791695,1532.190996
281.532229,-148.041188,-4959.379811,842.705048
281.532551,296.082377,-3701.029710,1608.800546
281.532874,370.102971,-3849.070898,1302.362347
281.533196,148.041188,-5329.482782,-383.047749
281.533519,-1036.288319,-7254.018232,-2145.067394
281.533841,-1628.453072,-9992.780217,-3830.477490
281.534163,-1924.535449,-11769.274478,-3447.429741
281.534486,-1036.288319,-12879.583391,-3524.039291
281.534808,518.144159,-12731.542202,-3677.258390
281.535130,1924.535449,-12287.418637,-4213.525239
281.535453,2812.782580,-10732.986159,-3677.258390
281.535775,2072.576638,-10732.986159,-3294.210641
281.536098,1184.329507,-11029.068536,-3370.820191
281.536420,-296.082377,-11399.171507,-2604.724693
281.536742,-1554.432478,-11103.089130,-766.095498
281.537065,-1776.494261,-9844.739029,0.000000
281.537387,-1480.411884,-8438.347739,842.705048
281.537709,-444.123565,-6883.915261,919.314598
281.538032,296.082377,-5033.400406,1455.581446
281.538354,1036.288319,-4145.153275,383.047749
281.538677,1924.535449,-4811.338623,-1149.143247
281.538999,1924.535449,-7402.059420,-2298.286494
281.539322,1628.453072,-9622.677246,-3064.381992
281.539645,888.247130,-12361.439231,-3524.039291
281.539967,592.164754,-14434.015869,-4979.620737
281.540290,592.164754,-14582.057057,-5286.058936
281.540613,962.267725,-13545.768739,-5056.230287
281.540935,1406.391290,-11843.295072,-4903.011187
281.541258,370.102971,-9992.780217,-4136.915689
281.541580,-666.185348,-9918.759623,-3294.210641
281.541903,-2368.659014,-10732.986159,-1991.848295
281.542226,-3552.988522,-10288.862594,-306.438199
281.542548,-4589.276840,-9252.574275,0.000000
281.542871,-4145.153275,-8068.244768,153.219100
281.543194,-3034.844362,-6513.812290,766.095498
281.543516,-1850.514855,-4885.359217,1685.410096
281.543839,-666.185348,-3923.091493,2068.457845
281.544161,74.020594,-3478.967927,689.485948
281.544484,0.000000,-4737.318029,-1302.362347
281.544807,-518.144159,-7031.956449,-2451.505594
281.545129,-1554.432478,-9696.697840,-3064.381992
281.545452,-1998.556043,-12287.418637,-3447.429741
281.545775,-1480.411884,-14137.933492,-3600.648841
281.546097,-592.164754,-14359.995275,-3677.258390
281.546420,0.000000,-13027.624579,-4136.915689
281.546742,740.205942,-11325.150913,-4213.525239
281.547065,666.185348,-9696.697840,-3677.258390
281.547388,74.020594,-9548.656652,-3370.820191
281.547710,-1110.308913,-10584.944971,-1608.800546
281.548033,-3108.864956,-11029.068536,766.095498
281.548355,-4515.256246,-10140.821405,2068.457845
281.548678,-3627.009116,-8586.388927,2145.067394
281.549001,-1554.432478,-6883.915261,919.314598
281.549323,888.247130,-5699.585753,-612.876398
281.549646,2072.576638,-4663.297435,459.657299
281.549969,2368.659014,-3997.112087,1685.410096
281.550291,2368.659014,-5255.462188,0.000000
281.550614,1776.494261,-8808.450710,-2757.943793
281.550936,1036.288319,-11843.295072,-4519.963438
281.551259,0.000000,-13841.851115,-4826.401637
281.551582,-740.205942,-14656.077652,-4136.915689
281.551904,74.020594,-14359.995275,-3370.820191
281.552227,1406.391290,-12805.562797,-3370.820191
281.552550,1628.453072,-11325.150913,-2604.724693
281.552872,444.123565,-9844.739029,-919.314598
281.553195,-1332.370696,-10066.800811,-689.485948
281.553517,-2812.782580,-9992.780217,0.000000
281.553840,-2146.597232,-8660.409521,153.219100
281.554163,-888.247130,-6439.791695,919.314598
281.554485,-222.061783,-5033.400406,1762.019645
281.554808,814.226536,-4515.256246,3370.820191
281.555131,518.144159,-3849.070898,3294.210641
281.555453,518.144159,-4145.153275,919.314598
281.555776,0.000000,-5773.606348,-1991.848295
281.556098,-666.185348,-8290.306550,-3983.696590
281.556421,-1628.453072,-10288.862594,-3983.696590
281.556744,-962.267725,-12805.562797,-3217.601092
281.557066,0.000000,-14063.912898,-3294.210641
281.557389,1110.308913,-14063.912898,-3753.867940
281.557712,1332.370696,-13175.665768,-3524.039291
281.558034,740.205942,-11917.315666,-3064.381992
281.558357,-148.041188,-11547.212695,-3140.991542
281.558679,-666.185348,-11177.109724,-2451.505594
281.559002,-1184.329507,-9844.739029,-1149.143247
281.559325,-1258.350101,-8068.244768,229.828649
281.559647,-1036.288319,-7179.997637,1225.752797
281.559970,0.000000,-6661.853478,1302.362347
281.560293,296.082377,-6143.709319,1072.533697
281.560615,444.123565,-5699.585753,766.095498
281.560938,1036.288319,-5329.482782,-383.047749
281.561260,1406.391290,-5477.523971,-1991.848295
281.561583,1628.453072,-7476.080014,-3447.429741
281.561906,1258.350101,-10214.842000,-3753.867940
281.562228,888.247130,-12435.459826,-4673.182538
281.562551,296.082377,-14211.954086,-4903.011187
281.562874,518.144159,-15470.304188,-4213.525239
281.563196,444.123565,-14582.057057,-3907.087040
281.563519,-666.185348,-13027.624579,-3677.258390
281.563841,-1110.308913,-11621.233289,-2987.772442
281.564164,-1998.556043,-10881.027347,-2068.457845
281.564487,-2664.741391,-10066.800811,-919.314598
281.564809,-2886.803174,-8364.327145,229.828649
281.565132,-3108.864956,-6661.853478,612.876398
281.565454,-2664.741391,-5995.668130,459.657299
281.565777,-2146.597232,-5551.544565,1455.581446
281.566100,-1628.453072,-4737.318029,1532.190996
281.566422,-1036.288319,-4441.235652,306.438199
281.566745,-592.164754,-4441.235652,-919.314598
281.567068,-148.041188,-5995.668130,-2451.505594
281.567390,-888.247130,-8142.265362,-3447.429741
281.567713,-1332.370696,-10881.027347,-4443.353888
281.568035,-1332.370696,-13545.768739,-4366.744339
281.568358,-962.267725,-15174.221811,-4136.915689
281.568681,-1110.308913,-15026.180623,-3677.258390
281.569003,-1554.432478,-14137.933492,-3294.210641
281.569326,-1850.514855,-11991.336260,-3064.381992
281.569649,-1776.494261,-10362.883188,-2681.334243
281.569971,-1850.514855,-8438.347739,-1608.800546
281.570294,-2072.576638,-7254.018232,0.000000
281.570616,-2442.679609,-6513.812290,995.924147
281.570939,-2220.617826,-6439.791695,1685.410096
281.571262,-1332.370696,-7254.018232,1378.971896
281.571584,0.000000,-7328.038826,1149.143247
281.571907,592.164754,-6439.791695,689.485948
281.572230,1332.370696,-5699.585753,-536.266849
281.572552,2368.659014,-6809.894666,-1915.238745
281.572875,3330.926739,-8364.327145,-2834.553343
281.573197,2812.782580,-10214.842000,-3370.820191
281.573520,1998.556043,-12509.480420,-3370.820191
281.573843,888.247130,-14508.036463,-2681.334243
281.574165,370.102971,-15174.221811,-3064.381992
281.574488,0.000000,-13619.789333,-3064.381992
281.574811,-666.185348,-11917.315666,-2681.334243
281.575133,-1110.308913,-11029.068536,-2068.457845
281.575456,-1924.535449,-10066.800811,-536.266849
281.575778,-2220.617826,-7994.224174,689.485948
281.576101,-2072.576638,-6217.729913,842.705048
281.576424,-1110.308913,-5477.523971,612.876398
281.576746,-370.102971,-5625.565159,612.876398
281.577069,-888.247130,-5181.441594,1532.190996
281.577392,-666.185348,-5181.441594,1532.190996
281.577714,-592.164754,-6069.688724,-153.219100
281.578037,-518.144159,-6957.935855,-2451.505594
281.578359,-814.226536,-8438.347739,-4136.915689
281.578682,-1036.288319,-9696.697840,-4826.401637
281.579005,-740.205942,-12139.377449,-4290.134789
281.579327,296.082377,-14508.036463,-4060.306139
281.579650,888.247130,-15100.201217,-3600.648841
281.579972,962.267725,-14211.954086,-2911.162892
281.580295,518.144159,-12953.603985,-2528.115143
281.580618,518.144159,-11843.295072,-1838.629195
281.580940,74.020594,-10140.821405,-1915.238745
281.581263,-518.144159,-8586.388927,-536.266849
281.581586,-962.267725,-6957.935855,1072.533697
281.581908,-222.061783,-6291.750507,1608.800546
281.582231,148.041188,-6661.853478,1685.410096
281.582553,1036.288319,-6661.853478,612.876398
281.582876,518.144159,-6069.688724,383.047749
281.583199,814.226536,-6069.688724,-842.705048
281.583521,1184.329507,-6735.874072,-2374.896044
281.583844,1702.473667,-8364.327145,-2911.162892
281.584167,2072.576638,-9770.718434,-4060.306139
281.584489,1036.288319,-11843.295072,-4749.792088
281.584812,1110.308913,-13693.809927,-4519.963438
281.585134,518.144159,-14434.015869,-3677.258390
281.585457,0.000000,-13989.892304,-3370.820191
281.585780,-1110.308913,-12583.501014,-3370.820191
281.586102,-2294.638420,-11473.192101,-2451.505594
281.586425,-2738.761985,-10436.903782,-1532.190996
281.586748,-3478.967927,-8882.471304,-536.266849
281.587070,-3627.009116,-7105.977043,536.266849
281.587393,-3182.885551,-5921.647536,995.924147
281.587715,-2442.679609,-5477.523971,1915.238745
281.588038,-1850.514855,-5329.482782,1762.019645
281.588361,-1332.370696,-5033.400406,1225.752797
281.588683,-666.185348,-5107.421000,0.000000
281.589006,-222.061783,-6143.709319,-1302.362347
281.589329,0.000000,-7031.956449,-1991.848295
281.589651,74.020594,-9326.594869,-3753.867940
281.589974,222.061783,-11621.233289,-4826.401637
281.590296,518.144159,-14137.933492,-4673.182538
281.590619,592.164754,-14878.139434,-3983.696590
281.590942,444.123565,-14434.015869,-3447.429741
281.591264,0.000000,-12879.583391,-2757.943793
281.591587,-888.247130,-11029.068536,-2604.724693
281.591910,-1850.514855,-9474.636058,-2451.505594
281.592232,-2886.803174,-8586.388927,-1762.019645
281.592555,-3627.009116,-7550.100608,0.000000
281.592877,-3923.091493,-7105.977043,1072.533697
281.593200,-2812.782580,-7402.059420,1225.752797
281.593523,-1332.370696,-7105.977043,689.485948
281.593845,-370.102971,-6957.935855,229.828649
281.594168,296.082377,-6587.832884,306.438199
281.594490,1036.288319,-6365.771101,0.000000
281.594813,1776.494261,-7105.977043,-2298.286494
281.595136,2294.638420,-9178.553681,-4443.353888
281.595458,2220.617826,-11251.130318,-4749.792088
281.595781,1332.370696,-13101.645173,-3983.696590
281.596104,1110.308913,-13545.768739,-3217.601092
281.596426,518.144159,-13989.892304,-2911.162892
281.596749,814.226536,-13027.624579,-3600.648841
281.597071,296.082377,-12139.377449,-2757.943793
281.597394,-1258.350101,-11029.068536,-919.314598
281.597717,-2738.761985,-9400.615463,153.219100
281.598039,-2886.803174,-7994.224174,1302.362347
281.598362,-1776.494261,-6069.688724,995.924147
281.598685,-740.205942,-4663.297435,842.705048
281.599007,-592.164754,-4589.276840,919.314598
281.599330,-666.185348,-5107.421000,1991.848295
281.599652,-518.144159,-5847.626942,2221.676944
281.599975,74.020594,-6883.915261,-536.266849
281.600298,-370.102971,-7846.182985,-2987.772442
281.600620,-1036.288319,-9178.553681,-4903.011187
281.600943,-1258.350101,-11103.089130,-4826.401637
281.601266,-666.185348,-13175.665768,-4136.915689
281.601588,0.000000,-14434.015869,-3907.087040
281.601911,888.247130,-14656.077652,-4290.134789
281.602233,740.205942,-13619.789333,-3524.039291
281.602556,592.164754,-12509.480420,-2911.162892
281.602879,444.123565,-11325.150913,-2528.115143
281.603201,148.041188,-10140.821405,-1225.752797
281.603524,-740.205942,-8956.491898,-153.219100
281.603847,-1184.329507,-7624.121203,1378.971896
281.604169,-1036.288319,-6883.915261,1991.848295
281.604492,0.000000,-6439.791695,1378.971896
281.604814,888.247130,-6217.729913,1072.533697
281.605137,1998.556043,-5921.647536,76.609550
281.605460,2442.679609,-6069.688724,0.000000
281.605782,2738.761985,-6809.894666,-1149.143247
281.606105,2442.679609,-8142.265362,-2528.115143
281.606428,2220.617826,-9918.759623,-4136.915689
281.606750,1628.453072,-11991.336260,-5822.325785
281.607073,666.185348,-13915.871710,-5056.230287
281.607395,222.061783,-14804.118840,-3830.477490
281.607718,74.020594,-14211.954086,-2604.724693
281.608041,-370.102971,-12287.418637,-2451.505594
281.608363,-370.102971,-10955.047942,-2374.896044
281.608686,-1702.473667,-9770.718434,-1149.143247
281.609009,-2442.679609,-8660.409521,0.000000
281.609331,-3256.906145,-6883.915261,689.485948
281.609654,-3256.906145,-5625.565159,1149.143247
281.609976,-2294.638420,-4959.379811,1302.362347
281.610299,-1924.535449,-4885.359217,1072.533697
281.610622,-1036.288319,-4959.379811,1149.143247
281.610944,-592.164754,-5255.462188,383.047749
281.611267,0.000000,-5921.647536,-919.314598
281.611589,296.082377,-7328.038826,-2451.505594
281.611912,222.061783,-8956.491898,-3447.429741
281.612235,-296.082377,-11621.233289,-4903.011187
281.612557,-296.082377,-13693.809927,-4596.572988
281.612880,-370.102971,-14878.139434,-4060.306139
281.613203,-296.082377,-14508.036463,-3217.601092
281.613525,-592.164754,-12435.459826,-2911.162892
281.613848,-1036.288319,-11325.150913,-3064.381992
281.614170,-1702.473667,-9770.718434,-2451.505594
281.614493,-2146.597232,-9030.512492,-1302.362347
281.614816,-3034.844362,-8068.244768,-229.828649
281.615138,-3627.009116,-7550.100608,1302.362347
281.615461,-3478.967927,-7624.121203,1072.533697
281.615784,-2590.720797,-7402.059420,995.924147
281.616106,-1110.308913,-7031.956449,306.438199
281.616429,222.061783,-6587.832884,-689.485948
281.616751,1184.329507,-6439.791695,-1072.533697
281.617074,1776.494261,-6735.874072,-1991.848295
281.617397,1850.514855,-8586.388927,-2757.943793
281.617719,1480.411884,-11177.109724,-3983.696590
281.618042,740.205942,-13397.727550,-4826.401637
281.618365,296.082377,-14582.057057,-4673.182538
281.618687,592.164754,-14508.036463,-4366.744339
281.619010,0.000000,-13471.748144,-3064.381992
281.619332,0.000000,-11917.315666,-2221.676944
281.619655,-444.123565,-10732.986159,-1072.533697
281.619978,-1702.473667,-9104.533087,0.000000
281.620300,-2738.761985,-7402.059420,153.219100
281.620623,-2960.823768,-6661.853478,1455.581446
281.620946,-1850.514855,-5181.441594,1378.971896
281.621268,-814.226536,-4959.379811,995.924147
281.621591,-222.061783,-4737.318029,1455.581446
281.621913,0.000000,-5033.400406,1608.800546
281.622236,148.041188,-5255.462188,306.438199
281.622559,148.041188,-7254.018232,-1991.848295
281.622881,-370.102971,-9030.512492,-3983.696590
281.623204,-888.247130,-11177.109724,-5056.230287
281.623527,-592.164754,-13101.645173,-4673.182538
281.623849,518.144159,-14285.974681,-4060.306139
281.624172,1406.391290,-14359.995275,-3524.039291
281.624494,1702.473667,-13027.624579,-3140.991542
281.624817,1776.494261,-11917.315666,-2451.505594
281.625140,740.205942,-10955.047942,-1915.238745
281.625462,-148.041188,-9918.759623,-1378.971896
281.625785,-666.185348,-8956.491898,0.000000
281.626107,-1258.350101,-7624.121203,459.657299
281.626430,-888.247130,-6883.915261,1072.533697
281.626753,0.000000,-6291.750507,1762.019645
281.627075,814.226536,-6069.688724,1532.190996
281.627398,1998.556043,-6513.812290,766.095498
281.627721,2294.638420,-6439.791695,-229.828649
281.628043,2442.679609,-6809.894666,-1608.800546
281.628366,2146.597232,-7698.141797,-3064.381992
281.628688,1628.453072,-10140.821405,-4366.744339
281.629011,1406.391290,-12435.459826,-4443.353888
281.629334,888.247130,-13989.892304,-5286.058936
281.629656,0.000000,-14211.954086,-3907.087040
281.629979,-592.164754,-14137.933492,-3064.381992
281.630302,-518.144159,-13175.665768,-2911.162892
281.630624,-814.226536,-11843.295072,-2528.115143
281.630947,-1258.350101,-9918.759623,-1608.800546
281.631269,-2886.803174,-8364.327145,153.219100
281.631592,-2960.823768,-7105.977043,919.314598
281.631915,-2960.823768,-5773.606348,1302.362347
281.632237,-2368.659014,-4737.318029,1072.533697
281.632560,-1480.411884,-4811.338623,842.705048
281.632883,-962.267725,-5329.482782,689.485948
281.633205,-444.123565,-5773.606348,536.266849
281.633528,0.000000,-6439.791695,-766.095498
281.633850,74.020594,-7846.182985,-2221.676944
281.634173,0.000000,-9474.636058,-4213.525239
281.634496,-370.102971,-11177.109724,-4366.744339
281.634818,-1036.288319,-12731.542202,-4673.182538
281.635141,-1480.411884,-14063.912898,-4366.744339
281.635464,-1480.411884,-14137.933492,-3677.258390
281.635786,-1924.535449,-13323.706956,-2987.772442
281.636109,-2368.659014,-11695.253884,-2757.943793
281.636431,-2886.803174,-11029.068536,-2374.896044
281.636754,-3478.967927,-9474.636058,-1149.143247
281.637077,-3775.050304,-7846.182985,0.000000
281.637399,-3108.864956,-6513.812290,689.485948
281.637722,-1924.535449,-5699.585753,995.924147
281.638045,-1036.288319,-5699.585753,229.828649
281.638367,296.082377,-6587.832884,459.657299
281.638691,1406.391290,-7105.977043,153.219100
281.639014,2368.659014,-7624.121203,-842.705048
281.639336,3034.844362,-8364.327145,-2145.067394
281.639659,3034.844362,-9844.739029,-3217.601092
281.639981,2590.720797,-11177.109724,-3370.820191
281.640304,2220.617826,-12509.480420,-3983.696590
281.640626,1110.308913,-13323.706956,-4366.744339
281.640949,296.082377,-13693.809927,-3600.648841
281.641271,74.020594,-13841.851115,-2987.772442
281.641594,-1184.329507,-13101.645173,-1915.238745
281.641916,-2294.638420,-11399.171507,-1149.143247
281.642239,-2960.823768,-9770.718434,-459.657299
281.642561,-2738.761985,-7476.080014,383.047749
281.642884,-1702.473667,-5625.565159,689.485948
281.643206,-740.205942,-4515.256246,919.314598
281.643529,-296.082377,-4589.276840,1378.971896
281.643852,0.000000,-4959.379811,1455.581446
281.644174,-296.082377,-6069.688724,459.657299
281.644497,-444.123565,-7105.977043,-1302.362347
281.644819,-592.164754,-8142.265362,-2451.505594
281.645142,-370.102971,-9474.636058,-3677.258390
281.645464,-444.123565,-10732.986159,-4290.134789
281.645787,0.000000,-11991.336260,-3983.696590
281.646109,888.247130,-13101.645173,-3907.087040
281.646432,1332.370696,-13471.748144,-3830.477490
281.646754,740.205942,-12731.542202,-2374.896044
281.647077,592.164754,-12287.418637,-2145.067394
281.647399,148.041188,-11843.295072,-1608.800546
281.647722,-296.082377,-10732.986159,-383.047749
281.648044,-666.185348,-8660.409521,689.485948
281.648367,-814.226536,-6513.812290,1762.019645
281.648689,0.000000,-5477.523971,1302.362347
281.649012,888.247130,-5329.482782,1149.143247
281.649334,1258.350101,-5477.523971,1225.752797
281.649657,1184.329507,-5921.647536,766.095498
281.649979,1406.391290,-6957.935855,-229.828649
281.650302,1924.535449,-7994.224174,-2451.505594
281.650625,1554.432478,-9400.615463,-3907.087040
281.650947,1184.329507,-10658.965565,-4979.620737
281.651270,666.185348,-12139.377449,-5056.230287
281.651592,444.123565,-13619.789333,-4366.744339
281.651915,740.205942,-14582.057057,-3753.867940
281.652237,-518.144159,-13915.871710,-3064.381992
281.652560,-1628.453072,-12879.583391,-2757.943793
281.652882,-2220.617826,-11547.212695,-2374.896044
281.653205,-2516.700203,-10214.842000,-1149.143247
281.653527,-2590.720797,-8512.368333,0.000000
281.653850,-3182.885551,-6513.812290,919.314598
281.654172,-2442.679609,-5181.441594,1072.533697
281.654495,-1850.514855,-4885.359217,1455.581446
281.654817,-1036.288319,-5255.462188,1685.410096
281.655140,0.000000,-5403.503377,919.314598
281.655462,0.000000,-5699.585753,0.000000
281.655785,592.164754,-7105.977043,-1608.800546
281.656107,740.205942,-8438.347739,-2834.553343
281.656430,740.205942,-10140.821405,-3907.087040
281.656752,370.102971,-11843.295072,-4443.353888
281.657075,370.102971,-13397.727550,-4749.792088
281.657398,-444.123565,-14434.015869,-4749.792088
281.657720,-1480.411884,-14285.974681,-4290.134789
281.658043,-2220.617826,-13397.727550,-3064.381992
281.658365,-2590.720797,-11843.295072,-2681.334243
281.658688,-2960.823768,-9918.759623,-2604.724693
281.659010,-3404.947333,-8438.347739,-612.876398
281.659333,-3923.091493,-7105.977043,306.438199
281.659655,-3478.967927,-6217.729913,1072.533697
281.659978,-2294.638420,-5625.565159,383.047749
281.660300,-666.185348,-6143.709319,229.828649
281.660623,222.061783,-6439.791695,0.000000
281.660945,1406.391290,-6809.894666,689.485948
281.661268,2368.659014,-7624.121203,-306.438199
281.661590,2516.700203,-8586.388927,-2298.286494
281.661913,2812.782580,-9844.739029,-3600.648841
281.662235,2368.659014,-11325.150913,-4749.792088
281.662558,1406.391290,-12361.439231,-3907.087040
281.662880,888.247130,-13989.892304,-3753.867940
281.663203,962.267725,-14359.995275,-3217.601092
281.663526,370.102971,-13175.665768,-2374.896044
281.663848,-296.082377,-11695.253884,-1149.143247
281.664171,-2220.617826,-10066.800811,-536.266849
281.664493,-2960.823768,-9030.512492,-306.438199
281.664816,-2960.823768,-7254.018232,306.438199
281.665138,-2294.638420,-5699.585753,536.266849
281.665461,-1554.432478,-4737.318029,612.876398
281.665783,-666.185348,-4811.338623,1455.581446
281.666106,74.020594,-5477.523971,1149.143247
281.666428,74.020594,-5921.647536,383.047749
281.666751,0.000000,-7105.977043,-1455.581446
281.667073,-148.041188,-8438.347739,-3447.429741
281.667396,-592.164754,-9696.697840,-4213.525239
281.667718,-962.267725,-11103.089130,-4673.182538
281.668041,-444.123565,-12879.583391,-4673.182538
281.668363,666.185348,-13989.892304,-4596.572988
281.668686,1406.391290,-14211.954086,-3983.696590
281.669008,1480.411884,-13397.727550,-3140.991542
281.669331,1184.329507,-12139.377449,-1838.629195
281.669653,962.267725,-11325.150913,-1072.533697
281.669976,74.020594,-9622.677246,-306.438199
281.670299,-666.185348,-7624.121203,766.095498
281.670621,-814.226536,-6217.729913,1072.533697
281.670944,-518.144159,-5181.441594,1532.190996
281.671266,0.000000,-5107.421000,1762.019645
281.671589,740.205942,-5551.544565,1225.752797
281.671911,1554.432478,-6587.832884,76.609550
281.672234,1998.556043,-7624.121203,-842.705048
281.672556,1998.556043,-8142.265362,-2068.457845
281.672879,814.226536,-8734.430116,-2681.334243
281.673201,148.041188,-10510.924376,-4519.963438
281.673524,-148.041188,-12435.459826,-5439.278036
281.673846,-666.185348,-13471.748144,-5515.887586
281.674169,-888.247130,-14211.954086,-4290.134789
281.674491,-962.267725,-13989.892304,-3600.648841
281.674814,-592.164754,-13101.645173,-2834.553343
281.675136,-814.226536,-11769.274478,-2068.457845
281.675459,-1406.391290,-10362.883188,-612.876398
281.675781,-2072.576638,-8586.388927,995.924147
281.676104,-2072.576638,-6661.853478,1532.190996
281.676426,-2368.659014,-5033.400406,1378.971896
281.676749,-1406.391290,-4441.235652,1225.752797
281.677072,-444.123565,-4737.318029,919.314598
281.677394,74.020594,-5181.441594,766.095498
281.677717,444.123565,-5921.647536,153.219100
281.678039,444.123565,-6957.935855,-766.095498
281.678362,296.082377,-8808.450710,-2987.772442
281.678684,0.000000,-10510.924376,-4366.744339
281.679007,-1110.308913,-12139.377449,-4903.011187
281.679329,-2072.576638,-13545.768739,-4903.011187
281.679652,-2516.700203,-14211.954086,-5056.230287
281.679974,-2516.700203,-14137.933492,-4443.353888
281.680297,-2812.782580,-13101.645173,-3753.867940
281.680619,-3182.885551,-11917.315666,-2911.162892
281.680942,-3923.091493,-10584.944971,-1915.238745
281.681264,-4441.235652,-8956.491898,0.000000
281.681587,-3923.091493,-7476.080014,-153.219100
281.681909,-3627.009116,-6735.874072,0.000000
281.682232,-3404.947333,-6143.709319,383.047749
281.682554,-1850.514855,-5995.668130,919.314598
281.682877,74.020594,-6439.791695,229.828649
281.683199,2072.576638,-7031.956449,-766.095498
281.683522,3182.885551,-7328.038826,-689.485948
281.683845,3775.050304,-7994.224174,-1762.019645
281.684167,4145.153275,-9770.718434,-2834.553343
281.684490,3701.029710,-11473.192101,-3677.258390
281.684812,2590.720797,-12805.562797,-4060.306139
281.685135,1628.453072,-13101.645173,-4136.915689
281.685457,518.144159,-13471.748144,-2911.162892
281.685780,-296.082377,-12805.562797,-2221.676944
281.686102,-1480.411884,-11769.274478,-1762.019645
281.686425,-2368.659014,-10288.862594,-612.876398
281.686747,-3256.906145,-8216.285956,76.609550
281.687070,-3182.885551,-7105.977043,153.219100
281.687392,-2516.700203,-5699.585753,536.266849
281.687715,-1628.453072,-5107.421000,766.095498
281.688037,-1110.308913,-5107.421000,306.438199
281.688360,-222.061783,-5847.626942,383.047749
281.688682,-296.082377,-6513.812290,229.828649
281.689005,0.000000,-7402.059420,-689.485948
281.689327,-148.041188,-8512.368333,-2604.724693
281.689650,0.000000,-9474.636058,-4290.134789
281.689972,740.205942,-10807.006753,-4979.620737
281.690295,1332.370696,-12065.356855,-3907.087040
281.690618,2442.679609,-13471.748144,-3677.258390
281.690940,3034.844362,-13841.851115,-2757.943793
281.691263,2812.782580,-13027.624579,-1455.581446
281.691585,1850.514855,-11917.315666,-919.314598
281.691908,814.226536,-10955.047942,-1072.533697
281.692230,-740.205942,-9548.656652,-536.266849
281.692553,-1332.370696,-7476.080014,536.266849
281.692875,-1480.411884,-6217.729913,919.314598
281.693198,-1258.350101,-5403.503377,1302.362347
281.693520,-1036.288319,-5477.523971,919.314598
281.693843,296.082377,-6439.791695,383.047749
281.694165,1184.329507,-7254.018232,-459.657299
281.694488,1332.370696,-8734.430116,-1991.848295
281.694810,1332.370696,-9622.677246,-2604.724693
281.695133,592.164754,-9918.759623,-3140.991542
281.695455,0.000000,-10584.944971,-4826.401637
281.695778,-370.102971,-12139.377449,-5439.278036
281.696100,-444.123565,-12731.542202,-5439.278036
281.696423,-814.226536,-13027.624579,-4673.182538
281.696746,-1110.308913,-13397.727550,-3217.601092
281.697068,-1628.453072,-13101.645173,-1991.848295
281.697391,-1406.391290,-12065.356855,-995.924147
281.697713,-1554.432478,-10362.883188,-229.828649
281.698036,-1554.432478,-8364.327145,383.047749
281.698358,-1628.453072,-5995.668130,919.314598
281.698681,-1702.473667,-4293.194464,1455.581446
281.699003,-1110.308913,-4367.215058,1838.629195
281.699326,-1554.432478,-4441.235652,1685.410096
281.699648,-1480.411884,-5107.421000,306.438199
281.699971,-1332.370696,-6439.791695,-1225.752797
281.700293,-1036.288319,-7846.182985,-2145.067394
281.700616,-1554.432478,-9252.574275,-2911.162892
281.700938,-1998.556043,-10881.027347,-4366.744339
281.701261,-1924.535449,-12361.439231,-4826.401637
281.701583,-2146.597232,-13249.686362,-5209.449386
281.701906,-2146.597232,-13693.809927,-5132.839837
281.702228,-1850.514855,-13915.871710,-4290.134789
281.702551,-2220.617826,-13175.665768,-3140.991542
281.702873,-2072.576638,-12287.418637,-2145.067394
281.703196,-2368.659014,-10658.965565,-689.485948
281.703519,-2516.700203,-8956.491898,153.219100
281.703841,-2368.659014,-6883.915261,689.485948
281.704164,-1554.432478,-5625.565159,842.705048
281.704486,-666.185348,-4885.359217,995.924147
281.704809,296.082377,-4737.318029,919.314598
281.705131,1406.391290,-5181.441594,1072.533697
281.705454,2368.659014,-6513.812290,612.876398
281.705776,2886.803174,-7624.121203,-919.314598
281.706099,3775.050304,-9474.636058,-2451.505594
281.706421,3256.906145,-10510.924376,-3524.039291
281.706744,2738.761985,-11991.336260,-3753.867940
281.707066,1776.494261,-13027.624579,-3600.648841
281.707389,666.185348,-13471.748144,-3983.696590
281.707711,-296.082377,-13619.789333,-3370.820191
281.708034,-1110.308913,-13027.624579,-3370.820191
281.708356,-2294.638420,-12065.356855,-2374.896044
281.708679,-3404.947333,-10955.047942,-1225.752797
281.709001,-3627.009116,-9252.574275,0.000000
281.709324,-2886.803174,-7328.038826,306.438199
281.709646,-1332.370696,-5921.647536,459.657299
281.709969,-148.041188,-5107.421000,612.876398
281.710292,222.061783,-4515.256246,1532.190996
281.710614,74.020594,-4663.297435,1608.800546
281.710937,888.247130,-5921.647536,612.876398
281.711259,814.226536,-7105.977043,-1608.800546
281.711582,888.247130,-8364.327145,-3677.258390
281.711904,1184.329507,-10140.821405,-4596.572988
281.712227,1332.370696,-11769.274478,-4213.525239
281.712549,2220.617826,-12879.583391,-3830.477490
281.712872,2368.659014,-14137.933492,-3524.039291
281.713194,2220.617826,-14285.974681,-3140.991542
281.713517,1036.288319,-13175.665768,-2298.286494
281.713839,-296.082377,-11843.295072,-1915.238745
281.714162,-1554.432478,-10584.944971,-1915.238745
281.714484,-2368.659014,-8956.491898,-1149.143247
281.714807,-2960.823768,-7179.997637,229.828649
281.715129,-2516.700203,-6439.791695,612.876398
281.715452,-1702.473667,-5921.647536,919.314598
281.715774,-888.247130,-6143.709319,919.314598
281.716097,518.144159,-6513.812290,306.438199
281.716419,666.185348,-6735.874072,-459.657299
281.716742,1036.288319,-7550.100608,-1455.581446
281.717065,888.247130,-8216.285956,-2298.286494
281.717387,666.185348,-8956.491898,-3983.696590
281.717710,1036.288319,-10658.965565,-4826.401637
281.718032,1036.288319,-11843.295072,-5439.278036
281.718355,1258.350101,-13101.645173,-4673.182538
281.718677,962.267725,-14656.077652,-3600.648841
281.719000,444.123565,-14804.118840,-3064.381992
281.719322,0.000000,-13989.892304,-1762.019645
281.719645,-1184.329507,-11843.295072,-689.485948
281.719967,-1998.556043,-9474.636058,0.000000
281.720290,-2590.720797,-7105.977043,612.876398
281.720612,-2960.823768,-5033.400406,1149.143247
281.720935,-2960.823768,-3849.070898,1455.581446
281.721257,-2738.761985,-3923.091493,1302.362347
281.721580,-2738.761985,-5033.400406,1378.971896
281.721902,-2368.659014,-6143.709319,0.000000
281.722225,-2072.576638,-7254.018232,-1838.629195
281.722547,-1628.453072,-8586.388927,-2528.115143
281.722870,-1406.391290,-9770.718434,-3983.696590
281.723193,-1036.288319,-11103.089130,-4903.011187
281.723515,-888.247130,-12287.418637,-5362.668486
281.723838,-370.102971,-13397.727550,-5056.230287
281.724160,0.000000,-14063.912898,-4903.011187
281.724483,296.082377,-13915.871710,-3753.867940
281.724805,-148.041188,-13101.645173,-2451.505594
281.725128,-296.082377,-11695.253884,-1378.971896
281.725450,-1184.329507,-9992.780217,-919.314598
281.725773,-1776.494261,-8068.244768,229.828649
281.726095,-1850.514855,-6439.791695,1225.752797
281.726418,-2146.597232,-5255.462188,1532.190996
281.726740,-1258.350101,-4589.276840,1915.238745
281.727063,74.020594,-4811.338623,1532.190996
281.727385,1480.411884,-5921.647536,612.876398
281.727708,2072.576638,-7031.956449,76.609550
281.728030,2294.638420,-8068.244768,-612.876398
281.728353,2146.597232,-8734.430116,-2298.286494
281.728675,2590.720797,-11103.089130,-3830.477490
281.728998,2072.576638,-12361.439231,-4903.011187
281.729320,1184.329507,-13249.686362,-5286.058936
281.729643,666.185348,-13915.871710,-4443.353888
281.729966,222.061783,-13619.789333,-2987.772442
281.730288,-222.061783,-12657.521608,-2604.724693
281.730611,-1480.411884,-11769.274478,-2374.896044
281.730933,-2368.659014,-10510.924376,-919.314598
281.731256,-3256.906145,-8660.409521,153.219100
281.731578,-3478.967927,-7105.977043,536.266849
281.731901,-2368.659014,-6069.688724,842.705048
281.732223,-1184.329507,-4663.297435,1455.581446
281.732546,74.020594,-4441.235652,1149.143247
281.732868,740.205942,-4737.318029,1455.581446
281.733191,888.247130,-5403.503377,1149.143247
281.733513,1332.370696,-7105.977043,-919.314598
281.733836,1406.391290,-8882.471304,-3370.820191
281.734158,444.123565,-10658.965565,-4596.572988
281.734481,74.020594,-12509.480420,-4979.620737
281.734803,148.041188,-13841.851115,-4596.572988
281.735126,814.226536,-14508.036463,-4136.915689
281.735448,1184.329507,-14211.954086,-3217.601092
281.735771,518.144159,-12731.542202,-3217.601092
281.736093,-370.102971,-11769.274478,-2451.505594
281.736416,-1554.432478,-10881.027347,-1685.410096
281.736739,-2590.720797,-9474.636058,-919.314598
281.737061,-2886.803174,-7698.141797,0.000000
281.737384,-3034.844362,-6439.791695,383.047749
281.737706,-2294.638420,-5847.626942,919.314598
281.738029,-962.267725,-5625.565159,1225.752797
281.738351,74.020594,-5921.647536,1072.533697
281.738674,1480.411884,-6809.894666,76.609550
281.738996,1924.535449,-7031.956449,-919.314598
281.739319,2146.597232,-8216.285956,-2374.896044
281.739641,1554.432478,-9474.636058,-3447.429741
281.739964,1110.308913,-10881.027347,-4519.963438
281.740287,1258.350101,-12509.480420,-4979.620737
281.740609,1554.432478,-13989.892304,-5132.839837
281.740932,1332.370696,-14508.036463,-3524.039291
281.741254,666.185348,-14137.933492,-2604.724693
281.741577,222.061783,-13397.727550,-1915.238745
281.741900,-592.164754,-11547.212695,-919.314598
281.742222,-1480.411884,-8882.471304,536.266849
281.742545,-2516.700203,-6957.935855,766.095498
281.742867,-2886.803174,-5551.544565,1302.362347
281.743190,-2960.823768,-4737.318029,1532.190996
281.743512,-2738.761985,-4737.318029,1532.190996
281.743835,-2516.700203,-5107.421000,689.485948
281.744158,-1702.473667,-5995.668130,383.047749
281.744480,-1554.432478,-6883.915261,-612.876398
281.744803,-1184.329507,-7846.182985,-1991.848295
281.745125,-1258.350101,-8882.471304,-3140.991542
281.745448,-1036.288319,-10584.944971,-4673.182538
281.745771,-666.185348,-11991.336260,-5056.230287
281.746093,-888.247130,-13249.686362,-4903.011187
281.746416,-370.102971,-14211.954086,-4519.963438
281.746738,-296.082377,-13989.892304,-3677.258390
281.747061,-148.041188,-13397.727550,-2451.505594
281.747383,-370.102971,-11695.253884,-1225.752797
281.747706,-888.247130,-10436.903782,-766.095498
281.748029,-1924.535449,-8364.327145,76.609550
281.748351,-2294.638420,-6587.832884,612.876398
281.748674,-2072.576638,-5403.503377,1225.752797
281.748996,-1480.411884,-4515.256246,1378.971896
281.749319,-888.247130,-4737.318029,1302.362347
281.749641,1110.308913,-5847.626942,689.485948
281.749964,2072.576638,-6957.935855,229.828649
281.750287,2590.720797,-8142.265362,-766.095498
281.750609,2812.782580,-9474.636058,-2757.943793
281.750932,2442.679609,-10658.965565,-4136.915689
281.751254,2072.576638,-12361.439231,-4443.353888
281.751577,888.247130,-13249.686362,-4673.182538
281.751900,0.000000,-13693.809927,-4366.744339
281.752222,-740.205942,-14063.912898,-3983.696590
281.752545,-1480.411884,-12953.603985,-3600.648841
281.752867,-1998.556043,-11991.336260,-2068.457845
281.753190,-3108.864956,-10436.903782,-1225.752797
281.753512,-3478.967927,-8660.409521,0.000000
281.753835,-3108.864956,-6587.832884,536.266849
281.754158,-2072.576638,-5181.441594,842.705048
281.754480,-888.247130,-3997.112087,919.314598
281.754803,-444.123565,-4293.194464,1149.143247
281.755125,0.000000,-4885.359217,1072.533697
281.755448,518.144159,-5847.626942,459.657299
281.755771,962.267725,-7328.038826,-1685.410096
281.756093,740.205942,-8512.368333,-3907.087040
281.756416,814.226536,-10807.006753,-4060.306139
281.756738,518.144159,-12435.459826,-4290.134789
281.757061,814.226536,-13619.789333,-4366.744339
281.757383,962.267725,-14211.954086,-4366.744339
281.757706,1332.370696,-14359.995275,-3753.867940
281.758029,740.205942,-12953.603985,-2911.162892
281.758351,-518.144159,-11991.336260,-2374.896044
281.758674,-1258.350101,-11177.109724,-995.924147
281.758996,-2072.576638,-9548.656652,-306.438199
281.759319,-2368.659014,-7846.182985,76.609550
281.759642,-1924.535449,-6809.894666,1072.533697
281.759964,-1332.370696,-5773.606348,1455.581446
281.760287,-222.061783,-5773.606348,1225.752797
281.760609,888.247130,-5995.668130,919.314598
281.760932,1702.473667,-6513.812290,0.000000
281.761254,2220.617826,-6809.894666,-459.657299
281.761577,1998.556043,-8290.306550,-2528.115143
281.761900,1406.391290,-9622.677246,-3294.210641
281.762222,1036.288319,-10955.047942,-4673.182538
281.762545,814.226536,-12435.459826,-5132.839837
281.762867,1110.308913,-13323.706956,-4366.744339
281.763190,296.082377,-14137.933492,-2911.162892
281.763512,148.041188,-13989.892304,-2604.724693
281.763835,-148.041188,-13175.665768,-2145.067394
281.764158,-444.123565,-11547.212695,-995.924147
281.764480,-1332.370696,-9400.615463,153.219100
281.764803,-1850.514855,-7105.977043,1378.971896
281.765125,-2072.576638,-5773.606348,1838.629195
281.765448,-1850.514855,-4589.276840,1532.190996
281.765771,-1998.556043,-4219.173869,1685.410096
281.766093,-1776.494261,-4959.379811,1532.190996
281.766416,-1332.370696,-5403.503377,612.876398
281.766738,-1332.370696,-6439.791695,-1302.362347
281.767061,-1702.473667,-7476.080014,-2145.067394
281.767383,-1628.453072,-9030.512492,-3830.477490
281.767706,-1554.432478,-11029.068536,-4903.011187
281.768029,-1554.432478,-12509.480420,-5362.668486
281.768351,-1184.329507,-13175.665768,-5132.839837
281.768674,-962.267725,-14137.933492,-4673.182538
281.768996,-1036.288319,-14211.954086,-3907.087040
281.769319,-1110.308913,-13323.706956,-3140.991542
281.769642,-1406.391290,-11843.295072,-2528.115143
281.769964,-1924.535449,-10066.800811,-842.705048
281.770287,-2072.576638,-8290.306550,0.000000
281.770609,-2146.597232,-6513.812290,383.047749
281.770932,-1924.535449,-5403.503377,919.314598
281.771254,-1258.350101,-5033.400406,1685.410096
281.771577,74.020594,-5033.400406,1378.971896
281.771900,1628.453072,-5699.585753,536.266849
281.772222,2220.617826,-6883.915261,0.000000
281.772545,2590.720797,-7624.121203,-842.705048
281.772867,2442.679609,-9252.574275,-2221.676944
281.773190,2368.659014,-10881.027347,-3830.477490
281.773513,2072.576638,-12361.439231,-4749.792088
281.773835,814.226536,-13101.645173,-4903.011187
281.774158,148.041188,-14137.933492,-4903.011187
281.774480,-444.123565,-13989.892304,-3907.087040
281.774803,-1110.308913,-13101.645173,-3217.601092
281.775125,-1332.370696,-12213.398043,-2221.676944
281.775448,-2294.638420,-11029.068536,-1455.581446
281.775771,-2960.823768,-8956.491898,-459.657299
281.776093,-2960.823768,-7105.977043,689.485948
281.776416,-2146.597232,-5625.565159,1072.533697
281.776738,-1036.288319,-4737.318029,1378.971896
281.777061,-1258.350101,-4071.132681,1838.629195
281.777383,0.000000,-4515.256246,995.924147
281.777706,222.061783,-5403.503377,459.657299
281.778029,592.164754,-6661.853478,-1225.752797
281.778351,814.226536,-8660.409521,-3677.258390
281.778674,370.102971,-10288.862594,-4060.306139
281.778996,148.041188,-12065.356855,-4060.306139
281.779319,444.123565,-13471.748144,-4443.353888
281.779642,888.247130,-14434.015869,-4213.525239
281.779964,1110.308913,-14211.954086,-3907.087040
281.780287,888.247130,-13175.665768,-3677.258390
281.780609,296.082377,-12287.418637,-1762.019645
281.780932,-518.144159,-11547.212695,-995.924147
281.781254,-1480.411884,-9770.718434,0.000000
281.781577,-1850.514855,-7920.203579,383.047749
281.781900,-1924.535449,-6513.812290,919.314598
281.782222,-1184.329507,-5699.585753,1072.533697
281.782545,-148.041188,-5403.503377,1532.190996
281.782867,814.226536,-5773.606348,1302.362347
281.783190,1406.391290,-5995.668130,536.266849
281.783513,1850.514855,-6291.750507,-306.438199
281.783835,1776.494261,-7328.038826,-1608.800546
281.784158,1776.494261,-9474.636058,-3983.696590
281.784480,1406.391290,-11399.171507,-4749.792088
281.784803,1036.288319,-12805.562797,-4903.011187
281.785125,444.123565,-13915.871710,-4366.744339
281.785448,296.082377,-14952.160028,-2451.505594
281.785771,-222.061783,-13619.789333,-1762.019645
281.786093,-592.164754,-12509.480420,-2221.676944
281.786416,-1036.288319,-10658.965565,-1762.019645
281.786738,-1702.473667,-9326.594869,-306.438199
281.787061,-2442.679609,-7772.162391,1149.143247
281.787384,-2294.638420,-6217.729913,2221.676944
281.787706,-2220.617826,-4515.256246,2068.457845
281.788029,-1554.432478,-4811.338623,1685.410096
281.788351,-1110.308913,-4959.379811,1225.752797
281.788674,-1184.329507,-5181.441594,459.657299
281.788996,-962.267725,-6143.709319,-536.266849
281.789319,-1036.288319,-7476.080014,-2221.676944
281.789642,-962.267725,-8882.471304,-3907.087040
281.789964,-1110.308913,-10214.842000,-5132.839837
281.790287,-1480.411884,-11991.336260,-5515.887586
281.790609,-1628.453072,-13693.809927,-4903.011187
281.790932,-1406.391290,-14211.954086,-4136.915689
281.791254,-1184.329507,-14359.995275,-3907.087040
281.791577,-1628.453072,-13619.789333,-3677.258390
281.791900,-2146.597232,-11843.295072,-2834.553343
281.792222,-2294.638420,-10066.800811,-1608.800546
281.792545,-2442.679609,-8142.265362,-306.438199
281.792867,-2368.659014,-6069.688724,0.000000
281.793190,-2072.576638,-5625.565159,995.924147
281.793513,-1480.411884,-5403.503377,1455.581446
281.793835,-296.082377,-5181.441594,1225.752797
281.794158,1036.288319,-6365.771101,612.876398
281.794480,1628.453072,-7105.977043,-536.266849
281.794803,2294.638420,-7846.182985,-1302.362347
281.795125,2442.679609,-9030.512492,-2911.162892
281.795448,2368.659014,-10436.903782,-3830.477490
281.795771,1554.432478,-12213.398043,-4673.182538
281.796093,666.185348,-13249.686362,-5515.887586
281.796416,0.000000,-14285.974681,-4826.401637
281.796738,-666.185348,-14359.995275,-3830.477490
281.797061,-1554.432478,-13767.830521,-3294.210641
281.797384,-2146.597232,-12657.521608,-2145.067394
281.797706,-2294.638420,-10955.047942,-612.876398
281.798029,-2590.720797,-8882.471304,229.828649
281.798351,-2146.597232,-6809.894666,689.485948
281.798674,-1110.308913,-5255.462188,1225.752797
281.798996,0.000000,-4663.297435,1455.581446
281.799319,148.041188,-4367.215058,1378.971896
281.799642,666.185348,-4737.318029,842.705048
281.799964,814.226536,-5403.503377,612.876398
281.800287,1036.288319,-6809.894666,-1225.752797
281.800609,1184.329507,-8364.327145,-3140.991542
281.800932,888.247130,-9992.780217,-4136.915689
281.801255,444.123565,-11769.274478,-4290.134789
281.801577,666.185348,-12805.562797,-4519.963438
281.801900,1110.308913,-13989.892304,-4213.525239
281.802222,666.185348,-13915.871710,-3830.477490
281.802545,222.061783,-13249.686362,-2987.772442
281.802867,-592.164754,-12583.501014,-1838.629195
281.803190,-1628.453072,-11177.109724,-689.485948
281.803513,-2368.659014,-9104.533087,-383.047749
281.803835,-2368.659014,-7105.977043,0.000000
281.804158,-1776.494261,-6143.709319,919.314598
281.804480,-740.205942,-5625.565159,1225.752797
281.804803,148.041188,-5921.647536,1608.800546
281.805125,962.267725,-6661.853478,1149.143247
281.805448,1258.350101,-7031.956449,459.657299
281.805771,1554.432478,-7550.100608,-842.705048
281.806093,1332.370696,-8512.368333,-2221.676944
281.806416,666.185348,-9252.574275,-3753.867940
281.806738,666.185348,-10066.800811,-4519.963438
281.807061,814.226536,-11917.315666,-4826.401637
281.807384,666.185348,-13397.727550,-3907.087040
281.807706,148.041188,-14359.995275,-3447.429741
281.808029,-666.185348,-14285.974681,-2528.115143
281.808351,-1332.370696,-12805.562797,-2145.067394
281.808674,-1776.494261,-11399.171507,-1225.752797
281.808996,-2146.597232,-9474.636058,-459.657299
281.809319,-2146.597232,-7254.018232,689.485948
281.809642,-2368.659014,-5033.400406,1455.581446
281.809964,-1998.556043,-4145.153275,1685.410096
281.810287,-1702.473667,-4811.338623,1225.752797
281.810609,-1702.473667,-5107.421000,1072.533697
281.810932,-1850.514855,-5699.585753,0.000000
281.811255,-1998.556043,-6809.894666,-1378.971896
281.811577,-1406.391290,-7772.162391,-2757.943793
281.811900,-740.205942,-8734.430116,-3294.210641
281.812222,-814.226536,-10288.862594,-4903.011187
281.812545,-888.247130,-12065.356855,-5132.839837
281.812867,-592.164754,-13397.727550,-4903.011187
281.813190,-518.144159,-14211.954086,-4519.963438
281.813513,-814.226536,-14137.933492,-3370.820191
281.813835,-592.164754,-13545.768739,-2757.943793
281.814158,-1110.308913,-11843.295072,-2221.676944
281.814480,-1184.329507,-10140.821405,-919.314598
281.814803,-1332.370696,-7624.121203,229.828649
281.815126,-1184.329507,-5995.668130,459.657299
281.815448,-962.267725,-4737.318029,1608.800546
281.815771,-148.041188,-4811.338623,1149.143247
281.816093,296.082377,-5477.523971,766.095498
281.816416,1110.308913,-6513.812290,306.438199
281.816738,1924.535449,-7920.203579,76.609550
281.817061,2516.700203,-8438.347739,-1838.629195
281.817384,2590.720797,-9548.656652,-3447.429741
281.817706,2072.576638,-10732.986159,-4136.915689
281.818029,1184.329507,-12435.459826,-4749.792088
281.818351,370.102971,-13693.809927,-4903.011187
281.818674,-592.164754,-14063.912898,-4749.792088
281.818996,-1480.411884,-14211.954086,-4596.572988
281.819319,-2220.617826,-13915.871710,-3294.210641
281.819642,-2368.659014,-12509.480420,-1991.848295
281.819964,-2516.700203,-10362.883188,-919.314598
281.820287,-2368.659014,-7550.100608,689.485948
281.820609,-1480.411884,-5403.503377,1072.533697
281.820932,-814.226536,-4737.318029,995.924147
281.821255,-518.144159,-4589.276840,1608.800546
281.821577,-666.185348,-4663.297435,1838.629195
281.821900,-296.082377,-5477.523971,1608.800546
281.822222,296.082377,-5921.647536,-383.047749
281.822545,814.226536,-7254.018232,-2145.067394
281.822867,592.164754,-8734.430116,-3447.429741
281.823190,444.123565,-10584.944971,-3753.867940
281.823513,148.041188,-11991.336260,-3524.039291
281.823835,444.123565,-13027.624579,-4060.306139
281.824158,370.102971,-14211.954086,-5056.230287
281.824480,0.000000,-14211.954086,-4136.915689
281.824803,-592.164754,-13545.768739,-2911.162892
281.825126,-1036.288319,-12361.439231,-1838.629195
281.825448,-1258.350101,-11103.089130,-919.314598
281.825771,-1036.288319,-9326.594869,76.609550
281.826093,-1332.370696,-7254.018232,612.876398
281.826416,-1480.411884,-6291.750507,1532.190996
281.826738,-888.247130,-5773.606348,1915.238745
281.827061,296.082377,-5699.585753,1762.019645
281.827384,1628.453072,-5921.647536,919.314598
281.827706,2294.638420,-5995.668130,383.047749
281.828029,2220.617826,-6735.874072,-306.438199
281.828351,1924.535449,-7698.141797,-1608.800546
281.828674,1554.432478,-9474.636058,-3217.601092
281.828997,1406.391290,-11695.253884,-4519.963438
281.829319,370.102971,-12139.377449,-5132.839837
281.829642,0.000000,-13989.892304,-4366.744339
281.829964,-592.164754,-14656.077652,-3064.381992
281.830287,-888.247130,-14063.912898,-2451.505594
281.830609,-1258.350101,-12287.418637,-1838.629195
281.830932,-1258.350101,-10658.965565,-1378.971896
281.831255,-1776.494261,-9252.574275,-766.095498
281.831577,-2146.597232,-7476.080014,689.485948
281.831900,-2220.617826,-5921.647536,1455.581446
281.832222,-1924.535449,-4959.379811,1915.238745
281.832545,-1036.288319,-4515.256246,995.924147
281.832867,-888.247130,-4811.338623,536.266849
281.833190,-814.226536,-5255.462188,0.000000
281.833513,-1110.308913,-5921.647536,-1072.533697
281.833835,-814.226536,-7624.121203,-2528.115143
281.834158,-666.185348,-8956.491898,-4060.306139
281.834480,-518.144159,-10584.944971,-4673.182538
281.834803,-740.205942,-13027.624579,-5439.278036
281.835126,-740.205942,-14211.954086,-5056.230287
281.835448,-296.082377,-14878.139434,-4673.182538
281.835771,-370.102971,-14359.995275,-4060.306139
281.836093,-1110.308913,-13101.645173,-3677.258390
281.836416,-1110.308913,-11695.253884,-2604.724693
281.836738,-1998.556043,-9844.739029,-1455.581446
281.837061,-2146.597232,-8512.368333,-383.047749
281.837384,-2220.617826,-6735.874072,229.828649
281.837706,-1480.411884,-6069.688724,689.485948
281.838029,-592.164754,-4737.318029,1149.143247
281.838351,296.082377,-5329.482782,689.485948
281.838674,1332.370696,-5847.626942,153.219100
281.838996,1850.514855,-6735.874072,-459.657299
281.839319,1850.514855,-7698.141797,-1915.238745
281.839641,1924.535449,-9548.656652,-2987.772442
281.839964,1258.350101,-11251.130318,-4290.134789
281.840286,888.247130,-12657.521608,-4826.401637
281.840609,0.000000,-13841.851115,-4903.011187
281.840931,-222.061783,-14211.954086,-4290.134789
281.841254,-814.226536,-13249.686362,-3447.429741
281.841577,-1184.329507,-12953.603985,-2987.772442
281.841899,-1850.514855,-11769.274478,-1608.800546
281.842222,-2664.741391,-10066.800811,-459.657299
281.842544,-3034.844362,-7994.224174,612.876398
281.842867,-2368.659014,-5995.668130,1302.362347
281.843189,-1258.350101,-5107.421000,1685.410096
281.843512,-518.144159,-4441.235652,1608.800546
281.843834,-666.185348,-4145.153275,2068.457845
281.844157,-518.144159,-4589.276840,2068.457845
281.844479,0.000000,-5477.523971,229.828649
281.844802,444.123565,-6587.832884,-2298.286494
281.845124,0.000000,-8808.450710,-3753.867940
281.845447,-222.061783,-10807.006753,-3983.696590
281.845769,0.000000,-12731.542202,-4060.306139
281.846092,666.185348,-13841.851115,-4136.915689
281.846414,962.267725,-14211.954086,-3830.477490
281.846737,1110.308913,-14211.954086,-4060.306139
281.847059,74.020594,-13249.686362,-2451.505594
281.847382,-444.123565,-11769.274478,-1532.190996
281.847704,-1110.308913,-10140.821405,-919.314598
281.848027,-1406.391290,-8586.388927,-153.219100
281.848349,-1702.473667,-7105.977043,306.438199
281.848672,-1406.391290,-6291.750507,1532.190996
281.848994,-592.164754,-5773.606348,2068.457845
281.849317,962.267725,-6069.688724,1762.019645
281.849639,2220.617826,-6365.771101,766.095498
281.849962,2664.741391,-6587.832884,0.000000
281.850284,2368.659014,-6883.915261,-383.047749
281.850607,1924.535449,-8290.306550,-1915.238745
281.850929,1554.432478,-9844.739029,-4136.915689
281.851252,1036.288319,-11251.130318,-5515.887586
281.851574,444.123565,-12509.480420,-5898.935335
281.851897,0.000000,-13767.830521,-4443.353888
281.852219,-444.123565,-14878.139434,-3447.429741
281.852542,-518.144159,-14211.954086,-2757.943793
281.852865,-592.164754,-12435.459826,-2451.505594
281.853187,-1258.350101,-10066.800811,-1608.800546
281.853510,-1332.370696,-8364.327145,-689.485948
281.853832,-1924.535449,-6883.915261,689.485948
281.854155,-2146.597232,-5329.482782,1302.362347
281.854477,-1258.350101,-4589.276840,1608.800546
281.854800,-518.144159,-4737.318029,1378.971896
281.855122,0.000000,-4515.256246,919.314598
281.855445,0.000000,-5477.523971,0.000000
281.855767,-222.061783,-7031.956449,-689.485948
281.856090,-296.082377,-7994.224174,-2068.457845
281.856412,-518.144159,-9030.512492,-4060.306139
281.856735,-1110.308913,-10510.924376,-5056.230287
281.857057,-1480.411884,-12213.398043,-5592.497135
281.857380,-1924.535449,-13841.851115,-5132.839837
281.857702,-2220.617826,-14508.036463,-4749.792088
281.858025,-2368.659014,-14508.036463,-3907.087040
281.858347,-2516.700203,-13989.892304,-3064.381992
281.858670,-3182.885551,-11769.274478,-1991.848295
281.858992,-3108.864956,-9918.759623,-1455.581446
281.859315,-3034.844362,-7846.182985,-766.095498
281.859637,-2368.659014,-6365.771101,0.000000
281.859960,-1480.411884,-4959.379811,689.485948
281.860282,-592.164754,-4885.359217,1532.190996
281.860605,0.000000,-5329.482782,1455.581446
281.860927,1258.350101,-7105.977043,383.047749
281.861250,1998.556043,-7920.203579,-536.266849
281.861572,2368.659014,-8734.430116,-2145.067394
281.861895,2590.720797,-9844.739029,-3370.820191
281.862217,2664.741391,-10807.006753,-3677.258390
281.862540,2146.597232,-11917.315666,-4136.915689
281.862862,962.267725,-12953.603985,-3983.696590
281.863185,74.020594,-13545.768739,-4136.915689
281.863507,-962.267725,-14063.912898,-3753.867940
281.863830,-2220.617826,-13397.727550,-1838.629195
281.864152,-2664.741391,-12213.398043,-766.095498
281.864475,-3478.967927,-10066.800811,-153.219100
281.864798,-3330.926739,-7402.059420,536.266849
281.865120,-2442.679609,-5255.462188,995.924147
281.865443,-1702.473667,-4145.153275,1149.143247
281.865765,-1258.350101,-3997.112087,1991.848295
281.866088,-1406.391290,-3997.112087,2068.457845
281.866410,-1332.370696,-5181.441594,1225.752797
281.866733,-296.082377,-6809.894666,-306.438199
281.867055,148.041188,-8438.347739,-2451.505594
281.867378,222.061783,-9548.656652,-3217.601092
281.867700,518.144159,-10140.821405,-3677.258390
281.868023,1554.432478,-11621.233289,-3524.039291
281.868345,2220.617826,-12805.562797,-4060.306139
281.868668,2072.576638,-13619.789333,-4060.306139
281.868990,1628.453072,-13471.748144,-2834.553343
281.869313,962.267725,-13323.706956,-2451.505594
281.869635,296.082377,-12139.377449,-1302.362347
281.869958,-222.061783,-10510.924376,-153.219100
281.870280,-814.226536,-8512.368333,689.485948
281.870603,-1036.288319,-6661.853478,1302.362347
281.870925,-370.102971,-5403.503377,1608.800546
281.871248,0.000000,-4885.359217,1455.581446
281.871570,592.164754,-5033.400406,1225.752797
281.871893,1184.329507,-5921.647536,383.047749
281.872215,1702.473667,-7254.018232,-536.266849
281.872538,1702.473667,-8216.285956,-1302.362347
281.872860,1258.350101,-9400.615463,-2911.162892
281.873183,370.102971,-10362.883188,-4673.182538
281.873505,0.000000,-11473.192101,-5898.935335
281.873828,-296.082377,-12805.562797,-5898.935335
281.874150,-444.123565,-14211.954086,-4979.620737
281.874473,-1184.329507,-14434.015869,-3753.867940
281.874795,-1332.370696,-13915.871710,-3064.381992
281.875118,-1480.411884,-12583.501014,-2451.505594
281.875440,-1258.350101,-10658.965565,-1685.410096
281.875763,-1110.308913,-8660.409521,-153.219100
281.876086,-296.082377,-7031.956449,842.705048
281.876408,148.041188,-5181.441594,1762.019645
281.876731,370.102971,-4737.318029,2145.067394
281.877053,370.102971,-4663.297435,2068.457845
281.877376,74.020594,-5107.421000,1225.752797
281.877698,0.000000,-5699.585753,0.000000
281.878021,-666.185348,-6513.812290,-1378.971896
281.878343,-1184.329507,-7698.141797,-2681.334243
281.878666,-1628.453072,-9178.553681,-4519.963438
281.878988,-2146.597232,-11103.089130,-4903.011187
281.879311,-2220.617826,-13027.624579,-5209.449386
281.879633,-2516.700203,-14211.954086,-5822.325785
281.879956,-2664.741391,-15100.201217,-5362.668486
281.880278,-2812.782580,-14582.057057,-4443.353888
281.880601,-3182.885551,-13619.789333,-3217.601092
281.880923,-3034.844362,-11917.315666,-2068.457845
281.881246,-2516.700203,-10140.821405,-766.095498
281.881568,-2368.659014,-7624.121203,-229.828649
281.881891,-1628.453072,-6143.709319,689.485948
281.882213,-1036.288319,-5255.462188,1915.238745
281.882536,0.000000,-5033.400406,2068.457845
281.882858,1554.432478,-5329.482782,1302.362347
281.883181,2072.576638,-5995.668130,1225.752797
281.883503,2590.720797,-6661.853478,0.000000
281.883826,2812.782580,-7402.059420,-1072.533697
281.884148,2442.679609,-9326.594869,-2604.724693
281.884471,1998.556043,-10807.006753,-3370.820191
281.884793,1332.370696,-12435.459826,-3677.258390
281.885116,74.020594,-13693.809927,-4060.306139
281.885438,-962.267725,-14285.974681,-3983.696590
281.885761,-1480.411884,-14211.954086,-3677.258390
281.886083,-2368.659014,-13471.748144,-2834.553343
281.886406,-2886.803174,-11843.295072,-1532.190996
281.886728,-3330.926739,-10214.842000,-689.485948
281.887051,-3404.947333,-8216.285956,306.438199
281.887373,-2590.720797,-6217.729913,919.314598
281.887696,-1332.370696,-5181.441594,1072.533697
281.888019,-444.123565,-4293.194464,1838.629195
281.888341,-370.102971,-4071.132681,2528.115143
281.888664,222.061783,-4663.297435,1608.800546
281.888986,740.205942,-5255.462188,0.000000
281.889309,1184.329507,-6957.935855,-2221.676944
281.889631,1036.288319,-8660.409521,-3753.867940
281.889954,1332.370696,-10510.924376,-3677.258390
281.890276,1036.288319,-12139.377449,-3983.696590
281.890599,1924.535449,-13841.851115,-3983.696590
281.890921,2294.638420,-14656.077652,-3983.696590
281.891244,1924.535449,-14137.933492,-3140.991542
281.891566,1258.350101,-13397.727550,-2681.334243
281.891889,74.020594,-11769.274478,-1991.848295
281.892211,-888.247130,-10288.862594,-766.095498
281.892534,-1406.391290,-8660.409521,-306.438199
281.892856,-1776.494261,-7031.956449,0.000000
281.893179,-1332.370696,-6439.791695,1455.581446
281.893501,-888.247130,-5403.503377,2298.286494
281.893824,666.185348,-5847.626942,1532.190996
281.894146,1406.391290,-6143.709319,153.219100
281.894469,1776.494261,-6735.874072,-229.828649
281.894791,1776.494261,-7031.956449,-919.314598
281.895114,1184.329507,-7698.141797,-2834.553343
281.895436,740.205942,-9548.656652,-4519.963438
281.895759,518.144159,-11547.212695,-5592.497135
281.896081,296.082377,-13323.706956,-5822.325785
281.896404,-222.061783,-14582.057057,-4749.792088
281.896726,-444.123565,-14656.077652,-3140.991542
281.897049,-592.164754,-13619.789333,-2145.067394
281.897371,-592.164754,-12287.418637,-2834.553343
281.897694,-1036.288319,-10881.027347,-1762.019645
281.898016,-1702.473667,-8808.450710,-229.828649
281.898339,-2072.576638,-6809.894666,612.876398
281.898661,-1776.494261,-5403.503377,1608.800546
281.898984,-1258.350101,-4811.338623,1455.581446
281.899307,-1184.329507,-4515.256246,1225.752797
281.899629,-1258.350101,-5255.462188,1149.143247
281.899952,-1554.432478,-5921.647536,229.828649
281.900274,-1184.329507,-6957.935855,-1149.143247
281.900597,-1998.556043,-8068.244768,-3140.991542
281.900919,-1850.514855,-9770.718434,-4979.620737
281.901242,-2146.597232,-11695.253884,-5592.497135
281.901564,-1998.556043,-13249.686362,-5592.497135
281.901887,-1850.514855,-14730.098246,-5209.449386
281.902209,-1628.453072,-15026.180623,-4366.744339
281.902532,-1850.514855,-14878.139434,-3983.696590
281.902854,-2146.597232,-13545.768739,-2757.943793
281.903177,-1998.556043,-11843.295072,-1685.410096
281.903499,-2072.576638,-9622.677246,-842.705048
281.903822,-1332.370696,-7402.059420,0.000000
281.904144,-1332.370696,-6069.688724,1225.752797
281.904467,-1110.308913,-4885.359217,2451.505594
281.904789,0.000000,-4737.318029,2451.505594
281.905112,740.205942,-4885.359217,1608.800546
281.905434,1480.411884,-6217.729913,383.047749
281.905757,1628.453072,-6217.729913,0.000000
281.906079,1628.453072,-7772.162391,-1149.143247
281.906402,1480.411884,-9622.677246,-2528.115143
281.906724,1110.308913,-11325.150913,-3907.087040
281.907047,296.082377,-12583.501014,-4596.572988
281.907369,-222.061783,-13471.748144,-4060.306139
281.907692,-1110.308913,-14434.015869,-4443.353888
281.908014,-1850.514855,-14137.933492,-3447.429741
281.908337,-2146.597232,-13545.768739,-2298.286494
281.908659,-2368.659014,-11843.295072,-1149.143247
281.908982,-2664.741391,-9770.718434,0.000000
281.909304,-1628.453072,-7328.038826,383.047749
281.909627,-1110.308913,-5329.482782,1225.752797
281.909949,0.000000,-3997.112087,2068.457845
281.910272,518.144159,-3552.988522,2451.505594
281.910594,666.185348,-3849.070898,2681.334243
281.910917,888.247130,-4737.318029,1991.848295
281.911240,1110.308913,-5699.585753,0.000000
281.911562,962.267725,-7402.059420,-2374.896044
281.911885,592.164754,-9474.636058,-3753.867940
281.912207,148.041188,-10807.006753,-4366.744339
281.912530,0.000000,-12065.356855,-4826.401637
281.912852,888.247130,-13619.789333,-4903.011187
281.913175,888.247130,-14434.015869,-4979.620737
281.913497,592.164754,-14359.995275,-4596.572988
281.913820,0.000000,-13989.892304,-3447.429741
281.914142,-370.102971,-12879.583391,-2145.067394
281.914465,-518.144159,-10807.006753,-1072.533697
281.914787,-444.123565,-8882.471304,-536.266849
281.915110,0.000000,-7031.956449,153.219100
281.915432,148.041188,-5921.647536,1149.143247
281.915755,592.164754,-5107.421000,1685.410096
281.916077,1258.350101,-5551.544565,1378.971896
281.916400,1406.391290,-5477.523971,612.876398
281.916722,1924.535449,-6143.709319,-536.266849
281.917045,2072.576638,-7402.059420,-1991.848295
281.917367,2072.576638,-8734.430116,-2757.943793
281.917690,1998.556043,-10288.862594,-4290.134789
281.918012,1702.473667,-11991.336260,-5362.668486
281.918335,888.247130,-13619.789333,-4749.792088
281.918657,0.000000,-14508.036463,-4366.744339
281.918980,-962.267725,-14582.057057,-4366.744339
281.919302,-2146.597232,-14285.974681,-3524.039291
281.919625,-3034.844362,-12509.480420,-3217.601092
281.919947,-3775.050304,-10732.986159,-1455.581446
281.920270,-4293.194464,-8290.306550,-383.047749
281.920592,-3627.009116,-6069.688724,229.828649
281.920915,-3108.864956,-4885.359217,229.828649
281.921237,-2368.659014,-4515.256246,995.924147
281.921560,-2368.659014,-4663.297435,1915.238745
281.921882,-2294.638420,-5107.421000,1378.971896
281.922205,-1924.535449,-5921.647536,0.000000
281.922528,-1110.308913,-7105.977043,-1991.848295
281.922850,-740.205942,-7772.162391,-2911.162892
281.923173,-370.102971,-9696.697840,-3524.039291
281.923495,-666.185348,-11547.212695,-4290.134789
281.923818,-370.102971,-13323.706956,-4596.572988
281.924140,-518.144159,-14211.954086,-4213.525239
281.924463,-962.267725,-14804.118840,-4290.134789
281.924785,-1406.391290,-14285.974681,-3370.820191
281.925108,-2072.576638,-13101.645173,-2221.676944
281.925430,-2146.597232,-11251.130318,-842.705048
281.925753,-2146.597232,-9030.512492,76.609550
281.926075,-1998.556043,-6883.915261,1072.533697
281.926398,-1480.411884,-5329.482782,1608.800546
281.926720,-444.123565,-4811.338623,2451.505594
281.927043,74.020594,-4737.318029,1991.848295
281.927365,370.102971,-5551.544565,1225.752797
281.927688,1036.288319,-6069.688724,383.047749
281.928010,740.205942,-6883.915261,-459.657299
281.928333,666.185348,-8142.265362,-2451.505594
281.928655,666.185348,-10066.800811,-3983.696590
281.928978,518.144159,-11399.171507,-5132.839837
281.929300,74.020594,-13027.624579,-5209.449386
281.929623,0.000000,-14359.995275,-4749.792088
281.929945,-296.082377,-14508.036463,-3983.696590
281.930268,-592.164754,-14137.933492,-3524.039291
281.930590,-814.226536,-13175.665768,-2451.505594
281.930913,-1036.288319,-11251.130318,-1532.190996
281.931235,-666.185348,-9252.574275,-306.438199
281.931558,148.041188,-6587.832884,842.705048
281.931880,1702.473667,-5033.400406,1838.629195
281.932203,1924.535449,-4515.256246,2528.115143
281.932525,1998.556043,-4515.256246,3370.820191
281.932848,1776.494261,-4441.235652,2681.334243
281.933170,1776.494261,-5255.462188,1302.362347
281.933493,1776.494261,-6217.729913,-842.705048
281.933816,1258.350101,-7476.080014,-2681.334243
281.934138,148.041188,-9104.533087,-3830.477490
281.934461,-518.144159,-11029.068536,-4366.744339
281.934783,-518.144159,-12731.542202,-5132.839837
281.935106,-370.102971,-13841.851115,-4903.011187
281.935428,-370.102971,-15544.324782,-5592.497135
281.935751,-1480.411884,-14730.098246,-4673.182538
281.936073,-1554.432478,-13767.830521,-3294.210641
281.936396,-1702.473667,-12213.398043,-2374.896044
281.936718,-1258.350101,-10214.842000,-1302.362347
281.937041,-1554.432478,-7550.100608,-536.266849
281.937363,-1184.329507,-6143.709319,536.266849
281.937686,-592.164754,-5477.523971,1915.238745
281.938008,296.082377,-5255.462188,2145.067394
281.938331,1406.391290,-5477.523971,1302.362347
281.938653,2072.576638,-5921.647536,1072.533697
281.938976,2368.659014,-6587.832884,0.000000
281.939298,2516.700203,-7328.038826,-1149.143247
281.939621,2368.659014,-9178.553681,-2604.724693
281.939943,1924.535449,-10510.924376,-4366.744339
281.940266,1258.350101,-11843.295072,-4979.620737
281.940588,814.226536,-13693.809927,-5056.230287
281.940911,-370.102971,-14508.036463,-4290.134789
281.941233,-1184.329507,-15026.180623,-3677.258390
281.941556,-2146.597232,-14211.954086,-2834.553343
281.941878,-2886.803174,-12435.459826,-2298.286494
281.942201,-3034.844362,-10362.883188,-995.924147
281.942523,-3330.926739,-8438.347739,-306.438199
281.942846,-3256.906145,-6661.853478,842.705048
281.943168,-2738.761985,-5181.441594,1685.410096
281.943491,-2294.638420,-4515.256246,1991.848295
281.943813,-1850.514855,-4589.276840,1608.800546
281.944135,-1406.391290,-5107.421000,1608.800546
281.944458,-1554.432478,-5625.565159,0.000000
281.944780,-1554.432478,-6661.853478,-1302.362347
281.945103,-1628.453072,-8142.265362,-2911.162892
281.945425,-1480.411884,-9548.656652,-3600.648841
281.945748,-1332.370696,-11177.109724,-4979.620737
281.946070,-1110.308913,-13101.645173,-4903.011187
281.946393,-592.164754,-14137.933492,-4443.353888
281.946715,-444.123565,-14508.036463,-4060.306139
281.947037,-518.144159,-14211.954086,-2911.162892
281.947360,-370.102971,-12731.542202,-2374.896044
281.947682,-1036.288319,-10732.986159,-1072.533697
281.948005,-1036.288319,-8586.388927,0.000000
281.948327,-1110.308913,-6883.915261,842.705048
281.948650,-1110.308913,-5625.565159,1378.971896
281.948972,-592.164754,-5329.482782,1149.143247
281.949295,-148.041188,-5181.441594,2068.457845
281.949617,592.164754,-5477.523971,1302.362347
281.949939,962.267725,-5995.668130,153.219100
281.950262,1110.308913,-6883.915261,-612.876398
281.950584,1332.370696,-8216.285956,-2298.286494
281.950907,1406.391290,-9992.780217,-4213.525239
281.951229,1036.288319,-11843.295072,-4903.011187
281.951552,148.041188,-13249.686362,-5286.058936
281.951874,-148.041188,-14137.933492,-4979.620737
281.952197,-222.061783,-14285.974681,-4826.401637
281.952519,444.123565,-13767.830521,-3983.696590
281.952841,0.000000,-13249.686362,-2757.943793
281.953164,-666.185348,-11473.192101,-1302.362347
281.953486,-1110.308913,-9030.512492,0.000000
281.953809,-814.226536,-6809.894666,842.705048
281.954131,296.082377,-5403.503377,1532.190996
281.954454,592.164754,-4219.173869,1608.800546
281.954776,666.185348,-4071.132681,2374.896044
281.955099,296.082377,-3923.091493,2451.505594
281.955421,222.061783,-4737.318029,1608.800546
281.955743,74.020594,-6143.709319,-766.095498
281.956066,0.000000,-7994.224174,-2987.772442
281.956388,-1110.308913,-9622.677246,-4443.353888
281.956711,-1258.350101,-11547.212695,-4903.011187
281.957033,-888.247130,-13323.706956,-5439.278036
281.957356,-370.102971,-14878.139434,-5439.278036
281.957678,444.123565,-15248.242405,-5132.839837
281.958001,74.020594,-14656.077652,-4366.744339
281.958323,-444.123565,-13619.789333,-3064.381992
281.958645,-370.102971,-11843.295072,-2451.505594
281.958968,-814.226536,-9992.780217,-1378.971896
281.959290,-962.267725,-8438.347739,-383.047749
281.959613,-814.226536,-6513.812290,1302.362347
281.959935,-740.205942,-5847.626942,2145.067394
281.960258,0.000000,-5403.503377,2451.505594
281.960580,1110.308913,-5181.441594,1991.848295
281.960903,2072.576638,-5329.482782,459.657299
281.961225,2664.741391,-6217.729913,153.219100
281.961548,2664.741391,-7105.977043,-689.485948
281.961870,2146.597232,-8512.368333,-2145.067394
281.962192,1480.411884,-10362.883188,-3983.696590
281.962515,592.164754,-12361.439231,-5132.839837
281.962837,296.082377,-13619.789333,-5439.278036
281.963160,-1332.370696,-14952.160028,-4749.792088
281.963482,-1776.494261,-14952.160028,-3907.087040
281.963805,-2072.576638,-13693.809927,-3140.991542
281.964127,-2368.659014,-12213.398043,-2528.115143
281.964450,-2960.823768,-10140.821405,-995.924147
281.964772,-3108.864956,-8068.244768,306.438199
281.965094,-2886.803174,-6365.771101,689.485948
281.965417,-2294.638420,-5033.400406,1455.581446
281.965739,-1480.411884,-4441.235652,1991.848295
281.966062,-888.247130,-4441.235652,2221.676944
281.966384,-296.082377,-4515.256246,2221.676944
281.966707,-222.061783,-5329.482782,1302.362347
281.967029,-222.061783,-6439.791695,-612.876398
281.967352,-592.164754,-8216.285956,-2757.943793
281.967674,-740.205942,-10214.842000,-4213.525239
281.967996,-1036.288319,-11547.212695,-4366.744339
281.968319,-814.226536,-13101.645173,-5362.668486
281.968641,-814.226536,-14434.015869,-4673.182538
281.968964,-666.185348,-14730.098246,-4596.572988
281.969286,-1258.350101,-14211.954086,-3753.867940
281.969609,-1924.535449,-13175.665768,-2221.676944
281.969931,-2072.576638,-11103.089130,-1302.362347
281.970254,-2368.659014,-9252.574275,-919.314598
281.970576,-1998.556043,-7402.059420,0.000000
281.970898,-1850.514855,-5773.606348,1072.533697
281.971221,-1036.288319,-5033.400406,1685.410096
281.971543,-296.082377,-4959.379811,1915.238745
281.971866,296.082377,-4885.359217,842.705048
281.972188,814.226536,-5847.626942,0.000000
281.972511,888.247130,-6661.853478,-995.924147
281.972833,1184.329507,-8068.244768,-2757.943793
281.973156,1184.329507,-9622.677246,-3753.867940
281.973478,1258.350101,-11399.171507,-4903.011187
281.973800,444.123565,-12731.542202,-4596.572988
281.974123,-222.061783,-13767.830521,-4673.182538
281.974445,-962.267725,-14434.015869,-4443.353888
281.974768,-1184.329507,-14211.954086,-3753.867940
281.975090,-1480.411884,-13323.706956,-2451.505594
281.975413,-1480.411884,-11695.253884,-1302.362347
281.975735,-1258.350101,-9104.533087,-153.219100
281.976058,-222.061783,-6809.894666,612.876398
281.976380,666.185348,-5181.441594,1378.971896
281.976702,814.226536,-4293.194464,2451.505594
281.977025,296.082377,-3701.029710,2528.115143
281.977347,74.020594,-4367.215058,1762.019645
281.977670,0.000000,-5329.482782,306.438199
281.977992,-148.041188,-6365.771101,-1455.581446
281.978315,-370.102971,-7624.121203,-2834.553343
281.978637,-222.061783,-9474.636058,-4213.525239
281.978960,0.000000,-11177.109724,-4519.963438
281.979282,518.144159,-12731.542202,-4826.401637
281.979605,518.144159,-14211.954086,-5515.887586
281.979927,370.102971,-15618.345376,-5362.668486
281.980249,-888.247130,-15248.242405,-3753.867940
281.980572,-814.226536,-14508.036463,-3217.601092
281.980894,-962.267725,-12731.542202,-1915.238745
281.981217,-814.226536,-10140.821405,-1378.971896
281.981539,-296.082377,-7846.182985,0.000000
281.981862,296.082377,-6069.688724,1378.971896
281.982184,1110.308913,-5255.462188,2681.334243
281.982507,1258.350101,-5033.400406,2451.505594
281.982829,1776.494261,-5255.462188,1838.629195
281.983151,1702.473667,-5699.585753,919.314598
281.983474,1850.514855,-6661.853478,-153.219100
281.983796,2072.576638,-7624.121203,-1455.581446
281.984119,1628.453072,-9178.553681,-2681.334243
281.984441,1332.370696,-10436.903782,-4060.306139
281.984764,740.205942,-11843.295072,-4749.792088
281.985086,148.041188,-13471.748144,-4596.572988
281.985409,-888.247130,-14656.077652,-4213.525239
281.985731,-1554.432478,-15470.304188,-3524.039291
281.986053,-2664.741391,-13915.871710,-2834.553343
281.986376,-3478.967927,-12361.439231,-2221.676944
281.986698,-3701.029710,-10066.800811,-1072.533697
281.987021,-3182.885551,-8068.244768,153.219100
281.987343,-2368.659014,-5625.565159,1072.533697
281.987666,-1628.453072,-4293.194464,2068.457845
281.987988,-1184.329507,-4071.132681,2757.943793
281.988311,-888.247130,-4293.194464,2987.772442
281.988633,-666.185348,-4737.318029,1991.848295
281.988955,0.000000,-5403.503377,612.876398
281.989278,-740.205942,-6365.771101,-1762.019645
281.989600,-1110.308913,-7772.162391,-2604.724693
281.989923,-1184.329507,-9844.739029,-3600.648841
281.990245,-1184.329507,-11843.295072,-4443.353888
281.990568,-1776.494261,-13249.686362,-4826.401637
281.990890,-1924.535449,-14211.954086,-4519.963438
281.991213,-1776.494261,-15322.262999,-4826.401637
281.991535,-2146.597232,-14878.139434,-3983.696590
281.991857,-2516.700203,-13397.727550,-2528.115143
281.992180,-2442.679609,-11325.150913,-1378.971896
281.992502,-2146.597232,-9178.553681,-842.705048
281.992825,-1332.370696,-6513.812290,0.000000
281.993147,-666.185348,-5403.503377,919.314598
281.993470,0.000000,-4737.318029,1532.190996
281.993792,740.205942,-5255.462188,1532.190996
281.994115,1406.391290,-5477.523971,919.314598
281.994437,1924.535449,-6217.729913,306.438199
281.994759,1850.514855,-6883.915261,-919.314598
281.995082,1258.350101,-7698.141797,-2604.724693
281.995404,1036.288319,-9474.636058,-4213.525239
281.995727,592.164754,-11325.150913,-4903.011187
281.996049,296.082377,-12879.583391,-5515.887586
281.996372,-518.144159,-14582.057057,-5439.278036
281.996694,-1110.308913,-15322.262999,-4749.792088
281.997017,-1258.350101,-15544.324782,-3983.696590
281.997339,-1332.370696,-14211.954086,-2834.553343
281.997662,-666.185348,-12213.398043,-2221.676944
281.997984,-592.164754,-9326.594869,-306.438199
281.998306,222.061783,-6661.853478,306.438199
281.998629,1480.411884,-4959.379811,995.924147
281.998951,1702.473667,-4071.132681,1838.629195
281.999274,1702.473667,-4145.153275,2221.676944
281.999596,1332.370696,-4589.276840,2451.505594
281.999919,444.123565,-4885.359217,842.705048
282.000241,222.061783,-6143.709319,-1532.190996
282.000564,74.020594,-7254.018232,-3447.429741
282.000886,-370.102971,-9104.533087,-3830.477490
282.001208,-222.061783,-10658.965565,-4519.963438
282.001531,0.000000,-12583.501014,-4979.620737
282.001853,222.061783,-14211.954086,-5439.278036
282.002176,0.000000,-15248.242405,-5592.497135
282.002498,-962.267725,-15100.201217,-4519.963438
282.002821,-1406.391290,-14508.036463,-2451.505594
282.003143,-1184.329507,-12435.459826,-1991.848295
282.003466,-1258.350101,-10288.862594,-766.095498
282.003788,-1110.308913,-8068.244768,0.000000
282.004110,-962.267725,-6291.750507,1072.533697
282.004433,-296.082377,-5181.441594,2451.505594
282.004755,222.061783,-4811.338623,2374.896044
282.005078,1184.329507,-5255.462188,1608.800546
282.005400,1628.453072,-5625.565159,766.095498
282.005723,1850.514855,-6069.688724,459.657299
282.006045,1702.473667,-7179.997637,-612.876398
282.006368,1554.432478,-8882.471304,-2451.505594
282.006690,1406.391290,-10288.862594,-4213.525239
282.007012,814.226536,-12213.398043,-4903.011187
282.007335,74.020594,-13915.871710,-4366.744339
282.007657,-296.082377,-15322.262999,-3907.087040
282.007980,-1110.308913,-15174.221811,-3524.039291
282.008302,-1480.411884,-13989.892304,-3217.601092
282.008625,-2294.638420,-12509.480420,-2145.067394
282.008947,-2886.803174,-10807.006753,-766.095498
282.009270,-2590.720797,-8290.306550,536.266849
282.009592,-2516.700203,-6143.709319,1532.190996
282.009914,-2220.617826,-4367.215058,2374.896044
282.010237,-1184.329507,-3997.112087,2221.676944
282.010559,-814.226536,-3849.070898,2068.457845
282.010882,-592.164754,-4367.215058,1762.019645
282.011204,-740.205942,-5033.400406,383.047749
282.011527,-888.247130,-6069.688724,-689.485948
282.011849,-1036.288319,-7698.141797,-2451.505594
282.012172,-1258.350101,-10066.800811,-4290.134789
282.012494,-1406.391290,-12287.418637,-4749.792088
282.012816,-1554.432478,-13767.830521,-4903.011187
282.013139,-1184.329507,-14508.036463,-5056.230287
282.013461,-1332.370696,-14582.057057,-4443.353888
282.013784,-1554.432478,-14285.974681,-3983.696590
282.014106,-1850.514855,-12953.603985,-2374.896044
282.014429,-2072.576638,-10881.027347,-1608.800546
282.014751,-1924.535449,-8882.471304,-689.485948
282.015074,-1554.432478,-6883.915261,459.657299
282.015396,-1554.432478,-4885.359217,1378.971896
282.015718,-740.205942,-4737.318029,1532.190996
282.016041,-222.061783,-4737.318029,1302.362347
282.016363,370.102971,-5107.421000,766.095498
282.016686,1184.329507,-5699.585753,229.828649
282.017008,1110.308913,-6365.771101,-1302.362347
282.017331,1110.308913,-8290.306550,-3217.601092
282.017653,814.226536,-10584.944971,-4443.353888
282.017976,444.123565,-12213.398043,-4826.401637
282.018298,0.000000,-13619.789333,-5209.449386
282.018621,-518.144159,-14804.118840,-5898.935335
282.018943,-592.164754,-15396.283594,-4979.620737
282.019265,-1184.329507,-14878.139434,-4060.306139
282.019588,-1406.391290,-13693.809927,-2451.505594
282.019910,-1406.391290,-11769.274478,-1302.362347
282.020233,-888.247130,-8660.409521,-689.485948
282.020555,222.061783,-6217.729913,306.438199
282.020878,370.102971,-4811.338623,1455.581446
282.021200,592.164754,-4663.297435,2298.286494
282.021523,222.061783,-4293.194464,2451.505594
282.021845,-148.041188,-4219.173869,1915.238745
282.022167,370.102971,-4811.338623,919.314598
282.022490,0.000000,-5699.585753,-2145.067394
282.022812,-222.061783,-7476.080014,-3064.381992
282.023135,-370.102971,-9770.718434,-3830.477490
282.023457,0.000000,-11547.212695,-4213.525239
282.023780,444.123565,-13323.706956,-4826.401637
282.024102,1184.329507,-14804.118840,-5439.278036
282.024425,222.061783,-15396.283594,-5056.230287
282.024747,-814.226536,-15100.201217,-3370.820191
282.025069,-1258.350101,-14137.933492,-2298.286494
282.025392,-1258.350101,-11843.295072,-1532.190996
282.025714,-888.247130,-9992.780217,-536.266849
282.026037,-814.226536,-7476.080014,229.828649
282.026359,-592.164754,-5773.606348,2068.457845
282.026682,-222.061783,-4885.359217,2987.772442
282.027004,888.247130,-4737.318029,3140.991542
282.027327,1850.514855,-4441.235652,2068.457845
282.027649,2072.576638,-5033.400406,919.314598
282.027971,2368.659014,-5995.668130,76.609550
282.028294,2146.597232,-7624.121203,-995.924147
282.028616,2072.576638,-9178.553681,-2681.334243
282.028939,1480.411884,-10510.924376,-3983.696590
282.029261,1184.329507,-12731.542202,-5132.839837
282.029584,74.020594,-14211.954086,-4749.792088
282.029906,-1184.329507,-15174.221811,-3907.087040
282.030229,-2368.659014,-14804.118840,-3524.039291
282.030551,-3404.947333,-13619.789333,-3064.381992
282.030873,-3330.926739,-12287.418637,-2298.286494
282.031196,-3552.988522,-9992.780217,-1072.533697
282.031518,-3108.864956,-7402.059420,459.657299
282.031841,-2294.638420,-5403.503377,1072.533697
282.032163,-1258.350101,-4737.318029,2068.457845
282.032486,-888.247130,-3849.070898,2681.334243
282.032808,-592.164754,-3997.112087,2298.286494
282.033131,-592.164754,-4589.276840,1149.143247
282.033453,-444.123565,-5699.585753,0.000000
282.033775,-222.061783,-7105.977043,-2068.457845
282.034098,-592.164754,-8808.450710,-3677.258390
282.034420,-888.247130,-10140.821405,-4749.792088
282.034743,-962.267725,-12213.398043,-4903.011187
282.035065,-740.205942,-14137.933492,-5209.449386
282.035388,-666.185348,-15026.180623,-5209.449386
282.035710,-1184.329507,-14952.160028,-4519.963438
282.036033,-1776.494261,-14359.995275,-3677.258390
282.036355,-1702.473667,-13249.686362,-2528.115143
282.036678,-1776.494261,-11029.068536,-1455.581446
282.037000,-1628.453072,-8364.327145,-919.314598
282.037322,-1036.288319,-6587.832884,153.219100
282.037645,-518.144159,-5107.421000,1915.238745
282.037967,0.000000,-4663.297435,1532.190996
282.038290,518.144159,-4663.297435,1532.190996
282.038612,962.267725,-5033.400406,766.095498
282.038935,1554.432478,-5699.585753,-383.047749
282.039257,1480.411884,-6957.935855,-919.314598
282.039580,1406.391290,-8586.388927,-3294.210641
282.039902,962.267725,-10807.006753,-4290.134789
282.040224,592.164754,-12213.398043,-4596.572988
282.040547,0.000000,-13545.768739,-4826.401637
282.040869,-518.144159,-14508.036463,-5362.668486
282.041192,-1036.288319,-14952.160028,-5209.449386
282.041514,-1628.453072,-14508.036463,-3524.039291
282.041837,-2146.597232,-13397.727550,-1991.848295
282.042159,-1998.556043,-11251.130318,-919.314598
282.042481,-1406.391290,-8438.347739,-306.438199
282.042803,-148.041188,-5699.585753,995.924147
282.043126,296.082377,-4367.215058,1685.410096
282.043448,666.185348,-4441.235652,2451.505594
282.043770,222.061783,-3923.091493,2604.724693
282.044093,0.000000,-4293.194464,1838.629195
282.044415,74.020594,-4959.379811,-153.219100
282.044737,0.000000,-6365.771101,-1838.629195
282.045060,-740.205942,-8142.265362,-3370.820191
282.045382,-1332.370696,-10288.862594,-3983.696590
282.045704,-1258.350101,-12065.356855,-4596.572988
282.046027,-222.061783,-13471.748144,-4979.620737
282.046349,222.061783,-14434.015869,-5209.449386
282.046671,0.000000,-15322.262999,-4673.182538
282.046994,-740.205942,-15026.180623,-3140.991542
282.047316,-1110.308913,-13989.892304,-1991.848295
282.047638,-1258.350101,-11991.336260,-1149.143247
282.047961,-1110.308913,-9252.574275,-306.438199
282.048283,-592.164754,-7772.162391,383.047749
282.048605,0.000000,-5403.503377,1991.848295
282.048928,740.205942,-4663.297435,2681.334243
282.049250,1406.391290,-4367.215058,2604.724693
282.049572,1776.494261,-4663.297435,2528.115143
282.049895,2072.576638,-5181.441594,1225.752797
282.050217,1628.453072,-6661.853478,0.000000
282.050539,1480.411884,-8142.265362,-1915.238745
282.050862,1554.432478,-9548.656652,-3677.258390
282.051184,1480.411884,-10881.027347,-4749.792088
282.051506,1184.329507,-11991.336260,-4826.401637
282.051829,814.226536,-13767.830521,-4136.915689
282.052151,-296.082377,-14804.118840,-3447.429741
282.052473,-1258.350101,-15100.201217,-3447.429741
282.052795,-2368.659014,-14063.912898,-2987.772442
282.053118,-2960.823768,-12139.377449,-1991.848295
282.053440,-2664.741391,-9844.739029,-1072.533697
282.053762,-1998.556043,-7402.059420,229.828649
282.054085,-888.247130,-5033.400406,1378.971896
282.054407,0.000000,-3923.091493,2451.505594
282.054729,222.061783,-3627.009116,2604.724693
282.055052,74.020594,-3627.009116,1915.238745
282.055374,0.000000,-4885.359217,919.314598
282.055696,-296.082377,-6143.709319,-689.485948
282.056019,-592.164754,-7402.059420,-2145.067394
282.056341,-740.205942,-9178.553681,-3447.429741
282.056663,-666.185348,-11177.109724,-4519.963438
282.056986,-888.247130,-12435.459826,-5286.058936
282.057308,-1110.308913,-14063.912898,-5362.668486
282.057630,-1628.453072,-14804.118840,-5209.449386
282.057953,-2368.659014,-14952.160028,-4903.011187
282.058275,-2886.803174,-14211.954086,-3983.696590
282.058597,-3404.947333,-12583.501014,-2374.896044
282.058920,-3108.864956,-10732.986159,-1915.238745
282.059242,-2442.679609,-8438.347739,-766.095498
282.059564,-1554.432478,-6365.771101,0.000000
282.059887,-592.164754,-5329.482782,1225.752797
282.060209,148.041188,-4737.318029,1685.410096
282.060531,296.082377,-5107.421000,1378.971896
282.060854,1702.473667,-6069.688724,383.047749
282.061176,2072.576638,-6661.853478,-766.095498
282.061498,2368.659014,-7550.100608,-2221.676944
282.061820,2368.659014,-9252.574275,-3064.381992
282.062143,1258.350101,-10510.924376,-3677.258390
282.062465,592.164754,-11991.336260,-4366.744339
282.062787,-148.041188,-13323.706956,-4826.401637
282.063110,-1036.288319,-14434.015869,-5056.230287
282.063432,-1776.494261,-14952.160028,-4519.963438
282.063754,-2516.700203,-14434.015869,-2834.553343
282.064077,-2738.761985,-12953.603985,-1532.190996
282.064399,-2442.679609,-10658.965565,-459.657299
282.064721,-1702.473667,-7920.203579,0.000000
282.065044,-740.205942,-5625.565159,612.876398
282.065366,148.041188,-4515.256246,1838.629195
282.065688,-296.082377,-3627.009116,2681.334243
282.066011,-518.144159,-4293.194464,2451.505594
282.066333,-740.205942,-4811.338623,1762.019645
282.066655,-370.102971,-5773.606348,-689.485948
282.066978,-222.061783,-6809.894666,-2604.724693
282.067300,-518.144159,-8290.306550,-3217.601092
282.067622,-518.144159,-10140.821405,-3524.039291
282.067945,0.000000,-11695.253884,-4060.306139
282.068267,666.185348,-13175.665768,-4749.792088
282.068589,888.247130,-14434.015869,-4903.011187
282.068912,518.144159,-14434.015869,-3677.258390
282.069234,74.020594,-14285.974681,-2604.724693
282.069556,-148.041188,-13323.706956,-1149.143247
282.069879,0.000000,-11251.130318,-306.438199
282.070201,222.061783,-8586.388927,536.266849
282.070523,222.061783,-6513.812290,1608.800546
282.070846,592.164754,-4737.318029,2451.505594
282.071168,814.226536,-4663.297435,2451.505594
282.071490,1184.329507,-4737.318029,2374.896044
282.071812,1406.391290,-5329.482782,1149.143247
282.072135,1628.453072,-6291.750507,0.000000
282.072457,1480.411884,-7179.997637,-306.438199
282.072779,888.247130,-8882.471304,-2221.676944
282.073102,962.267725,-10214.842000,-4060.306139
282.073424,1036.288319,-11547.212695,-5592.497135
282.073746,962.267725,-12731.542202,-5669.106685
282.074069,222.061783,-14211.954086,-4749.792088
282.074391,-740.205942,-15100.201217,-4519.963438
282.074713,-1628.453072,-14656.077652,-3447.429741
282.075036,-2220.617826,-13471.748144,-2911.162892
282.075358,-2294.638420,-11399.171507,-1915.238745
282.075680,-1850.514855,-8808.450710,-383.047749
282.076003,-1406.391290,-6365.771101,383.047749
282.076325,-666.185348,-4959.379811,1378.971896
282.076647,0.000000,-4367.215058,2451.505594
282.076970,0.000000,-4441.235652,2451.505594
282.077292,0.000000,-4589.276840,1838.629195
282.077614,-296.082377,-4885.359217,536.266849
282.077937,-518.144159,-6883.915261,-995.924147
282.078259,-518.144159,-8142.265362,-2451.505594
282.078581,-1036.288319,-9696.697840,-3600.648841
282.078904,-1110.308913,-11177.109724,-4903.011187
282.079226,-1036.288319,-12583.501014,-5745.716235
282.079548,-1184.329507,-14211.954086,-5132.839837
282.079871,-1776.494261,-15322.262999,-5056.230287
282.080193,-2294.638420,-15174.221811,-4673.182538
282.080515,-2738.761985,-14211.954086,-3294.210641
282.080837,-2812.782580,-12139.377449,-1915.238745
282.081160,-2738.761985,-9474.636058,-842.705048
282.081482,-2368.659014,-7105.977043,-383.047749
282.081804,-1332.370696,-5403.503377,306.438199
282.082127,-666.185348,-4441.235652,1378.971896
282.082449,0.000000,-4663.297435,1685.410096
282.082771,296.082377,-4737.318029,1838.629195
282.083094,1110.308913,-5477.523971,919.314598
282.083416,1480.411884,-6513.812290,-306.438199
282.083738,1924.535449,-7846.182985,-1838.629195
282.084061,1554.432478,-9178.553681,-3217.601092
282.084383,1036.288319,-10436.903782,-3983.696590
282.084705,222.061783,-11917.315666,-4366.744339
282.085028,-518.144159,-13619.789333,-4903.011187
282.085350,-1554.432478,-14878.139434,-4443.353888
282.085672,-2368.659014,-15174.221811,-4213.525239
282.085995,-2960.823768,-14508.036463,-3217.601092
282.086317,-2886.803174,-13101.645173,-1072.533697
282.086639,-2220.617826,-10288.862594,-229.828649
282.086962,-1258.350101,-7254.018232,153.219100
282.087284,-148.041188,-5255.462188,995.924147
282.087606,518.144159,-4515.256246,2221.676944
282.087929,296.082377,-4145.153275,2834.553343
282.088251,0.000000,-4441.235652,2911.162892
282.088573,-370.102971,-5033.400406,1225.752797
282.088896,0.000000,-6143.709319,-919.314598
282.089218,0.000000,-7402.059420,-2451.505594
282.089540,-148.041188,-9030.512492,-3140.991542
282.089863,-222.061783,-9770.718434,-4060.306139
282.090185,-148.041188,-11695.253884,-4903.011187
282.090507,296.082377,-13101.645173,-5286.058936
282.090829,74.020594,-14730.098246,-5286.058936
282.091152,0.000000,-15248.242405,-4596.572988
282.091474,-592.164754,-14508.036463,-2681.334243
282.091796,-444.123565,-13101.645173,-1608.800546
282.092119,-370.102971,-10807.006753,-459.657299
282.092441,-148.041188,-8216.285956,153.219100
282.092763,0.000000,-6069.688724,995.924147
282.093086,296.082377,-5033.400406,2068.457845
282.093408,518.144159,-4515.256246,2528.115143
282.093730,1036.288319,-4811.338623,1991.848295
282.094053,1628.453072,-5477.523971,1072.533697
282.094375,1924.535449,-6291.750507,0.000000
282.094697,2146.597232,-7328.038826,-842.705048
282.095020,2220.617826,-8364.327145,-2298.286494
282.095342,1850.514855,-9548.656652,-3830.477490
282.095664,1480.411884,-11103.089130,-5056.230287
282.095987,814.226536,-13027.624579,-5209.449386
282.096309,148.041188,-14359.995275,-4673.182538
282.096631,-814.226536,-14582.057057,-4443.353888
282.096954,-1184.329507,-14878.139434,-3830.477490
282.097276,-1850.514855,-13545.768739,-2757.943793
282.097598,-1924.535449,-11177.109724,-1149.143247
282.097921,-1776.494261,-8660.409521,0.000000
282.098243,-814.226536,-6735.874072,766.095498
282.098565,0.000000,-4885.359217,1302.362347
282.098888,-222.061783,-4071.132681,2451.505594
282.099210,-296.082377,-4367.215058,2528.115143
282.099532,-370.102971,-4811.338623,1685.410096
282.099854,-592.164754,-5773.606348,459.657299
282.100177,-740.205942,-6661.853478,-766.095498
282.100499,-1480.411884,-8068.244768,-2451.505594
282.100821,-1850.514855,-9770.718434,-3983.696590
282.101144,-2146.597232,-11473.192101,-5132.839837
282.101466,-2294.638420,-13397.727550,-5515.887586
282.101788,-2442.679609,-14730.098246,-4903.011187
282.102111,-2812.782580,-15100.201217,-5362.668486
282.102433,-3552.988522,-15100.201217,-4903.011187
282.102755,-3701.029710,-14359.995275,-3677.258390
282.103078,-3478.967927,-12509.480420,-2451.505594
282.103400,-2886.803174,-9770.718434,-1378.971896
282.103722,-1924.535449,-7105.977043,-306.438199
282.104045,-1036.288319,-5255.462188,689.485948
282.104367,0.000000,-4589.276840,1838.629195
282.104689,370.102971,-4663.297435,2221.676944
282.105012,888.247130,-5181.441594,1915.238745
282.105334,1406.391290,-5107.421000,1455.581446
282.105656,2294.638420,-6291.750507,-153.219100
282.105979,2072.576638,-7402.059420,-1838.629195
282.106301,1332.370696,-9326.594869,-2757.943793
282.106623,444.123565,-10584.944971,-3524.039291
282.106946,0.000000,-12287.418637,-4596.572988
282.107268,-1110.308913,-13693.809927,-4826.401637
282.107590,-1702.473667,-15174.221811,-5056.230287
282.107913,-2516.700203,-15174.221811,-4443.353888
282.108235,-3034.844362,-14582.057057,-2834.553343
282.108557,-2368.659014,-13175.665768,-1225.752797
282.108880,-1110.308913,-9992.780217,-612.876398
282.109202,222.061783,-7031.956449,229.828649
282.109524,1184.329507,-4959.379811,995.924147
282.109846,1628.453072,-4293.194464,2528.115143
282.110169,1406.391290,-3849.070898,3064.381992
282.110491,444.123565,-3701.029710,2604.724693
282.110813,222.061783,-3701.029710,1072.533697
282.111136,370.102971,-5107.421000,-1072.533697
282.111458,0.000000,-6439.791695,-2298.286494
282.111780,-592.164754,-8438.347739,-2911.162892
282.112103,-666.185348,-10436.903782,-4213.525239
282.112425,-222.061783,-11843.295072,-4596.572988
282.112747,222.061783,-13767.830521,-5209.449386
282.113070,444.123565,-15100.201217,-5822.325785
282.113392,296.082377,-15840.407159,-4979.620737
282.113714,74.020594,-15396.283594,-3294.210641
282.114037,148.041188,-13767.830521,-1225.752797
282.114359,740.205942,-11621.233289,-689.485948
282.114681,592.164754,-8660.409521,-229.828649
282.115004,518.144159,-6513.812290,459.657299
282.115326,962.267725,-5551.544565,2068.457845
282.115648,1258.350101,-4811.338623,2451.505594
282.115971,1554.432478,-4515.256246,1915.238745
282.116293,1850.514855,-4589.276840,1302.362347
282.116615,2294.638420,-5699.585753,229.828649
282.116938,1850.514855,-7105.977043,-1072.533697
282.117260,1406.391290,-8586.388927,-2451.505594
282.117582,592.164754,-9548.656652,-4213.525239
282.117905,296.082377,-11621.233289,-5286.058936
282.118227,222.061783,-13693.809927,-5592.497135
282.118549,-296.082377,-14878.139434,-5209.449386
282.118871,-1258.350101,-15618.345376,-4596.572988
282.119194,-1776.494261,-15026.180623,-3830.477490
282.119516,-2516.700203,-13175.665768,-3140.991542
282.119838,-2886.803174,-10955.047942,-1455.581446
282.120161,-2664.741391,-8290.306550,-459.657299
282.120483,-2146.597232,-6587.832884,689.485948
282.120805,-1850.514855,-5033.400406,1838.629195
282.121128,-814.226536,-4367.215058,2221.676944
282.121450,-1406.391290,-3997.112087,2757.943793
282.121772,-1850.514855,-3923.091493,2451.505594
282.122095,-1776.494261,-4737.318029,536.266849
282.122417,-1628.453072,-6069.688724,-1225.752797
282.122739,-1998.556043,-7698.141797,-2604.724693
282.123062,-2368.659014,-9474.636058,-3753.867940
282.123384,-2294.638420,-11695.253884,-4519.963438
282.123706,-1850.514855,-13397.727550,-5132.839837
282.124029,-1702.473667,-14804.118840,-5592.497135
282.124351,-1702.473667,-15692.365970,-5669.106685
282.124673,-1924.535449,-15396.283594,-4826.401637
282.124996,-2442.679609,-14656.077652,-3140.991542
282.125318,-2738.761985,-12657.521608,-1532.190996
282.125640,-2442.679609,-9844.739029,-766.095498
282.125963,-2146.597232,-7105.977043,-153.219100
282.126285,-1332.370696,-4663.297435,229.828649
282.126607,-370.102971,-3923.091493,1915.238745
282.126930,296.082377,-4145.153275,1915.238745
282.127252,888.247130,-4737.318029,1838.629195
282.127574,1332.370696,-5107.421000,919.314598
282.127897,1850.514855,-5625.565159,-612.876398
282.128219,1702.473667,-7698.141797,-2528.115143
282.128541,1332.370696,-9696.697840,-3370.820191
282.128863,814.226536,-11325.150913,-4290.134789
282.129186,296.082377,-12805.562797,-4749.792088
282.129508,-370.102971,-14434.015869,-4979.620737
282.129830,-444.123565,-15470.304188,-4673.182538
282.130153,-962.267725,-15248.242405,-4060.306139
282.130475,-1702.473667,-14211.954086,-2757.943793
282.130797,-1628.453072,-12805.562797,-1072.533697
282.131120,-888.247130,-9992.780217,0.000000
282.131442,148.041188,-7105.977043,-306.438199
282.131764,1332.370696,-4737.318029,1302.362347
282.132087,1776.494261,-3997.112087,2221.676944
282.132409,1332.370696,-3404.947333,3294.210641
282.132731,962.267725,-3330.926739,3064.381992
282.133054,888.247130,-4367.215058,1302.362347
282.133376,740.205942,-5403.503377,-459.657299
282.133698,0.000000,-7105.977043,-2451.505594
282.134021,-518.144159,-8808.450710,-3524.039291
282.134343,-740.205942,-10362.883188,-4443.353888
282.134665,0.000000,-12657.521608,-5132.839837
282.134988,518.144159,-13915.871710,-5132.839837
282.135310,444.123565,-15322.262999,-5669.106685
282.135632,0.000000,-15692.365970,-4903.011187
282.135955,-814.226536,-15248.242405,-3217.601092
282.136277,-740.205942,-13471.748144,-1685.410096
282.136599,-518.144159,-10436.903782,-842.705048
282.136922,0.000000,-7920.203579,-229.828649
282.137244,0.000000,-5921.647536,995.924147
282.137566,296.082377,-4663.297435,2298.286494
282.137888,666.185348,-4589.276840,2528.115143
282.138211,1036.288319,-4589.276840,2757.943793
282.138533,814.226536,-5329.482782,1838.629195
282.138855,1036.288319,-6291.750507,153.219100
282.139178,814.226536,-7698.141797,-1455.581446
282.139500,518.144159,-8660.409521,-2834.553343
282.139822,148.041188,-9770.718434,-4366.744339
282.140145,-296.082377,-11473.192101,-5745.716235
282.140467,0.000000,-13767.830521,-5745.716235
282.140789,-666.185348,-15248.242405,-5209.449386
282.141112,-1776.494261,-15470.304188,-4903.011187
282.141434,-2516.700203,-15618.345376,-3830.477490
282.141756,-2960.823768,-13693.809927,-2451.505594
282.142079,-3182.885551,-11547.212695,-1608.800546
282.142401,-2738.761985,-8364.327145,-612.876398
282.142724,-1998.556043,-5847.626942,459.657299
282.143046,-1184.329507,-4293.194464,1455.581446
282.143369,-814.226536,-3701.029710,2451.505594
282.143691,-962.267725,-3997.112087,2757.943793
282.144013,-814.226536,-4515.256246,1915.238745
282.144336,-740.205942,-4885.359217,306.438199
282.144658,-296.082377,-6217.729913,-1608.800546
282.144981,-740.205942,-7772.162391,-2604.724693
282.145303,-814.226536,-9474.636058,-3753.867940
282.145626,-1554.432478,-11325.150913,-4366.744339
282.145948,-1184.329507,-13471.748144,-5209.449386
282.146270,-1110.308913,-14952.160028,-5669.106685
282.146593,-1480.411884,-15618.345376,-4979.620737
282.146915,-1702.473667,-14952.160028,-4596.572988
282.147238,-1924.535449,-14211.954086,-2528.115143
282.147560,-2294.638420,-12361.439231,-1225.752797
282.147883,-2146.597232,-9474.636058,-612.876398
282.148205,-1480.411884,-6661.853478,76.609550
282.148527,-814.226536,-4959.379811,842.705048
282.148850,222.061783,-3849.070898,1685.410096
282.149172,814.226536,-4219.173869,1915.238745
282.149495,1628.453072,-4885.359217,1838.629195
282.149817,2368.659014,-5329.482782,842.705048
282.150139,3108.864956,-6587.832884,-536.266849
282.150462,2664.741391,-8068.244768,-2528.115143
282.150784,2442.679609,-9474.636058,-3370.820191
282.151107,1110.308913,-11251.130318,-4136.915689
282.151429,370.102971,-12583.501014,-4826.401637
282.151752,-222.061783,-14063.912898,-5362.668486
282.152074,-1110.308913,-14878.139434,-4903.011187
282.152396,-1924.535449,-15026.180623,-4443.353888
282.152719,-2664.741391,-14063.912898,-2757.943793
282.153041,-2516.700203,-12731.542202,-1225.752797
282.153364,-1480.411884,-9696.697840,-536.266849
282.153686,-148.041188,-6883.915261,306.438199
282.154009,518.144159,-4663.297435,1608.800546
282.154331,1258.350101,-4737.318029,2681.334243
282.154653,518.144159,-4071.132681,3524.039291
282.154976,74.020594,-3997.112087,2604.724693
282.155298,0.000000,-4219.173869,383.047749
282.155621,-222.061783,-5477.523971,-1608.800546
282.155943,-370.102971,-7179.997637,-2528.115143
282.156266,-1036.288319,-9252.574275,-3370.820191
282.156588,-962.267725,-11103.089130,-4213.525239
282.156910,-592.164754,-12805.562797,-5439.278036
282.157233,-222.061783,-14285.974681,-5975.544884
282.157555,0.000000,-15914.427753,-5898.935335
282.157878,-888.247130,-15618.345376,-4826.401637
282.158200,-666.185348,-15026.180623,-3294.210641
282.158522,-370.102971,-13323.706956,-1685.410096
282.158845,-148.041188,-10658.965565,-459.657299
282.159167,74.020594,-7698.141797,842.705048
282.159490,592.164754,-5625.565159,842.705048
282.159812,814.226536,-4589.276840,2068.457845
282.160135,962.267725,-4441.235652,2451.505594
282.160457,888.247130,-4515.256246,2374.896044
282.160779,1184.329507,-5107.421000,1149.143247
282.161102,962.267725,-5995.668130,-689.485948
282.161424,1036.288319,-7550.100608,-1608.800546
282.161747,814.226536,-8956.491898,-3140.991542
282.162069,666.185348,-10140.821405,-4749.792088
282.162392,666.185348,-12065.356855,-5209.449386
282.162714,74.020594,-13471.748144,-5209.449386
282.163036,-814.226536,-14582.057057,-4749.792088
282.163359,-1554.432478,-15692.365970,-4749.792088
282.163681,-2294.638420,-15470.304188,-3907.087040
282.164004,-2812.782580,-13693.809927,-2604.724693
282.164326,-2738.761985,-10881.027347,-1225.752797
282.164649,-2442.679609,-7846.182985,-612.876398
282.164971,-1332.370696,-5773.606348,842.705048
282.165293,-444.123565,-4367.215058,2068.457845
282.165616,0.000000,-3404.947333,2604.724693
282.165938,0.000000,-3478.967927,2987.772442
282.166261,0.000000,-4145.153275,2604.724693
282.166583,0.000000,-5107.421000,383.047749
282.166905,0.000000,-6809.894666,-1302.362347
282.167228,-592.164754,-8364.327145,-2451.505594
282.167550,-1036.288319,-9770.718434,-3447.429741
282.167873,-666.185348,-11547.212695,-4826.401637
282.168195,-1036.288319,-13841.851115,-5439.278036
282.168518,-1036.288319,-15248.242405,-5362.668486
282.168840,-1480.411884,-15544.324782,-4903.011187
282.169162,-2368.659014,-15396.283594,-4060.306139
282.169485,-2590.720797,-14582.057057,-2528.115143
282.169807,-2886.803174,-12361.439231,-1378.971896
282.170130,-2590.720797,-9178.553681,-689.485948
282.170452,-1850.514855,-6217.729913,0.000000
282.170775,-740.205942,-4737.318029,995.924147
282.171097,0.000000,-3997.112087,2068.457845
282.171419,592.164754,-3775.050304,2451.505594
282.171742,1258.350101,-4811.338623,1991.848295
282.172064,1924.535449,-5477.523971,612.876398
282.172387,2738.761985,-6661.853478,-766.095498
282.172709,2442.679609,-8290.306550,-2374.896044
282.173032,1850.514855,-9400.615463,-3294.210641
282.173354,888.247130,-10362.883188,-4213.525239
282.173676,0.000000,-12509.480420,-4826.401637
282.173999,-740.205942,-14285.974681,-5209.449386
282.174321,-1776.494261,-15396.283594,-5209.449386
282.174644,-2886.803174,-15174.221811,-4213.525239
282.174966,-3478.967927,-14211.954086,-2221.676944
282.175288,-2590.720797,-12435.459826,-766.095498
282.175611,-1554.432478,-9400.615463,-459.657299
282.175933,148.041188,-6217.729913,306.438199
282.176256,1332.370696,-4441.235652,919.314598
282.176578,1998.556043,-4441.235652,2221.676944
282.176901,1036.288319,-3997.112087,3753.867940
282.177223,74.020594,-4219.173869,2757.943793
282.177545,0.000000,-5181.441594,229.828649
282.177868,-296.082377,-6439.791695,-2145.067394
282.178190,0.000000,-8364.327145,-3524.039291
282.178513,-592.164754,-9030.512492,-3447.429741
282.178835,-962.267725,-10732.986159,-4749.792088
282.179158,-296.082377,-12509.480420,-4903.011187
282.179480,0.000000,-14211.954086,-5592.497135
282.179802,0.000000,-15544.324782,-5975.544884
282.180125,-888.247130,-15618.345376,-4826.401637
282.180447,-1406.391290,-14656.077652,-3370.820191
282.180770,-1110.308913,-12953.603985,-1608.800546
282.181092,-666.185348,-10362.883188,-383.047749
282.181415,-222.061783,-7624.121203,459.657299
282.181737,0.000000,-5107.421000,1149.143247
282.182059,444.123565,-4737.318029,1838.629195
282.182382,814.226536,-4737.318029,2451.505594
282.182704,1184.329507,-5033.400406,2221.676944
282.183027,1332.370696,-5403.503377,1072.533697
282.183349,1702.473667,-6439.791695,-306.438199
282.183672,2072.576638,-8068.244768,-1685.410096
282.183994,1776.494261,-8808.450710,-2757.943793
282.184316,1554.432478,-10362.883188,-4443.353888
282.184639,1110.308913,-12287.418637,-5056.230287
282.184961,888.247130,-13989.892304,-4903.011187
282.185284,74.020594,-14730.098246,-4673.182538
282.185606,-962.267725,-15470.304188,-4366.744339
282.185928,-1850.514855,-14952.160028,-3294.210641
282.186251,-2146.597232,-12879.583391,-2068.457845
282.186573,-2368.659014,-10214.842000,-689.485948
282.186896,-1850.514855,-7624.121203,842.705048
282.187218,-1110.308913,-5551.544565,1302.362347
282.187541,-814.226536,-3997.112087,2451.505594
282.187863,-666.185348,-3701.029710,3064.381992
282.188185,-740.205942,-3923.091493,2911.162892
282.188508,-888.247130,-4293.194464,1532.190996
282.188830,-592.164754,-5181.441594,0.000000
282.189153,-888.247130,-6883.915261,-995.924147
282.189475,-1554.432478,-8438.347739,-2374.896044
282.189798,-2072.576638,-10214.842000,-3677.258390
282.190120,-2146.597232,-11991.336260,-4979.620737
282.190442,-1924.535449,-13841.851115,-5669.106685
282.190765,-1850.514855,-15100.201217,-5362.668486
282.191087,-2442.679609,-15470.304188,-4673.182538
282.191410,-2516.700203,-15174.221811,-3753.867940
282.191732,-2812.782580,-13989.892304,-2374.896044
282.192055,-2368.659014,-11473.192101,-1455.581446
282.192377,-1702.473667,-8438.347739,-459.657299
282.192699,-962.267725,-6291.750507,0.000000
282.193022,0.000000,-4737.318029,1302.362347
282.193344,518.144159,-4367.215058,2681.334243
282.193667,888.247130,-4515.256246,2528.115143
282.193989,1628.453072,-4885.359217,1915.238745
282.194311,1776.494261,-4959.379811,0.000000
282.194634,1776.494261,-6513.812290,-1532.190996
282.194956,1480.411884,-8142.265362,-2604.724693
282.195279,666.185348,-9918.759623,-3447.429741
282.195601,222.061783,-11325.150913,-4290.134789
282.195924,148.041188,-13175.665768,-5362.668486
282.196246,-592.164754,-14952.160028,-5592.497135
282.196568,-1554.432478,-15618.345376,-5286.058936
282.196891,-2738.761985,-15174.221811,-4136.915689
282.197213,-3330.926739,-14063.912898,-2604.724693
282.197536,-2812.782580,-11917.315666,-1225.752797
282.197858,-1702.473667,-9030.512492,-612.876398
282.198181,-518.144159,-6217.729913,-153.219100
282.198503,222.061783,-4959.379811,1072.533697
282.198825,962.267725,-4515.256246,2528.115143
282.199148,888.247130,-4145.153275,2987.772442
282.199470,518.144159,-3775.050304,1838.629195
282.199793,814.226536,-4663.297435,0.000000
282.200115,888.247130,-5921.647536,-1685.410096
282.200438,444.123565,-7624.121203,-2681.334243
282.200760,-296.082377,-8956.491898,-3140.991542
282.201082,-148.041188,-10288.862594,-4060.306139
282.201405,0.000000,-12287.418637,-5362.668486
282.201727,444.123565,-14285.974681,-5362.668486
282.202050,296.082377,-15544.324782,-4979.620737
282.202372,-370.102971,-15618.345376,-3983.696590
282.202694,-962.267725,-14211.954086,-2604.724693
282.203017,-962.267725,-12657.521608,-1225.752797
282.203339,-962.267725,-10214.842000,-536.266849
282.203662,-962.267725,-7624.121203,76.609550
282.203984,-592.164754,-5995.668130,842.705048
282.204307,148.041188,-4737.318029,2528.115143
282.204629,1258.350101,-5181.441594,2374.896044
282.204951,1480.411884,-5181.441594,2298.286494
282.205274,1554.432478,-5403.503377,1072.533697
282.205596,1628.453072,-6661.853478,-536.266849
282.205919,1554.432478,-7994.224174,-1915.238745
282.206241,1332.370696,-9400.615463,-3140.991542
282.206564,444.123565,-10140.821405,-4596.572988
282.206886,0.000000,-11843.295072,-5362.668486
282.207208,0.000000,-13619.789333,-5132.839837
282.207531,-888.247130,-14656.077652,-4903.011187
282.207853,-1184.329507,-15100.201217,-3677.258390
282.208176,-1924.535449,-14508.036463,-3064.381992
282.208498,-2220.617826,-12879.583391,-1915.238745
282.208821,-2368.659014,-10362.883188,-766.095498
282.209143,-1924.535449,-8068.244768,459.657299
282.209465,-1184.329507,-5773.606348,1685.410096
282.209788,-592.164754,-3997.112087,2068.457845
282.210110,0.000000,-3923.091493,2681.334243
282.210433,0.000000,-4071.132681,2604.724693
282.210755,0.000000,-4885.359217,1838.629195
282.211078,-222.061783,-5847.626942,459.657299
282.211400,-222.061783,-6809.894666,-995.924147
282.211722,-888.247130,-8660.409521,-2681.334243
282.212045,-1332.370696,-9992.780217,-4060.306139
282.212367,-2072.576638,-11621.233289,-5056.230287
282.212690,-1998.556043,-13397.727550,-5056.230287
282.213012,-1850.514855,-15026.180623,-5286.058936
282.213334,-2368.659014,-14730.098246,-4749.792088
282.213657,-2516.700203,-14730.098246,-3983.696590
282.213979,-2738.761985,-13619.789333,-2221.676944
282.214302,-2590.720797,-11621.233289,-995.924147
282.214624,-1998.556043,-8956.491898,-459.657299
282.214947,-1036.288319,-5995.668130,0.000000
282.215269,-148.041188,-4515.256246,766.095498
282.215591,444.123565,-3775.050304,2145.067394
282.215914,888.247130,-3849.070898,2298.286494
282.216236,1554.432478,-4811.338623,1532.190996
282.216559,2368.659014,-6143.709319,76.609550
282.216881,2886.803174,-7402.059420,-1225.752797
282.217204,2072.576638,-8808.450710,-2374.896044
282.217526,1258.350101,-10214.842000,-3677.258390
282.217848,222.061783,-11399.171507,-4673.182538
282.218171,-592.164754,-12731.542202,-5209.449386
282.218493,-1554.432478,-13989.892304,-5439.278036
282.218816,-2294.638420,-14952.160028,-5745.716235
282.219138,-3182.885551,-15100.201217,-4596.572988
282.219461,-3478.967927,-14730.098246,-2528.115143
282.219783,-2664.741391,-12657.521608,-1378.971896
282.220105,-1184.329507,-9696.697840,-612.876398
282.220428,222.061783,-6587.832884,153.219100
282.220750,1480.411884,-4737.318029,842.705048
282.221073,2072.576638,-3997.112087,2298.286494
282.221395,1702.473667,-3849.070898,3217.601092
282.221717,1258.350101,-3923.091493,2298.286494
282.222040,1480.411884,-5033.400406,459.657299
282.222362,962.267725,-7031.956449,-1608.800546
282.222685,0.000000,-8512.368333,-2604.724693
282.223007,-962.267725,-9474.636058,-3370.820191
282.223330,-1036.288319,-10732.986159,-4826.401637
282.223652,-444.123565,-11991.336260,-5362.668486
282.223974,-148.041188,-13693.809927,-5515.887586
282.224297,-592.164754,-14878.139434,-5286.058936
282.224619,-1110.308913,-15322.262999,-3830.477490
282.224942,-1480.411884,-14952.160028,-2528.115143
282.225264,-1258.350101,-13323.706956,-1532.190996
282.225587,-1036.288319,-10362.883188,-842.705048
282.225909,-592.164754,-7846.182985,229.828649
282.226231,0.000000,-5625.565159,1762.019645
282.226554,148.041188,-4367.215058,2528.115143
282.226876,666.185348,-3701.029710,2528.115143
282.227199,1184.329507,-4219.173869,2145.067394
282.227521,1406.391290,-5329.482782,919.314598
282.227844,1258.350101,-6661.853478,-306.438199
282.228166,1036.288319,-7920.203579,-1225.752797
282.228488,592.164754,-8808.450710,-2451.505594
282.228811,370.102971,-9622.677246,-4060.306139
282.229133,444.123565,-11695.253884,-4979.620737
282.229456,370.102971,-13397.727550,-4749.792088
282.229778,-370.102971,-14434.015869,-4366.744339
282.230100,-1110.308913,-15174.221811,-3600.648841
282.230423,-1998.556043,-15026.180623,-2681.334243
282.230745,-2294.638420,-12805.562797,-1608.800546
282.231068,-1998.556043,-10436.903782,-766.095498
282.231390,-1480.411884,-7476.080014,153.219100
282.231713,-592.164754,-5329.482782,1149.143247
282.232035,74.020594,-4367.215058,2221.676944
282.232357,-370.102971,-3404.947333,3064.381992
282.232680,-888.247130,-4071.132681,2528.115143
282.233002,-1036.288319,-4959.379811,1072.533697
282.233325,-1258.350101,-6143.709319,-536.266849
282.233647,-1110.308913,-7476.080014,-2068.457845
282.233970,-1480.411884,-8956.491898,-3370.820191
282.234292,-1332.370696,-10510.924376,-4060.306139
282.234614,-1110.308913,-12065.356855,-4979.620737
282.234937,-1332.370696,-13767.830521,-5439.278036
282.235259,-1406.391290,-15174.221811,-5669.106685
282.235582,-1924.535449,-15470.304188,-4903.011187
282.235904,-2146.597232,-15544.324782,-4443.353888
282.236227,-2442.679609,-13915.871710,-2374.896044
282.236549,-2146.597232,-11325.150913,-1072.533697
282.236871,-1480.411884,-8290.306550,-306.438199
282.237194,-296.082377,-5625.565159,229.828649
282.237516,0.000000,-4145.153275,1378.971896
282.237839,518.144159,-3849.070898,1991.848295
282.238161,592.164754,-4219.173869,2068.457845
282.238483,740.205942,-5107.421000,1302.362347
282.238806,1332.370696,-6439.791695,-229.828649
282.239128,1184.329507,-7402.059420,-1608.800546
282.239451,740.205942,-8660.409521,-3600.648841
282.239773,296.082377,-10066.800811,-4213.525239
282.240096,0.000000,-11399.171507,-4826.401637
282.240418,0.000000,-13101.645173,-5439.278036
282.240740,-814.226536,-14211.954086,-5515.887586
282.241063,-1702.473667,-15100.201217,-5132.839837
282.241385,-2516.700203,-15174.221811,-4136.915689
282.241708,-2738.761985,-14434.015869,-2451.505594
282.242030,-2368.659014,-12065.356855,-995.924147
282.242352,-1184.329507,-8512.368333,0.000000
282.242675,518.144159,-5329.482782,689.485948
282.242997,1554.432478,-4071.132681,1608.800546
282.243319,2294.638420,-3923.091493,3217.601092
282.243642,1998.556043,-3701.029710,3524.039291
282.243964,1480.411884,-4145.153275,2528.115143
282.244286,962.267725,-5107.421000,919.314598
282.244609,444.123565,-6661.853478,-1762.019645
282.244931,-740.205942,-8068.244768,-2604.724693
282.245253,-1850.514855,-9474.636058,-4060.306139
282.245576,-1406.391290,-11177.109724,-5209.449386
282.245898,-592.164754,-13101.645173,-6128.763984
282.246221,-148.041188,-14359.995275,-5439.278036
282.246543,-1036.288319,-15544.324782,-5056.230287
282.246865,-1554.432478,-15840.407159,-4060.306139
282.247188,-1850.514855,-14952.160028,-2681.334243
282.247510,-1702.473667,-12731.542202,-1762.019645
282.247832,-1110.308913,-9770.718434,-1302.362347
282.248155,-444.123565,-7105.977043,689.485948
282.248477,296.082377,-4885.359217,1991.848295
282.248799,962.267725,-4219.173869,2834.553343
282.249122,1628.453072,-4293.194464,3064.381992
282.249444,1850.514855,-4737.318029,2681.334243
282.249766,2368.659014,-5477.523971,1149.143247
282.250089,1850.514855,-6661.853478,0.000000
282.250411,1628.453072,-8142.265362,-995.924147
282.250733,1036.288319,-9030.512492,-2528.115143
282.251056,592.164754,-9992.780217,-4443.353888
282.251378,370.102971,-11473.192101,-4979.620737
282.251700,222.061783,-13841.851115,-5515.887586
282.252023,-592.164754,-14952.160028,-4903.011187
282.252345,-1406.391290,-15618.345376,-3907.087040
282.252668,-1998.556043,-15248.242405,-2528.115143
282.252990,-2442.679609,-13175.665768,-1302.362347
282.253312,-2294.638420,-9844.739029,-536.266849
282.253635,-1850.514855,-7105.977043,0.000000
282.253957,-1110.308913,-4811.338623,612.876398
282.254279,-592.164754,-3552.988522,1915.238745
282.254602,-518.144159,-3701.029710,2987.772442
282.254924,-962.267725,-3997.112087,3294.210641
282.255246,-962.267725,-4885.359217,1455.581446
282.255569,-962.267725,-6069.688724,-459.657299
282.255891,-1480.411884,-7328.038826,-2145.067394
282.256213,-1924.535449,-8438.347739,-3217.601092
282.256536,-2072.576638,-9918.759623,-4519.963438
282.256858,-2146.597232,-11547.212695,-5209.449386
282.257180,-1850.514855,-13619.789333,-5898.935335
282.257503,-1776.494261,-14952.160028,-5745.716235
282.257825,-1924.535449,-15544.324782,-5056.230287
282.258147,-2220.617826,-15470.304188,-3907.087040
282.258470,-2368.659014,-14211.954086,-2221.676944
282.258792,-2146.597232,-11547.212695,-1072.533697
282.259114,-1332.370696,-8216.285956,-536.266849
282.259437,-296.082377,-5699.585753,-153.219100
282.259759,444.123565,-4293.194464,1455.581446
282.260082,1332.370696,-3552.988522,2604.724693
282.260404,1036.288319,-4071.132681,2374.896044
282.260726,1480.411884,-5329.482782,1455.581446
282.261049,1850.514855,-6661.853478,0.000000
282.261371,1554.432478,-7476.080014,-1685.410096
282.261693,1184.329507,-8808.450710,-3064.381992
282.262016,518.144159,-10214.842000,-3753.867940
