#time,accel_x,accel_y,accel_z
415.141329,-592.164754,-9400.615463,-1685.410096
415.141650,-370.102971,-9400.615463,-1302.362347
415.141972,-518.144159,-9474.636058,-1685.410096
415.142293,-518.144159,-9178.553681,-1915.238745
415.142615,-370.102971,-9252.574275,-1915.238745
415.142937,-296.082377,-9178.553681,-2145.067394
415.143258,-444.123565,-9548.656652,-1762.019645
415.143580,-444.123565,-9696.697840,-1608.800546
415.143901,-740.205942,-9844.739029,-1762.019645
415.144223,-592.164754,-9770.718434,-1762.019645
415.144544,-666.185348,-9474.636058,-1915.238745
415.144866,-518.144159,-9178.553681,-2374.896044
415.145188,0.000000,-9474.636058,-1685.410096
415.145509,-296.082377,-9030.512492,-1685.410096
415.145831,-296.082377,-9326.594869,-1685.410096
415.146152,-296.082377,-9548.656652,-1532.190996
415.146474,-814.226536,-9400.615463,-1302.362347
415.146796,-148.041188,-9770.718434,-1302.362347
415.147117,-444.123565,-9474.636058,-1302.362347
415.147439,-370.102971,-9326.594869,-1378.971896
415.147760,-296.082377,-9400.615463,-1378.971896
415.148082,-148.041188,-9178.553681,-1532.190996
415.148403,-148.041188,-9474.636058,-1302.362347
415.148725,-296.082377,-9474.636058,-1455.581446
415.149047,-444.123565,-9400.615463,-1302.362347
415.149368,-296.082377,-9474.636058,-1225.752797
415.149690,-296.082377,-9252.574275,-1072.533697
415.150011,-370.102971,-8956.491898,-1072.533697
415.150333,0.000000,-9178.553681,-1455.581446
415.150655,0.000000,-9252.574275,-1149.143247
415.150976,0.000000,-9326.594869,-1149.143247
415.151298,0.000000,-9178.553681,-1225.752797
415.151619,-148.041188,-9326.594869,-1455.581446
415.151941,-370.102971,-9252.574275,-1532.190996
415.152263,0.000000,-9474.636058,-1149.143247
415.152584,-296.082377,-9326.594869,-995.924147
415.152906,-370.102971,-9104.533087,-1072.533697
415.153227,-296.082377,-9252.574275,-995.924147
415.153549,-222.061783,-8956.491898,-1302.362347
415.153870,0.000000,-9326.594869,-1378.971896
415.154192,-370.102971,-8956.491898,-1302.362347
415.154514,-370.102971,-9252.574275,-1302.362347
415.154835,-296.082377,-9252.574275,-1378.971896
415.155157,-222.061783,-9326.594869,-919.314598
415.155478,-518.144159,-9400.615463,-1225.752797
415.155800,-740.205942,-9474.636058,-1378.971896
415.156122,-740.205942,-9548.656652,-1225.752797
415.156443,-592.164754,-9474.636058,-1378.971896
415.156765,-666.185348,-9252.574275,-995.924147
415.157086,-740.205942,-9178.553681,-1072.533697
415.157408,-444.123565,-9474.636058,-1608.800546
415.157729,-666.185348,-9326.594869,-1608.800546
415.158051,-666.185348,-9400.615463,-1608.800546
415.158373,-592.164754,-9474.636058,-1532.190996
415.158694,-370.102971,-9770.718434,-1072.533697
415.159016,-666.185348,-9548.656652,-1608.800546
415.159337,-518.144159,-9548.656652,-1685.410096
415.159659,-444.123565,-9400.615463,-1455.581446
415.159981,-296.082377,-9400.615463,-1685.410096
415.160302,-518.144159,-9400.615463,-2068.457845
415.160624,-518.144159,-9252.574275,-1608.800546
415.160945,-444.123565,-9548.656652,-2145.067394
415.161267,-518.144159,-9548.656652,-1762.019645
415.161588,-444.123565,-9622.677246,-1532.190996
415.161910,0.000000,-9400.615463,-1838.629195
415.162232,1036.288319,-9474.636058,-1991.848295
415.162553,1184.329507,-9474.636058,-1762.019645
415.162875,962.267725,-9400.615463,-1072.533697
415.163196,666.185348,-9104.533087,-766.095498
415.163518,148.041188,-8882.471304,-1225.752797
415.163840,74.020594,-9474.636058,-1838.629195
415.164161,-592.164754,-9696.697840,-1915.238745
415.164483,-1258.350101,-9400.615463,-1838.629195
415.164804,-814.226536,-9178.553681,-2145.067394
415.165126,148.041188,-9622.677246,-2145.067394
415.165448,444.123565,-10066.800811,-1608.800546
415.165769,518.144159,-9918.759623,-612.876398
415.166091,518.144159,-9252.574275,-1378.971896
415.166412,1480.411884,-9622.677246,-2221.676944
415.166734,2146.597232,-10658.965565,-1838.629195
415.167055,1406.391290,-10140.821405,-995.924147
415.167377,1184.329507,-8438.347739,0.000000
415.167699,2590.720797,-8882.471304,-919.314598
415.168020,3627.009116,-9548.656652,-1225.752797
415.168342,3182.885551,-8956.491898,-383.047749
415.168663,2516.700203,-8068.244768,0.000000
415.168985,2886.803174,-8290.306550,0.000000
415.169307,3775.050304,-8660.409521,-766.095498
415.169628,3034.844362,-9400.615463,-995.924147
415.169950,2812.782580,-8808.450710,-612.876398
415.170271,3256.906145,-8586.388927,-1838.629195
415.170593,4219.173869,-9252.574275,-2451.505594
415.170914,4589.276840,-10510.924376,-1302.362347
415.171236,3849.070898,-10140.821405,-1378.971896
415.171558,3627.009116,-9770.718434,-1455.581446
415.171879,4145.153275,-10732.986159,-1532.190996
415.172201,4515.256246,-10658.965565,-1455.581446
415.172522,3849.070898,-9474.636058,-2221.676944
415.172844,2960.823768,-8438.347739,-1685.410096
415.173166,3330.926739,-8808.450710,-1072.533697
415.173487,3627.009116,-8512.368333,-1225.752797
415.173809,3997.112087,-8364.327145,-1762.019645
415.174130,4219.173869,-8734.430116,-1225.752797
415.174452,5181.441594,-9178.553681,-995.924147
415.174773,5477.523971,-8956.491898,-1072.533697
415.175095,5551.544565,-8956.491898,-1608.800546
415.175417,5181.441594,-8882.471304,-1378.971896
415.175738,3775.050304,-9770.718434,-2298.286494
415.176060,2590.720797,-10881.027347,-2911.162892
415.176381,1036.288319,-11917.315666,-2068.457845
415.176703,0.000000,-13027.624579,-1149.143247
415.177025,-444.123565,-12879.583391,-459.657299
415.177346,-518.144159,-12583.501014,0.000000
415.177668,0.000000,-12065.356855,536.266849
415.177989,222.061783,-10066.800811,1378.971896
415.178311,518.144159,-8586.388927,1608.800546
415.178633,74.020594,-7105.977043,2068.457845
415.178954,-666.185348,-5921.647536,842.705048
415.179276,-962.267725,-5329.482782,-766.095498
415.179597,-592.164754,-4737.318029,-1838.629195
415.179919,962.267725,-4737.318029,-2604.724693
415.180240,2812.782580,-5033.400406,-3753.867940
415.180562,4959.379811,-6513.812290,-4749.792088
415.180884,6291.750507,-8808.450710,-4673.182538
415.181205,6661.853478,-10881.027347,-4443.353888
415.181527,5921.647536,-13397.727550,-4443.353888
415.181848,5773.606348,-14804.118840,-3600.648841
415.182170,5699.585753,-15026.180623,-2987.772442
415.182492,4663.297435,-13915.871710,-1149.143247
415.182813,2738.761985,-11843.295072,995.924147
415.183135,1776.494261,-9992.780217,2451.505594
415.183456,1480.411884,-7994.224174,2528.115143
415.183778,1554.432478,-5995.668130,2451.505594
415.184099,592.164754,-4589.276840,3294.210641
415.184421,74.020594,-4145.153275,3294.210641
415.184743,0.000000,-4219.173869,1991.848295
415.185064,444.123565,-6069.688724,-306.438199
415.185386,1184.329507,-6513.812290,-842.705048
415.185707,1036.288319,-7624.121203,-3064.381992
415.186029,740.205942,-9992.780217,-5592.497135
415.186351,1776.494261,-13693.809927,-5592.497135
415.186672,2442.679609,-15766.386565,-5745.716235
415.186994,2220.617826,-17468.860231,-5669.106685
415.187315,1702.473667,-17320.819043,-4673.182538
415.187637,1776.494261,-14211.954086,-2757.943793
415.187958,2442.679609,-10510.924376,-3753.867940
415.188280,3478.967927,-9548.656652,-3753.867940
415.188602,4885.359217,-9844.739029,-612.876398
415.188923,5033.400406,-8290.306550,2068.457845
415.189245,5847.626942,-6291.750507,3064.381992
415.189566,7550.100608,-5255.462188,4213.525239
415.189888,8956.491898,-4071.132681,2987.772442
415.190210,7624.121203,-3701.029710,2145.067394
415.190531,5033.400406,-4071.132681,2834.553343
415.190853,3256.906145,-4737.318029,2068.457845
415.191174,2442.679609,-8364.327145,-2221.676944
415.191496,1554.432478,-11695.253884,-4596.572988
415.191818,148.041188,-11473.192101,-3447.429741
415.192139,-1110.308913,-12139.377449,-3907.087040
415.192461,-1480.411884,-16062.468941,-3907.087040
415.192782,-2294.638420,-16580.613101,-3600.648841
415.193104,-3330.926739,-12509.480420,-5209.449386
415.193425,-1998.556043,-9844.739029,-5592.497135
415.193747,370.102971,-10658.965565,-4213.525239
415.194069,1554.432478,-9548.656652,-3217.601092
415.194390,2738.761985,-7105.977043,-2145.067394
415.194712,5329.482782,-6957.935855,612.876398
415.195033,7254.018232,-8216.285956,2145.067394
415.195355,6957.935855,-8290.306550,1685.410096
415.195677,6439.791695,-7846.182985,1838.629195
415.195998,4959.379811,-7105.977043,1685.410096
415.196320,4737.318029,-7698.141797,1302.362347
415.196641,2960.823768,-8512.368333,842.705048
415.196963,74.020594,-7698.141797,919.314598
415.197284,-1702.473667,-7920.203579,459.657299
415.197606,-1702.473667,-9992.780217,-1149.143247
415.197928,-814.226536,-11769.274478,-2374.896044
415.198249,-222.061783,-11251.130318,-2451.505594
415.198571,962.267725,-10658.965565,-1532.190996
415.198892,2812.782580,-9770.718434,-842.705048
415.199214,5403.503377,-9474.636058,-2145.067394
415.199536,6217.729913,-8808.450710,-3983.696590
415.199857,5921.647536,-8438.347739,-3600.648841
415.200179,5107.421000,-8438.347739,-2068.457845
415.200500,4367.215058,-8586.388927,-1072.533697
415.200822,2886.803174,-8512.368333,-995.924147
415.201144,1480.411884,-7772.162391,-919.314598
415.201465,888.247130,-7624.121203,-2068.457845
415.201787,1406.391290,-8882.471304,-3524.039291
415.202108,740.205942,-10584.944971,-2374.896044
415.202430,-296.082377,-9696.697840,1608.800546
415.202751,-1036.288319,-7105.977043,2451.505594
415.203073,-148.041188,-7846.182985,-766.095498
415.203395,2294.638420,-10881.027347,-3677.258390
415.203716,3849.070898,-12731.542202,-3983.696590
415.204038,3108.864956,-13767.830521,-2451.505594
415.204359,4589.276840,-15100.201217,1378.971896
415.204681,5921.647536,-14434.015869,3217.601092
415.205003,6513.812290,-11547.212695,383.047749
415.205324,6809.894666,-7402.059420,-1225.752797
415.205646,7772.162391,-6809.894666,-2451.505594
415.205967,8290.306550,-8216.285956,-3907.087040
415.206289,9474.636058,-9252.574275,-2221.676944
415.206610,9474.636058,-8142.265362,2374.896044
415.206932,7476.080014,-6587.832884,3983.696590
415.207254,5625.565159,-6661.853478,2604.724693
415.207575,2738.761985,-5033.400406,-995.924147
415.207897,-666.185348,-3775.050304,-3753.867940
415.208218,-3849.070898,-5329.482782,-4519.963438
415.208540,-5107.421000,-10066.800811,-3753.867940
415.208862,-4145.153275,-12361.439231,-2757.943793
415.209183,-2664.741391,-12287.418637,-2757.943793
415.209505,-2294.638420,-13027.624579,-2681.334243
415.209826,-2072.576638,-13101.645173,-1532.190996
415.210148,-2368.659014,-11843.295072,-2911.162892
415.210469,-2146.597232,-11547.212695,-4903.011187
415.210791,444.123565,-11991.336260,-3907.087040
415.211113,2368.659014,-12509.480420,-2911.162892
415.211434,4145.153275,-12361.439231,-1915.238745
415.211756,6587.832884,-11621.233289,689.485948
415.212077,8734.430116,-9474.636058,3064.381992
415.212399,9696.697840,-6809.894666,4290.134789
415.212721,10140.821405,-4737.318029,2374.896044
415.213042,10362.883188,-6365.771101,-766.095498
415.213364,9252.574275,-7476.080014,-306.438199
415.213686,5773.606348,-5329.482782,2298.286494
415.214008,1332.370696,-5773.606348,1685.410096
415.214330,-444.123565,-7772.162391,0.000000
415.214652,-2442.679609,-7994.224174,-1685.410096
415.214974,-5477.523971,-7624.121203,-4136.915689
415.215295,-7846.182985,-9696.697840,-4903.011187
415.215617,-8512.368333,-12657.521608,-3524.039291
415.215939,-9252.574275,-14063.912898,-4136.915689
415.216261,-10214.842000,-13101.645173,-4443.353888
415.216583,-9992.780217,-11769.274478,-3217.601092
415.216905,-8586.388927,-11473.192101,-4443.353888
415.217227,-5477.523971,-12139.377449,-4749.792088
415.217548,-2146.597232,-10436.903782,-2451.505594
415.217870,814.226536,-8142.265362,-842.705048
415.218192,4737.318029,-7105.977043,1149.143247
415.218514,7994.224174,-5995.668130,1838.629195
415.218836,9178.553681,-4293.194464,1149.143247
415.219158,8438.347739,-3997.112087,1532.190996
415.219479,7624.121203,-5551.544565,2221.676944
415.219801,6069.688724,-6883.915261,306.438199
415.220123,6365.771101,-8290.306550,-1838.629195
415.220445,5625.565159,-9474.636058,-1991.848295
415.220767,4071.132681,-10732.986159,-1302.362347
415.221089,1924.535449,-11621.233289,-1991.848295
415.221411,-814.226536,-12583.501014,-2604.724693
415.221732,-3478.967927,-14063.912898,-2451.505594
415.222054,-6365.771101,-13397.727550,-2911.162892
415.222376,-7402.059420,-12509.480420,-3830.477490
415.222698,-6735.874072,-12213.398043,-3983.696590
415.223020,-4441.235652,-12287.418637,-3370.820191
415.223342,-2738.761985,-10066.800811,-995.924147
415.223664,-1258.350101,-8290.306550,229.828649
415.223985,814.226536,-7105.977043,306.438199
415.224307,2220.617826,-6513.812290,-306.438199
415.224629,1850.514855,-6143.709319,-689.485948
415.224951,518.144159,-4811.338623,-1072.533697
415.225273,0.000000,-5403.503377,-1072.533697
415.225595,370.102971,-6439.791695,-2298.286494
415.225917,666.185348,-7031.956449,-3447.429741
415.226238,-222.061783,-8068.244768,-4136.915689
415.226560,-222.061783,-11103.089130,-3294.210641
415.226882,0.000000,-14730.098246,-2221.676944
415.227204,-444.123565,-14952.160028,-1915.238745
415.227526,-518.144159,-13471.748144,-2145.067394
415.227848,518.144159,-13915.871710,-1532.190996
415.228169,1628.453072,-13471.748144,-1072.533697
415.228491,2590.720797,-11473.192101,-1072.533697
415.228813,3701.029710,-9474.636058,1149.143247
415.229135,5329.482782,-8290.306550,2681.334243
415.229457,5403.503377,-6883.915261,3140.991542
415.229779,3404.947333,-5107.421000,2681.334243
415.230101,2294.638420,-3108.864956,1302.362347
415.230422,2072.576638,-3478.967927,-1302.362347
415.230744,666.185348,-5477.523971,-1991.848295
415.231066,-2738.761985,-6069.688724,-306.438199
415.231388,-6513.812290,-7031.956449,-1072.533697
415.231710,-7550.100608,-10436.903782,-3447.429741
415.232032,-8438.347739,-12361.439231,-5056.230287
415.232354,-10436.903782,-11029.068536,-5669.106685
415.232675,-11251.130318,-11917.315666,-5898.935335
415.232997,-9400.615463,-14285.974681,-4673.182538
415.233319,-5921.647536,-13619.789333,-3983.696590
415.233641,-2220.617826,-12065.356855,-3294.210641
415.233963,1036.288319,-11325.150913,-1225.752797
415.234285,3108.864956,-9474.636058,612.876398
415.234607,4515.256246,-7402.059420,459.657299
415.234928,5921.647536,-5403.503377,153.219100
415.235250,7179.997637,-5033.400406,0.000000
415.235572,7920.203579,-5551.544565,0.000000
415.235894,7476.080014,-6809.894666,1149.143247
415.236216,6069.688724,-7031.956449,2451.505594
415.236538,4071.132681,-8068.244768,612.876398
415.236860,2072.576638,-9178.553681,-689.485948
415.237181,-296.082377,-9548.656652,-2451.505594
415.237503,-3701.029710,-10140.821405,-3370.820191
415.237825,-6291.750507,-11843.295072,-3753.867940
415.238147,-7254.018232,-14285.974681,-3907.087040
415.238469,-6217.729913,-15248.242405,-3677.258390
415.238791,-3997.112087,-12805.562797,-3294.210641
415.239112,-1110.308913,-11251.130318,-4060.306139
415.239434,1184.329507,-10584.944971,-2834.553343
415.239756,1702.473667,-10140.821405,-306.438199
415.240078,0.000000,-9400.615463,536.266849
415.240400,-1702.473667,-8068.244768,153.219100
415.240722,-2146.597232,-7772.162391,-689.485948
415.241044,-518.144159,-7179.997637,-2221.676944
415.241365,444.123565,-5477.523971,-2681.334243
415.241687,1036.288319,-5033.400406,-306.438199
415.242009,370.102971,-6143.709319,2911.162892
415.242331,-444.123565,-7624.121203,2451.505594
415.242653,-2738.761985,-7550.100608,-612.876398
415.242975,-4071.132681,-8956.491898,-4136.915689
415.243297,-4885.359217,-11991.336260,-4136.915689
415.243618,-4515.256246,-14211.954086,-2374.896044
415.243940,-2072.576638,-13249.686362,-1762.019645
415.244262,2072.576638,-12065.356855,-612.876398
415.244584,5847.626942,-11917.315666,0.000000
415.244906,7846.182985,-11251.130318,306.438199
415.245228,7550.100608,-8808.450710,-306.438199
415.245550,7179.997637,-6439.791695,-229.828649
415.245871,5995.668130,-5847.626942,0.000000
415.246193,4219.173869,-5181.441594,76.609550
415.246515,1924.535449,-5403.503377,-306.438199
415.246837,0.000000,-6069.688724,0.000000
415.247159,-1332.370696,-7772.162391,76.609550
415.247481,-2738.761985,-9030.512492,-383.047749
415.247802,-5329.482782,-8586.388927,-1608.800546
415.248124,-7698.141797,-7772.162391,-2451.505594
415.248446,-8808.450710,-9622.677246,-3907.087040
415.248768,-8882.471304,-12509.480420,-4749.792088
415.249090,-7550.100608,-13545.768739,-4366.744339
415.249412,-5477.523971,-12953.603985,-4366.744339
415.249734,-1776.494261,-12435.459826,-2911.162892
415.250055,2368.659014,-12065.356855,-2068.457845
415.250377,5255.462188,-11843.295072,-1762.019645
415.250699,6735.874072,-9696.697840,-1991.848295
415.251021,7328.038826,-7698.141797,-2757.943793
415.251343,6957.935855,-8216.285956,-919.314598
415.251665,5995.668130,-8882.471304,306.438199
415.251987,4441.235652,-7550.100608,536.266849
415.252308,2590.720797,-7402.059420,-919.314598
415.252630,518.144159,-9400.615463,-459.657299
415.252952,-2812.782580,-9474.636058,459.657299
415.253274,-5033.400406,-8956.491898,-689.485948
415.253596,-6217.729913,-9252.574275,-2681.334243
415.253918,-5625.565159,-10584.944971,-3140.991542
415.254240,-5625.565159,-12509.480420,-1915.238745
415.254561,-5403.503377,-12953.603985,-1762.019645
415.254883,-4071.132681,-11843.295072,-1225.752797
415.255205,-1184.329507,-10362.883188,-1991.848295
415.255527,1628.453072,-10066.800811,-2374.896044
415.255849,2368.659014,-9696.697840,-2298.286494
415.256171,1406.391290,-8068.244768,-1378.971896
415.256493,74.020594,-7105.977043,-383.047749
415.256814,592.164754,-7179.997637,-612.876398
415.257136,1332.370696,-6365.771101,-2681.334243
415.257458,888.247130,-5773.606348,-2528.115143
415.257780,-888.247130,-7254.018232,459.657299
415.258102,-3034.844362,-7328.038826,2068.457845
415.258424,-5033.400406,-6291.750507,612.876398
415.258745,-6883.915261,-5699.585753,-1225.752797
415.259067,-7328.038826,-7920.203579,-2451.505594
415.259389,-7179.997637,-10140.821405,-2911.162892
415.259711,-4589.276840,-11769.274478,-2757.943793
415.260033,-1850.514855,-13027.624579,-229.828649
415.260355,1850.514855,-13249.686362,995.924147
415.260677,5033.400406,-11621.233289,0.000000
415.260998,7105.977043,-9844.739029,-1455.581446
415.261320,7994.224174,-9326.594869,-2298.286494
415.261642,7550.100608,-7846.182985,-2604.724693
415.261964,6957.935855,-7254.018232,-2374.896044
415.262286,6587.832884,-7994.224174,-1838.629195
415.262608,4293.194464,-8290.306550,-1608.800546
415.262930,370.102971,-8142.265362,-919.314598
415.263251,-2516.700203,-8586.388927,-1532.190996
415.263573,-4145.153275,-8882.471304,-3064.381992
415.263895,-5181.441594,-10362.883188,-4060.306139
415.264217,-6809.894666,-12065.356855,-3140.991542
415.264539,-7920.203579,-12065.356855,-766.095498
415.264861,-7476.080014,-11177.109724,-995.924147
415.265183,-4959.379811,-11843.295072,-2834.553343
415.265504,-1628.453072,-11769.274478,-3217.601092
415.265826,814.226536,-10140.821405,-2221.676944
415.266148,2886.803174,-9844.739029,-689.485948
415.266470,5181.441594,-10807.006753,-766.095498
415.266792,6365.771101,-10436.903782,-459.657299
415.267114,5847.626942,-9844.739029,-306.438199
415.267435,5329.482782,-8290.306550,0.000000
415.267757,4885.359217,-6809.894666,-1378.971896
415.268079,3775.050304,-5921.647536,-1991.848295
415.268401,1036.288319,-7772.162391,-766.095498
415.268723,-2368.659014,-8512.368333,1225.752797
415.269045,-4811.338623,-8068.244768,0.000000
415.269367,-6217.729913,-8364.327145,-2374.896044
415.269688,-6661.853478,-9770.718434,-2757.943793
415.270010,-6069.688724,-9622.677246,-1685.410096
415.270332,-4959.379811,-10066.800811,-1302.362347
415.270654,-2664.741391,-10288.862594,-919.314598
415.270976,0.000000,-9474.636058,0.000000
415.271298,1480.411884,-8808.450710,0.000000
415.271620,2368.659014,-9474.636058,-1915.238745
415.271941,2590.720797,-9992.780217,-1991.848295
415.272263,2368.659014,-10066.800811,-1685.410096
415.272585,2368.659014,-9844.739029,306.438199
415.272907,2516.700203,-8068.244768,1072.533697
415.273229,2368.659014,-5847.626942,-536.266849
415.273551,666.185348,-5181.441594,-1378.971896
415.273873,-1406.391290,-7254.018232,0.000000
415.274194,-3775.050304,-7846.182985,-383.047749
415.274516,-5625.565159,-8290.306550,-1455.581446
415.274838,-6957.935855,-9844.739029,-919.314598
415.275160,-7031.956449,-10658.965565,-1149.143247
415.275482,-6217.729913,-10955.047942,-1991.848295
415.275804,-4145.153275,-11251.130318,-3447.429741
415.276126,-2220.617826,-11843.295072,-3140.991542
415.276447,0.000000,-11547.212695,-2145.067394
415.276769,2442.679609,-11251.130318,-1455.581446
415.277091,3849.070898,-10881.027347,-2298.286494
415.277413,4441.235652,-11029.068536,-2451.505594
415.277735,4367.215058,-9992.780217,-2604.724693
415.278057,4441.235652,-9474.636058,-2528.115143
415.278378,3701.029710,-8956.491898,-2221.676944
415.278700,2590.720797,-8290.306550,-1302.362347
415.279022,0.000000,-8438.347739,-689.485948
415.279344,-2442.679609,-9474.636058,76.609550
415.279666,-4515.256246,-9844.739029,-536.266849
415.279988,-5921.647536,-8956.491898,-1532.190996
415.280310,-5403.503377,-9178.553681,-1302.362347
415.280631,-4737.318029,-8808.450710,-1378.971896
415.280953,-3404.947333,-8734.430116,-1378.971896
415.281275,-2294.638420,-8364.327145,-1532.190996
415.281597,-296.082377,-9474.636058,-1302.362347
415.281919,1850.514855,-11029.068536,-1378.971896
415.282241,2960.823768,-11177.109724,-1915.238745
415.282563,3404.947333,-10658.965565,-2298.286494
415.282884,3404.947333,-9918.759623,-1608.800546
415.283206,4441.235652,-9326.594869,-1225.752797
415.283528,5033.400406,-8364.327145,-1915.238745
415.283850,4811.338623,-7031.956449,-2221.676944
415.284172,2516.700203,-6587.832884,-1302.362347
415.284494,-370.102971,-7402.059420,1225.752797
415.284816,-2886.803174,-8660.409521,995.924147
415.285137,-4811.338623,-9030.512492,-842.705048
415.285459,-5403.503377,-8586.388927,-1149.143247
415.285781,-5329.482782,-7698.141797,-919.314598
415.286103,-3701.029710,-7328.038826,-1608.800546
415.286425,-1332.370696,-7402.059420,-2145.067394
415.286747,592.164754,-9178.553681,-1378.971896
415.287068,2072.576638,-10807.006753,-153.219100
415.287390,3478.967927,-11547.212695,-995.924147
415.287712,3627.009116,-11621.233289,-2528.115143
415.288034,3849.070898,-11547.212695,-3217.601092
415.288356,3923.091493,-10955.047942,-2604.724693
415.288678,3849.070898,-10140.821405,-2451.505594
415.289000,3256.906145,-8956.491898,-3217.601092
415.289321,1628.453072,-8660.409521,-2451.505594
415.289643,-888.247130,-8660.409521,-1915.238745
415.289965,-2886.803174,-9844.739029,-2451.505594
415.290287,-4441.235652,-11177.109724,-2834.553343
415.290609,-5921.647536,-11621.233289,-1378.971896
415.290931,-5995.668130,-10436.903782,229.828649
415.291253,-4515.256246,-9400.615463,-153.219100
415.291574,-2442.679609,-9104.533087,-1685.410096
415.291896,-1332.370696,-9178.553681,-2068.457845
415.292218,-296.082377,-9992.780217,-842.705048
415.292540,666.185348,-10140.821405,-1072.533697
415.292862,2220.617826,-10955.047942,-1762.019645
415.293184,2072.576638,-11473.192101,-1838.629195
415.293506,2294.638420,-10584.944971,-1762.019645
415.293827,2664.741391,-9104.533087,-2145.067394
415.294149,2516.700203,-8660.409521,-2451.505594
415.294471,888.247130,-7846.182985,-1762.019645
415.294793,-1258.350101,-7920.203579,-612.876398
415.295115,-3552.988522,-7920.203579,-766.095498
415.295437,-5181.441594,-9252.574275,-1838.629195
415.295759,-6661.853478,-9474.636058,-1838.629195
415.296080,-7105.977043,-8068.244768,-306.438199
415.296402,-6513.812290,-7328.038826,-459.657299
415.296724,-4293.194464,-6661.853478,-1225.752797
415.297046,-2220.617826,-7624.121203,-1225.752797
415.297368,-814.226536,-8882.471304,0.000000
415.297690,74.020594,-8956.491898,842.705048
415.298011,1036.288319,-8956.491898,-919.314598
415.298333,2220.617826,-9400.615463,-2604.724693
415.298655,3552.988522,-10732.986159,-2757.943793
415.298977,4515.256246,-10214.842000,-1685.410096
415.299299,4663.297435,-8660.409521,-1378.971896
415.299621,4145.153275,-7550.100608,-842.705048
415.299943,2738.761985,-7920.203579,-919.314598
415.300264,0.000000,-8660.409521,-1762.019645
415.300586,-2886.803174,-9770.718434,-2451.505594
415.300908,-5033.400406,-9918.759623,-2068.457845
415.301230,-5329.482782,-9696.697840,-1608.800546
415.301552,-4145.153275,-9474.636058,-2068.457845
415.301874,-2812.782580,-9696.697840,-1991.848295
415.302196,-1628.453072,-9252.574275,-995.924147
415.302517,-148.041188,-8956.491898,-612.876398
415.302839,1554.432478,-9844.739029,-1378.971896
415.303161,2146.597232,-10436.903782,-3064.381992
415.303483,2368.659014,-10807.006753,-3064.381992
415.303805,2516.700203,-11325.150913,-2681.334243
415.304127,4145.153275,-11103.089130,-3217.601092
415.304449,5773.606348,-11103.089130,-3907.087040
415.304770,5403.503377,-10288.862594,-3524.039291
415.305092,3849.070898,-9622.677246,-2221.676944
415.305414,1850.514855,-9474.636058,-1072.533697
415.305736,0.000000,-10658.965565,-1455.581446
415.306058,-2664.741391,-11103.089130,-2145.067394
415.306380,-5477.523971,-10214.842000,-1685.410096
415.306701,-6069.688724,-9326.594869,-995.924147
415.307023,-4219.173869,-9104.533087,-842.705048
415.307345,-2368.659014,-8808.450710,-919.314598
415.307667,-1480.411884,-7698.141797,0.000000
415.307989,148.041188,-7254.018232,1149.143247
415.308311,1776.494261,-8068.244768,766.095498
415.308633,2664.741391,-9474.636058,-1225.752797
415.308954,1036.288319,-8586.388927,-1225.752797
415.309276,-222.061783,-6957.935855,-1608.800546
415.309598,0.000000,-7402.059420,-3064.381992
415.309920,370.102971,-8956.491898,-4136.915689
415.310242,-740.205942,-9770.718434,-2681.334243
415.310564,-2220.617826,-9770.718434,-1149.143247
415.310885,-2220.617826,-10510.924376,-612.876398
415.311207,-2812.782580,-11843.295072,-1455.581446
415.311529,-4367.215058,-11103.089130,-919.314598
415.311851,-4811.338623,-8882.471304,0.000000
415.312173,-3330.926739,-7624.121203,-919.314598
415.312495,-888.247130,-7328.038826,-2145.067394
415.312816,740.205942,-7179.997637,-459.657299
415.313138,1554.432478,-7031.956449,1378.971896
415.313460,2886.803174,-7994.224174,1455.581446
415.313782,4293.194464,-9918.759623,-153.219100
415.314104,4219.173869,-10362.883188,-1685.410096
415.314426,3256.906145,-10066.800811,-1455.581446
415.314747,2664.741391,-8882.471304,-1532.190996
415.315069,2812.782580,-8660.409521,-2528.115143
415.315391,2146.597232,-9474.636058,-4519.963438
415.315713,-592.164754,-9696.697840,-3447.429741
415.316035,-3034.844362,-10807.006753,-2451.505594
415.316356,-4219.173869,-11769.274478,-2911.162892
415.316678,-4959.379811,-12583.501014,-3447.429741
415.317000,-6069.688724,-11991.336260,-2374.896044
415.317322,-5921.647536,-11177.109724,-1838.629195
415.317644,-4811.338623,-9992.780217,-1302.362347
415.317966,-2960.823768,-9252.574275,-1149.143247
415.318287,-1850.514855,-7772.162391,-1225.752797
415.318609,0.000000,-7476.080014,-766.095498
415.318931,1554.432478,-8364.327145,-306.438199
415.319253,2368.659014,-9178.553681,-919.314598
415.319575,2294.638420,-9030.512492,-1149.143247
415.319897,3256.906145,-8882.471304,-995.924147
415.320218,4219.173869,-9252.574275,-2451.505594
415.320540,3552.988522,-9622.677246,-2834.553343
415.320862,1776.494261,-10066.800811,-2987.772442
415.321184,74.020594,-10584.944971,-1455.581446
415.321506,-1480.411884,-10584.944971,-2221.676944
415.321828,-2516.700203,-10881.027347,-2528.115143
415.322149,-3923.091493,-10510.924376,-1378.971896
415.322471,-4145.153275,-10214.842000,-1225.752797
415.322793,-2664.741391,-8660.409521,-383.047749
415.323115,-1184.329507,-7994.224174,-229.828649
415.323437,0.000000,-7402.059420,0.000000
415.323759,740.205942,-7031.956449,689.485948
415.324080,1406.391290,-6735.874072,153.219100
415.324402,2220.617826,-7105.977043,-689.485948
415.324724,2146.597232,-7254.018232,-1762.019645
415.325046,2072.576638,-7031.956449,-2221.676944
415.325368,2220.617826,-7698.141797,-1915.238745
415.325689,1036.288319,-8142.265362,-1991.848295
415.326011,444.123565,-9474.636058,-2528.115143
415.326333,-1406.391290,-9918.759623,-2604.724693
415.326655,-2664.741391,-11251.130318,-2911.162892
415.326977,-4071.132681,-12139.377449,-2911.162892
415.327299,-5255.462188,-12139.377449,-2834.553343
415.327620,-5403.503377,-11695.253884,-2451.505594
415.327942,-3701.029710,-10955.047942,-1762.019645
415.328264,-962.267725,-9622.677246,-1991.848295
415.328586,666.185348,-8438.347739,-1378.971896
415.328908,2146.597232,-7994.224174,0.000000
415.329230,3701.029710,-8290.306550,0.000000
415.329551,3775.050304,-8956.491898,-153.219100
415.329873,2812.782580,-9030.512492,-229.828649
415.330195,2220.617826,-9326.594869,-842.705048
415.330517,3034.844362,-9326.594869,-2145.067394
415.330839,3330.926739,-9400.615463,-3294.210641
415.331161,2738.761985,-10066.800811,-3064.381992
415.331482,444.123565,-10362.883188,-1455.581446
415.331804,-1776.494261,-10436.903782,-1762.019645
415.332126,-3330.926739,-11695.253884,-3064.381992
415.332448,-4959.379811,-12583.501014,-3447.429741
415.332770,-6735.874072,-11325.150913,-2911.162892
415.333091,-6661.853478,-10066.800811,-2681.334243
415.333413,-4885.359217,-9696.697840,-1762.019645
415.333735,-3182.885551,-9400.615463,-229.828649
415.334057,-1924.535449,-8068.244768,766.095498
415.334379,518.144159,-7254.018232,766.095498
415.334701,1702.473667,-6883.915261,-766.095498
415.335022,2812.782580,-7254.018232,-612.876398
415.335344,2220.617826,-7402.059420,0.000000
415.335666,2294.638420,-7105.977043,0.000000
415.335988,3627.009116,-7698.141797,-1685.410096
415.336310,3182.885551,-8808.450710,-2221.676944
415.336632,1110.308913,-9030.512492,-1225.752797
415.336953,-1332.370696,-8882.471304,-612.876398
415.337275,-2590.720797,-10066.800811,-1532.190996
415.337597,-3478.967927,-12065.356855,-2451.505594
415.337919,-4885.359217,-11917.315666,-1915.238745
415.338241,-5477.523971,-9992.780217,-689.485948
415.338563,-3627.009116,-9252.574275,-689.485948
415.338884,-962.267725,-9178.553681,-1225.752797
415.339206,666.185348,-8734.430116,-383.047749
415.339528,1554.432478,-7476.080014,919.314598
415.339850,2368.659014,-7772.162391,766.095498
415.340172,3701.029710,-8142.265362,-1378.971896
415.340493,3034.844362,-8512.368333,-2298.286494
415.340815,2220.617826,-8512.368333,-1072.533697
415.341137,2072.576638,-8142.265362,-1608.800546
415.341459,2812.782580,-8808.450710,-3217.601092
415.341781,1480.411884,-9474.636058,-3753.867940
415.342103,-814.226536,-9918.759623,-2221.676944
415.342424,-3330.926739,-10066.800811,-2298.286494
415.342746,-5329.482782,-11843.295072,-3217.601092
415.343068,-6883.915261,-12583.501014,-3217.601092
415.343390,-7698.141797,-12435.459826,-3753.867940
415.343712,-6143.709319,-11621.233289,-3140.991542
415.344034,-2146.597232,-10658.965565,-2604.724693
415.344355,1406.391290,-10214.842000,-1378.971896
415.344677,3034.844362,-8808.450710,459.657299
415.344999,4589.276840,-7328.038826,1072.533697
415.345321,5329.482782,-8216.285956,0.000000
415.345643,4885.359217,-9326.594869,-1149.143247
415.345965,3330.926739,-8660.409521,-1532.190996
415.346286,2812.782580,-7550.100608,-1378.971896
415.346608,3849.070898,-7772.162391,-2145.067394
415.346930,3478.967927,-8438.347739,-2221.676944
415.347252,370.102971,-8660.409521,-1915.238745
415.347574,-1998.556043,-9548.656652,-1838.629195
415.347896,-3997.112087,-11621.233289,-2451.505594
415.348217,-6365.771101,-11917.315666,-3217.601092
415.348539,-8734.430116,-11103.089130,-3294.210641
415.348861,-8660.409521,-9252.574275,-2528.115143
415.349183,-5773.606348,-9548.656652,-3447.429741
415.349505,-2442.679609,-9844.739029,-3064.381992
415.349826,-296.082377,-9474.636058,-612.876398
415.350148,1184.329507,-8660.409521,1685.410096
415.350470,2960.823768,-8512.368333,1532.190996
415.350792,3923.091493,-8142.265362,229.828649
415.351114,3775.050304,-7772.162391,-842.705048
415.351436,3775.050304,-6587.832884,-919.314598
415.351757,3256.906145,-5551.544565,-1225.752797
415.352079,3256.906145,-7031.956449,-1378.971896
415.352401,1406.391290,-7698.141797,-689.485948
415.352723,-518.144159,-9252.574275,-229.828649
415.353045,-1924.535449,-10881.027347,-1685.410096
415.353367,-3108.864956,-12879.583391,-2374.896044
415.353688,-4737.318029,-12435.459826,-2145.067394
415.354010,-5995.668130,-10732.986159,-1302.362347
415.354332,-4515.256246,-10066.800811,-1532.190996
415.354654,-2368.659014,-9770.718434,-2834.553343
415.354976,-888.247130,-9622.677246,-2681.334243
415.355298,296.082377,-8882.471304,0.000000
415.355619,1702.473667,-8956.491898,153.219100
415.355941,2886.803174,-9474.636058,-842.705048
415.356263,3034.844362,-10288.862594,-919.314598
415.356585,1998.556043,-9474.636058,0.000000
415.356907,2072.576638,-7476.080014,-536.266849
415.357228,2146.597232,-6291.750507,-2221.676944
415.357550,1184.329507,-7772.162391,-3064.381992
415.357872,-1332.370696,-8808.450710,-1149.143247
415.358194,-4737.318029,-9178.553681,-306.438199
415.358516,-5625.565159,-11103.089130,-1532.190996
415.358838,-6069.688724,-13471.748144,-2987.772442
415.359159,-5847.626942,-12953.603985,-3677.258390
415.359481,-4589.276840,-11103.089130,-2451.505594
415.359803,-2442.679609,-9622.677246,-612.876398
415.360125,0.000000,-9326.594869,229.828649
415.360447,2368.659014,-8660.409521,-306.438199
415.360769,3552.988522,-8438.347739,-995.924147
415.361090,4663.297435,-9104.533087,-1455.581446
415.361412,4737.318029,-9696.697840,-229.828649
415.361734,3849.070898,-9326.594869,766.095498
415.362056,3404.947333,-7105.977043,766.095498
415.362378,3775.050304,-6217.729913,-766.095498
415.362700,3108.864956,-6365.771101,-2987.772442
415.363021,592.164754,-6439.791695,-2681.334243
415.363343,-2664.741391,-7476.080014,-995.924147
415.363665,-5033.400406,-9622.677246,-1149.143247
415.363987,-6957.935855,-10584.944971,-1991.848295
415.364309,-8438.347739,-11621.233289,-3294.210641
415.364630,-8808.450710,-11843.295072,-2834.553343
415.364952,-6587.832884,-10955.047942,-2451.505594
415.365274,-3182.885551,-9696.697840,-2451.505594
415.365596,-296.082377,-8956.491898,-2068.457845
415.365918,2516.700203,-8956.491898,0.000000
415.366240,4367.215058,-8660.409521,229.828649
415.366561,5033.400406,-8438.347739,-995.924147
415.366883,5255.462188,-7994.224174,-1378.971896
415.367205,5181.441594,-7550.100608,-1685.410096
415.367527,5107.421000,-7846.182985,-2451.505594
415.367849,4293.194464,-8660.409521,-1149.143247
415.368171,2516.700203,-8290.306550,-383.047749
415.368492,444.123565,-8734.430116,-1762.019645
415.368814,-1554.432478,-10288.862594,-2374.896044
415.369136,-3627.009116,-11991.336260,-2604.724693
415.369458,-5847.626942,-12065.356855,-2604.724693
415.369780,-6957.935855,-11177.109724,-3064.381992
415.370102,-5551.544565,-11029.068536,-2911.162892
415.370423,-3034.844362,-10807.006753,-2604.724693
415.370745,-1036.288319,-9696.697840,-1991.848295
415.371067,666.185348,-9252.574275,-1378.971896
415.371389,2294.638420,-10436.903782,-153.219100
415.371711,2886.803174,-10955.047942,-383.047749
415.372033,2516.700203,-10066.800811,-842.705048
415.372354,2220.617826,-8438.347739,-919.314598
415.372676,2220.617826,-7550.100608,-306.438199
415.372998,2368.659014,-7105.977043,-2451.505594
415.373320,1406.391290,-6661.853478,-2298.286494
415.373642,-444.123565,-7402.059420,-919.314598
415.373963,-2368.659014,-9400.615463,-842.705048
415.374285,-3997.112087,-11103.089130,-1532.190996
415.374607,-5921.647536,-11029.068536,-1532.190996
415.374929,-7328.038826,-10732.986159,-1455.581446
415.375251,-6661.853478,-9844.739029,-2681.334243
415.375573,-4219.173869,-10066.800811,-2451.505594
415.375894,-1998.556043,-9178.553681,-1149.143247
415.376216,-1258.350101,-8364.327145,536.266849
415.376538,1110.308913,-8290.306550,919.314598
415.376860,3775.050304,-9622.677246,-612.876398
415.377182,5107.421000,-9992.780217,-995.924147
415.377504,4367.215058,-8808.450710,306.438199
415.377825,4145.153275,-6735.874072,1149.143247
415.378147,4885.359217,-6883.915261,-536.266849
415.378469,4441.235652,-6661.853478,-1915.238745
415.378791,2072.576638,-7105.977043,-1608.800546
415.379113,-296.082377,-7698.141797,-612.876398
415.379435,-1924.535449,-9326.594869,-1838.629195
415.379756,-3849.070898,-10732.986159,-1608.800546
415.380078,-6365.771101,-11177.109724,-1149.143247
415.380400,-7031.956449,-11177.109724,-766.095498
415.380722,-5847.626942,-10807.006753,-2681.334243
415.381044,-3552.988522,-10066.800811,-4290.134789
415.381365,-2368.659014,-9918.759623,-2987.772442
415.381687,-740.205942,-9770.718434,-383.047749
415.382009,962.267725,-10732.986159,-766.095498
415.382331,2220.617826,-11177.109724,-2221.676944
415.382653,2368.659014,-10807.006753,-1991.848295
415.382975,2960.823768,-9474.636058,-1225.752797
415.383296,3552.988522,-8808.450710,-2145.067394
415.383618,3997.112087,-8512.368333,-2145.067394
415.383940,3034.844362,-8438.347739,-919.314598
415.384262,592.164754,-8660.409521,-383.047749
415.384584,-1628.453072,-8956.491898,-689.485948
415.384906,-3256.906145,-10362.883188,-2451.505594
415.385227,-4811.338623,-11473.192101,-2757.943793
415.385549,-5033.400406,-11621.233289,-2145.067394
415.385871,-4219.173869,-10807.006753,-1225.752797
415.386193,-2590.720797,-10066.800811,-1149.143247
415.386515,-592.164754,-9030.512492,-995.924147
415.386837,444.123565,-8660.409521,-919.314598
415.387158,1628.453072,-9178.553681,-1302.362347
415.387480,2146.597232,-9696.697840,-1762.019645
415.387802,2368.659014,-9548.656652,-1149.143247
415.388124,2664.741391,-9030.512492,-459.657299
415.388446,3849.070898,-8438.347739,-153.219100
415.388767,3849.070898,-7550.100608,-1455.581446
415.389089,2368.659014,-6291.750507,-1302.362347
415.389411,-148.041188,-6365.771101,-612.876398
415.389733,-1998.556043,-7476.080014,-1149.143247
415.390055,-3849.070898,-9400.615463,-2528.115143
415.390377,-6365.771101,-9992.780217,-1455.581446
415.390698,-7698.141797,-10066.800811,-689.485948
415.391020,-6587.832884,-10066.800811,-1532.190996
415.391342,-3627.009116,-10584.944971,-3064.381992
415.391664,-962.267725,-10362.883188,-1915.238745
415.391986,0.000000,-8882.471304,536.266849
415.392308,1776.494261,-8364.327145,536.266849
415.392629,3775.050304,-8808.450710,-1149.143247
415.392951,4737.318029,-9252.574275,-2528.115143
415.393273,4145.153275,-8956.491898,-2221.676944
415.393595,5181.441594,-8660.409521,-1608.800546
415.393917,6365.771101,-8882.471304,-1608.800546
415.394239,5773.606348,-9696.697840,-1302.362347
415.394560,3034.844362,-9474.636058,459.657299
415.394882,-148.041188,-8882.471304,536.266849
415.395204,-3108.864956,-9474.636058,-1991.848295
415.395526,-5699.585753,-11103.089130,-3524.039291
415.395848,-8364.327145,-11251.130318,-3600.648841
415.396170,-7994.224174,-9918.759623,-3064.381992
415.396491,-5847.626942,-10436.903782,-2834.553343
415.396813,-3330.926739,-10732.986159,-1149.143247
415.397135,-1850.514855,-10436.903782,0.000000
415.397457,-1258.350101,-9400.615463,-306.438199
415.397779,-296.082377,-9474.636058,-1072.533697
415.398100,814.226536,-10658.965565,-2604.724693
415.398422,962.267725,-10510.924376,-2604.724693
415.398744,1406.391290,-8438.347739,-919.314598
415.399066,2886.803174,-7402.059420,-766.095498
415.399388,4737.318029,-7994.224174,-2068.457845
415.399710,4589.276840,-8734.430116,-1378.971896
415.400031,2146.597232,-8808.450710,0.000000
415.400353,-518.144159,-9622.677246,306.438199
415.400675,-2812.782580,-10732.986159,-1072.533697
415.400997,-4737.318029,-10436.903782,-1991.848295
415.401319,-5625.565159,-9474.636058,-1532.190996
415.401641,-5107.421000,-8512.368333,-1225.752797
415.401962,-3256.906145,-7698.141797,-1302.362347
415.402284,-1184.329507,-8290.306550,-306.438199
415.402606,148.041188,-9252.574275,229.828649
415.402928,1480.411884,-9474.636058,0.000000
415.403250,2220.617826,-9548.656652,-612.876398
415.403572,2294.638420,-9474.636058,-1149.143247
415.403893,2516.700203,-8068.244768,-1455.581446
415.404215,3256.906145,-7105.977043,-2374.896044
415.404537,3404.947333,-7179.997637,-2757.943793
415.404859,3552.988522,-7994.224174,-2068.457845
415.405181,2590.720797,-8142.265362,-1532.190996
415.405502,1332.370696,-9030.512492,-1608.800546
415.405824,0.000000,-10807.006753,-1225.752797
415.406146,-2886.803174,-11843.295072,-1685.410096
415.406468,-4811.338623,-11103.089130,-2068.457845
415.406790,-4441.235652,-9918.759623,-2451.505594
415.407112,-2664.741391,-9622.677246,-2911.162892
415.407433,-1628.453072,-9030.512492,-2145.067394
415.407755,-666.185348,-8438.347739,-1225.752797
415.408077,1110.308913,-9474.636058,-919.314598
415.408399,3034.844362,-10362.883188,-1455.581446
415.408721,3627.009116,-10807.006753,-1685.410096
415.409043,3034.844362,-9474.636058,-1608.800546
415.409364,2812.782580,-9030.512492,-1532.190996
415.409686,3330.926739,-9104.533087,-2451.505594
415.410008,3034.844362,-9844.739029,-2987.772442
415.410330,1554.432478,-10214.842000,-2528.115143
415.410652,-222.061783,-10362.883188,-1685.410096
415.410974,-1332.370696,-10955.047942,-2298.286494
415.411296,-2886.803174,-12213.398043,-2528.115143
415.411618,-4589.276840,-11991.336260,-2298.286494
415.411939,-5329.482782,-9918.759623,-1378.971896
415.412261,-4885.359217,-7846.182985,-1685.410096
415.412583,-3478.967927,-7846.182985,-2528.115143
415.412905,-2590.720797,-7624.121203,-2068.457845
415.413227,-1776.494261,-8290.306550,-536.266849
415.413549,-444.123565,-9252.574275,766.095498
415.413871,814.226536,-9548.656652,229.828649
415.414193,1554.432478,-8882.471304,0.000000
415.414514,1554.432478,-7624.121203,-612.876398
415.414836,2368.659014,-7179.997637,-1225.752797
415.415158,2886.803174,-6809.894666,-2451.505594
415.415480,2072.576638,-6661.853478,-2298.286494
415.415802,222.061783,-7994.224174,-1149.143247
415.416124,-1184.329507,-9696.697840,-612.876398
415.416446,-3034.844362,-11547.212695,-1149.143247
415.416768,-4663.297435,-12213.398043,-1149.143247
415.417089,-5403.503377,-10584.944971,-1072.533697
415.417411,-4515.256246,-8660.409521,-1455.581446
415.417733,-2664.741391,-8512.368333,-1378.971896
415.418055,-2072.576638,-7698.141797,-153.219100
415.418377,-1702.473667,-7031.956449,0.000000
415.418699,222.061783,-7328.038826,-229.828649
415.419021,1554.432478,-9400.615463,-1532.190996
415.419342,1776.494261,-9622.677246,-1302.362347
415.419664,1628.453072,-9474.636058,-1225.752797
415.419986,3849.070898,-9992.780217,-1378.971896
415.420308,4737.318029,-10510.924376,-2221.676944
415.420630,3775.050304,-9474.636058,-2374.896044
415.420952,1406.391290,-8808.450710,-1532.190996
415.421274,296.082377,-9696.697840,-2145.067394
415.421596,-444.123565,-12435.459826,-4903.011187
415.421917,-2442.679609,-13397.727550,-3524.039291
415.422239,-4515.256246,-12509.480420,-1608.800546
415.422561,-4737.318029,-11103.089130,-153.219100
415.422883,-2886.803174,-9548.656652,-1991.848295
415.423205,-1036.288319,-8808.450710,-2604.724693
415.423527,-740.205942,-8216.285956,-1608.800546
415.423849,-518.144159,-7476.080014,76.609550
415.424171,518.144159,-7994.224174,-229.828649
415.424492,1554.432478,-8364.327145,-1149.143247
415.424814,2294.638420,-9326.594869,-383.047749
415.425136,2368.659014,-9030.512492,-1532.190996
415.425458,3775.050304,-8364.327145,-2145.067394
415.425780,4219.173869,-8660.409521,-2221.676944
415.426102,3034.844362,-9770.718434,-1762.019645
415.426424,888.247130,-10214.842000,-459.657299
415.426746,-1776.494261,-10436.903782,-1378.971896
415.427067,-2738.761985,-11695.253884,-2528.115143
415.427389,-4515.256246,-11325.150913,-2298.286494
415.427711,-5403.503377,-9474.636058,-1149.143247
415.428033,-4515.256246,-8216.285956,-1225.752797
415.428355,-2072.576638,-7772.162391,-766.095498
415.428677,-740.205942,-7624.121203,-459.657299
415.428999,0.000000,-7550.100608,229.828649
415.429321,370.102971,-7105.977043,383.047749
415.429642,962.267725,-7550.100608,-689.485948
415.429964,1554.432478,-8586.388927,-2451.505594
415.430286,1924.535449,-8882.471304,-2298.286494
415.430608,2886.803174,-8142.265362,-1532.190996
415.430930,4219.173869,-8660.409521,-2145.067394
415.431252,3701.029710,-9474.636058,-2374.896044
415.431574,2294.638420,-9918.759623,-1915.238745
415.431895,-296.082377,-10658.965565,-1378.971896
415.432217,-2072.576638,-12287.418637,-2757.943793
415.432539,-4145.153275,-12065.356855,-2451.505594
415.432861,-4737.318029,-10658.965565,-2757.943793
415.433183,-4515.256246,-9844.739029,-2757.943793
415.433505,-3034.844362,-9474.636058,-1378.971896
415.433827,-1554.432478,-8956.491898,-612.876398
415.434149,-1480.411884,-7698.141797,-612.876398
415.434470,-370.102971,-7698.141797,-612.876398
415.434792,518.144159,-8512.368333,-2068.457845
415.435114,814.226536,-9400.615463,-2757.943793
415.435436,296.082377,-9548.656652,-1915.238745
415.435758,1110.308913,-9548.656652,-1225.752797
415.436080,2368.659014,-9622.677246,-2068.457845
415.436402,2146.597232,-9918.759623,-2681.334243
415.436724,296.082377,-10584.944971,-2374.896044
415.437045,-1184.329507,-11325.150913,-2604.724693
415.437367,-2294.638420,-12139.377449,-3064.381992
415.437689,-3330.926739,-12139.377449,-2757.943793
415.438011,-4663.297435,-11177.109724,-919.314598
415.438333,-4663.297435,-9474.636058,0.000000
415.438655,-3256.906145,-8290.306550,-306.438199
415.438977,-962.267725,-7698.141797,-459.657299
415.439299,370.102971,-7550.100608,-612.876398
415.439620,1332.370696,-7624.121203,766.095498
415.439942,1332.370696,-7402.059420,1685.410096
415.440264,1258.350101,-7254.018232,1455.581446
415.440586,1554.432478,-6365.771101,-612.876398
415.440908,2294.638420,-6809.894666,-2374.896044
415.441230,2368.659014,-7105.977043,-3370.820191
415.441552,1998.556043,-7994.224174,-2451.505594
415.441874,222.061783,-8882.471304,-842.705048
415.442195,-518.144159,-10807.006753,-842.705048
415.442517,-2294.638420,-12731.542202,-1915.238745
415.442839,-3775.050304,-13175.665768,-2604.724693
415.443161,-5255.462188,-11325.150913,-2221.676944
415.443483,-4515.256246,-9400.615463,-1762.019645
415.443805,-2220.617826,-8956.491898,-1762.019645
415.444127,-888.247130,-7550.100608,-995.924147
415.444449,-444.123565,-7105.977043,383.047749
415.444770,1036.288319,-7179.997637,842.705048
415.445092,3108.864956,-8364.327145,-612.876398
415.445414,3997.112087,-9252.574275,-2221.676944
415.445736,3404.947333,-9622.677246,-919.314598
415.446058,2812.782580,-9178.553681,153.219100
415.446380,3182.885551,-8808.450710,-689.485948
415.446702,3627.009116,-9104.533087,-2604.724693
415.447023,2664.741391,-10214.842000,-3753.867940
415.447345,74.020594,-10955.047942,-2911.162892
415.447667,-1036.288319,-11917.315666,-2834.553343
415.447989,-2664.741391,-13397.727550,-2374.896044
415.448311,-3627.009116,-14211.954086,-2451.505594
415.448633,-4515.256246,-12435.459826,-2834.553343
415.448955,-4663.297435,-9918.759623,-2374.896044
415.449277,-3701.029710,-9030.512492,-1072.533697
415.449598,-2664.741391,-8438.347739,-1991.848295
415.449920,-1628.453072,-7179.997637,-1532.190996
415.450242,-370.102971,-7698.141797,-766.095498
415.450564,370.102971,-8586.388927,-153.219100
415.450886,740.205942,-7994.224174,-306.438199
415.451208,888.247130,-7402.059420,-689.485948
415.451530,2072.576638,-7920.203579,-1455.581446
415.451852,2886.803174,-8290.306550,-2451.505594
415.452173,2738.761985,-8734.430116,-2757.943793
415.452495,1184.329507,-9622.677246,-1685.410096
415.452817,518.144159,-10881.027347,-1225.752797
415.453139,-666.185348,-11547.212695,-1991.848295
415.453461,-2072.576638,-12287.418637,-2298.286494
415.453783,-3552.988522,-11843.295072,-919.314598
415.454105,-3701.029710,-10066.800811,-306.438199
415.454427,-2220.617826,-8808.450710,76.609550
415.454748,74.020594,-8808.450710,-229.828649
415.455070,814.226536,-7179.997637,459.657299
415.455392,1406.391290,-5699.585753,842.705048
415.455714,1628.453072,-6217.729913,842.705048
415.456036,1776.494261,-6587.832884,383.047749
415.456358,962.267725,-7105.977043,-842.705048
415.456680,666.185348,-7105.977043,-1608.800546
415.457002,1184.329507,-8142.265362,-2451.505594
415.457323,1332.370696,-9622.677246,-3064.381992
415.457645,0.000000,-10436.903782,-2681.334243
415.457967,-1850.514855,-11029.068536,-2834.553343
415.458289,-3182.885551,-11917.315666,-2757.943793
415.458611,-4441.235652,-13545.768739,-3907.087040
415.458933,-4811.338623,-13545.768739,-4290.134789
415.459255,-4219.173869,-11621.233289,-2757.943793
415.459577,-2664.741391,-9770.718434,-1149.143247
415.459898,-444.123565,-9622.677246,-919.314598
415.460220,888.247130,-7698.141797,-383.047749
415.460542,1480.411884,-6513.812290,-229.828649
415.460864,2886.803174,-7328.038826,-383.047749
415.461186,3775.050304,-8956.491898,-689.485948
415.461508,2442.679609,-8364.327145,0.000000
415.461830,1110.308913,-8290.306550,306.438199
415.462151,1924.535449,-8956.491898,-689.485948
415.462473,2590.720797,-9696.697840,-3140.991542
415.462795,1776.494261,-10066.800811,-4290.134789
415.463117,-962.267725,-10807.006753,-2757.943793
415.463439,-3404.947333,-11621.233289,-1685.410096
415.463761,-4885.359217,-13323.706956,-2681.334243
415.464083,-6217.729913,-13841.851115,-3753.867940
415.464405,-7550.100608,-12065.356855,-3524.039291
415.464726,-6809.894666,-9770.718434,-1915.238745
415.465048,-4811.338623,-8956.491898,-1915.238745
415.465370,-2072.576638,-7920.203579,-1072.533697
415.465692,-962.267725,-6809.894666,153.219100
415.466014,1110.308913,-6587.832884,1149.143247
415.466336,2368.659014,-7402.059420,1455.581446
415.466658,3108.864956,-6809.894666,306.438199
415.466980,2368.659014,-6809.894666,-1302.362347
415.467301,3478.967927,-7328.038826,-995.924147
415.467623,3923.091493,-6661.853478,-1149.143247
415.467945,3108.864956,-7402.059420,-1762.019645
415.468267,1480.411884,-9104.533087,-842.705048
415.468589,-592.164754,-9918.759623,-536.266849
415.468911,-2738.761985,-11177.109724,-2298.286494
415.469233,-4071.132681,-12361.439231,-2987.772442
415.469555,-5329.482782,-11843.295072,-2451.505594
415.469876,-4737.318029,-9918.759623,-1302.362347
415.470198,-2886.803174,-10214.842000,-1915.238745
415.470520,-518.144159,-10066.800811,-459.657299
415.470842,814.226536,-8586.388927,919.314598
415.471164,1850.514855,-7105.977043,766.095498
415.471486,3478.967927,-7179.997637,-306.438199
415.471808,4737.318029,-7550.100608,-919.314598
415.472130,3849.070898,-7624.121203,-995.924147
415.472451,3256.906145,-7772.162391,-689.485948
415.472773,3701.029710,-8364.327145,-1302.362347
415.473095,3256.906145,-9326.594869,-2911.162892
415.473417,962.267725,-9474.636058,-2911.162892
415.473739,-1258.350101,-10510.924376,-3370.820191
415.474061,-3108.864956,-12435.459826,-3294.210641
415.474383,-4589.276840,-14063.912898,-3447.429741
415.474705,-6291.750507,-14063.912898,-2987.772442
415.475026,-6661.853478,-12509.480420,-2757.943793
415.475348,-4959.379811,-11843.295072,-2374.896044
415.475670,-2516.700203,-11177.109724,-2374.896044
415.475992,-222.061783,-9474.636058,-1532.190996
415.476314,1554.432478,-7994.224174,-229.828649
415.476636,3775.050304,-7476.080014,689.485948
415.476958,4959.379811,-7105.977043,1072.533697
415.477279,4367.215058,-6439.791695,76.609550
415.477601,3256.906145,-6217.729913,0.000000
415.477923,3478.967927,-6957.935855,-1072.533697
415.478245,3182.885551,-8290.306550,-3140.991542
415.478567,1554.432478,-8882.471304,-2911.162892
415.478889,-1184.329507,-9474.636058,-612.876398
415.479211,-3997.112087,-10362.883188,-306.438199
415.479533,-5699.585753,-11843.295072,-3294.210641
415.479854,-7179.997637,-12213.398043,-4673.182538
415.480176,-8290.306550,-11251.130318,-4136.915689
415.480498,-7179.997637,-9770.718434,-2451.505594
415.480820,-4441.235652,-9326.594869,-1455.581446
415.481142,-1850.514855,-8660.409521,-1149.143247
415.481464,-666.185348,-8216.285956,76.609550
415.481786,592.164754,-7476.080014,612.876398
415.482108,2146.597232,-7402.059420,766.095498
415.482429,2886.803174,-6883.915261,-383.047749
415.482751,2368.659014,-6809.894666,-229.828649
415.483073,2664.741391,-6809.894666,-536.266849
415.483395,4071.132681,-7698.141797,-536.266849
415.483717,4663.297435,-8586.388927,-1149.143247
415.484039,3108.864956,-8808.450710,-2374.896044
415.484361,222.061783,-9474.636058,-1915.238745
415.484683,-2590.720797,-11547.212695,-1838.629195
415.485004,-4959.379811,-12805.562797,-2374.896044
415.485326,-6735.874072,-12213.398043,-3600.648841
415.485648,-5699.585753,-11547.212695,-4596.572988
415.485970,-2368.659014,-11547.212695,-3753.867940
415.486292,-148.041188,-11547.212695,-2068.457845
415.486614,814.226536,-10214.842000,612.876398
415.486936,2146.597232,-7994.224174,2374.896044
415.487258,3775.050304,-7476.080014,766.095498
415.487579,4737.318029,-8142.265362,-2528.115143
415.487901,3404.947333,-7846.182985,-2374.896044
415.488223,2590.720797,-7179.997637,-689.485948
415.488545,3256.906145,-7846.182985,-766.095498
415.488867,4367.215058,-9918.759623,-1378.971896
415.489189,3034.844362,-10066.800811,-2221.676944
415.489511,-518.144159,-9104.533087,-1762.019645
415.489833,-3034.844362,-9918.759623,-2987.772442
415.490154,-4959.379811,-12213.398043,-4060.306139
415.490476,-6957.935855,-13101.645173,-4213.525239
415.490798,-8586.388927,-11769.274478,-3064.381992
415.491120,-7624.121203,-10140.821405,-2221.676944
415.491442,-3997.112087,-10807.006753,-1915.238745
415.491764,-962.267725,-10658.965565,-1302.362347
415.492086,814.226536,-8586.388927,76.609550
415.492407,2664.741391,-6587.832884,536.266849
415.492729,4737.318029,-7105.977043,689.485948
415.493051,5329.482782,-7550.100608,383.047749
415.493373,4071.132681,-6291.750507,0.000000
415.493695,4219.173869,-5847.626942,-1149.143247
415.494017,4145.153275,-7550.100608,-842.705048
415.494339,2812.782580,-9104.533087,-612.876398
415.494661,-222.061783,-9030.512492,0.000000
415.494982,-2812.782580,-8808.450710,-919.314598
415.495304,-4441.235652,-10436.903782,-1838.629195
415.495626,-6291.750507,-11325.150913,-3447.429741
415.495948,-8290.306550,-10658.965565,-4290.134789
415.496270,-7624.121203,-9474.636058,-4290.134789
415.496592,-4959.379811,-10807.006753,-3064.381992
415.496914,-2886.803174,-11177.109724,-1532.190996
415.497236,-1628.453072,-9252.574275,0.000000
415.497557,1258.350101,-8364.327145,-153.219100
415.497879,4367.215058,-9474.636058,-1378.971896
415.498201,5033.400406,-9030.512492,-689.485948
415.498523,3775.050304,-7550.100608,995.924147
415.498845,3330.926739,-5773.606348,689.485948
415.499167,4737.318029,-6069.688724,-1685.410096
415.499489,4959.379811,-8660.409521,-2987.772442
415.499811,2664.741391,-9548.656652,-2145.067394
415.500132,-296.082377,-9178.553681,-1225.752797
415.500454,-1628.453072,-10436.903782,-2298.286494
415.500776,-2886.803174,-13175.665768,-2681.334243
415.501098,-5477.523971,-13693.809927,-2374.896044
415.501420,-7994.224174,-11103.089130,-2987.772442
415.501742,-6513.812290,-10510.924376,-3677.258390
415.502064,-3256.906145,-11399.171507,-3447.429741
415.502386,-962.267725,-11251.130318,-1915.238745
415.502707,592.164754,-9844.739029,0.000000
415.503029,1776.494261,-8586.388927,1225.752797
415.503351,3478.967927,-8808.450710,229.828649
415.503673,4589.276840,-9252.574275,-766.095498
415.503995,4071.132681,-7624.121203,-1302.362347
415.504317,3256.906145,-6439.791695,-383.047749
415.504639,3108.864956,-6587.832884,0.000000
415.504961,1850.514855,-7105.977043,-229.828649
415.505282,-148.041188,-7846.182985,-1608.800546
415.505604,-2442.679609,-9104.533087,-2145.067394
415.505926,-4811.338623,-10955.047942,-1991.848295
415.506248,-6735.874072,-12139.377449,-2528.115143
415.506570,-7402.059420,-10955.047942,-2987.772442
415.506892,-6809.894666,-10214.842000,-2604.724693
415.507214,-4737.318029,-10214.842000,-2298.286494
415.507535,-2442.679609,-9400.615463,-2221.676944
415.507857,-370.102971,-7994.224174,-1991.848295
415.508179,1924.535449,-7328.038826,-306.438199
415.508501,4219.173869,-8290.306550,536.266849
415.508823,5107.421000,-8142.265362,536.266849
415.509145,5255.462188,-7476.080014,306.438199
415.509467,5921.647536,-7402.059420,306.438199
415.509789,5773.606348,-7624.121203,229.828649
415.510110,4515.256246,-7328.038826,0.000000
415.510432,1850.514855,-7698.141797,-1302.362347
415.510754,-666.185348,-8882.471304,-1991.848295
415.511076,-3256.906145,-10732.986159,-1838.629195
415.511398,-5773.606348,-11843.295072,-2298.286494
415.511720,-7328.038826,-11325.150913,-3600.648841
415.512042,-6809.894666,-11473.192101,-4596.572988
415.512364,-4885.359217,-11547.212695,-4290.134789
415.512685,-3108.864956,-10732.986159,-3140.991542
415.513007,-1776.494261,-9696.697840,-1915.238745
415.513329,296.082377,-10288.862594,-1225.752797
415.513651,2368.659014,-10584.944971,-1149.143247
415.513973,2738.761985,-9622.677246,-1532.190996
415.514295,2442.679609,-8438.347739,-1762.019645
415.514617,3404.947333,-8068.244768,-1608.800546
415.514939,4885.359217,-8142.265362,-1302.362347
415.515260,5255.462188,-7698.141797,-1072.533697
415.515582,3701.029710,-8216.285956,-995.924147
415.515904,666.185348,-9474.636058,0.000000
415.516226,-2886.803174,-10436.903782,-919.314598
415.516548,-6217.729913,-11547.212695,-2221.676944
415.516870,-8512.368333,-10955.047942,-4366.744339
415.517191,-8882.471304,-10807.006753,-4673.182538
415.517513,-7105.977043,-11029.068536,-3830.477490
415.517835,-3997.112087,-10807.006753,-2604.724693
415.518157,-1258.350101,-10436.903782,-1838.629195
415.518479,740.205942,-10658.965565,76.609550
415.518801,2516.700203,-9770.718434,1149.143247
415.519123,3182.885551,-8882.471304,-612.876398
415.519444,3182.885551,-7105.977043,-1302.362347
415.519766,3034.844362,-6439.791695,-842.705048
415.520088,3256.906145,-5847.626942,0.000000
415.520410,3404.947333,-5921.647536,0.000000
415.520732,3182.885551,-7179.997637,459.657299
415.521054,1628.453072,-8290.306550,153.219100
415.521375,-148.041188,-9252.574275,-536.266849
415.521697,-2294.638420,-9918.759623,-995.924147
415.522019,-4737.318029,-9992.780217,-919.314598
415.522341,-6513.812290,-9474.636058,-2604.724693
415.522663,-6883.915261,-9844.739029,-3217.601092
415.522985,-6069.688724,-9844.739029,-3294.210641
415.523306,-4441.235652,-9696.697840,-2757.943793
415.523628,-2516.700203,-9474.636058,-1915.238745
415.523950,592.164754,-9400.615463,-995.924147
415.524272,3701.029710,-10066.800811,-1608.800546
415.524594,5403.503377,-10066.800811,-995.924147
415.524916,5255.462188,-9252.574275,-229.828649
415.525237,5033.400406,-8142.265362,-383.047749
415.525559,5699.585753,-7476.080014,-995.924147
415.525881,5329.482782,-7105.977043,-2221.676944
415.526203,3775.050304,-8364.327145,-2987.772442
415.526525,1406.391290,-9326.594869,-1225.752797
415.526847,-666.185348,-10658.965565,-306.438199
415.527169,-2294.638420,-11917.315666,-1991.848295
415.527490,-4145.153275,-12361.439231,-2221.676944
415.527812,-5995.668130,-11843.295072,-2987.772442
415.528134,-5773.606348,-11695.253884,-2757.943793
415.528456,-4071.132681,-11029.068536,-2987.772442
415.528778,-1924.535449,-10362.883188,-2834.553343
415.529100,-148.041188,-10510.924376,-383.047749
415.529421,1110.308913,-10288.862594,842.705048
415.529743,1850.514855,-9252.574275,-383.047749
415.530065,2294.638420,-8882.471304,-2374.896044
415.530387,2590.720797,-8660.409521,-1762.019645
415.530709,2960.823768,-7624.121203,-1532.190996
415.531031,3478.967927,-7254.018232,-1455.581446
415.531352,2960.823768,-8068.244768,-1225.752797
415.531674,1554.432478,-9104.533087,612.876398
415.531996,-888.247130,-9548.656652,-306.438199
415.532318,-4071.132681,-10436.903782,-1838.629195
415.532640,-6365.771101,-10140.821405,-1762.019645
415.532962,-7772.162391,-10066.800811,-1532.190996
415.533284,-7105.977043,-9252.574275,-2528.115143
415.533605,-4959.379811,-7920.203579,-2221.676944
415.533927,-2664.741391,-7698.141797,-1915.238745
415.534249,-1036.288319,-8142.265362,-306.438199
415.534571,0.000000,-7624.121203,919.314598
415.534893,1480.411884,-7624.121203,383.047749
415.535215,2516.700203,-8660.409521,-995.924147
415.535536,2886.803174,-8882.471304,-919.314598
415.535858,3034.844362,-7772.162391,0.000000
415.536180,3256.906145,-7476.080014,0.000000
415.536502,3627.009116,-8438.347739,-459.657299
415.536824,2442.679609,-8586.388927,-1225.752797
415.537146,0.000000,-9104.533087,-1762.019645
415.537467,-2072.576638,-10955.047942,-1762.019645
415.537789,-3775.050304,-12213.398043,-842.705048
415.538111,-5255.462188,-11251.130318,-1762.019645
415.538433,-5625.565159,-9770.718434,-2451.505594
415.538755,-4663.297435,-9548.656652,-3064.381992
415.539077,-3923.091493,-9252.574275,-2681.334243
415.539398,-3701.029710,-8956.491898,-1915.238745
415.539720,-2368.659014,-8734.430116,-1225.752797
415.540042,74.020594,-9474.636058,-1225.752797
415.540364,1628.453072,-10436.903782,-2145.067394
415.540686,2220.617826,-10140.821405,-1685.410096
415.541008,3404.947333,-9548.656652,-766.095498
415.541330,5107.421000,-9178.553681,-1762.019645
415.541651,5625.565159,-9326.594869,-3140.991542
415.541973,3849.070898,-9326.594869,-1915.238745
415.542295,1480.411884,-9992.780217,-919.314598
415.542617,-592.164754,-11325.150913,-1838.629195
415.542939,-1998.556043,-12509.480420,-2528.115143
415.543261,-3701.029710,-12435.459826,-2604.724693
415.543582,-5107.421000,-10732.986159,-995.924147
415.543904,-4589.276840,-9030.512492,-995.924147
415.544226,-3182.885551,-7550.100608,-1685.410096
415.544548,-2146.597232,-7402.059420,-1225.752797
415.544870,-1110.308913,-6365.771101,-383.047749
415.545192,0.000000,-7402.059420,-766.095498
415.545513,888.247130,-8438.347739,-1302.362347
415.545835,1480.411884,-9326.594869,-995.924147
415.546157,2368.659014,-8660.409521,-383.047749
415.546479,3849.070898,-8068.244768,-459.657299
415.546801,4663.297435,-8142.265362,-1378.971896
415.547123,3182.885551,-8364.327145,-1455.581446
415.547445,666.185348,-8586.388927,-689.485948
415.547766,-592.164754,-10214.842000,-1608.800546
415.548088,-1184.329507,-11621.233289,-2374.896044
415.548410,-2886.803174,-10584.944971,-1685.410096
415.548732,-4367.215058,-10214.842000,-766.095498
415.549054,-4367.215058,-10214.842000,-689.485948
415.549376,-3256.906145,-9252.574275,-1302.362347
415.549697,-2220.617826,-7402.059420,-919.314598
415.550019,-1480.411884,-6439.791695,-689.485948
415.550341,-296.082377,-6513.812290,-995.924147
415.550663,1332.370696,-8142.265362,-1915.238745
415.550985,2516.700203,-9474.636058,-1532.190996
415.551307,2516.700203,-9992.780217,-995.924147
415.551628,3256.906145,-9696.697840,-1762.019645
415.551950,4959.379811,-10436.903782,-2451.505594
415.552272,4515.256246,-9844.739029,-3294.210641
415.552594,2146.597232,-9474.636058,-2298.286494
415.552916,0.000000,-10436.903782,-1915.238745
415.553238,-2146.597232,-11547.212695,-2987.772442
415.553560,-3997.112087,-12657.521608,-3753.867940
415.553881,-6735.874072,-11991.336260,-2451.505594
415.554203,-7476.080014,-10955.047942,-1455.581446
415.554525,-5921.647536,-9992.780217,-1915.238745
415.554847,-3627.009116,-9252.574275,-2145.067394
415.555169,-2368.659014,-8068.244768,-306.438199
415.555491,-1184.329507,-7031.956449,383.047749
415.555812,-222.061783,-7031.956449,229.828649
415.556134,592.164754,-8512.368333,-842.705048
415.556456,740.205942,-8512.368333,-1991.848295
415.556778,1406.391290,-8734.430116,-1608.800546
415.557100,2368.659014,-9696.697840,-1072.533697
415.557422,2442.679609,-10214.842000,-1378.971896
415.557743,1110.308913,-9548.656652,-1378.971896
415.558065,0.000000,-10362.883188,-1378.971896
415.558387,-1554.432478,-11991.336260,-1608.800546
415.558709,-4219.173869,-11621.233289,-2221.676944
415.559031,-7402.059420,-10140.821405,-1762.019645
415.559353,-8364.327145,-9474.636058,-612.876398
415.559674,-6735.874072,-9030.512492,-1378.971896
415.559996,-4959.379811,-7846.182985,-2451.505594
415.560318,-3923.091493,-6883.915261,-919.314598
415.560640,-3478.967927,-6217.729913,1685.410096
415.560962,-1998.556043,-6217.729913,1302.362347
415.561284,-1110.308913,-6661.853478,-459.657299
415.561606,-1406.391290,-7179.997637,-919.314598
415.561927,-1702.473667,-7105.977043,-1608.800546
415.562249,-740.205942,-8068.244768,-1915.238745
415.562571,222.061783,-9548.656652,-2298.286494
415.562893,740.205942,-10140.821405,-1991.848295
415.563215,0.000000,-10584.944971,-1991.848295
415.563537,-814.226536,-11325.150913,-1762.019645
415.563858,-1702.473667,-12213.398043,-2604.724693
415.564180,-3627.009116,-11991.336260,-3600.648841
415.564502,-5625.565159,-11547.212695,-3217.601092
415.564824,-6809.894666,-10510.924376,-1685.410096
415.565146,-6439.791695,-9474.636058,-1532.190996
415.565468,-5033.400406,-8438.347739,-1991.848295
415.565789,-3701.029710,-8364.327145,-612.876398
415.566111,-2368.659014,-8290.306550,1072.533697
415.566433,-296.082377,-7698.141797,689.485948
415.566755,1110.308913,-7624.121203,-689.485948
415.567077,1184.329507,-7994.224174,-1072.533697
415.567399,740.205942,-8660.409521,-919.314598
415.567721,-518.144159,-8586.388927,-1915.238745
415.568042,-1184.329507,-8808.450710,-3447.429741
415.568364,-2146.597232,-10732.986159,-3983.696590
415.568686,-2960.823768,-12361.439231,-3753.867940
415.569008,-4441.235652,-12583.501014,-2987.772442
415.569330,-5699.585753,-11991.336260,-2451.505594
415.569652,-6883.915261,-11843.295072,-2681.334243
415.569973,-8808.450710,-11103.089130,-3140.991542
415.570295,-11103.089130,-9844.739029,-3064.381992
415.570617,-12731.542202,-9252.574275,-2221.676944
415.570939,-11843.295072,-9104.533087,-2451.505594
415.571261,-9474.636058,-7550.100608,-2298.286494
415.571583,-5699.585753,-7254.018232,-995.924147
415.571904,-2812.782580,-7402.059420,919.314598
415.572226,0.000000,-6365.771101,2221.676944
415.572548,2664.741391,-5181.441594,1072.533697
415.572870,4663.297435,-6069.688724,-766.095498
415.573192,4737.318029,-7698.141797,-1149.143247
415.573514,2220.617826,-8512.368333,-1455.581446
415.573835,-592.164754,-9252.574275,-1685.410096
415.574157,-2368.659014,-11769.274478,-1685.410096
415.574479,-4145.153275,-12139.377449,-2528.115143
415.574801,-5033.400406,-11769.274478,-3370.820191
415.575123,-5995.668130,-10288.862594,-3447.429741
415.575445,-5847.626942,-10510.924376,-2604.724693
415.575767,-6513.812290,-9622.677246,-1225.752797
415.576088,-7624.121203,-7920.203579,-612.876398
415.576410,-7624.121203,-7105.977043,-995.924147
415.576732,-7254.018232,-7994.224174,-2068.457845
415.577054,-7105.977043,-9548.656652,-1762.019645
415.577376,-6957.935855,-10362.883188,76.609550
415.577698,-5773.606348,-9992.780217,1685.410096
415.578019,-3627.009116,-8882.471304,1149.143247
415.578341,-666.185348,-8216.285956,-612.876398
415.578663,888.247130,-7476.080014,-1915.238745
415.578985,1776.494261,-7031.956449,-2451.505594
415.579307,2146.597232,-7550.100608,-2451.505594
415.579629,2590.720797,-9030.512492,-2374.896044
415.579950,2442.679609,-9918.759623,-3294.210641
415.580272,1702.473667,-10881.027347,-3294.210641
415.580594,444.123565,-11769.274478,-3447.429741
415.580916,-592.164754,-11843.295072,-3677.258390
415.581238,-1480.411884,-12509.480420,-3370.820191
415.581560,-3256.906145,-11917.315666,-2681.334243
415.581882,-4737.318029,-10955.047942,-1225.752797
415.582203,-5329.482782,-9252.574275,-1608.800546
415.582525,-5181.441594,-8734.430116,-2298.286494
415.582847,-4885.359217,-8142.265362,-2298.286494
415.583169,-4737.318029,-8142.265362,-689.485948
415.583491,-4367.215058,-9030.512492,383.047749
415.583813,-3701.029710,-9548.656652,1455.581446
415.584134,-2664.741391,-8882.471304,1072.533697
415.584456,-518.144159,-7476.080014,-536.266849
415.584778,1924.535449,-7328.038826,-1838.629195
415.585100,3182.885551,-8068.244768,-2757.943793
415.585422,2664.741391,-8882.471304,-3064.381992
415.585744,1850.514855,-9696.697840,-2221.676944
415.586065,-222.061783,-11695.253884,-1991.848295
415.586387,-3478.967927,-13101.645173,-2757.943793
415.586709,-7402.059420,-13471.748144,-2221.676944
415.587031,-10732.986159,-11177.109724,-3753.867940
415.587353,-11843.295072,-9548.656652,-4519.963438
415.587675,-12213.398043,-8660.409521,-3600.648841
415.587996,-12509.480420,-6365.771101,-2451.505594
415.588318,-11103.089130,-5107.421000,-1915.238745
415.588640,-7846.182985,-6143.709319,-2298.286494
415.588962,-5033.400406,-8586.388927,-1838.629195
415.589284,-3108.864956,-9696.697840,-306.438199
415.589606,-1628.453072,-9548.656652,1225.752797
415.589928,666.185348,-9326.594869,1072.533697
415.590249,2516.700203,-8956.491898,-306.438199
415.590571,3478.967927,-8364.327145,-1532.190996
415.590893,2442.679609,-7105.977043,-1302.362347
415.591215,592.164754,-6735.874072,-1225.752797
415.591537,-1332.370696,-8290.306550,-1608.800546
415.591859,-3701.029710,-10066.800811,-2604.724693
415.592180,-5181.441594,-12139.377449,-2451.505594
415.592502,-7105.977043,-12361.439231,-1991.848295
415.592824,-8438.347739,-11843.295072,-1455.581446
415.593146,-9474.636058,-10807.006753,-1149.143247
415.593468,-9696.697840,-9622.677246,-2068.457845
415.593790,-8808.450710,-7994.224174,-2298.286494
415.594111,-7105.977043,-6883.915261,-3294.210641
415.594433,-5329.482782,-6291.750507,-2757.943793
415.594755,-3849.070898,-5847.626942,-1685.410096
415.595077,-2590.720797,-5699.585753,-1225.752797
415.595399,148.041188,-8882.471304,-2604.724693
415.595721,1184.329507,-11991.336260,-3064.381992
415.596043,1110.308913,-13989.892304,-2834.553343
415.596364,296.082377,-13619.789333,-995.924147
415.596686,222.061783,-12953.603985,0.000000
415.597008,-370.102971,-11769.274478,-306.438199
415.597330,-1406.391290,-10436.903782,-842.705048
415.597652,-2960.823768,-8808.450710,-612.876398
415.597974,-4737.318029,-7402.059420,-536.266849
415.598295,-5403.503377,-6661.853478,-766.095498
415.598617,-5551.544565,-5921.647536,-766.095498
415.598939,-4737.318029,-6217.729913,-1991.848295
415.599261,-3478.967927,-7772.162391,-3294.210641
415.599583,-2368.659014,-9548.656652,-2987.772442
415.599905,-2960.823768,-10436.903782,-2068.457845
415.600226,-3923.091493,-9918.759623,-1149.143247
415.600548,-4515.256246,-9696.697840,-1685.410096
415.600870,-4663.297435,-10510.924376,-4366.744339
415.601192,-4071.132681,-12953.603985,-4826.401637
415.601514,-3256.906145,-14656.077652,-2528.115143
415.601836,-2368.659014,-14211.954086,842.705048
415.602157,-888.247130,-12657.521608,3524.039291
415.602479,1036.288319,-10584.944971,5209.449386
415.602801,2516.700203,-8586.388927,4136.915689
415.603123,2368.659014,-6883.915261,2451.505594
415.603445,1406.391290,-6069.688724,2451.505594
415.603767,-222.061783,-4811.338623,3677.258390
415.604089,-3108.864956,-3478.967927,5056.230287
415.604410,-5847.626942,-2590.720797,4519.963438
415.604732,-6957.935855,-3404.947333,0.000000
415.605054,-6735.874072,-4737.318029,-4749.792088
415.605376,-6883.915261,-5551.544565,-6435.202183
415.605698,-7328.038826,-8068.244768,-5286.058936
415.606020,-7105.977043,-12805.562797,-3830.477490
415.606341,-6809.894666,-16284.530724,-3524.039291
415.606663,-6587.832884,-16358.551318,-4366.744339
415.606985,-5477.523971,-16654.633695,-5132.839837
415.607307,-4219.173869,-16284.530724,-3983.696590
415.607629,-2516.700203,-13027.624579,-1378.971896
415.607951,-3034.844362,-8734.430116,1532.190996
415.608272,-2516.700203,-5329.482782,4213.525239
415.608594,-1332.370696,-3923.091493,3753.867940
415.608916,-1036.288319,-3330.926739,1225.752797
415.609238,-740.205942,-4737.318029,842.705048
415.609560,-1850.514855,-7254.018232,2757.943793
415.609882,-2220.617826,-9548.656652,3753.867940
415.610204,-1776.494261,-11769.274478,2604.724693
415.610525,962.267725,-11103.089130,0.000000
415.610847,2368.659014,-8364.327145,-3064.381992
415.611169,2368.659014,-8808.450710,-3983.696590
415.611491,2146.597232,-13397.727550,-3140.991542
415.611813,1184.329507,-16062.468941,-2834.553343
415.612135,888.247130,-16580.613101,-3064.381992
415.612456,1850.514855,-17172.777854,-1685.410096
415.612778,2960.823768,-16580.613101,-153.219100
415.613100,1924.535449,-12065.356855,459.657299
415.613422,0.000000,-7772.162391,1455.581446
415.613744,-740.205942,-4737.318029,4213.525239
415.614066,-296.082377,-3034.844362,4213.525239
415.614387,-518.144159,-518.144159,1302.362347
415.614709,148.041188,-666.185348,153.219100
415.615031,962.267725,-3627.009116,1685.410096
415.615353,666.185348,-7031.956449,3140.991542
415.615675,0.000000,-8068.244768,3370.820191
415.615996,888.247130,-10288.862594,-842.705048
415.616318,1776.494261,-11991.336260,-4366.744339
415.616640,1184.329507,-12139.377449,-4596.572988
415.616961,-1184.329507,-12879.583391,-2911.162892
415.617283,-2368.659014,-15618.345376,-842.705048
415.617605,-2368.659014,-16506.592507,0.000000
415.617926,-2886.803174,-14508.036463,-612.876398
415.618248,-2590.720797,-13619.789333,919.314598
415.618570,-2294.638420,-12879.583391,3907.087040
415.618892,-2738.761985,-10436.903782,5362.668486
415.619213,-3552.988522,-7772.162391,6741.640382
415.619535,-2664.741391,-5551.544565,7814.174080
415.619857,-2590.720797,-5329.482782,5975.544884
415.620178,-2886.803174,-6365.771101,4366.744339
415.620500,-3256.906145,-6661.853478,5439.278036
415.620822,-148.041188,-6439.791695,4826.401637
415.621144,3404.947333,-6291.750507,1532.190996
415.621465,5255.462188,-4737.318029,0.000000
415.621787,4219.173869,-3997.112087,536.266849
415.622109,2146.597232,-7994.224174,-1072.533697
415.622430,444.123565,-12287.418637,-3140.991542
415.622752,-2368.659014,-14952.160028,-4826.401637
415.623074,-6809.894666,-16728.654289,-4596.572988
415.623395,-10140.821405,-18505.148550,-995.924147
415.623717,-11843.295072,-17394.839637,2451.505594
415.624039,-11399.171507,-13841.851115,3600.648841
415.624361,-9252.574275,-10732.986159,3064.381992
415.624682,-7254.018232,-9104.533087,4136.915689
415.625004,-5773.606348,-8586.388927,6052.154434
415.625326,-5033.400406,-6957.935855,8963.317327
415.625647,-2294.638420,-1924.535449,11797.870669
415.625969,2072.576638,1628.453072,9652.803275
415.626291,7179.997637,-370.102971,3600.648841
415.626612,11103.089130,-3404.947333,766.095498
415.626934,9622.677246,-5403.503377,1991.848295
415.627256,6661.853478,-9178.553681,4596.572988
415.627578,4737.318029,-16728.654289,5362.668486
415.627899,2738.761985,-20651.745782,1455.581446
415.628221,-962.267725,-18505.148550,-2911.162892
415.628543,-3256.906145,-16654.633695,-3907.087040
415.628864,-2590.720797,-15766.386565,-306.438199
415.629186,-2590.720797,-10658.965565,1149.143247
415.629508,-3478.967927,-4293.194464,536.266849
415.629829,-3034.844362,-3330.926739,2145.067394
415.630151,-2368.659014,-7328.038826,4366.744339
415.630473,-3997.112087,-6957.935855,2374.896044
415.630795,-4663.297435,-6291.750507,2145.067394
415.631116,-1628.453072,-7328.038826,4213.525239
415.631438,1628.453072,-9622.677246,6741.640382
415.631760,1924.535449,-8660.409521,7507.735880
415.632081,3182.885551,-3701.029710,5975.544884
415.632403,7846.182985,-3849.070898,-2145.067394
415.632725,10658.965565,-5625.565159,-6665.030833
415.633047,7031.956449,-5773.606348,-3600.648841
415.633368,814.226536,-8956.491898,306.438199
415.633690,-2516.700203,-17098.757260,-919.314598
415.634012,-4663.297435,-22354.219448,-3064.381992
415.634333,-6957.935855,-21539.992912,-6205.373534
415.634655,-6069.688724,-17172.777854,-6588.421283
415.634977,-2886.803174,-13767.830521,-2987.772442
415.635298,148.041188,-9770.718434,0.000000
415.635620,1406.391290,-6365.771101,2145.067394
415.635942,3256.906145,-4885.359217,4060.306139
415.636264,4071.132681,-6291.750507,1685.410096
415.636585,2590.720797,-8808.450710,229.828649
415.636907,2368.659014,-8882.471304,2681.334243
415.637229,3108.864956,-7476.080014,2298.286494
415.637550,5107.421000,-8808.450710,0.000000
415.637872,5995.668130,-11251.130318,1225.752797
415.638194,1776.494261,-11177.109724,3064.381992
415.638515,-5107.421000,-10214.842000,2298.286494
415.638837,-10140.821405,-10584.944971,-229.828649
415.639159,-11103.089130,-9696.697840,-4596.572988
415.639481,-11769.274478,-7994.224174,-9422.974625
415.639802,-12065.356855,-9474.636058,-8886.707777
415.640124,-10955.047942,-13767.830521,-3294.210641
415.640446,-8068.244768,-15174.221811,383.047749
415.640767,-6291.750507,-14211.954086,1378.971896
415.641089,-4071.132681,-13989.892304,1991.848295
415.641411,-2146.597232,-11547.212695,2145.067394
415.641733,740.205942,-6587.832884,1302.362347
415.642054,4441.235652,-1110.308913,76.609550
415.642376,8438.347739,1184.329507,2834.553343
415.642698,10510.924376,-518.144159,6741.640382
415.643019,8734.430116,-4367.215058,8350.440928
415.643341,4737.318029,-8438.347739,8580.269578
415.643663,1036.288319,-11843.295072,6894.859482
415.643984,-1184.329507,-13915.871710,3907.087040
415.644306,-1702.473667,-13323.706956,1455.581446
415.644628,-740.205942,-9622.677246,612.876398
415.644950,444.123565,-7328.038826,1225.752797
415.645271,74.020594,-7994.224174,3907.087040
415.645593,-2146.597232,-9400.615463,4673.182538
415.645915,-4737.318029,-9844.739029,2374.896044
415.646236,-6365.771101,-11621.233289,-689.485948
415.646558,-6217.729913,-12805.562797,-689.485948
415.646880,-4589.276840,-11251.130318,995.924147
415.647201,-2664.741391,-8956.491898,2068.457845
415.647523,296.082377,-8882.471304,3907.087040
415.647845,1184.329507,-9918.759623,5592.497135
415.648167,1110.308913,-10584.944971,6052.154434
415.648488,1184.329507,-9030.512492,4136.915689
415.648810,2590.720797,-7179.997637,1685.410096
415.649132,5033.400406,-6513.812290,842.705048
415.649453,5329.482782,-6661.853478,2834.553343
415.649775,3923.091493,-7624.121203,4443.353888
415.650097,1036.288319,-9622.677246,4290.134789
415.650419,-1480.411884,-12657.521608,2068.457845
415.650740,-3627.009116,-14952.160028,-383.047749
415.651062,-4219.173869,-15766.386565,-1149.143247
415.651384,-3182.885551,-13841.851115,-383.047749
415.651705,-222.061783,-11325.150913,1532.190996
415.652027,2294.638420,-9474.636058,2757.943793
415.652349,2664.741391,-8290.306550,3447.429741
415.652670,814.226536,-8364.327145,2604.724693
415.652992,-2220.617826,-8364.327145,1149.143247
415.653314,-2812.782580,-9030.512492,0.000000
415.653636,-1480.411884,-8512.368333,-306.438199
415.653957,1036.288319,-7476.080014,306.438199
415.654279,3108.864956,-7624.121203,1762.019645
415.654601,4589.276840,-9252.574275,2834.553343
415.654922,3108.864956,-9622.677246,2451.505594
415.655244,0.000000,-8882.471304,0.000000
415.655566,-3775.050304,-8364.327145,-2221.676944
415.655887,-5847.626942,-8216.285956,-3140.991542
415.656209,-6069.688724,-7476.080014,-4596.572988
415.656531,-6661.853478,-7402.059420,-4826.401637
415.656853,-5921.647536,-9992.780217,-3524.039291
415.657174,-5329.482782,-12805.562797,-1915.238745
415.657496,-5255.462188,-14878.139434,-766.095498
415.657818,-4737.318029,-15100.201217,459.657299
415.658139,-3256.906145,-12435.459826,306.438199
415.658461,-1110.308913,-8734.430116,-842.705048
415.658783,888.247130,-4441.235652,-1608.800546
415.659105,2442.679609,-2368.659014,-1455.581446
415.659426,4367.215058,-3478.967927,-229.828649
415.659748,5181.441594,-7031.956449,0.000000
415.660070,5477.523971,-11251.130318,153.219100
415.660391,5329.482782,-13027.624579,842.705048
415.660713,4589.276840,-11917.315666,612.876398
415.661035,3108.864956,-8882.471304,-842.705048
415.661356,1628.453072,-5773.606348,-2987.772442
415.661678,-1110.308913,-2886.803174,-5975.544884
415.662000,-3923.091493,-3923.091493,-8273.831378
415.662322,-6587.832884,-7994.224174,-7431.126331
415.662643,-7920.203579,-13619.789333,-4979.620737
415.662965,-7994.224174,-17172.777854,-3753.867940
415.663287,-7105.977043,-19911.539840,-1915.238745
415.663608,-5477.523971,-17542.880825,-766.095498
415.663930,-3923.091493,-12213.398043,-995.924147
415.664252,-2220.617826,-6365.771101,-2374.896044
415.664573,222.061783,-3404.947333,-2374.896044
415.664895,1776.494261,-2960.823768,-1685.410096
415.665217,2960.823768,-5477.523971,306.438199
415.665539,4737.318029,-8660.409521,2451.505594
415.665860,6587.832884,-10881.027347,2987.772442
415.666182,8586.388927,-11547.212695,1762.019645
415.666504,9178.553681,-10436.903782,459.657299
415.666825,7624.121203,-8512.368333,-383.047749
415.667147,4811.338623,-7476.080014,-1762.019645
415.667469,1332.370696,-8216.285956,-2528.115143
415.667790,-2294.638420,-9844.739029,-3140.991542
415.668112,-4293.194464,-11991.336260,-2451.505594
415.668434,-4885.359217,-13693.809927,-3447.429741
415.668756,-5107.421000,-15322.262999,-1608.800546
415.669077,-4663.297435,-14137.933492,76.609550
415.669399,-4145.153275,-11177.109724,612.876398
415.669721,-4071.132681,-9178.553681,1225.752797
415.670042,-3552.988522,-7402.059420,2145.067394
415.670364,-3552.988522,-5847.626942,1608.800546
415.670686,-1776.494261,-4145.153275,766.095498
415.671008,962.267725,-4219.173869,1149.143247
415.671329,3330.926739,-5921.647536,2298.286494
415.671651,4293.194464,-7476.080014,2757.943793
415.671973,4441.235652,-7994.224174,2068.457845
415.672294,2738.761985,-8438.347739,612.876398
415.672616,666.185348,-9104.533087,-1225.752797
415.672938,-1850.514855,-10214.842000,-2681.334243
415.673259,-3775.050304,-9992.780217,-3447.429741
415.673581,-3997.112087,-10584.944971,-4290.134789
415.673903,-3404.947333,-12805.562797,-3600.648841
415.674225,-3034.844362,-14804.118840,-1608.800546
415.674546,-3923.091493,-13767.830521,766.095498
415.674868,-4367.215058,-11399.171507,1149.143247
415.675190,-2812.782580,-9474.636058,612.876398
415.675511,-518.144159,-7772.162391,306.438199
415.675833,814.226536,-4811.338623,-459.657299
415.676155,2590.720797,-3701.029710,306.438199
415.676476,5033.400406,-5847.626942,1762.019645
415.676798,5033.400406,-8438.347739,2528.115143
415.677120,3552.988522,-9252.574275,3217.601092
415.677442,1554.432478,-8734.430116,1378.971896
415.677763,1332.370696,-8438.347739,-2528.115143
415.678085,888.247130,-7920.203579,-6128.763984
415.678407,-592.164754,-9030.512492,-5745.716235
415.678728,-2960.823768,-10288.862594,-3524.039291
415.679050,-4663.297435,-12731.542202,-2834.553343
415.679372,-5033.400406,-15100.201217,-3600.648841
415.679694,-6069.688724,-16210.510130,-4749.792088
415.680015,-6587.832884,-14878.139434,-4826.401637
415.680337,-6143.709319,-11843.295072,-4060.306139
415.680659,-3404.947333,-9770.718434,-2068.457845
415.680980,-962.267725,-8068.244768,-459.657299
415.681302,1110.308913,-5921.647536,383.047749
415.681624,3256.906145,-5403.503377,1225.752797
415.681945,5033.400406,-5921.647536,1455.581446
415.682267,5551.544565,-6513.812290,459.657299
415.682589,5477.523971,-5033.400406,0.000000
415.682911,5551.544565,-5773.606348,-919.314598
415.683232,4811.338623,-7698.141797,-2068.457845
415.683554,1924.535449,-9918.759623,-2834.553343
415.683876,-1998.556043,-10436.903782,-2221.676944
415.684197,-3701.029710,-12139.377449,-2604.724693
415.684519,-3923.091493,-13471.748144,-4903.011187
415.684841,-4811.338623,-13471.748144,-6281.983084
415.685162,-5329.482782,-11621.233289,-4979.620737
415.685484,-4663.297435,-10140.821405,-2911.162892
415.685806,-1998.556043,-9918.759623,-1762.019645
415.686128,-222.061783,-9474.636058,-1149.143247
415.686449,0.000000,-8364.327145,0.000000
415.686771,1110.308913,-7031.956449,306.438199
415.687093,3701.029710,-6365.771101,383.047749
415.687414,6291.750507,-6661.853478,-459.657299
415.687736,6809.894666,-5847.626942,0.000000
415.688058,5699.585753,-4737.318029,995.924147
415.688380,4441.235652,-5921.647536,536.266849
415.688701,3034.844362,-8882.471304,-1378.971896
415.689023,666.185348,-11621.233289,-3830.477490
415.689345,-2664.741391,-12805.562797,-5362.668486
415.689666,-4663.297435,-13841.851115,-3294.210641
415.689988,-5255.462188,-14137.933492,-2757.943793
415.690310,-5551.544565,-13767.830521,-3907.087040
415.690631,-6365.771101,-12213.398043,-4596.572988
415.690953,-5551.544565,-11843.295072,-3983.696590
415.691275,-4959.379811,-10732.986159,-1991.848295
415.691597,-2960.823768,-9696.697840,-153.219100
415.691918,-370.102971,-6661.853478,0.000000
415.692240,3182.885551,-4441.235652,-1302.362347
415.692562,6291.750507,-3849.070898,-536.266849
415.692883,7105.977043,-5551.544565,536.266849
415.693205,4737.318029,-7105.977043,1762.019645
415.693527,1554.432478,-8734.430116,1762.019645
415.693848,-1036.288319,-11621.233289,0.000000
415.694170,-2368.659014,-12731.542202,-2221.676944
415.694492,-2516.700203,-11547.212695,-4136.915689
415.694814,-2886.803174,-9474.636058,-3217.601092
415.695135,-2516.700203,-9252.574275,-2451.505594
415.695457,-2960.823768,-10881.027347,-1762.019645
415.695779,-4663.297435,-11621.233289,-1072.533697
415.696100,-5625.565159,-11917.315666,-1378.971896
415.696422,-5033.400406,-11473.192101,-1225.752797
415.696744,-3330.926739,-10288.862594,536.266849
415.697066,-296.082377,-7624.121203,1302.362347
415.697387,3330.926739,-4737.318029,842.705048
415.697709,7031.956449,-2738.761985,536.266849
415.698031,8956.491898,-5033.400406,1915.238745
415.698352,7402.059420,-7105.977043,3064.381992
415.698674,4589.276840,-7031.956449,2451.505594
415.698996,2812.782580,-8216.285956,-306.438199
415.699317,1702.473667,-9622.677246,-2604.724693
415.699639,-222.061783,-9918.759623,-2834.553343
415.699961,-2368.659014,-9474.636058,-2681.334243
415.700283,-4293.194464,-11991.336260,-2451.505594
415.700604,-6069.688724,-15322.262999,-1915.238745
415.700926,-7624.121203,-15914.427753,-995.924147
415.701248,-8808.450710,-13249.686362,-1225.752797
415.701569,-7179.997637,-9992.780217,-2221.676944
415.701891,-3478.967927,-7772.162391,-2604.724693
415.702213,296.082377,-5773.606348,-1455.581446
415.702534,2664.741391,-3923.091493,766.095498
415.702856,4811.338623,-4737.318029,1991.848295
415.703178,6069.688724,-7179.997637,1685.410096
415.703500,5847.626942,-8734.430116,1532.190996
415.703821,4737.318029,-8660.409521,0.000000
415.704143,5625.565159,-9252.574275,-2757.943793
415.704465,5847.626942,-9992.780217,-4136.915689
415.704786,4293.194464,-10066.800811,-2528.115143
415.705108,0.000000,-10436.903782,-1225.752797
415.705430,-3108.864956,-12509.480420,-2374.896044
415.705752,-5625.565159,-15396.283594,-4519.963438
415.706073,-7994.224174,-16284.530724,-5286.058936
415.706395,-9474.636058,-13767.830521,-4903.011187
415.706717,-7254.018232,-10881.027347,-3064.381992
415.707038,-3552.988522,-8364.327145,-1838.629195
415.707360,-370.102971,-6365.771101,-536.266849
415.707682,1776.494261,-4811.338623,536.266849
415.708003,2812.782580,-5181.441594,459.657299
415.708325,3701.029710,-6957.935855,0.000000
415.708647,3849.070898,-7105.977043,-1072.533697
415.708969,3404.947333,-6809.894666,-689.485948
415.709290,3627.009116,-6883.915261,-766.095498
415.709612,3627.009116,-8290.306550,-2298.286494
415.709934,2146.597232,-9992.780217,-4519.963438
415.710255,74.020594,-10140.821405,-3830.477490
415.710577,-2368.659014,-11399.171507,-3370.820191
415.710899,-4293.194464,-14359.995275,-3907.087040
415.711220,-6809.894666,-15988.448347,-3600.648841
415.711542,-8364.327145,-14285.974681,-3370.820191
415.711864,-7105.977043,-11399.171507,-3140.991542
415.712186,-3701.029710,-8290.306550,-2145.067394
415.712507,-1258.350101,-6143.709319,-1149.143247
415.712829,-222.061783,-3775.050304,-536.266849
415.713151,1258.350101,-3627.009116,612.876398
415.713472,4515.256246,-5181.441594,1608.800546
415.713794,6661.853478,-7920.203579,0.000000
415.714116,5699.585753,-7476.080014,-995.924147
415.714437,4885.359217,-7105.977043,-306.438199
415.714759,5255.462188,-7698.141797,-1302.362347
415.715084,5477.523971,-9622.677246,-3370.820191
415.715406,2960.823768,-11177.109724,-3753.867940
415.715727,-888.247130,-11917.315666,-2757.943793
415.716049,-3997.112087,-12509.480420,-1915.238745
415.716371,-5995.668130,-14508.036463,-2757.943793
415.716693,-7031.956449,-14730.098246,-3447.429741
415.717014,-7254.018232,-11917.315666,-3677.258390
415.717336,-6069.688724,-9178.553681,-3217.601092
415.717658,-3182.885551,-8438.347739,-306.438199
415.717980,-740.205942,-7550.100608,1608.800546
415.718301,666.185348,-6069.688724,842.705048
415.718623,3552.988522,-5699.585753,229.828649
415.718945,5773.606348,-7105.977043,0.000000
415.719267,6143.709319,-8290.306550,-689.485948
415.719588,4811.338623,-7328.038826,0.000000
415.719910,4663.297435,-7476.080014,-229.828649
415.720232,4367.215058,-10140.821405,-2451.505594
415.720554,2294.638420,-11399.171507,-2834.553343
415.720875,-1332.370696,-12805.562797,-2221.676944
415.721197,-3627.009116,-14804.118840,-2451.505594
415.721519,-5107.421000,-15988.448347,-3294.210641
415.721840,-6365.771101,-14582.057057,-3064.381992
415.722162,-7476.080014,-11251.130318,-2528.115143
415.722484,-7031.956449,-9252.574275,-1225.752797
415.722806,-5107.421000,-8142.265362,0.000000
415.723127,-4071.132681,-7772.162391,76.609550
415.723449,-2738.761985,-7105.977043,1532.190996
415.723771,0.000000,-5847.626942,2757.943793
415.724093,3108.864956,-4737.318029,1532.190996
415.724414,5921.647536,-4737.318029,842.705048
415.724736,6291.750507,-4293.194464,1838.629195
415.725058,6439.791695,-4367.215058,229.828649
415.725380,7031.956449,-7179.997637,-1762.019645
415.725701,5033.400406,-10436.903782,-1991.848295
415.726023,888.247130,-12583.501014,-1149.143247
415.726345,-2664.741391,-13249.686362,-1225.752797
415.726667,-3923.091493,-14508.036463,-2451.505594
415.726988,-4811.338623,-14582.057057,-3524.039291
415.727310,-5847.626942,-11769.274478,-3294.210641
415.727632,-6513.812290,-8068.244768,-2451.505594
415.727954,-4219.173869,-7772.162391,-766.095498
415.728275,-2442.679609,-7772.162391,-612.876398
415.728597,-1480.411884,-6143.709319,229.828649
415.728919,-666.185348,-5181.441594,1378.971896
415.729241,2516.700203,-5181.441594,0.000000
415.729562,4441.235652,-7105.977043,-1532.190996
415.729884,4071.132681,-7624.121203,-1149.143247
415.730206,3404.947333,-7476.080014,-306.438199
415.730528,4959.379811,-8586.388927,-2757.943793
415.730849,5107.421000,-11251.130318,-5209.449386
415.731171,2146.597232,-12139.377449,-5209.449386
415.731493,-1628.453072,-12805.562797,-3907.087040
415.731814,-3182.885551,-14359.995275,-3983.696590
415.732136,-4367.215058,-16136.489536,-4673.182538
415.732458,-6439.791695,-15322.262999,-5056.230287
415.732780,-8438.347739,-12287.418637,-4290.134789
415.733101,-7328.038826,-10584.944971,-2145.067394
415.733423,-4515.256246,-10066.800811,-1378.971896
415.733745,-1998.556043,-8068.244768,-536.266849
415.734067,-518.144159,-5107.421000,612.876398
415.734388,2072.576638,-4663.297435,1532.190996
415.734710,4441.235652,-6217.729913,229.828649
415.735032,5699.585753,-6883.915261,-229.828649
415.735354,4959.379811,-5847.626942,-842.705048
415.735675,4293.194464,-6143.709319,-1685.410096
415.735997,3701.029710,-9252.574275,-2604.724693
415.736319,2220.617826,-11029.068536,-4366.744339
415.736641,-370.102971,-12509.480420,-4749.792088
415.736962,-2590.720797,-12731.542202,-3753.867940
415.737284,-4293.194464,-13915.871710,-3217.601092
415.737606,-5995.668130,-14804.118840,-2911.162892
415.737928,-8068.244768,-12731.542202,-2298.286494
415.738249,-7698.141797,-10066.800811,-1838.629195
415.738571,-4959.379811,-7846.182985,-766.095498
415.738893,-1924.535449,-5699.585753,842.705048
415.739215,148.041188,-3034.844362,1455.581446
415.739536,2294.638420,-1924.535449,2068.457845
415.739858,5625.565159,-3701.029710,2374.896044
415.740180,7031.956449,-5995.668130,2298.286494
415.740502,6069.688724,-5847.626942,1455.581446
415.740823,5699.585753,-6143.709319,-612.876398
415.741145,6365.771101,-8512.368333,-2757.943793
415.741467,5921.647536,-10066.800811,-3983.696590
415.741788,3108.864956,-11103.089130,-2987.772442
415.742110,-444.123565,-12805.562797,-2757.943793
415.742432,-3552.988522,-15766.386565,-3753.867940
415.742754,-6883.915261,-17172.777854,-4519.963438
415.743075,-9474.636058,-16358.551318,-4673.182538
415.743397,-10140.821405,-14211.954086,-4596.572988
415.743719,-7550.100608,-11029.068536,-3600.648841
415.744041,-4811.338623,-8068.244768,-2298.286494
415.744362,-2146.597232,-5107.421000,-383.047749
415.744684,222.061783,-3552.988522,689.485948
415.745006,2812.782580,-5773.606348,995.924147
415.745328,3627.009116,-8216.285956,153.219100
415.745649,3552.988522,-9030.512492,383.047749
415.745971,2886.803174,-8512.368333,459.657299
415.746293,3997.112087,-8956.491898,-536.266849
415.746615,4959.379811,-9992.780217,-3064.381992
415.746936,4737.318029,-10658.965565,-4060.306139
415.747258,1924.535449,-9992.780217,-3217.601092
415.747580,-888.247130,-12657.521608,-2451.505594
415.747902,-3997.112087,-17394.839637,-2145.067394
415.748223,-7179.997637,-17320.819043,-1455.581446
415.748545,-8956.491898,-13841.851115,-2604.724693
415.748867,-7179.997637,-10658.965565,-2451.505594
415.749189,-3701.029710,-8364.327145,-689.485948
415.749510,-2368.659014,-5255.462188,842.705048
415.749832,-1332.370696,-2516.700203,2221.676944
415.750154,666.185348,-2960.823768,3447.429741
415.750476,3478.967927,-4737.318029,1455.581446
415.750797,3330.926739,-5847.626942,306.438199
415.751119,1406.391290,-5033.400406,1302.362347
415.751441,1776.494261,-5033.400406,459.657299
415.751762,4071.132681,-7476.080014,-2451.505594
415.752084,4145.153275,-9178.553681,-3600.648841
415.752406,1184.329507,-9178.553681,-1838.629195
415.752728,-2072.576638,-11029.068536,-1532.190996
415.753049,-3997.112087,-15914.427753,-1685.410096
415.753371,-5995.668130,-17172.777854,-1532.190996
415.753693,-7105.977043,-12879.583391,-4366.744339
415.754015,-5773.606348,-8956.491898,-4366.744339
415.754336,-1850.514855,-8068.244768,-1991.848295
415.754658,148.041188,-7402.059420,0.000000
415.754980,888.247130,-5921.647536,1762.019645
415.755302,2516.700203,-5625.565159,2374.896044
415.755623,5107.421000,-7105.977043,1378.971896
415.755945,6143.709319,-8290.306550,-1532.190996
415.756267,4737.318029,-7105.977043,-1149.143247
415.756589,3775.050304,-5699.585753,-153.219100
415.756910,5255.462188,-6883.915261,-1072.533697
415.757232,5773.606348,-10955.047942,-4673.182538
415.757554,2146.597232,-12731.542202,-4596.572988
415.757876,-3552.988522,-13693.809927,-3600.648841
415.758197,-6365.771101,-16654.633695,-3294.210641
415.758519,-7698.141797,-18653.189738,-4366.744339
415.758841,-7772.162391,-14656.077652,-6818.249932
415.759163,-7994.224174,-9770.718434,-6971.469032
415.759484,-6439.791695,-8364.327145,-3983.696590
415.759806,-5033.400406,-9326.594869,-459.657299
415.760128,-4737.318029,-9844.739029,306.438199
415.760450,-3997.112087,-8808.450710,76.609550
415.760771,-962.267725,-8364.327145,306.438199
415.761093,2294.638420,-7846.182985,0.000000
415.761415,3923.091493,-5477.523971,-306.438199
415.761736,5329.482782,-2738.761985,-229.828649
415.762058,6883.915261,-2960.823768,229.828649
415.762380,7105.977043,-7105.977043,-306.438199
415.762702,4663.297435,-9326.594869,-1838.629195
415.763023,666.185348,-11843.295072,-3524.039291
415.763345,-1702.473667,-15026.180623,-3064.381992
415.763667,-3849.070898,-15470.304188,-1378.971896
415.763989,-5329.482782,-12065.356855,-1608.800546
415.764310,-5255.462188,-8956.491898,-3217.601092
415.764632,-3034.844362,-8364.327145,-3447.429741
415.764954,-2368.659014,-8364.327145,-2298.286494
415.765276,-2738.761985,-8290.306550,842.705048
415.765597,-2442.679609,-7105.977043,2911.162892
415.765919,0.000000,-7179.997637,1991.848295
415.766241,2664.741391,-6217.729913,76.609550
415.766563,4219.173869,-4737.318029,0.000000
415.766884,4219.173869,-3256.906145,306.438199
415.767206,4367.215058,-3701.029710,76.609550
415.767528,4811.338623,-6735.874072,-1072.533697
415.767850,3923.091493,-8956.491898,-2834.553343
415.768171,1258.350101,-10436.903782,-3907.087040
415.768493,-1110.308913,-12731.542202,-3677.258390
415.768815,-3108.864956,-15988.448347,-3447.429741
415.769137,-5699.585753,-16950.716072,-3983.696590
415.769458,-8290.306550,-15396.283594,-3677.258390
415.769780,-8882.471304,-13101.645173,-3677.258390
415.770102,-6217.729913,-11251.130318,-2911.162892
415.770424,-3552.988522,-8068.244768,-2604.724693
415.770745,-1480.411884,-5921.647536,-1608.800546
415.771067,1406.391290,-5551.544565,306.438199
415.771389,3478.967927,-7031.956449,1991.848295
415.771710,4441.235652,-8216.285956,2374.896044
415.772032,3552.988522,-8216.285956,1072.533697
415.772354,2516.700203,-8290.306550,-383.047749
415.772676,2516.700203,-8586.388927,-1225.752797
415.772997,3627.009116,-10658.965565,-3140.991542
415.773319,3627.009116,-11547.212695,-3830.477490
415.773641,1850.514855,-11177.109724,-2374.896044
415.773963,-666.185348,-12879.583391,-1149.143247
415.774284,-3478.967927,-14804.118840,-1915.238745
415.774606,-5329.482782,-14582.057057,-2451.505594
415.774928,-7031.956449,-11843.295072,-4596.572988
415.775250,-6439.791695,-9844.739029,-3983.696590
415.775571,-5033.400406,-9252.574275,-536.266849
415.775893,-3330.926739,-7328.038826,1991.848295
415.776215,-2072.576638,-6809.894666,2757.943793
415.776537,74.020594,-5921.647536,3064.381992
415.776858,2146.597232,-5329.482782,1225.752797
415.777180,2812.782580,-4737.318029,459.657299
415.777502,1776.494261,-4219.173869,1991.848295
415.777824,2294.638420,-3256.906145,2757.943793
415.778145,3701.029710,-3849.070898,-1455.581446
415.778467,4441.235652,-6291.750507,-3830.477490
415.778789,1776.494261,-8216.285956,-3064.381992
415.779111,-1702.473667,-11325.150913,-2681.334243
415.779432,-4515.256246,-15914.427753,-2451.505594
415.779754,-6217.729913,-18135.045579,-1072.533697
415.780076,-7698.141797,-14285.974681,-3370.820191
415.780398,-6217.729913,-9548.656652,-5439.278036
415.780719,-2146.597232,-6735.874072,-3830.477490
415.781041,814.226536,-4885.359217,-1838.629195
415.781363,1924.535449,-4071.132681,-1225.752797
415.781684,3478.967927,-6291.750507,1455.581446
415.782006,4959.379811,-9400.615463,1915.238745
415.782328,4737.318029,-11473.192101,-306.438199
415.782650,3775.050304,-10510.924376,-766.095498
415.782971,4663.297435,-7846.182985,-1072.533697
415.783293,5625.565159,-6883.915261,-2298.286494
415.783615,6217.729913,-6587.832884,-3983.696590
415.783937,4293.194464,-7550.100608,-3370.820191
415.784258,888.247130,-10362.883188,-3524.039291
415.784580,-3330.926739,-14211.954086,-3907.087040
415.784902,-6957.935855,-17690.922014,-3524.039291
415.785224,-9326.594869,-18209.066173,-4903.011187
415.785545,-9770.718434,-15396.283594,-6128.763984
415.785867,-7920.203579,-12509.480420,-5056.230287
415.786189,-5107.421000,-10510.924376,-2298.286494
415.786511,-3552.988522,-8068.244768,-536.266849
415.786832,-2072.576638,-6291.750507,-383.047749
415.787154,0.000000,-6217.729913,-459.657299
415.787476,1480.411884,-6217.729913,-766.095498
415.787798,1406.391290,-4959.379811,-1302.362347
415.788119,1406.391290,-4885.359217,-1915.238745
415.788441,2812.782580,-7105.977043,-1225.752797
415.788763,2442.679609,-9918.759623,-1532.190996
415.789085,1406.391290,-11621.233289,-1378.971896
415.789406,-444.123565,-12953.603985,-1378.971896
415.789728,-962.267725,-13693.809927,-1838.629195
415.790050,-1480.411884,-12287.418637,-3294.210641
415.790372,-2294.638420,-8438.347739,-2604.724693
415.790693,-1776.494261,-5699.585753,-2987.772442
415.791015,148.041188,-5403.503377,-3600.648841
415.791337,1184.329507,-7698.141797,-1532.190996
415.791658,888.247130,-9474.636058,1762.019645
415.791980,222.061783,-9622.677246,3294.210641
415.792302,1998.556043,-9844.739029,2451.505594
415.792624,4145.153275,-8808.450710,766.095498
415.792945,4441.235652,-6365.771101,383.047749
415.793267,3627.009116,-2886.803174,459.657299
415.793589,3849.070898,-2294.638420,459.657299
415.793911,3552.988522,-5181.441594,-1378.971896
415.794232,1776.494261,-8438.347739,-2681.334243
415.794554,-1850.514855,-10066.800811,-2681.334243
415.794876,-4293.194464,-13249.686362,-2374.896044
415.795198,-4885.359217,-16950.716072,-2757.943793
415.795519,-6883.915261,-16580.613101,-3217.601092
415.795841,-8438.347739,-13175.665768,-4136.915689
415.796163,-8364.327145,-9918.759623,-4060.306139
415.796485,-6291.750507,-9178.553681,-3753.867940
415.796806,-3997.112087,-8438.347739,-3217.601092
415.797128,-2146.597232,-7328.038826,-2528.115143
415.797450,-518.144159,-7994.224174,-536.266849
415.797772,1998.556043,-9770.718434,919.314598
415.798093,3256.906145,-10955.047942,306.438199
415.798415,3478.967927,-9844.739029,-383.047749
415.798737,4145.153275,-8808.450710,-536.266849
415.799059,4737.318029,-8068.244768,-1455.581446
415.799380,4737.318029,-8512.368333,-2451.505594
415.799702,3478.967927,-8586.388927,-1838.629195
415.800024,1406.391290,-10288.862594,-1302.362347
415.800346,-296.082377,-12509.480420,-1532.190996
415.800667,-1924.535449,-14730.098246,-1378.971896
415.800989,-3108.864956,-13767.830521,-1685.410096
415.801311,-4071.132681,-11621.233289,-2834.553343
415.801632,-2960.823768,-10214.842000,-2068.457845
415.801954,-1184.329507,-9474.636058,-229.828649
415.802276,296.082377,-7402.059420,1072.533697
415.802598,1036.288319,-5699.585753,0.000000
415.802919,2960.823768,-6291.750507,766.095498
415.803241,3997.112087,-7254.018232,842.705048
415.803563,3182.885551,-6735.874072,689.485948
415.803885,1258.350101,-6513.812290,459.657299
415.804206,1036.288319,-7328.038826,-153.219100
415.804528,444.123565,-9252.574275,-1991.848295
415.804850,-1110.308913,-9400.615463,-2604.724693
415.805172,-3478.967927,-8882.471304,-1378.971896
415.805493,-3923.091493,-10140.821405,-1302.362347
415.805815,-4071.132681,-11177.109724,-2451.505594
415.806137,-5255.462188,-10288.862594,-3294.210641
415.806459,-6439.791695,-8660.409521,-2987.772442
415.806780,-5995.668130,-8882.471304,-2451.505594
415.807102,-4737.318029,-9474.636058,-1838.629195
415.807424,-3182.885551,-8586.388927,-842.705048
415.807746,-1480.411884,-7772.162391,-995.924147
415.808067,1776.494261,-7254.018232,-612.876398
415.808389,4737.318029,-7772.162391,-1608.800546
415.808711,6069.688724,-8586.388927,-995.924147
415.809033,5921.647536,-7328.038826,229.828649
415.809354,5699.585753,-7254.018232,76.609550
415.809676,4737.318029,-8512.368333,-2068.457845
415.809998,3849.070898,-10066.800811,-3294.210641
415.810320,1184.329507,-11029.068536,-4213.525239
415.810641,-1480.411884,-12435.459826,-4290.134789
415.810963,-2146.597232,-14582.057057,-3447.429741
415.811285,-3256.906145,-14878.139434,-2221.676944
415.811606,-3997.112087,-12139.377449,-3217.601092
415.811928,-3775.050304,-10362.883188,-4826.401637
415.812250,-2368.659014,-10584.944971,-4596.572988
415.812572,-1480.411884,-9992.780217,-3064.381992
415.812893,-1184.329507,-9696.697840,-995.924147
415.813215,74.020594,-9844.739029,-612.876398
415.813537,1850.514855,-10362.883188,-1149.143247
415.813859,1924.535449,-9844.739029,-842.705048
415.814180,888.247130,-7772.162391,0.000000
415.814502,1258.350101,-6439.791695,-919.314598
415.814824,1628.453072,-6143.709319,-2528.115143
415.815146,666.185348,-7772.162391,-3064.381992
415.815467,-2072.576638,-8956.491898,-2298.286494
415.815789,-4663.297435,-9844.739029,-995.924147
415.816111,-5551.544565,-12583.501014,-689.485948
415.816433,-5625.565159,-13619.789333,-2451.505594
415.816754,-6439.791695,-11251.130318,-2834.553343
415.817076,-5921.647536,-8586.388927,-2911.162892
415.817398,-3997.112087,-7920.203579,-1915.238745
415.817719,-1924.535449,-7179.997637,-612.876398
415.818041,592.164754,-6957.935855,-306.438199
415.818363,2516.700203,-5921.647536,76.609550
415.818685,5329.482782,-6291.750507,766.095498
415.819006,7031.956449,-7179.997637,306.438199
415.819328,7402.059420,-7031.956449,612.876398
415.819650,7328.038826,-6735.874072,1302.362347
415.819972,7328.038826,-7476.080014,995.924147
415.820293,5551.544565,-8660.409521,0.000000
415.820615,2516.700203,-9326.594869,0.000000
415.820937,-666.185348,-8660.409521,153.219100
415.821258,-1406.391290,-9696.697840,-1302.362347
415.821580,-2294.638420,-10584.944971,-2145.067394
415.821902,-3701.029710,-9918.759623,-1762.019645
415.822224,-5477.523971,-9252.574275,-1838.629195
415.822545,-5921.647536,-10066.800811,-1685.410096
415.822867,-5403.503377,-11769.274478,-1685.410096
415.823189,-5255.462188,-12065.356855,-1378.971896
415.823510,-4515.256246,-10732.986159,-2145.067394
415.823832,-2368.659014,-9326.594869,-1532.190996
415.824154,518.144159,-8956.491898,-2221.676944
415.824476,2516.700203,-8734.430116,-3370.820191
415.824797,2738.761985,-8290.306550,-3524.039291
415.825119,2368.659014,-9918.759623,-2911.162892
415.825441,1998.556043,-12361.439231,-2528.115143
415.825763,74.020594,-14063.912898,-2451.505594
415.826084,-3034.844362,-14211.954086,-1991.848295
415.826406,-4441.235652,-13915.871710,-2374.896044
415.826728,-3997.112087,-12583.501014,-3370.820191
415.827049,-3775.050304,-10658.965565,-3294.210641
415.827371,-3404.947333,-9104.533087,-1762.019645
415.827693,-2960.823768,-7772.162391,-1455.581446
415.828015,-1628.453072,-7920.203579,-919.314598
415.828336,370.102971,-9474.636058,459.657299
415.828658,2590.720797,-9400.615463,919.314598
415.828980,4367.215058,-8660.409521,0.000000
415.829302,6365.771101,-8660.409521,306.438199
415.829623,6957.935855,-8216.285956,1378.971896
415.829945,6291.750507,-5995.668130,1225.752797
415.830267,5403.503377,-4515.256246,-383.047749
415.830588,4441.235652,-6069.688724,-1302.362347
415.830910,1998.556043,-8290.306550,-2298.286494
415.831232,-1554.432478,-8512.368333,-1532.190996
415.831554,-3701.029710,-9770.718434,-536.266849
415.831875,-4737.318029,-11621.233289,229.828649
415.832197,-5699.585753,-11991.336260,-1838.629195
415.832519,-7772.162391,-9696.697840,-1762.019645
415.832841,-8882.471304,-7105.977043,-1149.143247
415.833162,-7772.162391,-6661.853478,-383.047749
415.833484,-5477.523971,-6661.853478,-1302.362347
415.833806,-3182.885551,-6365.771101,-2221.676944
415.834127,-740.205942,-6735.874072,-1378.971896
415.834449,2072.576638,-7920.203579,383.047749
415.834771,4145.153275,-8216.285956,919.314598
415.835093,5699.585753,-7328.038826,0.000000
415.835414,6217.729913,-7105.977043,-2068.457845
415.835736,5995.668130,-9252.574275,-2987.772442
415.836058,4589.276840,-10955.047942,-3064.381992
415.836380,2812.782580,-12139.377449,-3447.429741
415.836701,1036.288319,-13027.624579,-2757.943793
415.837023,74.020594,-13027.624579,-1838.629195
415.837345,-1702.473667,-13175.665768,-2834.553343
415.837666,-3552.988522,-12435.459826,-3600.648841
415.837988,-5033.400406,-11399.171507,-3524.039291
415.838310,-4885.359217,-11917.315666,-3370.820191
415.838632,-3849.070898,-12435.459826,-2451.505594
415.838953,-2368.659014,-11769.274478,-2221.676944
415.839275,-444.123565,-9696.697840,-1072.533697
415.839597,2516.700203,-8364.327145,-689.485948
415.839919,4959.379811,-6661.853478,-1072.533697
415.840240,6069.688724,-5329.482782,-2374.896044
415.840562,4589.276840,-5403.503377,-1915.238745
415.840884,2664.741391,-8142.265362,-1072.533697
415.841205,1184.329507,-10288.862594,-1532.190996
415.841527,-740.205942,-11843.295072,-2451.505594
415.841849,-2812.782580,-12583.501014,-2374.896044
415.842171,-3923.091493,-12287.418637,-1915.238745
415.842492,-4367.215058,-12139.377449,-1378.971896
415.842814,-4145.153275,-11177.109724,-1532.190996
415.843136,-4663.297435,-8660.409521,-1532.190996
415.843458,-5033.400406,-6957.935855,-1072.533697
415.843779,-5181.441594,-6217.729913,0.000000
415.844101,-4293.194464,-7031.956449,612.876398
415.844423,-3108.864956,-6957.935855,459.657299
415.844744,-1036.288319,-7105.977043,0.000000
415.845066,1332.370696,-7772.162391,383.047749
415.845388,2812.782580,-7402.059420,919.314598
415.845710,4515.256246,-5921.647536,2145.067394
415.846031,5847.626942,-4441.235652,-612.876398
415.846353,7105.977043,-4589.276840,-3524.039291
415.846675,6291.750507,-7031.956449,-3600.648841
415.846997,3627.009116,-8956.491898,-1685.410096
415.847318,222.061783,-11029.068536,-1072.533697
415.847640,-1924.535449,-15026.180623,-1225.752797
415.847962,-4219.173869,-16654.633695,-536.266849
415.848283,-6365.771101,-13767.830521,-1149.143247
415.848605,-6513.812290,-10288.862594,-2451.505594
415.848927,-3701.029710,-8660.409521,-2834.553343
415.849249,-888.247130,-7254.018232,-2528.115143
415.849570,814.226536,-5921.647536,-995.924147
415.849892,1702.473667,-6291.750507,842.705048
415.850214,2738.761985,-8808.450710,1072.533697
415.850535,2812.782580,-10584.944971,-1225.752797
415.850857,1924.535449,-10140.821405,-2757.943793
415.851179,1702.473667,-9918.759623,-3217.601092
415.851501,2590.720797,-9992.780217,-3907.087040
415.851822,2368.659014,-11399.171507,-4290.134789
415.852144,222.061783,-12509.480420,-2528.115143
415.852466,-2442.679609,-13101.645173,-2374.896044
415.852788,-3552.988522,-13915.871710,-3753.867940
415.853109,-5107.421000,-14804.118840,-4673.182538
415.853431,-6513.812290,-14137.933492,-3217.601092
415.853753,-7550.100608,-10732.986159,-2221.676944
415.854074,-6143.709319,-8660.409521,-1455.581446
415.854396,-4589.276840,-8364.327145,-383.047749
415.854718,-2812.782580,-7402.059420,1225.752797
415.855040,-2146.597232,-6735.874072,1532.190996
415.855361,518.144159,-6587.832884,1149.143247
415.855683,3552.988522,-6291.750507,766.095498
415.856005,5477.523971,-4293.194464,689.485948
415.856327,7328.038826,-2960.823768,0.000000
415.856648,8956.491898,-4367.215058,-1762.019645
415.856970,8808.450710,-8956.491898,-2528.115143
415.857292,5181.441594,-11769.274478,-1225.752797
415.857613,296.082377,-13027.624579,919.314598
415.857935,-2442.679609,-14211.954086,689.485948
415.858257,-3404.947333,-14285.974681,-1149.143247
415.858579,-4145.153275,-11103.089130,-2834.553343
415.858900,-4441.235652,-7179.997637,-1838.629195
415.859222,-3478.967927,-5403.503377,0.000000
415.859544,-2294.638420,-4589.276840,1149.143247
415.859866,-2368.659014,-6143.709319,2221.676944
415.860187,-2664.741391,-7105.977043,2528.115143
415.860509,-2220.617826,-7698.141797,1225.752797
415.860831,-592.164754,-7624.121203,-459.657299
415.861152,1036.288319,-7105.977043,-459.657299
415.861474,2220.617826,-5329.482782,-536.266849
415.861796,3701.029710,-4811.338623,-2604.724693
415.862118,4293.194464,-6143.709319,-4596.572988
415.862439,2738.761985,-10881.027347,-5056.230287
415.862761,666.185348,-14508.036463,-3907.087040
415.863083,-1850.514855,-16950.716072,-3830.477490
415.863405,-4219.173869,-17912.983796,-4443.353888
415.863726,-5921.647536,-17912.983796,-4213.525239
415.864048,-6217.729913,-14285.974681,-3907.087040
415.864370,-6069.688724,-9992.780217,-4213.525239
415.864691,-4515.256246,-7772.162391,-3830.477490
415.865013,-2516.700203,-7105.977043,-1991.848295
415.865335,296.082377,-6957.935855,0.000000
415.865657,1776.494261,-7772.162391,689.485948
415.865978,3552.988522,-9474.636058,1532.190996
415.866300,5255.462188,-9400.615463,1072.533697
415.866622,5403.503377,-7550.100608,-766.095498
415.866944,4959.379811,-6661.853478,-1991.848295
415.867265,4885.359217,-7550.100608,-3140.991542
415.867587,3923.091493,-10658.965565,-4519.963438
415.867909,1184.329507,-12065.356855,-3907.087040
415.868230,-1332.370696,-13323.706956,-2604.724693
415.868552,-2886.803174,-14063.912898,-2834.553343
415.868874,-3849.070898,-14582.057057,-3600.648841
415.869196,-5403.503377,-13027.624579,-3983.696590
415.869517,-6883.915261,-10436.903782,-3983.696590
415.869839,-6883.915261,-9104.533087,-1378.971896
415.870161,-5847.626942,-8660.409521,842.705048
415.870483,-5477.523971,-7031.956449,1302.362347
415.870804,-3849.070898,-4737.318029,1762.019645
415.871126,-814.226536,-3552.988522,1455.581446
415.871448,1702.473667,-3034.844362,459.657299
415.871769,3478.967927,-3182.885551,612.876398
415.872091,3923.091493,-2516.700203,1915.238745
415.872413,4293.194464,-3552.988522,612.876398
415.872735,4441.235652,-6587.832884,-2374.896044
415.873056,3552.988522,-9844.739029,-3370.820191
415.873378,1924.535449,-11843.295072,-3064.381992
415.873700,-296.082377,-13101.645173,-2604.724693
415.874022,-888.247130,-15692.365970,-2221.676944
415.874343,-1332.370696,-15840.407159,-1915.238745
415.874665,-2294.638420,-13027.624579,-1838.629195
415.874987,-3108.864956,-9918.759623,-1378.971896
415.875308,-2072.576638,-8734.430116,-459.657299
415.875630,-1110.308913,-6809.894666,-689.485948
415.875952,296.082377,-5625.565159,306.438199
415.876274,2146.597232,-5847.626942,2451.505594
415.876595,3775.050304,-6217.729913,2451.505594
415.876917,4441.235652,-7846.182985,766.095498
415.877239,4441.235652,-9400.615463,383.047749
415.877560,3256.906145,-9178.553681,0.000000
415.877882,3182.885551,-9252.574275,-2451.505594
415.878204,2886.803174,-11547.212695,-4749.792088
415.878526,740.205942,-12435.459826,-3983.696590
415.878847,-2812.782580,-13619.789333,-2681.334243
415.879169,-4811.338623,-16136.489536,-3447.429741
415.879491,-6661.853478,-17987.004391,-3600.648841
415.879813,-7920.203579,-16210.510130,-3524.039291
415.880134,-9252.574275,-12065.356855,-3294.210641
415.880456,-7402.059420,-9696.697840,-1455.581446
415.880778,-5403.503377,-8364.327145,-153.219100
415.881099,-3478.967927,-6291.750507,536.266849
415.881421,-2294.638420,-4367.215058,2298.286494
415.881743,148.041188,-3627.009116,1991.848295
415.882065,2146.597232,-4071.132681,612.876398
415.882386,3404.947333,-5403.503377,0.000000
415.882708,3404.947333,-5181.441594,-306.438199
415.883030,4515.256246,-6661.853478,-1915.238745
415.883352,5699.585753,-10658.965565,-3753.867940
415.883673,4219.173869,-13175.665768,-3524.039291
415.883995,814.226536,-13101.645173,-1991.848295
415.884317,-1406.391290,-12953.603985,-1532.190996
415.884638,-1776.494261,-14211.954086,-2451.505594
415.884960,-2442.679609,-11917.315666,-4060.306139
415.885282,-3256.906145,-7772.162391,-4673.182538
415.885604,-2220.617826,-6439.791695,-1608.800546
415.885925,-148.041188,-7328.038826,1991.848295
415.886247,74.020594,-7476.080014,2451.505594
415.886569,296.082377,-5995.668130,1991.848295
415.886891,1554.432478,-5477.523971,2221.676944
415.887212,3923.091493,-6439.791695,689.485948
415.887534,4441.235652,-5995.668130,-1072.533697
415.887856,3404.947333,-4515.256246,0.000000
415.888177,3775.050304,-4515.256246,-919.314598
415.888499,4589.276840,-7846.182985,-3753.867940
415.888821,3330.926739,-11251.130318,-5132.839837
415.889143,-888.247130,-11917.315666,-3983.696590
415.889464,-4589.276840,-15026.180623,-3677.258390
415.889786,-6809.894666,-18135.045579,-3677.258390
415.890108,-8586.388927,-17987.004391,-4749.792088
415.890430,-9474.636058,-13989.892304,-5745.716235
415.890751,-9104.533087,-10140.821405,-5515.887586
415.891073,-6291.750507,-8586.388927,-2757.943793
415.891395,-4441.235652,-7772.162391,-1532.190996
415.891716,-2960.823768,-7031.956449,-459.657299
415.892038,-1406.391290,-7031.956449,995.924147
415.892360,962.267725,-7846.182985,995.924147
415.892682,2294.638420,-8586.388927,459.657299
415.893003,3775.050304,-7254.018232,-689.485948
415.893325,5551.544565,-6291.750507,-2757.943793
415.893647,7698.141797,-7476.080014,-3447.429741
415.893969,7920.203579,-10362.883188,-2911.162892
415.894290,5255.462188,-11473.192101,-2451.505594
415.894612,2220.617826,-12139.377449,-2451.505594
415.894934,1258.350101,-14285.974681,-3064.381992
415.895255,-444.123565,-15692.365970,-4290.134789
415.895577,-3256.906145,-14211.954086,-4060.306139
415.895899,-5255.462188,-11917.315666,-2068.457845
415.896221,-4071.132681,-9992.780217,0.000000
415.896542,-2072.576638,-8586.388927,766.095498
415.896864,-592.164754,-6291.750507,1378.971896
415.897186,148.041188,-4293.194464,2145.067394
415.897508,1702.473667,-3552.988522,2451.505594
415.897829,2812.782580,-3849.070898,2145.067394
415.898151,2516.700203,-4885.359217,2145.067394
415.898473,962.267725,-4219.173869,1991.848295
415.898794,592.164754,-5403.503377,383.047749
415.899116,666.185348,-7920.203579,-2528.115143
415.899438,666.185348,-9252.574275,-3064.381992
415.899760,-1184.329507,-9992.780217,-2911.162892
415.900081,-2812.782580,-12213.398043,-2604.724693
415.900403,-4737.318029,-14508.036463,-2068.457845
415.900725,-6957.935855,-13619.789333,-2451.505594
415.901047,-7846.182985,-11251.130318,-3677.258390
415.901368,-7031.956449,-10140.821405,-3677.258390
415.901690,-5033.400406,-9622.677246,-1915.238745
415.902012,-4293.194464,-8290.306550,76.609550
415.902333,-2072.576638,-5995.668130,2298.286494
415.902655,1850.514855,-4959.379811,2834.553343
415.902977,4959.379811,-5181.441594,612.876398
415.903299,5995.668130,-5847.626942,-1302.362347
415.903620,5403.503377,-6587.832884,459.657299
415.903942,5403.503377,-6957.935855,76.609550
415.904264,6365.771101,-10066.800811,-2987.772442
415.904585,5699.585753,-12139.377449,-4443.353888
415.904907,3478.967927,-12805.562797,-3524.039291
415.905229,518.144159,-13619.789333,-3447.429741
415.905551,-1036.288319,-17098.757260,-3677.258390
415.905872,-3034.844362,-18949.272115,-3830.477490
415.906194,-5255.462188,-15470.304188,-4596.572988
415.906516,-5625.565159,-11695.253884,-5209.449386
415.906838,-3182.885551,-11029.068536,-2068.457845
415.907159,-2368.659014,-9474.636058,-689.485948
415.907481,-2220.617826,-7105.977043,-153.219100
415.907803,-962.267725,-5995.668130,1455.581446
415.908124,1628.453072,-6587.832884,2298.286494
415.908446,2294.638420,-6809.894666,536.266849
415.908768,1480.411884,-6291.750507,-306.438199
415.909090,888.247130,-6439.791695,-306.438199
415.909411,1258.350101,-7624.121203,-536.266849
415.909733,1406.391290,-8956.491898,-1378.971896
415.910055,592.164754,-9548.656652,-3064.381992
415.910377,-962.267725,-8956.491898,-3447.429741
415.910698,-2886.803174,-9548.656652,-2451.505594
415.911020,-4589.276840,-11991.336260,-2221.676944
415.911342,-5329.482782,-12805.562797,-3600.648841
415.911663,-6143.709319,-10362.883188,-5209.449386
415.911985,-5255.462188,-10362.883188,-3753.867940
415.912307,-4589.276840,-10807.006753,-229.828649
415.912629,-3627.009116,-9548.656652,1915.238745
415.912950,-1480.411884,-7179.997637,1378.971896
415.913272,2442.679609,-4737.318029,919.314598
415.913594,6439.791695,-2886.803174,0.000000
415.913916,7328.038826,-2146.597232,-459.657299
415.914237,7254.018232,-2886.803174,459.657299
415.914559,7698.141797,-5403.503377,842.705048
415.914881,7254.018232,-8438.347739,-1225.752797
415.915202,5255.462188,-10510.924376,-2298.286494
415.915524,2738.761985,-13027.624579,-2451.505594
415.915846,74.020594,-14952.160028,-2374.896044
415.916168,-2886.803174,-15692.365970,-2298.286494
415.916489,-4959.379811,-14211.954086,-1991.848295
415.916811,-4811.338623,-10510.924376,-2834.553343
415.917133,-4219.173869,-8068.244768,-4596.572988
415.917455,-3108.864956,-8512.368333,-3983.696590
415.917776,-3775.050304,-9474.636058,-842.705048
415.918098,-4589.276840,-9548.656652,1838.629195
415.918420,-3034.844362,-9696.697840,2068.457845
415.918742,-814.226536,-9844.739029,536.266849
415.919063,-740.205942,-7994.224174,-1072.533697
415.919385,-1924.535449,-5625.565159,-1685.410096
415.919707,-1110.308913,-4737.318029,-1838.629195
415.920029,1258.350101,-6365.771101,-3370.820191
415.920350,1184.329507,-9474.636058,-4979.620737
415.920672,-1554.432478,-11695.253884,-4136.915689
415.920994,-4441.235652,-13323.706956,-2911.162892
415.921316,-4959.379811,-16506.592507,-3600.648841
415.921637,-5033.400406,-17690.922014,-5209.449386
415.921959,-5107.421000,-13841.851115,-5209.449386
415.922281,-4367.215058,-9844.739029,-4443.353888
415.922603,-962.267725,-9326.594869,-1991.848295
415.922924,1628.453072,-9178.553681,383.047749
415.923246,3182.885551,-7105.977043,1302.362347
415.923568,4811.338623,-4885.359217,1838.629195
415.923890,7550.100608,-5255.462188,3600.648841
415.924211,9178.553681,-6069.688724,1455.581446
415.924533,8216.285956,-5477.523971,536.266849
415.924855,6365.771101,-5329.482782,1762.019645
415.925177,5477.523971,-7105.977043,1149.143247
415.925498,4219.173869,-9252.574275,-1991.848295
415.925820,2442.679609,-10584.944971,-3600.648841
415.926142,-666.185348,-9770.718434,-3907.087040
415.926464,-3108.864956,-10436.903782,-3524.039291
415.926785,-4219.173869,-13027.624579,-3600.648841
415.927107,-6587.832884,-13841.851115,-3983.696590
415.927429,-9474.636058,-11399.171507,-5056.230287
415.927751,-10658.965565,-10732.986159,-3294.210641
415.928073,-9844.739029,-11399.171507,-536.266849
415.928394,-7920.203579,-10066.800811,-995.924147
