#time,accel_x,accel_y,accel_z
429.322895,-370.102971,-9326.594869,-1072.533697
429.323217,-370.102971,-9252.574275,-1072.533697
429.323540,-296.082377,-9326.594869,-1378.971896
429.323862,-296.082377,-8956.491898,-1149.143247
429.324185,-444.123565,-9474.636058,-1915.238745
429.324507,-518.144159,-9252.574275,-1378.971896
429.324830,-444.123565,-9252.574275,-1302.362347
429.325152,-370.102971,-9252.574275,-1455.581446
429.325475,-222.061783,-9326.594869,-919.314598
429.325797,-518.144159,-9104.533087,-1532.190996
429.326120,-370.102971,-9474.636058,-1455.581446
429.326442,-518.144159,-9326.594869,-1532.190996
429.326765,-444.123565,-9474.636058,-1455.581446
429.327087,-296.082377,-9252.574275,-1532.190996
429.327410,-222.061783,-9252.574275,-2374.896044
429.327732,-666.185348,-9030.512492,-1455.581446
429.328055,-370.102971,-9252.574275,-1532.190996
429.328377,-370.102971,-9252.574275,-1838.629195
429.328700,-370.102971,-9326.594869,-1685.410096
429.329022,-296.082377,-9178.553681,-2068.457845
429.329344,-296.082377,-9252.574275,-1378.971896
429.329667,-444.123565,-9400.615463,-1838.629195
429.329989,-296.082377,-9252.574275,-2221.676944
429.330312,-370.102971,-9030.512492,-1685.410096
429.330634,-222.061783,-9104.533087,-1915.238745
429.330957,0.000000,-9252.574275,-1532.190996
429.331279,-296.082377,-9474.636058,-1685.410096
429.331602,-370.102971,-9474.636058,-1915.238745
429.331924,-296.082377,-9474.636058,-1838.629195
429.332247,-222.061783,-9474.636058,-1838.629195
429.332569,-222.061783,-9178.553681,-2145.067394
429.332892,0.000000,-8956.491898,-1608.800546
429.333214,-296.082377,-9326.594869,-1915.238745
429.333537,0.000000,-9400.615463,-1838.629195
429.333859,-222.061783,-9474.636058,-1915.238745
429.334182,-296.082377,-9178.553681,-1762.019645
429.334504,-814.226536,-9252.574275,-1685.410096
429.334827,-518.144159,-9474.636058,-1685.410096
429.335149,-592.164754,-9548.656652,-1762.019645
429.335471,-296.082377,-9474.636058,-1915.238745
429.335794,-148.041188,-9400.615463,-1762.019645
429.336116,0.000000,-9400.615463,-1455.581446
429.336439,-148.041188,-9400.615463,-1762.019645
429.336761,-444.123565,-9474.636058,-1608.800546
429.337084,-518.144159,-9474.636058,-1838.629195
429.337406,-444.123565,-9548.656652,-1685.410096
429.337729,-1110.308913,-9474.636058,-1225.752797
429.338051,0.000000,-9918.759623,-1915.238745
429.338374,-370.102971,-9474.636058,-1608.800546
429.338696,-444.123565,-9326.594869,-1455.581446
429.339019,-592.164754,-9104.533087,-1608.800546
429.339341,-296.082377,-9474.636058,-1455.581446
429.339664,-74.020594,-9400.615463,-995.924147
429.339986,740.205942,-9622.677246,-1532.190996
429.340309,1924.535449,-9918.759623,-1685.410096
429.340631,2442.679609,-9548.656652,-689.485948
429.340954,1850.514855,-8956.491898,153.219100
429.341276,1036.288319,-8660.409521,-766.095498
429.341598,0.000000,-8586.388927,-1378.971896
429.341921,-1332.370696,-9104.533087,-2068.457845
429.342243,-2516.700203,-9770.718434,-1685.410096
429.342566,-3552.988522,-9918.759623,-1915.238745
429.342888,-2960.823768,-9770.718434,-2298.286494
429.343211,-1110.308913,-9770.718434,-2298.286494
429.343533,1554.432478,-11029.068536,-1608.800546
429.343856,2960.823768,-10807.006753,-153.219100
429.344178,2664.741391,-9104.533087,459.657299
429.344501,2220.617826,-8068.244768,-229.828649
429.344823,2368.659014,-8586.388927,-1532.190996
429.345146,2738.761985,-9622.677246,-2451.505594
429.345468,1998.556043,-9622.677246,-1378.971896
429.345791,148.041188,-8068.244768,0.000000
429.346113,74.020594,-7328.038826,-306.438199
429.346436,1406.391290,-8660.409521,-1762.019645
429.346758,1628.453072,-9770.718434,-1762.019645
429.347081,0.000000,-9474.636058,-536.266849
429.347403,-1184.329507,-8512.368333,-689.485948
429.347726,-888.247130,-8882.471304,-3217.601092
429.348048,74.020594,-9844.739029,-3064.381992
429.348370,148.041188,-10140.821405,-1532.190996
429.348693,148.041188,-10955.047942,-689.485948
429.349015,1258.350101,-9844.739029,-2068.457845
429.349338,3034.844362,-9030.512492,-2604.724693
429.349660,4293.194464,-10436.903782,-1608.800546
429.349983,4515.256246,-11103.089130,-306.438199
429.350305,3108.864956,-9400.615463,-612.876398
429.350628,2590.720797,-7920.203579,-1378.971896
429.350950,2886.803174,-8216.285956,-1225.752797
429.351273,2738.761985,-8660.409521,-1762.019645
429.351595,2146.597232,-8216.285956,-1225.752797
429.351918,1036.288319,-7772.162391,-1455.581446
429.352240,1924.535449,-9474.636058,-1225.752797
429.352563,2812.782580,-10658.965565,-1455.581446
429.352885,2960.823768,-9548.656652,-1838.629195
429.353208,2220.617826,-9326.594869,-2298.286494
429.353530,2442.679609,-10140.821405,-1225.752797
429.353853,3182.885551,-9770.718434,-1685.410096
429.354175,2960.823768,-9474.636058,-2681.334243
429.354497,2294.638420,-9474.636058,-2528.115143
429.354820,2442.679609,-10436.903782,-1762.019645
429.355142,3256.906145,-9622.677246,-1455.581446
429.355465,2886.803174,-9400.615463,-2451.505594
429.355787,2664.741391,-9474.636058,-1991.848295
429.356110,2368.659014,-8882.471304,-1072.533697
429.356432,1776.494261,-7772.162391,-1072.533697
429.356755,740.205942,-7476.080014,-1608.800546
429.357077,0.000000,-8586.388927,-2145.067394
429.357400,-666.185348,-9474.636058,-1915.238745
429.357722,-888.247130,-10214.842000,-1455.581446
429.358045,-888.247130,-10955.047942,-1225.752797
429.358367,-148.041188,-11917.315666,-1378.971896
429.358690,666.185348,-11769.274478,-459.657299
429.359012,666.185348,-10955.047942,0.000000
429.359335,888.247130,-10288.862594,-383.047749
429.359657,1480.411884,-9474.636058,-842.705048
429.359980,1850.514855,-8364.327145,-995.924147
429.360302,2072.576638,-7994.224174,-689.485948
429.360624,2072.576638,-8290.306550,-612.876398
429.360947,1924.535449,-8364.327145,-766.095498
429.361269,2072.576638,-8512.368333,-612.876398
429.361592,1776.494261,-8734.430116,-383.047749
429.361914,1850.514855,-8290.306550,-919.314598
429.362237,2072.576638,-7994.224174,-2145.067394
429.362559,1924.535449,-8586.388927,-1838.629195
429.362882,1850.514855,-9178.553681,-1149.143247
429.363204,1628.453072,-9178.553681,-1302.362347
429.363527,1406.391290,-9400.615463,-2145.067394
429.363849,1184.329507,-10288.862594,-2374.896044
429.364172,1332.370696,-11473.192101,-1838.629195
429.364494,888.247130,-11621.233289,-1225.752797
429.364817,962.267725,-11103.089130,-1302.362347
429.365139,1554.432478,-10807.006753,-1302.362347
429.365462,2072.576638,-10140.821405,-689.485948
429.365784,3108.864956,-9030.512492,0.000000
429.366107,3627.009116,-8290.306550,-153.219100
429.366429,4885.359217,-7624.121203,-612.876398
429.366751,6365.771101,-7624.121203,-1225.752797
429.367074,6957.935855,-7772.162391,-1378.971896
429.367396,6957.935855,-8956.491898,-1225.752797
429.367719,5403.503377,-8956.491898,-689.485948
429.368041,4515.256246,-9992.780217,-1762.019645
429.368364,3330.926739,-11103.089130,-2604.724693
429.368686,1702.473667,-11843.295072,-2221.676944
429.369009,444.123565,-11325.150913,-1072.533697
429.369331,-296.082377,-10955.047942,-1225.752797
429.369654,-592.164754,-9400.615463,-536.266849
429.369976,-592.164754,-8438.347739,-766.095498
429.370299,-296.082377,-7179.997637,-919.314598
429.370621,0.000000,-6587.832884,-1378.971896
429.370944,296.082377,-6143.709319,-1302.362347
429.371266,888.247130,-7105.977043,-1532.190996
429.371589,1110.308913,-7994.224174,-1991.848295
429.371911,592.164754,-9326.594869,-1838.629195
429.372234,148.041188,-10510.924376,-1762.019645
429.372556,444.123565,-11103.089130,-2145.067394
429.372879,370.102971,-10955.047942,-2834.553343
429.373201,296.082377,-10140.821405,-2987.772442
429.373523,-148.041188,-9326.594869,-3064.381992
429.373846,-740.205942,-9844.739029,-2604.724693
429.374168,-1850.514855,-10881.027347,-2221.676944
429.374491,-3182.885551,-11547.212695,-1685.410096
429.374813,-3701.029710,-11917.315666,-2451.505594
429.375136,-3034.844362,-11695.253884,-1608.800546
429.375458,-2294.638420,-11029.068536,-842.705048
429.375781,-1036.288319,-9696.697840,-612.876398
429.376103,370.102971,-7846.182985,0.000000
429.376426,1628.453072,-6513.812290,383.047749
429.376748,3552.988522,-5699.585753,-766.095498
429.377071,4959.379811,-6291.750507,-1991.848295
429.377393,5477.523971,-7179.997637,-1991.848295
429.377716,5107.421000,-7624.121203,-1608.800546
429.378038,5107.421000,-8660.409521,-2528.115143
429.378361,5773.606348,-11695.253884,-3064.381992
429.378683,6217.729913,-13545.768739,-3217.601092
429.379006,4589.276840,-12435.459826,-1915.238745
429.379328,1850.514855,-11029.068536,-689.485948
429.379650,-370.102971,-9622.677246,-536.266849
429.379973,-2220.617826,-9992.780217,-2451.505594
429.380295,-4663.297435,-9474.636058,-2604.724693
429.380618,-6809.894666,-7994.224174,-612.876398
429.380940,-7846.182985,-6809.894666,-1532.190996
429.381263,-6291.750507,-8142.265362,-3217.601092
429.381585,-1850.514855,-9548.656652,-1455.581446
429.381908,2738.761985,-8956.491898,-1991.848295
429.382230,5921.647536,-10140.821405,-3370.820191
429.382553,9548.656652,-11029.068536,-1072.533697
429.382875,12361.439231,-10436.903782,76.609550
429.383198,13989.892304,-9252.574275,-1225.752797
429.383520,14285.974681,-8512.368333,-1608.800546
429.383843,13397.727550,-8068.244768,-1455.581446
429.384165,10658.965565,-9104.533087,-1532.190996
429.384488,7031.956449,-10140.821405,229.828649
429.384810,2220.617826,-10214.842000,1532.190996
429.385133,-2146.597232,-11621.233289,153.219100
429.385455,-4367.215058,-12065.356855,-153.219100
429.385777,-6883.915261,-11473.192101,459.657299
429.386100,-8882.471304,-9548.656652,2451.505594
429.386422,-9844.739029,-4441.235652,2451.505594
429.386745,-7994.224174,-3256.906145,-459.657299
429.387067,-3849.070898,-3627.009116,-2068.457845
429.387390,518.144159,-5107.421000,-3753.867940
429.387712,3330.926739,-8660.409521,-4366.744339
429.388035,5699.585753,-12361.439231,-2221.676944
429.388357,7550.100608,-13989.892304,-689.485948
429.388680,7994.224174,-13545.768739,-1608.800546
429.389002,6513.812290,-11769.274478,-3753.867940
429.389325,4145.153275,-10362.883188,-4979.620737
429.389647,1924.535449,-8660.409521,-6281.983084
429.389970,222.061783,-7402.059420,-5439.278036
429.390292,-2294.638420,-8142.265362,-2911.162892
429.390614,-4663.297435,-11029.068536,1149.143247
429.390937,-7402.059420,-12731.542202,2374.896044
429.391259,-8882.471304,-12879.583391,1378.971896
429.391582,-8660.409521,-9992.780217,766.095498
429.391904,-6291.750507,-6291.750507,-383.047749
429.392227,-2146.597232,-6069.688724,-1302.362347
429.392549,3923.091493,-6143.709319,766.095498
429.392872,8586.388927,-4293.194464,153.219100
429.393194,10362.883188,-6439.791695,-2451.505594
429.393516,10658.965565,-11251.130318,-306.438199
429.393839,8142.265362,-13693.809927,-229.828649
429.394161,3775.050304,-12953.603985,-4673.182538
429.394484,-518.144159,-12953.603985,-7277.907231
429.394806,-4515.256246,-13249.686362,-5745.716235
429.395129,-8956.491898,-12953.603985,-3524.039291
429.395451,-11991.336260,-10066.800811,-1608.800546
429.395774,-14508.036463,-5921.647536,-1762.019645
429.396096,-13471.748144,-5403.503377,-3753.867940
429.396419,-9104.533087,-6069.688724,-4443.353888
429.396741,-5625.565159,-7550.100608,-2221.676944
429.397063,-4293.194464,-9770.718434,1685.410096
429.397386,-740.205942,-9474.636058,2987.772442
429.397708,4145.153275,-7031.956449,1455.581446
429.398031,7476.080014,-5329.482782,-459.657299
429.398353,7624.121203,-4737.318029,-1378.971896
429.398676,5255.462188,-6957.935855,-1762.019645
429.398998,2812.782580,-10807.006753,-1991.848295
429.399321,1332.370696,-11177.109724,-2145.067394
429.399643,0.000000,-10955.047942,-4519.963438
429.399965,-962.267725,-13027.624579,-5975.544884
429.400288,-1480.411884,-14137.933492,-4213.525239
429.400610,-2294.638420,-11325.150913,-3064.381992
429.400933,-2146.597232,-11843.295072,-1838.629195
429.401255,-1554.432478,-11917.315666,-689.485948
429.401578,-148.041188,-10214.842000,-612.876398
429.401900,1110.308913,-7624.121203,-1532.190996
429.402223,2812.782580,-7105.977043,-459.657299
429.402545,4293.194464,-7994.224174,1149.143247
429.402867,4219.173869,-8068.244768,1915.238745
429.403190,2664.741391,-8882.471304,1915.238745
429.403512,518.144159,-10288.862594,1149.143247
429.403835,-814.226536,-9474.636058,-842.705048
429.404157,-1628.453072,-8068.244768,-2374.896044
429.404480,-1332.370696,-6883.915261,-3447.429741
429.404802,-370.102971,-6661.853478,-3524.039291
429.405125,-222.061783,-7179.997637,-2604.724693
429.405447,0.000000,-8216.285956,-1149.143247
429.405770,518.144159,-9844.739029,-1762.019645
429.406092,740.205942,-11029.068536,-3370.820191
429.406414,444.123565,-12065.356855,-3830.477490
429.406737,-370.102971,-12435.459826,-2145.067394
429.407059,-740.205942,-12509.480420,-229.828649
429.407382,-74.020594,-12287.418637,383.047749
429.407704,740.205942,-11177.109724,383.047749
429.408027,962.267725,-8956.491898,536.266849
429.408349,1184.329507,-6291.750507,612.876398
429.408672,1776.494261,-4737.318029,153.219100
429.408994,2072.576638,-3923.091493,306.438199
429.409316,2294.638420,-5699.585753,383.047749
429.409639,1332.370696,-6957.935855,536.266849
429.409961,888.247130,-8660.409521,-842.705048
429.410284,444.123565,-10584.944971,-2298.286494
429.410606,148.041188,-12435.459826,-1532.190996
429.410929,-740.205942,-12657.521608,-1378.971896
429.411251,-1998.556043,-10732.986159,-2145.067394
429.411574,-2590.720797,-10140.821405,-3064.381992
429.411896,-2294.638420,-11621.233289,-3064.381992
429.412218,-3478.967927,-11843.295072,-2145.067394
429.412541,-5625.565159,-10140.821405,-1608.800546
429.412863,-7031.956449,-8364.327145,-1915.238745
429.413186,-4885.359217,-7994.224174,-2451.505594
429.413508,-2220.617826,-6735.874072,-2604.724693
429.413831,-666.185348,-5329.482782,-2451.505594
429.414153,74.020594,-5477.523971,-1915.238745
429.414476,1184.329507,-6291.750507,-1378.971896
429.414798,2146.597232,-8068.244768,-1378.971896
429.415121,1332.370696,-9918.759623,-1915.238745
429.415443,-592.164754,-11251.130318,-2528.115143
429.415765,-1332.370696,-12287.418637,-3753.867940
429.416088,-1924.535449,-12879.583391,-3830.477490
429.416410,-1554.432478,-13249.686362,-2298.286494
429.416733,-1554.432478,-11399.171507,-1838.629195
429.417055,-1554.432478,-9696.697840,-2604.724693
429.417378,-592.164754,-9474.636058,-2757.943793
429.417700,0.000000,-9548.656652,-2145.067394
429.418023,0.000000,-10362.883188,-1915.238745
429.418345,444.123565,-10362.883188,-919.314598
429.418667,1480.411884,-9474.636058,0.000000
429.418990,2738.761985,-8068.244768,-153.219100
429.419312,3330.926739,-7624.121203,-536.266849
429.419635,2886.803174,-8364.327145,-766.095498
429.419957,1406.391290,-8290.306550,-689.485948
429.420280,-888.247130,-8956.491898,-842.705048
429.420602,-3330.926739,-9474.636058,-1072.533697
429.420925,-5995.668130,-8808.450710,-1532.190996
429.421247,-7105.977043,-7772.162391,-2604.724693
429.421570,-6217.729913,-8216.285956,-3983.696590
429.421892,-5033.400406,-7624.121203,-4443.353888
429.422214,-3182.885551,-7402.059420,-3677.258390
429.422537,-1184.329507,-8216.285956,-2528.115143
429.422859,1258.350101,-9622.677246,-229.828649
429.423182,3034.844362,-11177.109724,-766.095498
429.423504,2886.803174,-11177.109724,-1685.410096
429.423827,2294.638420,-11177.109724,-1685.410096
429.424149,1702.473667,-11029.068536,-1378.971896
429.424472,1406.391290,-9992.780217,-1455.581446
429.424794,1258.350101,-9400.615463,-766.095498
429.425116,1036.288319,-8734.430116,-229.828649
429.425439,1406.391290,-8142.265362,0.000000
429.425761,1702.473667,-7994.224174,-306.438199
429.426084,1406.391290,-8512.368333,0.000000
429.426406,1110.308913,-8290.306550,536.266849
429.426729,518.144159,-8216.285956,0.000000
429.427051,814.226536,-8438.347739,-536.266849
429.427374,1258.350101,-9992.780217,-1225.752797
429.427696,1332.370696,-10732.986159,-1149.143247
429.428018,592.164754,-11473.192101,-842.705048
429.428341,-592.164754,-11917.315666,-459.657299
429.428663,-888.247130,-12509.480420,-1072.533697
429.428986,-1776.494261,-11769.274478,-2068.457845
429.429308,-3552.988522,-9918.759623,-1762.019645
429.429631,-4811.338623,-7402.059420,-1225.752797
429.429953,-3997.112087,-5847.626942,-2528.115143
429.430276,-2516.700203,-5255.462188,-3600.648841
429.430598,-1702.473667,-5477.523971,-2757.943793
429.430921,-1554.432478,-6365.771101,-1685.410096
429.431243,-814.226536,-7624.121203,-995.924147
429.431565,888.247130,-9992.780217,-1455.581446
429.431888,1850.514855,-11325.150913,-1991.848295
429.432210,1406.391290,-11473.192101,-1838.629195
429.432533,444.123565,-10140.821405,-1149.143247
429.432855,-444.123565,-9770.718434,-1072.533697
429.433178,-888.247130,-9992.780217,-1378.971896
429.433500,-1036.288319,-10288.862594,-2604.724693
429.433823,-1184.329507,-10140.821405,-2298.286494
429.434145,-1036.288319,-9030.512492,-1762.019645
429.434467,-888.247130,-9474.636058,-1072.533697
429.434790,-222.061783,-9474.636058,0.000000
429.435112,0.000000,-8438.347739,229.828649
429.435435,1258.350101,-8586.388927,-1838.629195
429.435757,2442.679609,-9326.594869,-2145.067394
429.436080,2664.741391,-9622.677246,-1302.362347
429.436402,1850.514855,-9844.739029,-536.266849
429.436725,1332.370696,-10362.883188,153.219100
429.437047,888.247130,-10732.986159,-689.485948
429.437369,74.020594,-11325.150913,-2757.943793
429.437692,-1554.432478,-10510.924376,-2681.334243
429.438014,-3997.112087,-8808.450710,-1532.190996
429.438337,-5699.585753,-7846.182985,-2298.286494
429.438659,-5255.462188,-7328.038826,-3524.039291
429.438982,-4663.297435,-6957.935855,-3753.867940
429.439304,-3552.988522,-6291.750507,-4290.134789
429.439627,-2294.638420,-7254.018232,-3294.210641
429.439949,-888.247130,-8956.491898,-2145.067394
429.440272,74.020594,-9770.718434,-1149.143247
429.440594,444.123565,-10658.965565,-1915.238745
429.440916,-148.041188,-10807.006753,-2681.334243
429.441239,-1184.329507,-11029.068536,-3524.039291
429.441561,-1702.473667,-11029.068536,-3600.648841
429.441884,-1850.514855,-10955.047942,-2451.505594
429.442206,-1628.453072,-10955.047942,-1378.971896
429.442529,-1036.288319,-9696.697840,-1378.971896
429.442851,0.000000,-8660.409521,-1302.362347
429.443174,1628.453072,-9104.533087,-1072.533697
429.443496,2516.700203,-8882.471304,-919.314598
429.443818,3256.906145,-9326.594869,-536.266849
429.444141,3478.967927,-9030.512492,766.095498
429.444463,4367.215058,-9474.636058,919.314598
429.444786,4737.318029,-10066.800811,0.000000
429.445108,3997.112087,-10066.800811,-459.657299
429.445431,2738.761985,-10288.862594,0.000000
429.445753,962.267725,-10288.862594,153.219100
429.446076,-1258.350101,-9696.697840,0.000000
429.446398,-3923.091493,-8882.471304,-1072.533697
429.446720,-6217.729913,-6809.894666,-1608.800546
429.447043,-7031.956449,-6069.688724,-2298.286494
429.447365,-5033.400406,-6735.874072,-4596.572988
429.447688,-3997.112087,-7031.956449,-4673.182538
429.448010,-2738.761985,-8438.347739,-2604.724693
429.448333,-1258.350101,-9918.759623,-766.095498
429.448655,666.185348,-10658.965565,-919.314598
429.448978,1554.432478,-10955.047942,-1685.410096
429.449300,1332.370696,-10214.842000,-1762.019645
429.449623,1036.288319,-10732.986159,-1608.800546
429.449945,740.205942,-10214.842000,-1455.581446
429.450267,222.061783,-9548.656652,-1149.143247
429.450590,-148.041188,-8956.491898,153.219100
429.450912,0.000000,-8290.306550,612.876398
429.451235,592.164754,-7772.162391,-229.828649
429.451557,518.144159,-7624.121203,-995.924147
429.451880,592.164754,-8882.471304,0.000000
429.452202,1554.432478,-9474.636058,612.876398
429.452525,1850.514855,-9178.553681,0.000000
429.452847,2442.679609,-9104.533087,-1072.533697
429.453169,2442.679609,-10066.800811,-1455.581446
429.453492,2294.638420,-11473.192101,-1149.143247
429.453814,962.267725,-11769.274478,-1378.971896
429.454137,-962.267725,-11177.109724,-1838.629195
429.454459,-2664.741391,-10955.047942,-2757.943793
429.454782,-5181.441594,-10436.903782,-2834.553343
429.455104,-7402.059420,-8808.450710,-3447.429741
429.455427,-8438.347739,-7105.977043,-4596.572988
429.455749,-6513.812290,-7624.121203,-5056.230287
429.456071,-5255.462188,-6291.750507,-3753.867940
429.456394,-3775.050304,-7550.100608,-2604.724693
429.456716,-2368.659014,-8142.265362,-1838.629195
429.457039,0.000000,-9326.594869,-1685.410096
429.457361,1998.556043,-10510.924376,-2221.676944
429.457684,2368.659014,-10436.903782,-2298.286494
429.458006,1258.350101,-9992.780217,-2374.896044
429.458329,814.226536,-10140.821405,-2221.676944
429.458651,296.082377,-11325.150913,-1991.848295
429.458974,0.000000,-11843.295072,-1378.971896
429.459296,-296.082377,-10066.800811,-919.314598
429.459618,592.164754,-8438.347739,-2451.505594
429.459941,1258.350101,-8216.285956,-2221.676944
429.460263,1406.391290,-9252.574275,-919.314598
429.460586,1850.514855,-9992.780217,0.000000
429.460908,1998.556043,-9326.594869,-612.876398
429.461231,2590.720797,-8364.327145,-536.266849
429.461553,3034.844362,-9474.636058,-1225.752797
429.461876,2886.803174,-10066.800811,-1608.800546
429.462198,1258.350101,-10658.965565,-689.485948
429.462520,0.000000,-11103.089130,-306.438199
429.462843,-592.164754,-10955.047942,-995.924147
429.463165,-2516.700203,-9474.636058,-2298.286494
429.463488,-4737.318029,-7772.162391,-2604.724693
429.463810,-5625.565159,-6513.812290,-2681.334243
429.464133,-5477.523971,-5995.668130,-3447.429741
429.464455,-4071.132681,-7105.977043,-3524.039291
429.464778,-3404.947333,-7328.038826,-2528.115143
429.465100,-1406.391290,-8586.388927,-2221.676944
429.465422,0.000000,-9918.759623,-1762.019645
429.465745,1702.473667,-10214.842000,-1149.143247
429.466067,2368.659014,-10288.862594,-1685.410096
429.466390,2072.576638,-9992.780217,-1762.019645
429.466712,1998.556043,-9844.739029,-1762.019645
429.467035,1406.391290,-10066.800811,-1302.362347
429.467357,518.144159,-10362.883188,-459.657299
429.467680,0.000000,-10807.006753,153.219100
429.468002,-444.123565,-9030.512492,76.609550
429.468325,148.041188,-8216.285956,-1225.752797
429.468647,148.041188,-7994.224174,-919.314598
429.468969,1110.308913,-8438.347739,76.609550
429.469292,1554.432478,-9030.512492,153.219100
429.469614,1628.453072,-9252.574275,0.000000
429.469937,1924.535449,-9622.677246,0.000000
429.470259,1776.494261,-10436.903782,-306.438199
429.470582,1332.370696,-10732.986159,-1072.533697
429.470904,666.185348,-11029.068536,-2068.457845
429.471227,0.000000,-10955.047942,-1378.971896
429.471549,-1332.370696,-10140.821405,-612.876398
429.471871,-3330.926739,-8364.327145,-842.705048
429.472194,-5033.400406,-7254.018232,-2068.457845
429.472516,-5699.585753,-7105.977043,-3064.381992
429.472839,-5255.462188,-7179.997637,-3830.477490
429.473161,-4441.235652,-7846.182985,-2987.772442
429.473484,-3182.885551,-8438.347739,-1991.848295
429.473806,-1480.411884,-8364.327145,-1302.362347
429.474129,814.226536,-9030.512492,-995.924147
429.474451,2368.659014,-8956.491898,-1608.800546
429.474773,2220.617826,-9178.553681,-2221.676944
429.475096,1332.370696,-9992.780217,-1608.800546
429.475418,1036.288319,-10732.986159,-1532.190996
429.475741,296.082377,-11473.192101,-1915.238745
429.476063,-444.123565,-11251.130318,-1378.971896
429.476386,-888.247130,-10140.821405,-612.876398
429.476708,-518.144159,-8956.491898,-1838.629195
429.477031,-296.082377,-8808.450710,-1762.019645
429.477353,222.061783,-8586.388927,-2068.457845
429.477676,296.082377,-8956.491898,-1302.362347
429.477998,814.226536,-8734.430116,0.000000
429.478320,1776.494261,-8734.430116,0.000000
429.478643,2516.700203,-9252.574275,-2221.676944
429.478965,3478.967927,-10955.047942,-2757.943793
429.479288,2516.700203,-11399.171507,-1149.143247
429.479610,1110.308913,-11029.068536,76.609550
429.479933,-962.267725,-10510.924376,-766.095498
429.480255,-3182.885551,-9400.615463,-1532.190996
429.480578,-5551.544565,-8142.265362,-3064.381992
429.480900,-7031.956449,-6957.935855,-4060.306139
429.481222,-7476.080014,-6883.915261,-4443.353888
429.481545,-5403.503377,-7698.141797,-3830.477490
429.481867,-3849.070898,-7105.977043,-2987.772442
429.482190,-2368.659014,-7624.121203,-2221.676944
429.482512,-296.082377,-9474.636058,-2451.505594
429.482835,1850.514855,-11177.109724,-3140.991542
429.483157,2368.659014,-11103.089130,-3217.601092
429.483480,1776.494261,-9918.759623,-2374.896044
429.483802,814.226536,-10362.883188,-1991.848295
429.484124,-148.041188,-11399.171507,-2221.676944
429.484447,-592.164754,-11621.233289,-1608.800546
429.484769,-1110.308913,-10584.944971,-1225.752797
429.485092,-592.164754,-9400.615463,-1532.190996
429.485414,0.000000,-7920.203579,-1149.143247
429.485737,1702.473667,-8586.388927,-383.047749
429.486059,3034.844362,-8882.471304,459.657299
429.486382,3775.050304,-9178.553681,766.095498
429.486704,4293.194464,-8660.409521,536.266849
429.487027,4367.215058,-8512.368333,229.828649
429.487349,4293.194464,-9770.718434,-306.438199
429.487671,2664.741391,-10214.842000,536.266849
429.487994,518.144159,-10732.986159,306.438199
429.488316,-666.185348,-11103.089130,-383.047749
429.488639,-2146.597232,-10658.965565,-1072.533697
429.488961,-4145.153275,-8734.430116,-1915.238745
429.489284,-6217.729913,-6957.935855,-1991.848295
429.489606,-6587.832884,-6735.874072,-2451.505594
429.489928,-5847.626942,-6069.688724,-2834.553343
429.490251,-4293.194464,-6809.894666,-3370.820191
429.490573,-3034.844362,-7254.018232,-3983.696590
429.490896,-1850.514855,-8438.347739,-1302.362347
429.491218,222.061783,-9992.780217,-919.314598
429.491541,1776.494261,-10436.903782,-1225.752797
429.491863,2368.659014,-10510.924376,-1302.362347
429.492185,2146.597232,-9918.759623,-1532.190996
429.492508,1480.411884,-10584.944971,-1149.143247
429.492830,370.102971,-10584.944971,-612.876398
429.493153,-666.185348,-10066.800811,-536.266849
429.493475,-814.226536,-9252.574275,-842.705048
429.493797,0.000000,-8364.327145,-689.485948
429.494120,296.082377,-8068.244768,-689.485948
429.494442,1184.329507,-8216.285956,-306.438199
429.494765,2146.597232,-9178.553681,-459.657299
429.495087,3552.988522,-9622.677246,-536.266849
429.495409,4219.173869,-9844.739029,-842.705048
429.495732,3997.112087,-10214.842000,-1378.971896
429.496054,2812.782580,-10955.047942,-459.657299
429.496377,1036.288319,-11029.068536,-766.095498
429.496699,-370.102971,-11325.150913,-2068.457845
429.497022,-1924.535449,-11251.130318,-2757.943793
429.497344,-4071.132681,-9770.718434,-2834.553343
429.497666,-6291.750507,-7846.182985,-2834.553343
429.497989,-7624.121203,-6661.853478,-3753.867940
429.498311,-6587.832884,-7402.059420,-4826.401637
429.498634,-5551.544565,-7105.977043,-4596.572988
429.498956,-4145.153275,-7772.162391,-4443.353888
429.499278,-2442.679609,-8512.368333,-3217.601092
429.499601,-592.164754,-9622.677246,-2834.553343
429.499923,962.267725,-10510.924376,-2221.676944
429.500246,1702.473667,-10584.944971,-2834.553343
429.500568,1924.535449,-11177.109724,-3753.867940
429.500891,1554.432478,-11325.150913,-3370.820191
429.501213,592.164754,-11843.295072,-1608.800546
429.501535,-814.226536,-11177.109724,-689.485948
429.501858,-1184.329507,-9918.759623,-842.705048
429.502180,-222.061783,-9030.512492,-2068.457845
429.502503,1110.308913,-8290.306550,-1838.629195
429.502825,1998.556043,-7476.080014,-383.047749
429.503147,2960.823768,-7624.121203,459.657299
429.503470,4367.215058,-7550.100608,612.876398
429.503792,5625.565159,-8808.450710,459.657299
429.504115,6365.771101,-10066.800811,229.828649
429.504437,5699.585753,-10881.027347,0.000000
429.504760,3849.070898,-11103.089130,153.219100
429.505082,518.144159,-10658.965565,612.876398
429.505404,-1406.391290,-10807.006753,-995.924147
429.505727,-3701.029710,-9918.759623,-2604.724693
429.506049,-6069.688724,-8586.388927,-2604.724693
429.506372,-6587.832884,-6957.935855,-2451.505594
429.506694,-7772.162391,-5773.606348,-3140.991542
429.507016,-6439.791695,-6143.709319,-3753.867940
429.507339,-5847.626942,-7846.182985,-3600.648841
429.507661,-4515.256246,-9918.759623,-2451.505594
429.507984,-2442.679609,-10584.944971,-2221.676944
429.508306,-222.061783,-9992.780217,-2374.896044
429.508628,444.123565,-9178.553681,-2374.896044
429.508951,1184.329507,-9622.677246,-2145.067394
429.509273,1702.473667,-11029.068536,-1915.238745
429.509596,1924.535449,-11177.109724,-766.095498
429.509918,1258.350101,-10362.883188,-306.438199
429.510241,1332.370696,-9918.759623,229.828649
429.510563,1332.370696,-8956.491898,306.438199
429.510885,1332.370696,-8216.285956,-153.219100
429.511208,1480.411884,-8364.327145,0.000000
429.511530,2146.597232,-8660.409521,612.876398
429.511853,2442.679609,-7550.100608,229.828649
429.512175,3034.844362,-7328.038826,-536.266849
429.512497,3849.070898,-9474.636058,-306.438199
429.512820,3701.029710,-11177.109724,-153.219100
429.513142,2368.659014,-11917.315666,-536.266849
429.513465,74.020594,-11843.295072,-612.876398
429.513787,-1998.556043,-11843.295072,-1378.971896
429.514110,-3997.112087,-11029.068536,-2681.334243
429.514432,-6217.729913,-9178.553681,-3140.991542
429.514754,-7476.080014,-7179.997637,-3370.820191
429.515077,-7402.059420,-5847.626942,-4290.134789
429.515399,-6143.709319,-6735.874072,-4673.182538
429.515722,-4589.276840,-7254.018232,-3677.258390
429.516044,-2738.761985,-8438.347739,-2757.943793
429.516366,-1184.329507,-9326.594869,-1608.800546
429.516689,888.247130,-9030.512492,-1302.362347
429.517011,2516.700203,-9252.574275,-2221.676944
429.517334,2664.741391,-8882.471304,-2604.724693
429.517656,2368.659014,-9030.512492,-1915.238745
429.517978,2368.659014,-10288.862594,-1302.362347
429.518301,2590.720797,-11103.089130,-1378.971896
429.518623,2072.576638,-12509.480420,-995.924147
429.518946,814.226536,-11177.109724,0.000000
429.519268,814.226536,-9474.636058,-766.095498
429.519591,1110.308913,-8216.285956,-1532.190996
429.519913,1628.453072,-7550.100608,-1685.410096
429.520235,2442.679609,-7920.203579,-842.705048
429.520558,3182.885551,-8364.327145,-995.924147
429.520880,4219.173869,-9548.656652,-766.095498
429.521203,4589.276840,-11251.130318,-612.876398
429.521525,3997.112087,-12509.480420,-306.438199
429.521847,2368.659014,-12287.418637,76.609550
429.522170,0.000000,-11177.109724,-766.095498
429.522492,-2442.679609,-10436.903782,-1608.800546
429.522815,-4885.359217,-8882.471304,-2145.067394
429.523137,-7328.038826,-6661.853478,-3217.601092
429.523460,-8364.327145,-6143.709319,-4290.134789
429.523782,-7698.141797,-5921.647536,-4673.182538
429.524104,-5847.626942,-7254.018232,-3677.258390
429.524427,-4367.215058,-8660.409521,-2911.162892
429.524749,-3108.864956,-9474.636058,-1991.848295
429.525072,-1184.329507,-9622.677246,-2145.067394
429.525394,592.164754,-9918.759623,-1915.238745
429.525716,296.082377,-9844.739029,-3217.601092
429.526039,-518.144159,-9844.739029,-2987.772442
429.526361,-740.205942,-10066.800811,-2681.334243
429.526684,296.082377,-11399.171507,-2221.676944
429.527006,518.144159,-12139.377449,-1149.143247
429.527329,592.164754,-11103.089130,1072.533697
429.527651,888.247130,-9622.677246,306.438199
429.527973,1702.473667,-8956.491898,153.219100
429.528296,1776.494261,-7846.182985,0.000000
429.528618,1998.556043,-7254.018232,76.609550
429.528941,2146.597232,-6439.791695,229.828649
429.529263,2664.741391,-6883.915261,383.047749
429.529585,3478.967927,-9104.533087,536.266849
429.529908,3182.885551,-10658.965565,306.438199
429.530230,1258.350101,-12139.377449,229.828649
429.530553,-814.226536,-11843.295072,766.095498
429.530875,-2590.720797,-11399.171507,-995.924147
429.531197,-3849.070898,-10066.800811,-2451.505594
429.531520,-5847.626942,-8068.244768,-3217.601092
429.531842,-7476.080014,-6143.709319,-3217.601092
429.532165,-7254.018232,-6291.750507,-3217.601092
429.532487,-6217.729913,-6217.729913,-3447.429741
429.532810,-4885.359217,-7846.182985,-3370.820191
429.533132,-3701.029710,-9030.512492,-3064.381992
429.533454,-1850.514855,-9474.636058,-2298.286494
429.533777,0.000000,-9548.656652,-1991.848295
429.534099,1406.391290,-9548.656652,-1685.410096
429.534422,1776.494261,-9474.636058,-2221.676944
429.534744,2072.576638,-9252.574275,-2068.457845
429.535066,2664.741391,-9770.718434,-1915.238745
429.535389,2442.679609,-10732.986159,-995.924147
429.535711,2368.659014,-11695.253884,-153.219100
429.536034,1702.473667,-10807.006753,459.657299
429.536356,1776.494261,-9622.677246,-153.219100
429.536679,1850.514855,-8068.244768,-536.266849
429.537001,1850.514855,-7328.038826,-1072.533697
429.537323,2368.659014,-7772.162391,-1532.190996
429.537646,2960.823768,-8364.327145,-1302.362347
429.537968,3849.070898,-10214.842000,-1762.019645
429.538291,4737.318029,-11843.295072,-1225.752797
429.538613,4589.276840,-12805.562797,-306.438199
429.538935,3997.112087,-12657.521608,-153.219100
429.539258,2960.823768,-11621.233289,-1378.971896
429.539580,370.102971,-10436.903782,-2221.676944
429.539903,-2960.823768,-8808.450710,-2145.067394
429.540225,-5403.503377,-7624.121203,-2221.676944
429.540547,-6735.874072,-6291.750507,-3753.867940
429.540870,-6661.853478,-6143.709319,-4749.792088
429.541192,-4515.256246,-7994.224174,-3524.039291
429.541515,-3478.967927,-8364.327145,-1915.238745
429.541837,-2072.576638,-9252.574275,-1072.533697
429.542160,-666.185348,-9178.553681,-1608.800546
429.542482,222.061783,-8586.388927,-2451.505594
429.542804,-370.102971,-8068.244768,-3064.381992
429.543127,-1998.556043,-8734.430116,-2987.772442
429.543449,-2886.803174,-10066.800811,-3600.648841
429.543772,-2738.761985,-12139.377449,-3753.867940
429.544094,-1850.514855,-13545.768739,-1608.800546
429.544416,-1332.370696,-11621.233289,-383.047749
429.544739,-444.123565,-9104.533087,-919.314598
429.545061,444.123565,-8660.409521,-1608.800546
429.545384,1628.453072,-9104.533087,-612.876398
429.545706,1924.535449,-8068.244768,-229.828649
429.546029,1924.535449,-7328.038826,-383.047749
429.546351,2294.638420,-7698.141797,-306.438199
429.546673,3478.967927,-9030.512492,76.609550
429.546996,4071.132681,-10288.862594,229.828649
429.547318,4071.132681,-12065.356855,919.314598
429.547641,2812.782580,-11843.295072,1762.019645
429.547963,592.164754,-10288.862594,1149.143247
429.548285,-2368.659014,-9030.512492,383.047749
429.548608,-5033.400406,-7698.141797,-842.705048
429.548930,-7550.100608,-5773.606348,-3294.210641
429.549253,-7402.059420,-5921.647536,-4749.792088
429.549575,-6735.874072,-5847.626942,-4596.572988
429.549898,-4811.338623,-7179.997637,-2681.334243
429.550220,-4367.215058,-8512.368333,-2221.676944
429.550542,-3404.947333,-10510.924376,-1991.848295
429.550865,-2886.803174,-12213.398043,-2528.115143
429.551187,-2516.700203,-11695.253884,-3677.258390
429.551510,-2590.720797,-10140.821405,-4366.744339
429.551832,-2516.700203,-9918.759623,-4290.134789
429.552154,-1554.432478,-10436.903782,-3064.381992
429.552477,-666.185348,-11029.068536,-919.314598
429.552799,0.000000,-10658.965565,0.000000
429.553122,1110.308913,-9548.656652,-459.657299
429.553444,2516.700203,-8882.471304,-766.095498
429.553766,4219.173869,-8290.306550,-612.876398
429.554089,5329.482782,-8068.244768,76.609550
429.554411,5329.482782,-7476.080014,842.705048
429.554734,5107.421000,-7031.956449,1378.971896
429.555056,5551.544565,-7105.977043,1225.752797
429.555379,5847.626942,-9104.533087,-842.705048
429.555701,4885.359217,-11029.068536,-995.924147
429.556023,2886.803174,-11991.336260,383.047749
429.556346,1184.329507,-12583.501014,153.219100
429.556668,-222.061783,-12361.439231,-229.828649
429.556991,-2220.617826,-10140.821405,-1302.362347
429.557313,-4293.194464,-7105.977043,-2834.553343
429.557635,-6735.874072,-5107.421000,-4596.572988
429.557958,-6365.771101,-5699.585753,-4979.620737
429.558280,-5033.400406,-6587.832884,-5056.230287
429.558603,-3775.050304,-8142.265362,-4903.011187
429.558925,-2442.679609,-10807.006753,-2987.772442
429.559248,-962.267725,-11621.233289,-1915.238745
429.559570,0.000000,-11399.171507,-2298.286494
429.559892,296.082377,-10436.903782,-2757.943793
429.560215,296.082377,-9844.739029,-2681.334243
429.560537,296.082377,-9622.677246,-2834.553343
429.560860,222.061783,-8882.471304,-1532.190996
429.561182,148.041188,-9326.594869,153.219100
429.561504,148.041188,-9474.636058,153.219100
429.561827,666.185348,-8586.388927,-76.609550
429.562149,888.247130,-8216.285956,-536.266849
429.562472,1924.535449,-8290.306550,0.000000
429.562794,2960.823768,-8882.471304,229.828649
429.563116,4071.132681,-8364.327145,-383.047749
429.563439,4811.338623,-8216.285956,-995.924147
429.563761,4737.318029,-9844.739029,-306.438199
429.564084,4071.132681,-12361.439231,153.219100
429.564406,1776.494261,-12065.356855,-229.828649
429.564729,-444.123565,-12805.562797,-1608.800546
429.565051,-2368.659014,-13323.706956,-2374.896044
429.565373,-4441.235652,-11399.171507,-1608.800546
429.565696,-7254.018232,-8512.368333,-2145.067394
429.566018,-9178.553681,-6365.771101,-3677.258390
429.566341,-8882.471304,-5551.544565,-4826.401637
429.566663,-7476.080014,-6883.915261,-3983.696590
429.566985,-6735.874072,-7476.080014,-3064.381992
429.567308,-4737.318029,-9104.533087,-2528.115143
429.567630,-2738.761985,-9844.739029,-1991.848295
429.567953,-296.082377,-10214.842000,-1608.800546
429.568275,222.061783,-10066.800811,-1302.362347
429.568598,0.000000,-9696.697840,-1991.848295
429.568920,74.020594,-9030.512492,-1378.971896
429.569242,-148.041188,-9844.739029,-1685.410096
429.569565,0.000000,-10584.944971,-1302.362347
429.569887,-370.102971,-10214.842000,-306.438199
429.570210,-74.020594,-9252.574275,0.000000
429.570532,666.185348,-7846.182985,0.000000
429.570854,2368.659014,-7624.121203,-612.876398
429.571177,3330.926739,-7476.080014,-919.314598
429.571499,3330.926739,-7772.162391,-459.657299
429.571822,3478.967927,-8734.430116,229.828649
429.572144,4589.276840,-9696.697840,153.219100
429.572467,4811.338623,-10066.800811,-1149.143247
429.572789,4367.215058,-11621.233289,-995.924147
429.573111,2812.782580,-12361.439231,0.000000
429.573434,888.247130,-11991.336260,383.047749
429.573756,-1628.453072,-10436.903782,-306.438199
429.574079,-3997.112087,-8216.285956,-1455.581446
429.574401,-5773.606348,-5921.647536,-2757.943793
429.574723,-6291.750507,-4885.359217,-3983.696590
429.575046,-5625.565159,-4589.276840,-4213.525239
429.575368,-4293.194464,-6069.688724,-3064.381992
429.575691,-2146.597232,-8512.368333,-2298.286494
429.576013,-666.185348,-9844.739029,-1915.238745
429.576335,444.123565,-11029.068536,-2374.896044
429.576658,1036.288319,-11917.315666,-2757.943793
429.576980,1036.288319,-11473.192101,-2757.943793
429.577303,222.061783,-10584.944971,-3600.648841
429.577625,0.000000,-9918.759623,-3677.258390
429.577948,-370.102971,-11177.109724,-2298.286494
429.578270,-666.185348,-11103.089130,-995.924147
429.578592,-1036.288319,-9918.759623,-1149.143247
429.578915,-1036.288319,-9622.677246,-1455.581446
429.579237,370.102971,-9622.677246,-1685.410096
429.579560,1554.432478,-8660.409521,-995.924147
429.579882,2516.700203,-7846.182985,-459.657299
429.580204,4145.153275,-7994.224174,-306.438199
429.580527,5255.462188,-8216.285956,0.000000
429.580849,5699.585753,-9326.594869,459.657299
429.581172,5255.462188,-10732.986159,1455.581446
429.581494,3404.947333,-11843.295072,842.705048
429.581817,1110.308913,-12805.562797,-153.219100
429.582139,-1036.288319,-12435.459826,-306.438199
429.582461,-4145.153275,-10288.862594,-995.924147
429.582784,-6143.709319,-7105.977043,-2145.067394
429.583106,-7920.203579,-4885.359217,-3830.477490
429.583429,-6957.935855,-6069.688724,-4903.011187
429.583751,-6365.771101,-5699.585753,-4290.134789
429.584073,-4959.379811,-7179.997637,-3524.039291
429.584396,-3627.009116,-9474.636058,-2987.772442
429.584718,-1776.494261,-11177.109724,-2068.457845
429.585041,-1184.329507,-12213.398043,-2221.676944
429.585363,-1628.453072,-11103.089130,-2604.724693
429.585685,-1924.535449,-10955.047942,-2757.943793
429.586008,-1184.329507,-10436.903782,-3370.820191
429.586330,-296.082377,-9918.759623,-2987.772442
429.586653,0.000000,-9548.656652,-995.924147
429.586975,-296.082377,-9400.615463,229.828649
429.587298,592.164754,-8956.491898,919.314598
429.587620,962.267725,-7624.121203,459.657299
429.587942,1184.329507,-6883.915261,-842.705048
429.588265,1702.473667,-7476.080014,-612.876398
429.588587,2738.761985,-7550.100608,-306.438199
429.588910,4367.215058,-7846.182985,-153.219100
429.589232,5699.585753,-9474.636058,0.000000
429.589554,6143.709319,-11251.130318,153.219100
429.589877,5033.400406,-12509.480420,0.000000
429.590199,2368.659014,-13175.665768,-383.047749
429.590521,0.000000,-13545.768739,-995.924147
429.590844,-2442.679609,-12657.521608,-1685.410096
429.591166,-4737.318029,-9844.739029,-2374.896044
429.591488,-6735.874072,-5699.585753,-2451.505594
429.591811,-6883.915261,-4515.256246,-4443.353888
429.592133,-4885.359217,-5033.400406,-4749.792088
429.592455,-3849.070898,-6217.729913,-4596.572988
429.592778,-2590.720797,-8882.471304,-3064.381992
429.593100,-1258.350101,-10140.821405,-1762.019645
429.593423,148.041188,-11399.171507,-919.314598
429.593745,296.082377,-11399.171507,-2221.676944
429.594067,-148.041188,-10436.903782,-2604.724693
429.594390,0.000000,-9992.780217,-3217.601092
429.594712,296.082377,-9474.636058,-3447.429741
429.595034,222.061783,-9030.512492,-1149.143247
429.595357,-592.164754,-9104.533087,0.000000
429.595679,-592.164754,-9252.574275,-383.047749
429.596001,-222.061783,-9252.574275,-689.485948
429.596324,222.061783,-8660.409521,-1608.800546
429.596646,1258.350101,-7846.182985,-1762.019645
429.596968,2368.659014,-7402.059420,-76.609550
429.597291,3775.050304,-7476.080014,-459.657299
429.597613,4663.297435,-8956.491898,-383.047749
429.597935,5107.421000,-11325.150913,0.000000
429.598258,4515.256246,-12583.501014,383.047749
429.598580,3182.885551,-12435.459826,-383.047749
429.598903,1628.453072,-13175.665768,-919.314598
429.599225,-666.185348,-12657.521608,-383.047749
429.599547,-3330.926739,-9770.718434,0.000000
429.599870,-5403.503377,-6513.812290,-1455.581446
429.600192,-5995.668130,-4367.215058,-3217.601092
429.600514,-4515.256246,-4589.276840,-5056.230287
429.600837,-3034.844362,-5255.462188,-4136.915689
429.601159,-2368.659014,-7402.059420,-2374.896044
429.601481,-1480.411884,-9844.739029,-995.924147
429.601804,-370.102971,-11843.295072,-1072.533697
429.602126,370.102971,-12139.377449,-1915.238745
429.602448,-444.123565,-10584.944971,-3140.991542
429.602771,-1554.432478,-10066.800811,-3907.087040
429.603093,-1998.556043,-10066.800811,-3524.039291
429.603415,-2294.638420,-10066.800811,-2451.505594
429.603738,-2812.782580,-10362.883188,-1149.143247
429.604060,-2886.803174,-9844.739029,-1302.362347
429.604382,-1702.473667,-10066.800811,-1608.800546
429.604705,-814.226536,-8956.491898,-1915.238745
429.605027,296.082377,-8438.347739,-1455.581446
429.605350,1554.432478,-7402.059420,-383.047749
429.605672,3552.988522,-7920.203579,76.609550
429.605994,4367.215058,-8290.306550,76.609550
429.606317,5107.421000,-9474.636058,-153.219100
429.606639,4663.297435,-11399.171507,0.000000
429.606961,3627.009116,-12583.501014,0.000000
429.607284,1702.473667,-13101.645173,536.266849
429.607606,-296.082377,-12879.583391,459.657299
429.607928,-2368.659014,-10436.903782,-306.438199
429.608251,-4367.215058,-7105.977043,-1608.800546
429.608573,-5921.647536,-4367.215058,-2911.162892
429.608895,-4737.318029,-4663.297435,-4596.572988
429.609218,-3997.112087,-5033.400406,-4290.134789
429.609540,-3256.906145,-7105.977043,-2757.943793
429.609862,-2664.741391,-9622.677246,-1838.629195
429.610185,-1480.411884,-11547.212695,-1378.971896
429.610507,-666.185348,-11991.336260,-1838.629195
429.610829,-888.247130,-11251.130318,-2681.334243
429.611152,-1110.308913,-10732.986159,-3217.601092
429.611474,-1258.350101,-9992.780217,-3064.381992
429.611797,-888.247130,-9696.697840,-2221.676944
429.612119,-814.226536,-9474.636058,-766.095498
429.612441,-740.205942,-9696.697840,-536.266849
429.612764,-666.185348,-8734.430116,0.000000
429.613086,74.020594,-8438.347739,-612.876398
429.613408,814.226536,-7698.141797,-842.705048
429.613731,1258.350101,-7402.059420,-306.438199
429.614053,1850.514855,-6883.915261,153.219100
429.614375,3108.864956,-7772.162391,0.000000
429.614698,4071.132681,-9030.512492,-229.828649
429.615020,4219.173869,-10732.986159,-306.438199
429.615342,3478.967927,-12139.377449,0.000000
429.615665,2590.720797,-13175.665768,-153.219100
429.615987,1554.432478,-13397.727550,-536.266849
429.616309,0.000000,-12139.377449,-383.047749
429.616632,-2368.659014,-8956.491898,-766.095498
429.616954,-3849.070898,-5847.626942,-2145.067394
429.617276,-4589.276840,-4367.215058,-4213.525239
429.617599,-4071.132681,-4589.276840,-4903.011187
429.617921,-2960.823768,-6439.791695,-4213.525239
429.618244,-1406.391290,-9030.512492,-3524.039291
429.618566,1036.288319,-11251.130318,-2604.724693
429.618888,2590.720797,-12657.521608,-1915.238745
429.619211,3182.885551,-12435.459826,-689.485948
429.619533,1480.411884,-10955.047942,-1532.190996
429.619855,74.020594,-9992.780217,-3064.381992
429.620178,-1036.288319,-9474.636058,-4443.353888
429.620500,-2294.638420,-9400.615463,-3064.381992
429.620822,-3182.885551,-9326.594869,-1378.971896
429.621145,-3849.070898,-8660.409521,-536.266849
429.621467,-3627.009116,-8734.430116,-1302.362347
429.621789,-1998.556043,-8956.491898,-1532.190996
429.622112,0.000000,-9030.512492,-1072.533697
429.622434,962.267725,-8364.327145,-1225.752797
429.622756,2368.659014,-7624.121203,-1302.362347
429.623079,3404.947333,-8734.430116,-459.657299
429.623401,3775.050304,-10288.862594,0.000000
429.623724,2886.803174,-11251.130318,0.000000
429.624046,1332.370696,-12139.377449,-842.705048
429.624368,592.164754,-13249.686362,-1149.143247
429.624691,0.000000,-12805.562797,-766.095498
429.625013,-1776.494261,-10436.903782,0.000000
429.625335,-3552.988522,-6883.915261,-306.438199
429.625658,-5033.400406,-4663.297435,-1915.238745
429.625980,-4071.132681,-4663.297435,-4060.306139
429.626302,-2738.761985,-4515.256246,-4060.306139
429.626625,-1776.494261,-6439.791695,-3677.258390
429.626947,-296.082377,-9474.636058,-2145.067394
429.627269,1628.453072,-11843.295072,-229.828649
429.627592,2368.659014,-12509.480420,76.609550
429.627914,1480.411884,-12065.356855,-689.485948
429.628236,0.000000,-11399.171507,-1838.629195
429.628559,-1036.288319,-9918.759623,-3370.820191
429.628881,-2442.679609,-9252.574275,-3524.039291
429.629203,-3330.926739,-9252.574275,-1991.848295
429.629526,-3627.009116,-8882.471304,-383.047749
429.629848,-3552.988522,-8438.347739,-229.828649
429.630171,-2590.720797,-8216.285956,-842.705048
429.630493,-1628.453072,-8660.409521,-919.314598
429.630815,-296.082377,-8512.368333,-1762.019645
429.631138,1110.308913,-8512.368333,-1225.752797
429.631460,2886.803174,-8586.388927,0.000000
429.631782,3775.050304,-9474.636058,76.609550
429.632105,4663.297435,-10955.047942,-229.828649
429.632427,4145.153275,-11621.233289,-536.266849
429.632749,2664.741391,-12213.398043,-229.828649
429.633072,1184.329507,-12953.603985,-919.314598
429.633394,-740.205942,-11769.274478,-995.924147
429.633716,-2812.782580,-8956.491898,-1149.143247
429.634039,-3478.967927,-5847.626942,-2298.286494
429.634361,-3552.988522,-4071.132681,-3600.648841
429.634683,-2886.803174,-4219.173869,-3830.477490
429.635006,-1554.432478,-5255.462188,-2834.553343
429.635328,-370.102971,-7994.224174,-1915.238745
429.635650,1184.329507,-11399.171507,-919.314598
429.635973,2368.659014,-12953.603985,-306.438199
429.636295,2072.576638,-12509.480420,-1072.533697
429.636618,666.185348,-11177.109724,-1838.629195
429.636940,-518.144159,-9844.739029,-2757.943793
429.637262,-1480.411884,-9474.636058,-4060.306139
429.637585,-2960.823768,-8956.491898,-3064.381992
429.637907,-3775.050304,-9104.533087,-1685.410096
429.638229,-3330.926739,-8808.450710,-1072.533697
429.638552,-3330.926739,-8808.450710,-2298.286494
429.638874,-2664.741391,-9252.574275,-1608.800546
429.639196,-666.185348,-8882.471304,-1455.581446
429.639519,1184.329507,-8142.265362,-1532.190996
429.639841,2146.597232,-7254.018232,-612.876398
429.640163,2664.741391,-7698.141797,0.000000
429.640486,2368.659014,-8956.491898,-383.047749
429.640808,1258.350101,-11325.150913,-612.876398
429.641130,370.102971,-13101.645173,-995.924147
429.641453,-444.123565,-13545.768739,-1838.629195
429.641775,-1332.370696,-12657.521608,-842.705048
429.642097,-1776.494261,-9548.656652,0.000000
429.642420,-2516.700203,-6735.874072,-612.876398
429.642742,-1998.556043,-5477.523971,-1991.848295
429.643065,-1702.473667,-4663.297435,-3524.039291
429.643387,-814.226536,-5255.462188,-3294.210641
429.643709,74.020594,-7550.100608,-3217.601092
429.644032,888.247130,-10288.862594,-1762.019645
429.644354,1850.514855,-13027.624579,-766.095498
429.644676,1850.514855,-13101.645173,-995.924147
429.644999,962.267725,-12509.480420,-2145.067394
429.645321,0.000000,-10807.006753,-2834.553343
429.645643,-1110.308913,-9622.677246,-3907.087040
429.645966,-2442.679609,-9030.512492,-3524.039291
429.646288,-3849.070898,-8956.491898,-2298.286494
429.646610,-3923.091493,-8660.409521,-1225.752797
429.646933,-4293.194464,-7846.182985,-1378.971896
429.647255,-3552.988522,-8290.306550,-2451.505594
429.647577,-1406.391290,-9400.615463,-2374.896044
429.647900,592.164754,-9474.636058,-1532.190996
429.648222,2368.659014,-8364.327145,-536.266849
429.648545,4145.153275,-8142.265362,76.609550
429.648867,4737.318029,-8660.409521,229.828649
429.649189,4589.276840,-9770.718434,536.266849
429.649512,3404.947333,-11029.068536,229.828649
429.649834,1332.370696,-11991.336260,-995.924147
429.650156,0.000000,-12213.398043,-689.485948
429.650479,-1184.329507,-10732.986159,-536.266849
429.650801,-2590.720797,-8290.306550,0.000000
429.651123,-3182.885551,-6217.729913,-1302.362347
429.651446,-2516.700203,-4959.379811,-2834.553343
429.651768,-1776.494261,-4737.318029,-3830.477490
429.652090,-1628.453072,-6883.915261,-3294.210641
429.652413,-962.267725,-10288.862594,-2068.457845
429.652735,-592.164754,-11547.212695,-1072.533697
429.653057,0.000000,-11917.315666,-1149.143247
429.653380,148.041188,-12065.356855,-1915.238745
429.653702,74.020594,-11547.212695,-2681.334243
429.654024,-296.082377,-10436.903782,-2911.162892
429.654347,-888.247130,-9474.636058,-2451.505594
429.654669,-1480.411884,-9178.553681,-919.314598
429.654992,-2812.782580,-8438.347739,-612.876398
429.655314,-3552.988522,-7994.224174,-995.924147
429.655636,-3701.029710,-7920.203579,-2221.676944
429.655959,-2072.576638,-8216.285956,-1991.848295
429.656281,222.061783,-8660.409521,-1838.629195
429.656603,1998.556043,-8512.368333,-229.828649
429.656926,3182.885551,-8660.409521,995.924147
429.657248,3701.029710,-9030.512492,1378.971896
429.657570,3627.009116,-9622.677246,229.828649
429.657893,1554.432478,-11029.068536,-1072.533697
429.658215,0.000000,-12139.377449,-2221.676944
429.658537,-1998.556043,-13027.624579,-2145.067394
429.658860,-3256.906145,-12361.439231,-1072.533697
429.659182,-4367.215058,-10881.027347,-459.657299
429.659504,-4293.194464,-7994.224174,-919.314598
429.659827,-4293.194464,-5403.503377,-3217.601092
429.660149,-2886.803174,-4737.318029,-3830.477490
429.660471,-2146.597232,-5699.585753,-3753.867940
429.660794,-592.164754,-8586.388927,-2451.505594
429.661116,444.123565,-10214.842000,-1608.800546
429.661439,1184.329507,-10584.944971,-1378.971896
429.661761,1850.514855,-11473.192101,-1915.238745
429.662083,1628.453072,-11177.109724,-2374.896044
429.662406,1480.411884,-10658.965565,-2145.067394
429.662728,1628.453072,-9696.697840,-1532.190996
429.663050,1184.329507,-9474.636058,-1608.800546
429.663373,296.082377,-8734.430116,-1072.533697
429.663695,-592.164754,-8068.244768,-919.314598
429.664017,-962.267725,-7920.203579,-1455.581446
429.664340,-1258.350101,-7550.100608,-1762.019645
429.664662,0.000000,-8142.265362,-1532.190996
429.664984,444.123565,-8364.327145,-689.485948
429.665307,1258.350101,-8512.368333,-306.438199
429.665629,2368.659014,-9326.594869,0.000000
429.665951,2886.803174,-9770.718434,-612.876398
429.666274,2738.761985,-11029.068536,-1378.971896
429.666596,1332.370696,-11843.295072,-1762.019645
429.666919,-296.082377,-12361.439231,-1302.362347
429.667241,-2220.617826,-12287.418637,-536.266849
429.667563,-4441.235652,-11103.089130,-995.924147
429.667886,-5625.565159,-8290.306550,-2451.505594
429.668208,-5847.626942,-6217.729913,-4136.915689
429.668530,-4219.173869,-5181.441594,-4979.620737
429.668853,-2368.659014,-5773.606348,-3524.039291
429.669175,-814.226536,-7105.977043,-2451.505594
429.669497,888.247130,-8586.388927,-1915.238745
429.669820,1702.473667,-10436.903782,-919.314598
429.670142,1850.514855,-11917.315666,-1225.752797
429.670464,962.267725,-11547.212695,-1072.533697
429.670787,0.000000,-10658.965565,-2528.115143
429.671109,0.000000,-9474.636058,-3140.991542
429.671431,148.041188,-9104.533087,-1991.848295
429.671754,-814.226536,-8808.450710,-612.876398
429.672076,-2220.617826,-8364.327145,0.000000
429.672398,-2738.761985,-7698.141797,-995.924147
429.672721,-1776.494261,-8364.327145,-2068.457845
429.673043,-1480.411884,-8290.306550,-1378.971896
429.673366,-740.205942,-9326.594869,-842.705048
429.673688,-148.041188,-9030.512492,-229.828649
429.674010,1480.411884,-8808.450710,-459.657299
429.674333,2886.803174,-9622.677246,-766.095498
429.674655,2442.679609,-10436.903782,-1072.533697
429.674977,962.267725,-11547.212695,-1149.143247
429.675300,-1184.329507,-12287.418637,-1838.629195
429.675622,-2368.659014,-13101.645173,-1532.190996
429.675944,-3404.947333,-12065.356855,-1608.800546
429.676267,-4515.256246,-9030.512492,-1762.019645
429.676589,-4737.318029,-5773.606348,-1762.019645
429.676911,-4663.297435,-4959.379811,-2451.505594
429.677234,-3034.844362,-4663.297435,-2911.162892
429.677556,-1850.514855,-6143.709319,-3140.991542
429.677878,-1258.350101,-8142.265362,-2834.553343
429.678201,296.082377,-10436.903782,-1685.410096
429.678523,1480.411884,-11695.253884,-1455.581446
429.678845,1628.453072,-12139.377449,-1378.971896
429.679168,1110.308913,-11399.171507,-2145.067394
429.679490,1406.391290,-10732.986159,-2451.505594
429.679813,1850.514855,-9918.759623,-2451.505594
429.680135,1628.453072,-9622.677246,-1915.238745
429.680457,0.000000,-8808.450710,-612.876398
429.680780,-814.226536,-7994.224174,-612.876398
429.681102,-666.185348,-8438.347739,-1532.190996
429.681424,222.061783,-8882.471304,-1991.848295
429.681747,444.123565,-8956.491898,-919.314598
429.682069,1258.350101,-9030.512492,-383.047749
429.682391,2590.720797,-8882.471304,612.876398
429.682714,3923.091493,-8956.491898,536.266849
429.683036,3997.112087,-9474.636058,-383.047749
429.683358,3108.864956,-10732.986159,-459.657299
429.683681,222.061783,-11325.150913,-689.485948
429.684003,-1184.329507,-12361.439231,-995.924147
429.684325,-2960.823768,-11917.315666,-842.705048
429.684648,-4663.297435,-10658.965565,-1378.971896
429.684970,-5107.421000,-8068.244768,-2757.943793
429.685292,-3997.112087,-6513.812290,-3830.477490
429.685615,-2516.700203,-5551.544565,-3447.429741
429.685937,-888.247130,-6143.709319,-2604.724693
429.686260,0.000000,-7476.080014,-2221.676944
429.686582,1036.288319,-9326.594869,-1762.019645
429.686904,1332.370696,-11325.150913,-1762.019645
429.687227,1554.432478,-11843.295072,-766.095498
429.687549,1036.288319,-11251.130318,-1685.410096
429.687871,1332.370696,-10436.903782,-2681.334243
429.688194,1850.514855,-9992.780217,-2451.505594
429.688516,1628.453072,-9770.718434,-1378.971896
429.688838,74.020594,-8734.430116,229.828649
429.689161,-1332.370696,-8142.265362,76.609550
429.689483,-2146.597232,-7846.182985,-1378.971896
429.689806,-1998.556043,-8142.265362,-2604.724693
429.690128,-1998.556043,-8438.347739,-1838.629195
429.690451,-1702.473667,-8586.388927,0.000000
429.690773,148.041188,-8586.388927,0.000000
429.691096,2442.679609,-8808.450710,-229.828649
429.691418,3997.112087,-9326.594869,76.609550
429.691741,3923.091493,-10066.800811,-153.219100
429.692063,2220.617826,-10214.842000,-919.314598
429.692386,370.102971,-11399.171507,-2298.286494
429.692708,-1702.473667,-12287.418637,-2145.067394
429.693031,-4737.318029,-11843.295072,-1532.190996
429.693353,-7179.997637,-9474.636058,-2068.457845
429.693676,-6957.935855,-7254.018232,-3140.991542
429.693998,-5847.626942,-5699.585753,-4903.011187
429.694321,-3849.070898,-6291.750507,-4749.792088
429.694643,-2220.617826,-7179.997637,-2911.162892
429.694966,-1110.308913,-9474.636058,-1455.581446
429.695288,148.041188,-10955.047942,-689.485948
429.695611,296.082377,-11103.089130,-1149.143247
429.695933,296.082377,-10732.986159,-2528.115143
429.696256,296.082377,-9918.759623,-3370.820191
429.696578,592.164754,-9400.615463,-3447.429741
429.696901,1184.329507,-9252.574275,-2374.896044
429.697223,1924.535449,-9548.656652,-766.095498
429.697546,1110.308913,-9178.553681,-459.657299
429.697868,148.041188,-8586.388927,-1149.143247
429.698191,-592.164754,-8512.368333,-1762.019645
429.698513,-814.226536,-9104.533087,-2221.676944
429.698836,-666.185348,-9400.615463,-1915.238745
429.699158,74.020594,-8660.409521,-1532.190996
429.699481,1258.350101,-8586.388927,-306.438199
429.699803,3108.864956,-9104.533087,0.000000
429.700126,4219.173869,-9474.636058,-536.266849
429.700448,4145.153275,-9622.677246,-536.266849
429.700771,2664.741391,-10436.903782,-1225.752797
429.701093,-148.041188,-10732.986159,-842.705048
429.701416,-2516.700203,-11473.192101,-689.485948
429.701738,-5181.441594,-10732.986159,-1838.629195
429.702061,-6587.832884,-9252.574275,-3140.991542
429.702383,-5773.606348,-7624.121203,-3600.648841
429.702706,-4367.215058,-5921.647536,-2834.553343
429.703028,-2146.597232,-5477.523971,-2987.772442
429.703351,74.020594,-7254.018232,-2911.162892
429.703673,2368.659014,-10140.821405,-1915.238745
429.703996,3330.926739,-11177.109724,-1149.143247
429.704318,2812.782580,-11473.192101,-1915.238745
429.704641,1702.473667,-11399.171507,-1991.848295
429.704963,1406.391290,-11029.068536,-2911.162892
429.705286,1554.432478,-11029.068536,-2374.896044
429.705608,1184.329507,-10658.965565,-229.828649
429.705931,1036.288319,-9326.594869,612.876398
429.706253,518.144159,-7550.100608,0.000000
429.706576,814.226536,-7031.956449,-1149.143247
429.706898,740.205942,-7550.100608,-1302.362347
429.707221,444.123565,-8512.368333,-1072.533697
429.707543,296.082377,-8364.327145,-612.876398
429.707865,1406.391290,-7846.182985,0.000000
429.708188,3108.864956,-9252.574275,-766.095498
429.708510,4219.173869,-11103.089130,-229.828649
429.708833,2664.741391,-11029.068536,0.000000
429.709155,222.061783,-10658.965565,-612.876398
429.709478,-1184.329507,-11621.233289,-1455.581446
429.709800,-2738.761985,-12139.377449,-2145.067394
429.710123,-5699.585753,-10584.944971,-2068.457845
429.710445,-8216.285956,-8290.306550,-2068.457845
429.710768,-8364.327145,-6957.935855,-2451.505594
429.711090,-5699.585753,-6143.709319,-3600.648841
429.711413,-3849.070898,-5773.606348,-3907.087040
429.711735,-2590.720797,-7031.956449,-2451.505594
429.712058,-1332.370696,-8142.265362,-995.924147
429.712380,296.082377,-9548.656652,-919.314598
429.712703,1184.329507,-10584.944971,-1838.629195
429.713025,962.267725,-10658.965565,-2681.334243
429.713348,0.000000,-10584.944971,-2374.896044
429.713670,444.123565,-10732.986159,-2451.505594
429.713993,1036.288319,-11399.171507,-1991.848295
429.714315,962.267725,-11029.068536,-842.705048
429.714638,0.000000,-9474.636058,229.828649
429.714960,-666.185348,-7772.162391,306.438199
429.715283,-518.144159,-7994.224174,-1072.533697
429.715605,-370.102971,-8142.265362,-2451.505594
429.715928,-592.164754,-8660.409521,-1915.238745
429.716250,-370.102971,-8364.327145,-536.266849
429.716573,592.164754,-8290.306550,0.000000
429.716895,1924.535449,-8660.409521,-919.314598
429.717218,2294.638420,-9992.780217,-1455.581446
429.717540,1036.288319,-11325.150913,-1455.581446
429.717863,-740.205942,-12139.377449,-1608.800546
429.718185,-2590.720797,-12287.418637,-1915.238745
429.718508,-4737.318029,-11917.315666,-2528.115143
429.718830,-6217.729913,-10066.800811,-2834.553343
429.719153,-5773.606348,-7624.121203,-3217.601092
429.719475,-3775.050304,-6587.832884,-4290.134789
429.719798,-1332.370696,-5847.626942,-4060.306139
429.720120,0.000000,-6883.915261,-2068.457845
429.720443,444.123565,-8808.450710,-842.705048
429.720765,1036.288319,-10140.821405,-612.876398
429.721088,1480.411884,-11029.068536,-1991.848295
429.721410,2072.576638,-10955.047942,-3140.991542
429.721733,2590.720797,-10214.842000,-2911.162892
429.722055,3330.926739,-9622.677246,-1685.410096
429.722378,4145.153275,-9622.677246,76.609550
429.722700,4441.235652,-9474.636058,919.314598
429.723023,3923.091493,-9030.512492,229.828649
429.723345,2886.803174,-8068.244768,-766.095498
429.723668,2072.576638,-8216.285956,-1991.848295
429.723990,1110.308913,-8882.471304,-1915.238745
429.724313,1258.350101,-9474.636058,-919.314598
429.724635,1110.308913,-9252.574275,536.266849
429.724958,1258.350101,-8438.347739,459.657299
429.725280,1628.453072,-8882.471304,-689.485948
429.725603,962.267725,-9252.574275,-1225.752797
429.725925,-370.102971,-9474.636058,-1455.581446
429.726248,-2294.638420,-9992.780217,-1915.238745
429.726570,-4219.173869,-11547.212695,-1991.848295
429.726893,-6365.771101,-11843.295072,-1378.971896
429.727215,-7550.100608,-10955.047942,-1149.143247
429.727538,-7402.059420,-8512.368333,-1991.848295
429.727860,-5625.565159,-6957.935855,-3983.696590
429.728183,-2960.823768,-6069.688724,-4519.963438
429.728505,0.000000,-6365.771101,-3064.381992
429.728828,1480.411884,-7698.141797,-995.924147
429.729150,2590.720797,-9474.636058,-689.485948
429.729473,2886.803174,-10436.903782,-1149.143247
429.729795,2442.679609,-10881.027347,-1915.238745
429.730118,2220.617826,-11769.274478,-2221.676944
429.730440,1702.473667,-11103.089130,-1991.848295
429.730763,1480.411884,-11029.068536,-1149.143247
429.731085,518.144159,-10584.944971,689.485948
429.731408,0.000000,-9992.780217,1608.800546
429.731730,-592.164754,-7846.182985,536.266849
429.732053,-1924.535449,-6291.750507,-1685.410096
429.732375,-2442.679609,-6439.791695,-2987.772442
429.732698,-2442.679609,-7772.162391,-2451.505594
429.733020,-2294.638420,-9030.512492,-1225.752797
429.733343,-1850.514855,-9548.656652,-459.657299
429.733665,-1110.308913,-10510.924376,-1072.533697
429.733988,-1036.288319,-11473.192101,-2145.067394
429.734310,-2368.659014,-11399.171507,-1455.581446
429.734632,-3404.947333,-11029.068536,-1915.238745
429.734955,-3849.070898,-10881.027347,-3370.820191
429.735277,-3627.009116,-11103.089130,-3677.258390
429.735600,-4071.132681,-9474.636058,-2298.286494
429.735922,-4515.256246,-8068.244768,-995.924147
429.736245,-4145.153275,-6735.874072,-1838.629195
429.736567,-2072.576638,-6439.791695,-2987.772442
429.736890,-296.082377,-6957.935855,-3447.429741
429.737212,1184.329507,-7846.182985,-2298.286494
429.737535,2294.638420,-8956.491898,-766.095498
429.737857,3404.947333,-9770.718434,0.000000
429.738180,4663.297435,-9918.759623,-459.657299
429.738502,4811.338623,-9770.718434,-1608.800546
429.738825,4367.215058,-10140.821405,-1685.410096
429.739147,3404.947333,-10362.883188,-1225.752797
429.739470,2664.741391,-11177.109724,-995.924147
429.739792,1702.473667,-11695.253884,-842.705048
429.740115,370.102971,-11029.068536,-689.485948
429.740437,-666.185348,-8956.491898,-1378.971896
429.740760,-592.164754,-8068.244768,-3140.991542
429.741082,-666.185348,-7624.121203,-2451.505594
429.741405,0.000000,-8290.306550,-1991.848295
429.741727,666.185348,-8586.388927,-919.314598
429.742050,1628.453072,-9474.636058,-306.438199
429.742372,2220.617826,-10658.965565,-306.438199
429.742695,1258.350101,-10362.883188,-306.438199
429.743017,-962.267725,-9548.656652,-766.095498
429.743340,-2960.823768,-9474.636058,-1991.848295
429.743662,-3627.009116,-10807.006753,-2911.162892
429.743985,-3923.091493,-11251.130318,-2757.943793
429.744307,-4589.276840,-9400.615463,-995.924147
429.744630,-4367.215058,-7550.100608,-842.705048
429.744952,-2960.823768,-7105.977043,-1455.581446
429.745275,-222.061783,-6587.832884,-3447.429741
429.745597,740.205942,-7105.977043,-3830.477490
429.745920,222.061783,-8586.388927,-1378.971896
429.746242,518.144159,-10362.883188,-229.828649
429.746565,1480.411884,-10807.006753,-1378.971896
429.746887,1776.494261,-10658.965565,-2298.286494
429.747210,2294.638420,-10510.924376,-2145.067394
429.747532,2516.700203,-10658.965565,-1762.019645
429.747855,2516.700203,-10288.862594,-1455.581446
429.748177,962.267725,-10214.842000,76.609550
429.748500,-740.205942,-9400.615463,842.705048
429.748822,-1924.535449,-8364.327145,-459.657299
429.749145,-2220.617826,-7698.141797,-1991.848295
429.749467,-2220.617826,-7550.100608,-3140.991542
429.749790,-1332.370696,-8512.368333,-2834.553343
429.750112,0.000000,-8956.491898,-919.314598
429.750435,1258.350101,-9918.759623,612.876398
429.750757,1924.535449,-10807.006753,689.485948
429.751080,1406.391290,-10214.842000,536.266849
429.751402,0.000000,-9548.656652,-1149.143247
429.751725,-2368.659014,-9104.533087,-2604.724693
429.752047,-3330.926739,-10955.047942,-3753.867940
429.752370,-4293.194464,-11769.274478,-2757.943793
429.752692,-5699.585753,-10584.944971,-995.924147
429.753015,-5995.668130,-8290.306550,-995.924147
429.753337,-4663.297435,-7105.977043,-1608.800546
429.753660,-2886.803174,-5699.585753,-3524.039291
429.753982,-1406.391290,-5255.462188,-4366.744339
429.754305,-888.247130,-6661.853478,-2757.943793
429.754627,296.082377,-8808.450710,-1378.971896
429.754950,962.267725,-10066.800811,-1455.581446
429.755272,1480.411884,-10584.944971,-1915.238745
429.755595,1628.453072,-11325.150913,-2757.943793
429.755917,2294.638420,-11843.295072,-2987.772442
429.756240,2368.659014,-12139.377449,-2757.943793
429.756562,1924.535449,-11547.212695,-1149.143247
429.756885,518.144159,-10288.862594,229.828649
429.757207,-592.164754,-8808.450710,-229.828649
429.757530,-1480.411884,-7402.059420,-1991.848295
429.757852,-1184.329507,-7402.059420,-3677.258390
429.758175,-518.144159,-7920.203579,-3370.820191
429.758497,518.144159,-9252.574275,-919.314598
429.758820,1924.535449,-10362.883188,995.924147
429.759142,3256.906145,-10658.965565,919.314598
429.759465,3849.070898,-10584.944971,0.000000
429.759787,2886.803174,-9622.677246,-1072.533697
429.760110,666.185348,-8734.430116,-689.485948
429.760432,-1258.350101,-8216.285956,-1762.019645
429.760755,-3034.844362,-9178.553681,-2604.724693
429.761077,-4219.173869,-10732.986159,-2834.553343
429.761399,-5477.523971,-10732.986159,-1838.629195
429.761722,-6365.771101,-9252.574275,-1532.190996
429.762044,-5477.523971,-8216.285956,-1762.019645
429.762367,-2812.782580,-6365.771101,-3370.820191
429.762689,-814.226536,-6143.709319,-4136.915689
429.763012,0.000000,-7254.018232,-2987.772442
429.763334,222.061783,-8734.430116,-1455.581446
429.763657,592.164754,-9696.697840,-1149.143247
429.763979,222.061783,-10362.883188,-2451.505594
429.764302,888.247130,-11399.171507,-2987.772442
429.764624,740.205942,-12139.377449,-2451.505594
429.764947,592.164754,-12139.377449,-1302.362347
429.765269,370.102971,-11473.192101,153.219100
429.765592,222.061783,-9474.636058,689.485948
429.765914,370.102971,-6957.935855,-612.876398
429.766237,1554.432478,-6365.771101,-2221.676944
429.766559,1110.308913,-6069.688724,-1991.848295
429.766882,1332.370696,-7772.162391,-766.095498
429.767204,1332.370696,-9696.697840,1455.581446
429.767527,2442.679609,-10732.986159,1225.752797
429.767849,3182.885551,-11029.068536,229.828649
429.768172,3108.864956,-10807.006753,153.219100
429.768494,1776.494261,-9474.636058,-459.657299
429.768817,-370.102971,-7624.121203,-1991.848295
429.769139,-2294.638420,-9252.574275,-2451.505594
429.769462,-3923.091493,-10362.883188,-2145.067394
429.769784,-5847.626942,-10807.006753,-1838.629195
429.770107,-7179.997637,-9992.780217,-1455.581446
429.770429,-6587.832884,-8438.347739,-1532.190996
429.770752,-3701.029710,-6513.812290,-4290.134789
429.771074,-1480.411884,-6143.709319,-5515.887586
429.771397,-370.102971,-7476.080014,-3524.039291
429.771719,518.144159,-8660.409521,-1302.362347
429.772042,888.247130,-8808.450710,-1149.143247
429.772364,888.247130,-9326.594869,-1991.848295
429.772687,888.247130,-11843.295072,-3600.648841
429.773009,1258.350101,-13915.871710,-2987.772442
429.773332,1554.432478,-13471.748144,-1762.019645
429.773654,1924.535449,-11917.315666,-459.657299
429.773977,2294.638420,-9252.574275,919.314598
429.774299,2738.761985,-7698.141797,0.000000
429.774622,2368.659014,-6587.832884,-995.924147
429.774944,740.205942,-5995.668130,-1838.629195
429.775267,0.000000,-7846.182985,-1532.190996
429.775589,592.164754,-9474.636058,-536.266849
429.775912,1406.391290,-9770.718434,0.000000
429.776234,2146.597232,-10214.842000,0.000000
429.776557,2220.617826,-10362.883188,-383.047749
429.776879,1332.370696,-10510.924376,-459.657299
429.777202,-592.164754,-9474.636058,-689.485948
429.777524,-2960.823768,-8808.450710,-2604.724693
429.777847,-5107.421000,-10288.862594,-3753.867940
429.778169,-6735.874072,-10955.047942,-3370.820191
429.778492,-7402.059420,-10066.800811,-2604.724693
429.778814,-7698.141797,-7772.162391,-2681.334243
429.779137,-6217.729913,-6883.915261,-3907.087040
429.779459,-4145.153275,-6883.915261,-3907.087040
429.779782,-2146.597232,-7179.997637,-3370.820191
429.780104,-1184.329507,-7994.224174,-2451.505594
429.780427,222.061783,-9326.594869,-2221.676944
429.780749,2442.679609,-10214.842000,-2528.115143
429.781072,2812.782580,-10140.821405,-2374.896044
429.781394,3182.885551,-11769.274478,-1302.362347
429.781717,3108.864956,-11917.315666,0.000000
429.782039,2664.741391,-11251.130318,0.000000
429.782362,2368.659014,-9696.697840,229.828649
429.782684,1702.473667,-9252.574275,383.047749
429.783007,814.226536,-7772.162391,0.000000
429.783329,222.061783,-6587.832884,-919.314598
429.783652,0.000000,-6587.832884,-1072.533697
429.783974,518.144159,-8216.285956,-766.095498
429.784297,1480.411884,-9474.636058,-689.485948
429.784619,2368.659014,-10362.883188,-459.657299
429.784942,2516.700203,-11103.089130,-306.438199
429.785264,1998.556043,-11621.233289,-306.438199
429.785587,222.061783,-11103.089130,-689.485948
429.785909,-1924.535449,-10140.821405,-1685.410096
429.786232,-3627.009116,-11103.089130,-3600.648841
429.786554,-5773.606348,-11103.089130,-2987.772442
429.786877,-7624.121203,-9918.759623,-3140.991542
429.787199,-8068.244768,-8216.285956,-3447.429741
429.787522,-6365.771101,-7105.977043,-4213.525239
429.787844,-3478.967927,-5921.647536,-3907.087040
429.788166,-1258.350101,-6661.853478,-3370.820191
429.788489,0.000000,-7179.997637,-2068.457845
429.788811,962.267725,-8364.327145,-1302.362347
429.789133,1998.556043,-9992.780217,-1685.410096
429.789455,2960.823768,-10288.862594,-1685.410096
429.789777,2442.679609,-10510.924376,-2068.457845
429.790100,2590.720797,-9992.780217,-1915.238745
429.790422,2812.782580,-10214.842000,-1149.143247
429.790744,2590.720797,-10807.006753,0.000000
429.791067,2220.617826,-9918.759623,1455.581446
429.791389,1702.473667,-8586.388927,383.047749
429.791712,296.082377,-7550.100608,-1149.143247
429.792034,592.164754,-7846.182985,-2068.457845
429.792356,888.247130,-8364.327145,-1225.752797
429.792679,1110.308913,-8216.285956,229.828649
429.793001,2146.597232,-9030.512492,383.047749
429.793323,3182.885551,-10288.862594,0.000000
429.793646,2960.823768,-11029.068536,0.000000
429.793968,1628.453072,-11251.130318,-459.657299
429.794291,-592.164754,-11547.212695,-1149.143247
429.794613,-2146.597232,-11251.130318,-2528.115143
429.794935,-3404.947333,-10955.047942,-2834.553343
429.795258,-5699.585753,-9474.636058,-2221.676944
429.795580,-6883.915261,-7402.059420,-1762.019645
429.795902,-7105.977043,-6217.729913,-2911.162892
429.796225,-4737.318029,-6439.791695,-4366.744339
429.796547,-2812.782580,-6883.915261,-4596.572988
429.796870,-1406.391290,-8216.285956,-3217.601092
429.797192,0.000000,-9252.574275,-1225.752797
429.797514,1332.370696,-9622.677246,-919.314598
429.797837,2368.659014,-10288.862594,-2068.457845
429.798159,2516.700203,-10436.903782,-2298.286494
429.798481,1998.556043,-10510.924376,-2298.286494
429.798804,1776.494261,-11103.089130,-2604.724693
429.799126,1332.370696,-11843.295072,-1302.362347
429.799449,0.000000,-11547.212695,612.876398
429.799771,-1110.308913,-9548.656652,689.485948
429.800093,-2072.576638,-8364.327145,-842.705048
429.800416,-1776.494261,-7698.141797,-2451.505594
429.800738,-1258.350101,-7476.080014,-2528.115143
429.801060,-814.226536,-7772.162391,-1378.971896
429.801383,148.041188,-8216.285956,-689.485948
429.801705,2220.617826,-9474.636058,-229.828649
429.802027,3256.906145,-11103.089130,-612.876398
429.802350,3108.864956,-12435.459826,-612.876398
429.802672,1628.453072,-12213.398043,0.000000
429.802995,-222.061783,-11177.109724,-1072.533697
429.803317,-2738.761985,-10288.862594,-2681.334243
429.803639,-5033.400406,-9326.594869,-2298.286494
429.803962,-6661.853478,-8438.347739,-2911.162892
429.804284,-6587.832884,-7105.977043,-3753.867940
429.804606,-5921.647536,-6365.771101,-3753.867940
429.804929,-3404.947333,-6069.688724,-3600.648841
429.805251,-1628.453072,-7550.100608,-2987.772442
429.805574,-444.123565,-9326.594869,-2451.505594
429.805896,888.247130,-10214.842000,-1685.410096
429.806218,1332.370696,-10584.944971,-1455.581446
429.806541,1480.411884,-9992.780217,-2221.676944
429.806863,1406.391290,-8808.450710,-2528.115143
429.807185,1554.432478,-9326.594869,-2987.772442
429.807508,1554.432478,-10584.944971,-1991.848295
429.807830,1258.350101,-11251.130318,0.000000
429.808153,666.185348,-9770.718434,536.266849
429.808475,1036.288319,-7920.203579,-306.438199
429.808797,1110.308913,-8068.244768,-1915.238745
429.809120,962.267725,-7402.059420,-1455.581446
429.809442,1110.308913,-7624.121203,-995.924147
429.809764,1628.453072,-7698.141797,-842.705048
429.810087,3701.029710,-8216.285956,-383.047749
429.810409,4515.256246,-9622.677246,383.047749
429.810732,4959.379811,-11251.130318,-229.828649
429.811054,4145.153275,-12583.501014,-229.828649
429.811376,2368.659014,-12731.542202,-229.828649
429.811699,222.061783,-12139.377449,-1072.533697
429.812021,-2368.659014,-10584.944971,-1762.019645
429.812343,-4811.338623,-9178.553681,-2221.676944
429.812666,-6291.750507,-7254.018232,-3064.381992
429.812988,-5403.503377,-5995.668130,-3830.477490
429.813311,-4071.132681,-5625.565159,-4366.744339
429.813633,-1480.411884,-6957.935855,-3524.039291
429.813955,-1036.288319,-7846.182985,-2145.067394
429.814278,296.082377,-9474.636058,-1302.362347
429.814600,1036.288319,-10955.047942,-1915.238745
429.814922,814.226536,-11251.130318,-2987.772442
429.815245,0.000000,-10732.986159,-3370.820191
429.815567,-740.205942,-9992.780217,-2834.553343
429.815890,-740.205942,-10732.986159,-2374.896044
429.816212,-1184.329507,-11325.150913,-1072.533697
429.816534,-1702.473667,-10584.944971,0.000000
429.816857,-1776.494261,-8734.430116,459.657299
429.817179,-1332.370696,-7476.080014,-689.485948
429.817501,-962.267725,-7328.038826,-995.924147
429.817824,-518.144159,-7254.018232,-689.485948
429.818146,0.000000,-7624.121203,0.000000
429.818468,814.226536,-8438.347739,459.657299
429.818791,1998.556043,-9178.553681,-229.828649
429.819113,2072.576638,-10288.862594,-306.438199
429.819436,1258.350101,-11473.192101,-459.657299
429.819758,444.123565,-12139.377449,-306.438199
429.820080,-666.185348,-12139.377449,-689.485948
429.820403,-2516.700203,-11251.130318,-1149.143247
429.820725,-4885.359217,-9474.636058,-1072.533697
429.821047,-6661.853478,-7846.182985,-2221.676944
429.821370,-6587.832884,-6587.832884,-3524.039291
429.821692,-5773.606348,-5551.544565,-4673.182538
429.822015,-4145.153275,-6143.709319,-4519.963438
429.822337,-2220.617826,-7476.080014,-3064.381992
429.822659,0.000000,-8956.491898,-1685.410096
429.822982,1406.391290,-10214.842000,-1149.143247
429.823304,2368.659014,-10658.965565,-1685.410096
429.823626,2812.782580,-10881.027347,-2298.286494
429.823949,2664.741391,-10288.862594,-2451.505594
429.824271,2960.823768,-10510.924376,-2987.772442
429.824594,1924.535449,-10955.047942,-1455.581446
429.824916,1036.288319,-11103.089130,0.000000
429.825238,0.000000,-9696.697840,383.047749
429.825561,0.000000,-8068.244768,-919.314598
429.825883,592.164754,-7772.162391,-2681.334243
429.826205,1184.329507,-7402.059420,-2451.505594
429.826528,2516.700203,-8290.306550,-1225.752797
429.826850,3478.967927,-8142.265362,0.000000
429.827173,4663.297435,-9104.533087,153.219100
429.827495,5033.400406,-10140.821405,0.000000
429.827817,4589.276840,-11399.171507,-383.047749
429.828140,2960.823768,-12361.439231,-689.485948
429.828462,1036.288319,-11843.295072,-842.705048
429.828784,-592.164754,-11547.212695,-1302.362347
429.829107,-2590.720797,-10362.883188,-1685.410096
429.829429,-4737.318029,-8068.244768,-1532.190996
429.829752,-5477.523971,-6291.750507,-2298.286494
429.830074,-5847.626942,-5403.503377,-3370.820191
429.830396,-3849.070898,-6143.709319,-4290.134789
429.830719,-2738.761985,-6809.894666,-3907.087040
429.831041,-1480.411884,-8438.347739,-2298.286494
429.831363,0.000000,-9844.739029,-1685.410096
429.831686,518.144159,-10510.924376,-1072.533697
429.832008,74.020594,-10214.842000,-1991.848295
429.832331,-370.102971,-9918.759623,-3217.601092
429.832653,-1036.288319,-10288.862594,-3217.601092
429.832975,-1332.370696,-11325.150913,-1455.581446
429.833298,-962.267725,-11473.192101,-612.876398
429.833620,-1406.391290,-10066.800811,0.000000
429.833942,-888.247130,-8586.388927,-459.657299
429.834265,-962.267725,-7328.038826,-1149.143247
429.834587,-1110.308913,-6291.750507,-1149.143247
429.834910,-962.267725,-7624.121203,-919.314598
429.835232,-666.185348,-7920.203579,-459.657299
429.835554,370.102971,-8216.285956,-612.876398
429.835877,1850.514855,-9696.697840,-383.047749
429.836199,2220.617826,-11177.109724,0.000000
429.836521,1998.556043,-12213.398043,0.000000
429.836844,1480.411884,-12731.542202,0.000000
429.837166,592.164754,-11769.274478,-1149.143247
429.837488,-1184.329507,-10881.027347,-1378.971896
429.837811,-3701.029710,-9252.574275,-1532.190996
429.838133,-5181.441594,-6957.935855,-3217.601092
429.838456,-5551.544565,-6291.750507,-3907.087040
429.838778,-4737.318029,-6217.729913,-4519.963438
429.839100,-2886.803174,-6883.915261,-4443.353888
429.839423,-1480.411884,-8438.347739,-3294.210641
429.839745,222.061783,-10066.800811,-1608.800546
429.840067,1776.494261,-11473.192101,-995.924147
429.840390,2146.597232,-11103.089130,-1225.752797
429.840712,1850.514855,-10362.883188,-2528.115143
429.841035,814.226536,-9844.739029,-2911.162892
429.841357,0.000000,-9992.780217,-2145.067394
429.841679,-1258.350101,-10066.800811,-995.924147
429.842002,-1850.514855,-10362.883188,-383.047749
429.842324,-1850.514855,-9622.677246,-306.438199
429.842646,-814.226536,-8512.368333,-1378.971896
429.842969,0.000000,-8142.265362,-1991.848295
429.843291,1258.350101,-8586.388927,-919.314598
429.843614,1924.535449,-8586.388927,-306.438199
429.843936,3256.906145,-8882.471304,-153.219100
429.844258,3997.112087,-9474.636058,-612.876398
429.844581,3923.091493,-10288.862594,-612.876398
429.844903,2812.782580,-11695.253884,-459.657299
429.845225,1332.370696,-11843.295072,153.219100
429.845548,518.144159,-12065.356855,-612.876398
429.845870,-518.144159,-11399.171507,-1225.752797
429.846193,-2368.659014,-9400.615463,-766.095498
429.846515,-4367.215058,-7179.997637,0.000000
429.846837,-5773.606348,-4367.215058,-1762.019645
429.847160,-4737.318029,-5107.421000,-3600.648841
429.847482,-3404.947333,-5255.462188,-3830.477490
429.847804,-2590.720797,-7254.018232,-3370.820191
429.848127,-1480.411884,-9104.533087,-1762.019645
429.848449,222.061783,-10955.047942,-689.485948
429.848772,1850.514855,-11547.212695,-1302.362347
429.849094,2442.679609,-11769.274478,-2374.896044
429.849416,1924.535449,-11399.171507,-2451.505594
429.849739,814.226536,-10436.903782,-2221.676944
429.850061,0.000000,-9622.677246,-2068.457845
429.850383,-1258.350101,-10510.924376,-1225.752797
429.850706,-1924.535449,-9696.697840,-842.705048
429.851028,-2146.597232,-8438.347739,-612.876398
429.851351,-2664.741391,-7105.977043,-1455.581446
429.851673,-1776.494261,-7550.100608,-1608.800546
429.851995,74.020594,-8068.244768,-995.924147
429.852318,1554.432478,-8660.409521,-689.485948
429.852640,3701.029710,-9326.594869,229.828649
429.852962,4811.338623,-9622.677246,306.438199
429.853285,4737.318029,-9992.780217,0.000000
429.853607,3404.947333,-11103.089130,306.438199
429.853929,1258.350101,-11843.295072,76.609550
429.854252,-962.267725,-11695.253884,-1302.362347
429.854574,-3034.844362,-10732.986159,-1991.848295
429.854897,-4441.235652,-9104.533087,-2221.676944
429.855219,-4737.318029,-6439.791695,-2374.896044
429.855541,-3849.070898,-4589.276840,-2911.162892
429.855864,-3701.029710,-5181.441594,-3600.648841
429.856186,-3256.906145,-6365.771101,-3753.867940
429.856508,-1998.556043,-8586.388927,-3830.477490
429.856831,-1258.350101,-9844.739029,-3294.210641
429.857153,-370.102971,-11251.130318,-3294.210641
429.857476,0.000000,-12509.480420,-2911.162892
429.857798,0.000000,-12435.459826,-2757.943793
429.858120,296.082377,-11473.192101,-3217.601092
429.858443,518.144159,-11029.068536,-3524.039291
429.858765,518.144159,-10584.944971,-1915.238745
429.859087,-740.205942,-9474.636058,-766.095498
429.859410,-1110.308913,-7920.203579,-842.705048
429.859732,-222.061783,-7846.182985,-1225.752797
429.860055,666.185348,-8142.265362,-1532.190996
429.860377,1628.453072,-8142.265362,-766.095498
429.860699,2220.617826,-7698.141797,-1149.143247
429.861022,2738.761985,-8290.306550,536.266849
429.861344,4071.132681,-9622.677246,383.047749
429.861666,4441.235652,-10807.006753,0.000000
429.861989,3330.926739,-11399.171507,0.000000
429.862311,1332.370696,-10955.047942,0.000000
429.862634,0.000000,-11103.089130,-1225.752797
429.862956,-1776.494261,-11177.109724,-1762.019645
429.863278,-3923.091493,-10288.862594,-1608.800546
429.863601,-5551.544565,-7846.182985,-2298.286494
429.863923,-5847.626942,-7031.956449,-2834.553343
429.864245,-5625.565159,-6957.935855,-3907.087040
429.864568,-4515.256246,-7550.100608,-3753.867940
429.864890,-3775.050304,-8216.285956,-3447.429741
429.865213,-2960.823768,-9030.512492,-2374.896044
429.865535,-1554.432478,-10066.800811,-1915.238745
429.865857,-148.041188,-10510.924376,-2068.457845
429.866180,222.061783,-10732.986159,-2681.334243
429.866502,296.082377,-10658.965565,-2298.286494
429.866824,370.102971,-10510.924376,-1455.581446
429.867147,74.020594,-10362.883188,-766.095498
429.867469,0.000000,-10214.842000,306.438199
429.867792,-148.041188,-8438.347739,842.705048
429.868114,148.041188,-7105.977043,-459.657299
429.868436,1184.329507,-6513.812290,-612.876398
429.868759,1776.494261,-6735.874072,-306.438199
429.869081,2516.700203,-7698.141797,306.438199
429.869403,2886.803174,-8290.306550,1302.362347
429.869726,3108.864956,-9918.759623,919.314598
429.870048,2812.782580,-11325.150913,153.219100
429.870370,2072.576638,-11695.253884,-536.266849
429.870693,518.144159,-11547.212695,-995.924147
429.871015,-1184.329507,-10732.986159,-1149.143247
429.871338,-1776.494261,-11177.109724,-1838.629195
429.871660,-3627.009116,-10066.800811,-1838.629195
429.871982,-5551.544565,-8142.265362,-2374.896044
429.872305,-6809.894666,-7698.141797,-2757.943793
429.872627,-6661.853478,-6883.915261,-3370.820191
429.872949,-5033.400406,-6809.894666,-4290.134789
429.873272,-3182.885551,-7846.182985,-4060.306139
429.873594,-1554.432478,-8808.450710,-2298.286494
429.873917,592.164754,-9622.677246,-1302.362347
429.874239,2590.720797,-9474.636058,-1378.971896
429.874561,3627.009116,-9548.656652,-1455.581446
429.874884,3256.906145,-10140.821405,-1532.190996
429.875206,2220.617826,-10436.903782,-1838.629195
429.875528,444.123565,-10658.965565,-1455.581446
429.875851,-814.226536,-11103.089130,-383.047749
429.876173,-1036.288319,-10288.862594,-689.485948
429.876496,-444.123565,-8290.306550,-1915.238745
429.876818,0.000000,-7105.977043,-2374.896044
429.877140,740.205942,-6587.832884,-1991.848295
429.877463,1850.514855,-7698.141797,-842.705048
429.877785,2368.659014,-9178.553681,-459.657299
429.878107,3552.988522,-10807.006753,-1378.971896
429.878430,3256.906145,-11695.253884,-1685.410096
429.878752,2516.700203,-12213.398043,-1225.752797
429.879075,1554.432478,-11843.295072,-1072.533697
429.879397,740.205942,-11473.192101,-1532.190996
429.879719,0.000000,-10807.006753,-2145.067394
429.880042,-1480.411884,-9770.718434,-1455.581446
429.880364,-3478.967927,-8438.347739,-1685.410096
429.880686,-5403.503377,-7254.018232,-2604.724693
429.881009,-6069.688724,-7550.100608,-2987.772442
429.881331,-5255.462188,-7402.059420,-3677.258390
429.881654,-3701.029710,-7179.997637,-3600.648841
429.881976,-2146.597232,-8068.244768,-3600.648841
429.882298,0.000000,-8734.430116,-2221.676944
429.882621,1850.514855,-9696.697840,-1302.362347
429.882943,2442.679609,-10066.800811,-1455.581446
429.883265,2220.617826,-10732.986159,-1991.848295
429.883588,814.226536,-11251.130318,-2834.553343
429.883910,-370.102971,-11991.336260,-2834.553343
429.884233,-1332.370696,-11843.295072,-1991.848295
429.884555,-2294.638420,-10732.986159,-1225.752797
429.884877,-2294.638420,-9400.615463,-1225.752797
429.885200,-1998.556043,-7920.203579,-842.705048
429.885522,-1036.288319,-6809.894666,-1762.019645
429.885844,-370.102971,-6957.935855,-1532.190996
429.886167,370.102971,-8290.306550,-919.314598
429.886489,1628.453072,-9844.739029,0.000000
429.886812,2368.659014,-10436.903782,-306.438199
429.887134,2738.761985,-10732.986159,229.828649
429.887456,2442.679609,-10584.944971,0.000000
429.887779,1924.535449,-10732.986159,0.000000
429.888101,444.123565,-10140.821405,-383.047749
429.888423,-1406.391290,-9474.636058,-689.485948
429.888746,-3404.947333,-8438.347739,-766.095498
429.889068,-4589.276840,-7994.224174,-1532.190996
429.889391,-5403.503377,-7254.018232,-2221.676944
429.889713,-5107.421000,-7624.121203,-2757.943793
429.890035,-4737.318029,-7031.956449,-1762.019645
429.890358,-3478.967927,-7254.018232,-2145.067394
429.890680,-1258.350101,-8216.285956,-2374.896044
429.891003,444.123565,-8808.450710,-2145.067394
429.891325,1036.288319,-9622.677246,-1225.752797
429.891647,888.247130,-10658.965565,-995.924147
429.891970,74.020594,-10214.842000,-1225.752797
429.892292,-296.082377,-10881.027347,-2451.505594
429.892615,-666.185348,-10732.986159,-2451.505594
429.892937,-666.185348,-10436.903782,-2374.896044
429.893259,-592.164754,-9622.677246,-1149.143247
429.893582,0.000000,-7772.162391,-766.095498
429.893904,740.205942,-8512.368333,-1225.752797
429.894227,1332.370696,-8586.388927,-842.705048
429.894549,1406.391290,-9548.656652,-689.485948
429.894871,1776.494261,-10066.800811,-536.266849
429.895194,2516.700203,-10288.862594,0.000000
429.895516,3034.844362,-9622.677246,-306.438199
429.895839,3182.885551,-10066.800811,-689.485948
429.896161,2368.659014,-10288.862594,-229.828649
429.896483,962.267725,-9992.780217,229.828649
429.896806,-296.082377,-9252.574275,-612.876398
429.897128,-1702.473667,-9030.512492,-2145.067394
429.897451,-3478.967927,-9178.553681,-2374.896044
429.897773,-4589.276840,-7920.203579,-2221.676944
429.898095,-4959.379811,-7105.977043,-3064.381992
429.898418,-4589.276840,-7105.977043,-3140.991542
429.898740,-3108.864956,-6735.874072,-2911.162892
429.899063,-1628.453072,-7698.141797,-3447.429741
429.899385,0.000000,-8956.491898,-3983.696590
429.899707,1628.453072,-10955.047942,-3753.867940
429.900030,2294.638420,-11843.295072,-3370.820191
429.900352,1924.535449,-12287.418637,-2451.505594
429.900675,2072.576638,-12583.501014,-3370.820191
429.900997,1998.556043,-12361.439231,-3217.601092
429.901319,1480.411884,-11547.212695,-2374.896044
429.901642,740.205942,-10214.842000,-842.705048
429.901964,0.000000,-8512.368333,0.000000
429.902287,666.185348,-7105.977043,-383.047749
429.902609,1258.350101,-6439.791695,-1378.971896
429.902931,2590.720797,-7105.977043,-1072.533697
429.903254,3256.906145,-7772.162391,-153.219100
429.903576,3256.906145,-7994.224174,766.095498
429.903899,3849.070898,-9030.512492,766.095498
429.904221,3701.029710,-10510.924376,1072.533697
429.904543,1998.556043,-10510.924376,306.438199
429.904866,-222.061783,-10066.800811,-306.438199
429.905188,-2072.576638,-9918.759623,-2221.676944
429.905511,-3108.864956,-11029.068536,-2987.772442
429.905833,-4367.215058,-10807.006753,-2757.943793
429.906155,-5921.647536,-8512.368333,-1915.238745
429.906478,-6735.874072,-8068.244768,-2834.553343
429.906800,-6809.894666,-8882.471304,-3600.648841
429.907123,-6143.709319,-9178.553681,-3524.039291
429.907445,-5403.503377,-8660.409521,-3600.648841
429.907767,-4441.235652,-8956.491898,-2681.334243
429.908090,-3034.844362,-9252.574275,-1149.143247
429.908412,-1480.411884,-8364.327145,-1302.362347
429.908735,0.000000,-7772.162391,-1915.238745
429.909057,888.247130,-9104.533087,-2374.896044
429.909379,1036.288319,-10658.965565,-1838.629195
429.909702,888.247130,-11103.089130,-229.828649
429.910024,-148.041188,-10584.944971,612.876398
429.910347,-518.144159,-9918.759623,612.876398
429.910669,148.041188,-8586.388927,-689.485948
429.910991,1036.288319,-7402.059420,-2298.286494
429.911314,2072.576638,-7772.162391,-1762.019645
429.911636,2590.720797,-8142.265362,0.000000
429.911959,2960.823768,-8512.368333,459.657299
429.912281,3182.885551,-9400.615463,459.657299
429.912603,3034.844362,-10436.903782,306.438199
429.912926,1480.411884,-10881.027347,-306.438199
429.913248,-148.041188,-10510.924376,-1072.533697
429.913571,-1554.432478,-10214.842000,-2068.457845
429.913893,-2442.679609,-9992.780217,-2451.505594
429.914215,-3404.947333,-9326.594869,-2145.067394
429.914538,-4219.173869,-8512.368333,-2451.505594
429.914860,-5329.482782,-7920.203579,-2451.505594
429.915183,-4293.194464,-8364.327145,-3753.867940
429.915505,-3256.906145,-8364.327145,-4903.011187
429.915827,-2368.659014,-8660.409521,-3753.867940
429.916150,-1628.453072,-8438.347739,-1608.800546
429.916472,-148.041188,-8364.327145,-2298.286494
429.916795,1776.494261,-9030.512492,-3524.039291
429.917117,3627.009116,-9326.594869,-4213.525239
429.917439,3849.070898,-10436.903782,-3677.258390
429.917762,3552.988522,-11621.233289,-2298.286494
429.918084,2886.803174,-12657.521608,-383.047749
429.918407,2368.659014,-12953.603985,0.000000
429.918729,1702.473667,-10807.006753,-383.047749
429.919051,1258.350101,-8512.368333,-919.314598
429.919374,1258.350101,-7031.956449,-1762.019645
429.919696,1628.453072,-6365.771101,-1915.238745
429.920019,2072.576638,-6365.771101,-383.047749
429.920341,2294.638420,-7476.080014,229.828649
429.920663,2960.823768,-9104.533087,76.609550
429.920986,3627.009116,-10881.027347,-689.485948
429.921308,3182.885551,-11695.253884,-842.705048
429.921631,1258.350101,-11177.109724,919.314598
429.921953,-296.082377,-10288.862594,76.609550
429.922275,-2220.617826,-9548.656652,-1915.238745
429.922598,-4071.132681,-9178.553681,-2451.505594
429.922920,-6143.709319,-8808.450710,-2374.896044
429.923243,-7550.100608,-7698.141797,-3294.210641
429.923565,-7624.121203,-9030.512492,-3830.477490
429.923887,-6883.915261,-9104.533087,-3677.258390
429.924210,-5403.503377,-8882.471304,-2987.772442
429.924532,-4145.153275,-8586.388927,-2834.553343
429.924855,-2516.700203,-8882.471304,-2221.676944
429.925177,-444.123565,-9104.533087,-2834.553343
429.925499,888.247130,-8660.409521,-3217.601092
429.925822,1406.391290,-9548.656652,-2757.943793
429.926144,1184.329507,-10955.047942,-1149.143247
429.926467,814.226536,-12361.439231,-383.047749
429.926789,444.123565,-12139.377449,229.828649
429.927111,296.082377,-10955.047942,0.000000
429.927434,148.041188,-8882.471304,76.609550
429.927756,592.164754,-6809.894666,-459.657299
429.928079,1036.288319,-5995.668130,-459.657299
429.928401,1554.432478,-5921.647536,-459.657299
429.928723,1850.514855,-6957.935855,0.000000
429.929046,2294.638420,-8882.471304,0.000000
429.929368,2220.617826,-10362.883188,-229.828649
429.929691,1480.411884,-11473.192101,76.609550
429.930013,1110.308913,-11695.253884,76.609550
429.930335,0.000000,-11325.150913,-689.485948
429.930658,-1258.350101,-10658.965565,-2374.896044
429.930980,-2146.597232,-10140.821405,-2834.553343
429.931303,-3775.050304,-9030.512492,-2528.115143
429.931625,-4959.379811,-8438.347739,-2604.724693
429.931947,-5403.503377,-9104.533087,-3370.820191
429.932270,-5403.503377,-8808.450710,-3447.429741
429.932592,-4737.318029,-8438.347739,-2987.772442
429.932915,-3627.009116,-7328.038826,-2834.553343
429.933237,-1480.411884,-7402.059420,-3140.991542
429.933559,1110.308913,-7920.203579,-3217.601092
429.933882,3256.906145,-8438.347739,-2528.115143
429.934204,3997.112087,-8882.471304,-1991.848295
429.934527,4071.132681,-10362.883188,-1302.362347
429.934849,3775.050304,-12139.377449,-766.095498
429.935171,2664.741391,-12509.480420,-1532.190996
429.935494,1258.350101,-11917.315666,-459.657299
429.935816,148.041188,-10584.944971,0.000000
429.936139,444.123565,-8512.368333,-383.047749
429.936461,1406.391290,-6069.688724,-1838.629195
429.936783,1850.514855,-5107.421000,-1762.019645
429.937106,2516.700203,-6069.688724,-612.876398
429.937428,2590.720797,-8512.368333,153.219100
429.937751,2590.720797,-10066.800811,0.000000
429.938073,2072.576638,-11399.171507,-536.266849
429.938396,1184.329507,-12213.398043,-536.266849
429.938718,-740.205942,-11251.130318,-612.876398
429.939040,-1924.535449,-10436.903782,-919.314598
429.939363,-2664.741391,-9696.697840,-2604.724693
429.939685,-3849.070898,-9474.636058,-3064.381992
429.940008,-4959.379811,-8956.491898,-2451.505594
429.940330,-6439.791695,-8142.265362,-3064.381992
429.940652,-6291.750507,-9400.615463,-4366.744339
429.940975,-5255.462188,-9178.553681,-3447.429741
429.941297,-4145.153275,-9030.512492,-3370.820191
429.941620,-2886.803174,-8216.285956,-2911.162892
429.941942,-814.226536,-8364.327145,-1991.848295
429.942264,1036.288319,-8438.347739,-1072.533697
429.942587,2146.597232,-8660.409521,-1378.971896
429.942909,2368.659014,-10140.821405,-1532.190996
429.943232,1850.514855,-11473.192101,-1225.752797
429.943554,1258.350101,-12287.418637,-766.095498
429.943876,666.185348,-11843.295072,-612.876398
429.944199,-444.123565,-10362.883188,383.047749
429.944521,-1110.308913,-8660.409521,306.438199
429.944844,-1480.411884,-6365.771101,-766.095498
429.945166,-1332.370696,-5921.647536,-1608.800546
429.945488,-222.061783,-6957.935855,-1455.581446
429.945811,1036.288319,-8216.285956,-1991.848295
429.946133,2516.700203,-9918.759623,0.000000
429.946456,3256.906145,-11029.068536,995.924147
429.946778,2886.803174,-11695.253884,1378.971896
429.947100,1554.432478,-11251.130318,229.828649
429.947423,0.000000,-10214.842000,-1991.848295
429.947745,-1406.391290,-9474.636058,-3600.648841
429.948068,-2664.741391,-8956.491898,-2987.772442
429.948390,-4441.235652,-8660.409521,-1991.848295
429.948712,-5255.462188,-8290.306550,-1378.971896
429.949035,-5181.441594,-8438.347739,-2451.505594
429.949357,-3552.988522,-9252.574275,-2757.943793
429.949680,-2368.659014,-8586.388927,-2911.162892
429.950002,-1554.432478,-7624.121203,-3447.429741
429.950324,-370.102971,-7402.059420,-3064.381992
429.950647,1332.370696,-8142.265362,-2221.676944
429.950969,2442.679609,-8956.491898,-2911.162892
429.951292,2220.617826,-9548.656652,-3294.210641
429.951614,1332.370696,-11769.274478,-2757.943793
429.951936,740.205942,-12805.562797,-2145.067394
429.952259,444.123565,-13101.645173,-1378.971896
429.952581,0.000000,-11843.295072,-383.047749
429.952904,-592.164754,-9918.759623,153.219100
429.953226,-1184.329507,-6587.832884,-1532.190996
429.953548,222.061783,-5773.606348,-2528.115143
429.953871,962.267725,-5181.441594,-2068.457845
429.954193,1406.391290,-6661.853478,-1149.143247
429.954516,2442.679609,-8660.409521,-919.314598
429.954838,3182.885551,-10807.006753,0.000000
429.955160,3256.906145,-12065.356855,766.095498
429.955483,2368.659014,-11917.315666,919.314598
429.955805,518.144159,-10732.986159,-229.828649
429.956128,-518.144159,-9992.780217,-1608.800546
429.956450,-1554.432478,-9474.636058,-2451.505594
429.956772,-3182.885551,-8586.388927,-2221.676944
429.957095,-4071.132681,-8142.265362,-1455.581446
429.957417,-4589.276840,-7994.224174,-1991.848295
429.957740,-3330.926739,-7994.224174,-3370.820191
429.958062,-2368.659014,-8586.388927,-3217.601092
429.958384,-2368.659014,-10066.800811,-2528.115143
429.958707,-1554.432478,-9918.759623,-1915.238745
429.959029,-814.226536,-8956.491898,-2298.286494
429.959352,0.000000,-8438.347739,-2834.553343
429.959674,592.164754,-9104.533087,-2604.724693
429.959996,148.041188,-10288.862594,-2451.505594
429.960319,-444.123565,-10881.027347,-2451.505594
429.960641,-888.247130,-11547.212695,-2221.676944
429.960964,-1332.370696,-11991.336260,-612.876398
429.961286,-1850.514855,-11325.150913,383.047749
429.961608,-2368.659014,-9104.533087,-306.438199
429.961931,-1554.432478,-7031.956449,-1991.848295
429.962253,0.000000,-5625.565159,-2528.115143
429.962576,1776.494261,-6809.894666,-1991.848295
429.962898,3108.864956,-8364.327145,0.000000
429.963220,3701.029710,-9252.574275,1762.019645
429.963543,4071.132681,-11177.109724,1608.800546
429.963865,4293.194464,-11991.336260,766.095498
429.964188,3108.864956,-11547.212695,0.000000
429.964510,1332.370696,-10066.800811,-842.705048
429.964832,-370.102971,-8882.471304,-1455.581446
429.965155,-1036.288319,-8808.450710,-1838.629195
429.965477,-2442.679609,-7920.203579,-1302.362347
429.965800,-3849.070898,-7105.977043,-1378.971896
429.966122,-5477.523971,-7402.059420,-2068.457845
429.966444,-5625.565159,-8956.491898,-2221.676944
429.966767,-4293.194464,-9770.718434,-3217.601092
429.967089,-3256.906145,-9770.718434,-4213.525239
429.967412,-1850.514855,-9992.780217,-2681.334243
429.967734,74.020594,-9622.677246,-1532.190996
429.968056,1406.391290,-8438.347739,-1762.019645
429.968379,1628.453072,-8956.491898,-2451.505594
429.968701,518.144159,-9992.780217,-3140.991542
429.969024,0.000000,-11325.150913,-3294.210641
429.969346,-1110.308913,-12361.439231,-1762.019645
429.969668,-1850.514855,-11843.295072,-153.219100
429.969991,-1554.432478,-9770.718434,-536.266849
429.970313,-1332.370696,-7402.059420,-2068.457845
429.970636,148.041188,-7105.977043,-2068.457845
429.970958,1258.350101,-7105.977043,-1225.752797
429.971280,2072.576638,-7624.121203,-766.095498
429.971603,2738.761985,-8142.265362,153.219100
429.971925,3034.844362,-9030.512492,536.266849
429.972248,3182.885551,-10584.944971,842.705048
429.972570,2590.720797,-10807.006753,919.314598
429.972892,1628.453072,-10658.965565,-306.438199
429.973215,666.185348,-10436.903782,-1762.019645
429.973537,-518.144159,-9918.759623,-229.828649
429.973860,-2738.761985,-8438.347739,383.047749
429.974182,-5699.585753,-7254.018232,-766.095498
429.974504,-6513.812290,-7254.018232,-2451.505594
429.974827,-5847.626942,-7476.080014,-4060.306139
429.975149,-4589.276840,-6513.812290,-4366.744339
429.975472,-3256.906145,-7476.080014,-4749.792088
429.975794,-1258.350101,-10066.800811,-3524.039291
429.976116,592.164754,-11769.274478,-2221.676944
429.976439,1406.391290,-11251.130318,-1685.410096
429.976761,518.144159,-10066.800811,-2911.162892
429.977084,-518.144159,-9844.739029,-4366.744339
429.977406,-1554.432478,-10732.986159,-4443.353888
429.977728,-2812.782580,-10955.047942,-3294.210641
429.978051,-3552.988522,-10881.027347,-1378.971896
429.978373,-3034.844362,-9844.739029,-229.828649
429.978696,-1998.556043,-8142.265362,-919.314598
429.979018,-444.123565,-6883.915261,-2221.676944
429.979340,370.102971,-6957.935855,-995.924147
429.979663,740.205942,-7846.182985,0.000000
429.979985,1110.308913,-8586.388927,306.438199
429.980308,1924.535449,-8586.388927,766.095498
429.980630,3182.885551,-8660.409521,-383.047749
429.980952,4293.194464,-10288.862594,-1532.190996
429.981275,3182.885551,-11473.192101,-995.924147
429.981597,1110.308913,-11325.150913,919.314598
429.981920,-1480.411884,-10436.903782,383.047749
429.982242,-3849.070898,-10807.006753,-1685.410096
429.982564,-5625.565159,-10807.006753,-3140.991542
429.982887,-8512.368333,-8956.491898,-3677.258390
429.983209,-9844.739029,-7698.141797,-4213.525239
429.983532,-8142.265362,-6661.853478,-4290.134789
429.983854,-5625.565159,-8068.244768,-4979.620737
429.984176,-3330.926739,-9400.615463,-4290.134789
429.984499,-2368.659014,-10140.821405,-1838.629195
429.984821,-1776.494261,-10288.862594,-1072.533697
429.985144,-962.267725,-10658.965565,-1685.410096
429.985466,-814.226536,-10436.903782,-2451.505594
429.985788,-1406.391290,-9696.697840,-3140.991542
429.986111,-2072.576638,-8586.388927,-3140.991542
429.986433,-1628.453072,-8660.409521,-1378.971896
429.986756,-1036.288319,-9178.553681,383.047749
429.987078,-1036.288319,-9548.656652,995.924147
429.987400,-1998.556043,-9918.759623,1072.533697
429.987723,-3108.864956,-9548.656652,536.266849
429.988045,-3404.947333,-8660.409521,0.000000
429.988368,-2442.679609,-7402.059420,-383.047749
429.988690,-962.267725,-6217.729913,-383.047749
429.989012,888.247130,-5625.565159,-995.924147
429.989335,3256.906145,-7105.977043,-1149.143247
429.989657,4515.256246,-10584.944971,-153.219100
429.989980,3997.112087,-12361.439231,459.657299
429.990302,2220.617826,-12731.542202,-229.828649
429.990624,-518.144159,-11695.253884,-1838.629195
429.990947,-3552.988522,-9696.697840,-2451.505594
429.991269,-7254.018232,-8142.265362,-3983.696590
429.991592,-9918.759623,-7105.977043,-4596.572988
429.991914,-12139.377449,-7624.121203,-4673.182538
429.992237,-12435.459826,-9548.656652,-3907.087040
429.992559,-11843.295072,-11547.212695,-3983.696590
429.992881,-10510.924376,-13027.624579,-3064.381992
429.993204,-8586.388927,-11769.274478,-689.485948
429.993526,-6291.750507,-8512.368333,-383.047749
429.993849,-2368.659014,-4959.379811,-2681.334243
429.994171,740.205942,-3552.988522,-3677.258390
429.994494,2516.700203,-2664.741391,-1915.238745
429.994816,3775.050304,-3923.091493,-1762.019645
429.995138,4811.338623,-7920.203579,-3524.039291
429.995461,6217.729913,-15322.262999,-2145.067394
429.995783,6217.729913,-18653.189738,229.828649
429.996106,3627.009116,-14952.160028,1532.190996
429.996428,148.041188,-12657.521608,229.828649
429.996751,-2738.761985,-10214.842000,306.438199
429.997073,-5477.523971,-6439.791695,-1378.971896
429.997395,-9030.512492,-2294.638420,-4213.525239
429.997718,-10214.842000,-3923.091493,-4903.011187
429.998040,-7624.121203,-8586.388927,-2757.943793
429.998363,-4441.235652,-12731.542202,-1378.971896
429.998685,-2738.761985,-12583.501014,1455.581446
429.999008,-1702.473667,-11843.295072,3217.601092
429.999330,-148.041188,-10288.862594,689.485948
429.999652,1998.556043,-7476.080014,-2451.505594
429.999975,814.226536,-4589.276840,-4826.401637
430.000297,0.000000,-4145.153275,-5975.544884
430.000620,-222.061783,-5625.565159,-3983.696590
430.000942,148.041188,-8438.347739,-2374.896044
430.001265,370.102971,-11177.109724,-3064.381992
430.001587,0.000000,-15840.407159,-3217.601092
430.001909,-740.205942,-17838.963202,-1455.581446
430.002232,-1998.556043,-16580.613101,-766.095498
430.002554,-3478.967927,-12805.562797,-766.095498
430.002877,-4293.194464,-8216.285956,0.000000
430.003199,-4737.318029,-3923.091493,-1225.752797
430.003522,-3923.091493,-2146.597232,-1149.143247
430.003844,-3182.885551,-2516.700203,-689.485948
430.004167,-2368.659014,-5181.441594,-306.438199
430.004489,-962.267725,-8142.265362,459.657299
430.004811,-296.082377,-10362.883188,229.828649
430.005134,0.000000,-11991.336260,0.000000
430.005456,-1184.329507,-11769.274478,-1532.190996
430.005779,-2220.617826,-10584.944971,-3217.601092
430.006101,-3330.926739,-9844.739029,-4060.306139
430.006424,-3701.029710,-9918.759623,-4060.306139
430.006746,-3627.009116,-9992.780217,-2834.553343
430.007068,-3182.885551,-11103.089130,-2757.943793
430.007391,-2886.803174,-12213.398043,-1762.019645
430.007713,-3108.864956,-12435.459826,-612.876398
430.008036,-3701.029710,-10362.883188,-306.438199
430.008358,-3923.091493,-7772.162391,-612.876398
430.008681,-4515.256246,-5107.421000,-1532.190996
430.009003,-4219.173869,-3849.070898,-2298.286494
430.009325,-4515.256246,-3923.091493,-2221.676944
430.009648,-4441.235652,-5847.626942,-1838.629195
430.009970,-3997.112087,-8438.347739,-2145.067394
430.010293,-3108.864956,-11399.171507,-2145.067394
430.010615,-3108.864956,-13027.624579,-1991.848295
430.010938,-3182.885551,-13397.727550,-1991.848295
430.011260,-3775.050304,-12583.501014,-2757.943793
430.011582,-3701.029710,-11325.150913,-3294.210641
430.011905,-3997.112087,-9696.697840,-3600.648841
430.012227,-3923.091493,-9178.553681,-3677.258390
430.012550,-3478.967927,-8808.450710,-2911.162892
430.012872,-2294.638420,-9474.636058,-1915.238745
430.013195,-1110.308913,-9992.780217,-383.047749
430.013517,-592.164754,-9992.780217,0.000000
430.013839,-592.164754,-8660.409521,229.828649
430.014162,-592.164754,-7031.956449,76.609550
430.014484,-888.247130,-5477.523971,-766.095498
430.014807,-1406.391290,-5107.421000,-1532.190996
430.015129,-1924.535449,-5995.668130,-1532.190996
430.015452,-1480.411884,-8068.244768,-1838.629195
430.015774,-888.247130,-10510.924376,-1532.190996
430.016097,74.020594,-12805.562797,-1072.533697
430.016419,370.102971,-13841.851115,-766.095498
430.016741,296.082377,-12657.521608,0.000000
430.017064,-592.164754,-11103.089130,0.000000
430.017386,-1184.329507,-9474.636058,-459.657299
430.017709,-1998.556043,-8290.306550,-1532.190996
430.018031,-3108.864956,-7328.038826,-1532.190996
430.018354,-4145.153275,-6587.832884,-1608.800546
430.018676,-3775.050304,-7550.100608,-1608.800546
430.018998,-3552.988522,-8586.388927,-1378.971896
430.019321,-3108.864956,-8956.491898,-1608.800546
430.019643,-3108.864956,-8882.471304,-2374.896044
430.019966,-3034.844362,-9474.636058,-3524.039291
430.020288,-3108.864956,-9622.677246,-2911.162892
430.020611,-4219.173869,-8956.491898,-2604.724693
430.020933,-5033.400406,-8734.430116,-3753.867940
430.021255,-4589.276840,-10658.965565,-4903.011187
430.021578,-3108.864956,-12213.398043,-3983.696590
430.021900,-2368.659014,-12213.398043,-2145.067394
430.022223,-1702.473667,-11473.192101,-229.828649
430.022545,-592.164754,-11251.130318,383.047749
430.022868,148.041188,-9992.780217,0.000000
430.023190,-296.082377,-7624.121203,0.000000
430.023512,-1258.350101,-6661.853478,76.609550
430.023835,-1850.514855,-7105.977043,-536.266849
430.024157,-1924.535449,-7105.977043,-766.095498
430.024480,-2220.617826,-6809.894666,-153.219100
430.024802,-1924.535449,-8364.327145,-229.828649
430.025125,-1110.308913,-10288.862594,-689.485948
430.025447,-1184.329507,-10362.883188,-1302.362347
430.025769,-1036.288319,-9622.677246,-2145.067394
430.026092,-1332.370696,-10288.862594,-3217.601092
430.026414,-1110.308913,-11769.274478,-3064.381992
430.026737,-1406.391290,-12139.377449,-3140.991542
430.027059,-2442.679609,-11843.295072,-2451.505594
430.027382,-2738.761985,-11843.295072,-2068.457845
430.027704,-2590.720797,-12509.480420,-2145.067394
430.028027,-2590.720797,-12065.356855,-995.924147
430.028349,-2886.803174,-10140.821405,76.609550
430.028671,-2516.700203,-8660.409521,-229.828649
430.028994,-1110.308913,-7476.080014,153.219100
430.029316,0.000000,-6365.771101,1302.362347
430.029639,1036.288319,-6735.874072,1225.752797
430.029961,1776.494261,-7179.997637,1302.362347
430.030284,2220.617826,-7920.203579,1455.581446
430.030606,2368.659014,-9400.615463,1532.190996
430.030928,2590.720797,-10881.027347,1608.800546
430.031251,2368.659014,-11695.253884,1225.752797
430.031573,1628.453072,-10881.027347,1225.752797
430.031896,1702.473667,-10140.821405,1149.143247
430.032218,1554.432478,-9844.739029,1302.362347
430.032541,1036.288319,-9474.636058,2145.067394
430.032863,296.082377,-8808.450710,2681.334243
430.033185,-740.205942,-8068.244768,2374.896044
430.033508,-1036.288319,-8512.368333,1915.238745
430.033830,-1406.391290,-8660.409521,1915.238745
430.034153,-1924.535449,-8586.388927,2221.676944
430.034475,-2368.659014,-8364.327145,2987.772442
430.034798,-1998.556043,-8290.306550,3294.210641
430.035120,-1702.473667,-8290.306550,2681.334243
430.035442,-1628.453072,-8364.327145,2298.286494
430.035765,-1406.391290,-9104.533087,2834.553343
430.036087,-962.267725,-9030.512492,2451.505594
430.036410,-962.267725,-9844.739029,2604.724693
430.036732,-1258.350101,-10658.965565,2911.162892
430.037055,-1924.535449,-10955.047942,3447.429741
430.037377,-2220.617826,-11029.068536,2987.772442
430.037699,-2664.741391,-10881.027347,2374.896044
430.038022,-2368.659014,-10807.006753,2374.896044
430.038344,-2294.638420,-10362.883188,2451.505594
430.038667,-1924.535449,-9326.594869,2681.334243
430.038989,-740.205942,-8660.409521,2911.162892
430.039312,0.000000,-8586.388927,2451.505594
430.039634,74.020594,-8660.409521,2145.067394
430.039957,-888.247130,-8808.450710,1685.410096
430.040279,-2072.576638,-9622.677246,1225.752797
430.040601,-3034.844362,-10362.883188,459.657299
430.040924,-3552.988522,-10881.027347,-383.047749
430.041246,-3997.112087,-10362.883188,-1072.533697
430.041569,-3552.988522,-10288.862594,-1149.143247
430.041891,-2812.782580,-10140.821405,-1378.971896
430.042214,-1924.535449,-10140.821405,-842.705048
430.042536,-1702.473667,-9622.677246,-153.219100
430.042858,-1480.411884,-9326.594869,-76.609550
430.043181,-1036.288319,-9918.759623,-229.828649
430.043503,0.000000,-9770.718434,-383.047749
430.043826,1332.370696,-9326.594869,0.000000
430.044148,3182.885551,-7698.141797,1149.143247
430.044471,5329.482782,-5699.585753,1149.143247
430.044793,7254.018232,-4737.318029,-229.828649
430.045115,8068.244768,-5255.462188,-1302.362347
430.045438,7476.080014,-6661.853478,-1532.190996
430.045760,5625.565159,-8216.285956,-2145.067394
430.046083,1480.411884,-11177.109724,-3447.429741
430.046405,-2368.659014,-13545.768739,-2834.553343
430.046728,-6439.791695,-13989.892304,-1608.800546
430.047050,-9400.615463,-11325.150913,-4366.744339
430.047372,-9178.553681,-11547.212695,-6435.202183
430.047695,-6291.750507,-11917.315666,-6128.763984
430.048017,-2516.700203,-11325.150913,-5056.230287
430.048340,740.205942,-11325.150913,-2911.162892
430.048662,2738.761985,-12953.603985,766.095498
430.048985,5699.585753,-13693.809927,2451.505594
430.049307,6587.832884,-11547.212695,383.047749
430.049629,5255.462188,-8438.347739,536.266849
430.049952,3923.091493,-4959.379811,2298.286494
430.050274,3627.009116,-3404.947333,766.095498
430.050597,2738.761985,-3775.050304,-1072.533697
430.050919,-592.164754,-4811.338623,-536.266849
430.051242,-3627.009116,-6735.874072,-766.095498
430.051564,-4589.276840,-9548.656652,-1991.848295
430.051887,-6291.750507,-12953.603985,-3600.648841
430.052209,-7920.203579,-14508.036463,-2528.115143
430.052531,-8290.306550,-14211.954086,-2987.772442
430.052854,-5995.668130,-14434.015869,-3447.429741
430.053176,-3997.112087,-13249.686362,-1838.629195
430.053499,-2960.823768,-10881.027347,-689.485948
430.053821,-2516.700203,-8660.409521,-1149.143247
430.054144,-1998.556043,-6957.935855,-766.095498
430.054466,-1554.432478,-7476.080014,689.485948
430.054788,-1554.432478,-9030.512492,2221.676944
430.055111,-1850.514855,-9770.718434,3600.648841
430.055433,-2294.638420,-9474.636058,4060.306139
430.055756,-2146.597232,-9104.533087,4443.353888
430.056078,-2072.576638,-8586.388927,5362.668486
430.056401,-1924.535449,-7179.997637,5362.668486
430.056723,-1924.535449,-5255.462188,4136.915689
430.057045,-814.226536,-5847.626942,3064.381992
430.057368,962.267725,-7031.956449,1302.362347
430.057690,2368.659014,-8512.368333,1149.143247
430.058013,2886.803174,-9844.739029,1378.971896
430.058335,3923.091493,-11547.212695,1991.848295
430.058658,4589.276840,-12657.521608,2757.943793
430.058980,4515.256246,-11843.295072,2987.772442
430.059302,3034.844362,-10510.924376,2221.676944
430.059625,1998.556043,-9844.739029,842.705048
430.059947,962.267725,-9992.780217,689.485948
430.060270,-1332.370696,-8586.388927,3064.381992
430.060592,-4145.153275,-7105.977043,3830.477490
430.060915,-6217.729913,-7105.977043,3753.867940
430.061237,-5847.626942,-10362.883188,2528.115143
430.061559,-4811.338623,-11177.109724,1302.362347
430.061882,-3256.906145,-10807.006753,995.924147
430.062204,0.000000,-11695.253884,2374.896044
430.062527,4071.132681,-11917.315666,2987.772442
430.062849,7698.141797,-10436.903782,2451.505594
430.063172,9474.636058,-8734.430116,1225.752797
430.063494,8808.450710,-8660.409521,2298.286494
430.063817,8586.388927,-7698.141797,3524.039291
430.064139,8512.368333,-5625.565159,2604.724693
430.064461,7624.121203,-7179.997637,-3140.991542
430.064784,5847.626942,-13989.892304,-2911.162892
430.065106,2664.741391,-14211.954086,1838.629195
430.065429,-3108.864956,-9400.615463,2987.772442
430.065751,-8660.409521,-10584.944971,2145.067394
430.066074,-10436.903782,-11917.315666,919.314598
430.066396,-11621.233289,-11251.130318,-5592.497135
430.066718,-15396.283594,-9104.533087,-6741.640382
430.067041,-18283.086767,-8956.491898,1149.143247
430.067363,-15840.407159,-6513.812290,2298.286494
430.067686,-10140.821405,-5847.626942,-4749.792088
430.068008,-2738.761985,-7105.977043,-6052.154434
430.068331,3775.050304,-8068.244768,-5056.230287
430.068653,7254.018232,-9622.677246,-4903.011187
430.068975,9622.677246,-9252.574275,1149.143247
430.069298,10214.842000,-5847.626942,3677.258390
430.069620,9548.656652,-3108.864956,-4979.620737
430.069943,8512.368333,-7772.162391,-9806.022374
430.070265,6069.688724,-13101.645173,-5056.230287
430.070588,0.000000,-12953.603985,-1608.800546
430.070910,-7846.182985,-14211.954086,766.095498
430.071232,-10955.047942,-16432.571912,4136.915689
430.071555,-12879.583391,-12509.480420,995.924147
430.071877,-11473.192101,-8660.409521,-7354.516781
430.072200,-9548.656652,-5773.606348,-8503.660028
430.072522,-5847.626942,-6661.853478,-4979.620737
430.072845,1036.288319,-4737.318029,-1225.752797
430.073167,7179.997637,-3404.947333,153.219100
430.073489,10288.862594,-4663.297435,306.438199
430.073812,11029.068536,-8956.491898,-1762.019645
430.074134,9992.780217,-11843.295072,-4366.744339
430.074457,7476.080014,-13693.809927,-6894.859482
430.074779,4663.297435,-14656.077652,-6818.249932
430.075102,2590.720797,-13841.851115,-4903.011187
430.075424,-222.061783,-12657.521608,-2604.724693
430.075747,-4145.153275,-11843.295072,-459.657299
430.076069,-5329.482782,-14285.974681,-2298.286494
430.076391,-8364.327145,-13767.830521,-4673.182538
430.076714,-8734.430116,-13767.830521,-2528.115143
430.077036,-7846.182985,-7994.224174,1072.533697
430.077359,-5107.421000,-3034.844362,-1149.143247
430.077681,-666.185348,-3478.967927,76.609550
430.078004,3701.029710,-3849.070898,1149.143247
430.078326,4737.318029,-2294.638420,-1072.533697
430.078648,3775.050304,-3552.988522,-1838.629195
430.078971,2886.803174,-7698.141797,306.438199
430.079293,2442.679609,-10807.006753,306.438199
430.079616,1776.494261,-11621.233289,-1762.019645
430.079938,1110.308913,-13249.686362,-2451.505594
430.080261,-148.041188,-15692.365970,-2068.457845
430.080583,-1258.350101,-14359.995275,0.000000
430.080905,-3849.070898,-10732.986159,3064.381992
430.081228,-4959.379811,-6809.894666,995.924147
430.081550,-2590.720797,-7031.956449,-1991.848295
430.081873,1628.453072,-8808.450710,-2757.943793
430.082195,3923.091493,-9474.636058,76.609550
430.082518,3627.009116,-9178.553681,4979.620737
430.082840,3552.988522,-8142.265362,9193.145976
430.083162,4071.132681,-6809.894666,6665.030833
430.083485,3775.050304,-5329.482782,1532.190996
430.083807,2812.782580,-7698.141797,-2298.286494
430.084130,1406.391290,-9918.759623,-2987.772442
430.084452,-1110.308913,-9622.677246,306.438199
430.084775,-3478.967927,-8586.388927,3217.601092
430.085097,-6291.750507,-10214.842000,1838.629195
430.085419,-6439.791695,-13545.768739,-612.876398
430.085742,-5699.585753,-13249.686362,-4903.011187
430.086064,-5847.626942,-11917.315666,-6894.859482
430.086387,-4811.338623,-12213.398043,-4443.353888
430.086709,-3108.864956,-12065.356855,229.828649
430.087032,-2146.597232,-9992.780217,1685.410096
430.087354,-2072.576638,-7994.224174,995.924147
430.087677,-1332.370696,-8142.265362,-1378.971896
430.087999,0.000000,-9030.512492,-3294.210641
430.088321,-222.061783,-9548.656652,-1608.800546
430.088644,-1850.514855,-9326.594869,2145.067394
430.088966,-1998.556043,-8734.430116,3447.429741
430.089289,0.000000,-7254.018232,1915.238745
430.089611,2072.576638,-5995.668130,-689.485948
430.089934,2886.803174,-6069.688724,-1991.848295
430.090256,2738.761985,-6513.812290,-689.485948
430.090578,2960.823768,-7624.121203,229.828649
430.090901,3330.926739,-9178.553681,0.000000
430.091223,3923.091493,-10881.027347,-2145.067394
430.091546,4219.173869,-11917.315666,-3524.039291
430.091868,3478.967927,-11621.233289,-3447.429741
430.092191,2442.679609,-10436.903782,-3447.429741
430.092513,740.205942,-10066.800811,-2451.505594
430.092835,-1406.391290,-10140.821405,-1608.800546
430.093158,-3108.864956,-10214.842000,-2451.505594
430.093480,-3627.009116,-9844.739029,-3753.867940
430.093803,-3849.070898,-9104.533087,-4826.401637
430.094125,-2072.576638,-8068.244768,-3370.820191
430.094447,-444.123565,-6587.832884,-2145.067394
430.094770,740.205942,-5403.503377,-1225.752797
430.095092,1998.556043,-5107.421000,-919.314598
430.095415,3256.906145,-6513.812290,-3753.867940
430.095737,2516.700203,-8068.244768,-5898.935335
430.096060,814.226536,-11029.068536,-6052.154434
430.096382,-1184.329507,-13027.624579,-3907.087040
430.096704,-2146.597232,-14952.160028,-2757.943793
430.097027,-3034.844362,-15026.180623,-2221.676944
430.097349,-2886.803174,-13841.851115,-3370.820191
430.097672,-2664.741391,-10510.924376,-5362.668486
430.097994,-1036.288319,-9400.615463,-5209.449386
430.098317,222.061783,-8882.471304,-3677.258390
430.098639,814.226536,-8660.409521,-1762.019645
430.098961,74.020594,-6735.874072,-459.657299
430.099284,1258.350101,-6143.709319,-919.314598
430.099606,2368.659014,-6143.709319,-2757.943793
430.099929,3182.885551,-6957.935855,-3677.258390
430.100251,2738.761985,-8438.347739,-2451.505594
430.100574,1406.391290,-10881.027347,-306.438199
430.100896,-1036.288319,-11917.315666,1302.362347
430.101218,-3849.070898,-12805.562797,383.047749
430.101541,-6069.688724,-12213.398043,-2145.067394
430.101863,-6439.791695,-9770.718434,-4136.915689
430.102186,-4885.359217,-7031.956449,-4519.963438
430.102508,-1776.494261,-5773.606348,-3753.867940
430.102830,1184.329507,-6957.935855,-1991.848295
430.103153,2368.659014,-8068.244768,766.095498
430.103475,1554.432478,-8660.409521,1685.410096
430.103798,0.000000,-9326.594869,536.266849
430.104120,-1036.288319,-10140.821405,-2298.286494
430.104443,-1332.370696,-9326.594869,-3064.381992
430.104765,-962.267725,-8290.306550,-2221.676944
430.105087,-740.205942,-8068.244768,76.609550
430.105410,-666.185348,-8956.491898,2145.067394
430.105732,-1850.514855,-10140.821405,1838.629195
430.106055,-3182.885551,-11251.130318,-612.876398
430.106377,-3923.091493,-12657.521608,-1991.848295
430.106700,-4515.256246,-12213.398043,-1838.629195
430.107022,-3034.844362,-10066.800811,-536.266849
430.107344,-666.185348,-7550.100608,0.000000
430.107667,1998.556043,-6143.709319,229.828649
430.107989,3701.029710,-5477.523971,-153.219100
430.108312,3404.947333,-6661.853478,-536.266849
430.108634,2294.638420,-8882.471304,-842.705048
430.108956,1480.411884,-11399.171507,-1838.629195
430.109279,962.267725,-12583.501014,-1225.752797
430.109601,370.102971,-12361.439231,-919.314598
430.109924,-518.144159,-12213.398043,-766.095498
430.110246,-1924.535449,-11473.192101,-612.876398
430.110569,-2442.679609,-10214.842000,0.000000
430.110891,-2146.597232,-8660.409521,-1302.362347
430.111213,-814.226536,-8734.430116,-2068.457845
430.111536,2368.659014,-8808.450710,-2145.067394
430.111858,5773.606348,-7550.100608,-1302.362347
430.112181,7105.977043,-6217.729913,-229.828649
430.112503,7698.141797,-6735.874072,1225.752797
430.112826,5551.544565,-7105.977043,1685.410096
430.113148,2664.741391,-9178.553681,-153.219100
430.113470,-370.102971,-11103.089130,-1302.362347
430.113793,-3108.864956,-12435.459826,-1838.629195
