#time,accel_x,accel_y,accel_z
562.129228,-148.041188,-9178.553681,-1762.019645
562.129550,-222.061783,-9474.636058,-1455.581446
562.129873,-444.123565,-9474.636058,-1608.800546
562.130195,-444.123565,-9474.636058,-1532.190996
562.130518,-444.123565,-9400.615463,-1455.581446
562.130841,-370.102971,-9474.636058,-1378.971896
562.131163,-370.102971,-9474.636058,-1532.190996
562.131486,-370.102971,-9474.636058,-1608.800546
562.131809,-444.123565,-9474.636058,-1608.800546
562.132131,-296.082377,-9548.656652,-1685.410096
562.132454,74.020594,-9770.718434,-1608.800546
562.132776,-296.082377,-9252.574275,-1685.410096
562.133099,-148.041188,-9400.615463,-1532.190996
562.133422,-296.082377,-9474.636058,-1455.581446
562.133744,-222.061783,-9474.636058,-1608.800546
562.134067,-370.102971,-9474.636058,-1378.971896
562.134389,0.000000,-8882.471304,-1378.971896
562.134712,-370.102971,-9252.574275,-1608.800546
562.135035,-518.144159,-9474.636058,-1762.019645
562.135357,-592.164754,-9400.615463,-1455.581446
562.135680,-444.123565,-9326.594869,-1608.800546
562.136002,-592.164754,-9104.533087,-766.095498
562.136325,0.000000,-9178.553681,-1838.629195
562.136648,-370.102971,-9178.553681,-1608.800546
562.136970,-296.082377,-9326.594869,-1455.581446
562.137293,-518.144159,-9474.636058,-1455.581446
562.137615,-222.061783,-9178.553681,-1762.019645
562.137938,-592.164754,-9326.594869,-1072.533697
562.138261,-222.061783,-9474.636058,-1532.190996
562.138583,-444.123565,-9178.553681,-1838.629195
562.138906,-518.144159,-9474.636058,-1685.410096
562.139228,-296.082377,-9326.594869,-1915.238745
562.139551,-148.041188,-9622.677246,-1302.362347
562.139874,-592.164754,-9326.594869,-1762.019645
562.140196,-518.144159,-9474.636058,-1455.581446
562.140519,-296.082377,-9474.636058,-1762.019645
562.140841,-148.041188,-9400.615463,-1685.410096
562.141164,-592.164754,-9252.574275,-1225.752797
562.141487,0.000000,-9696.697840,-1532.190996
562.141809,-444.123565,-9474.636058,-1762.019645
562.142132,-592.164754,-9548.656652,-1685.410096
562.142454,-666.185348,-9548.656652,-1608.800546
562.142777,-592.164754,-9178.553681,-1608.800546
562.143100,-296.082377,-9400.615463,-1532.190996
562.143422,-444.123565,-9252.574275,-1532.190996
562.143745,-444.123565,-9474.636058,-1608.800546
562.144067,-444.123565,-9474.636058,-1608.800546
562.144390,-370.102971,-9474.636058,-1608.800546
562.144713,0.000000,-9474.636058,-1608.800546
562.145035,-370.102971,-9696.697840,-1608.800546
562.145358,-666.185348,-9474.636058,-1378.971896
562.145680,-444.123565,-9252.574275,-1455.581446
562.146003,-296.082377,-9104.533087,-1532.190996
562.146326,-370.102971,-8956.491898,-1072.533697
562.146648,0.000000,-9252.574275,-1378.971896
562.146971,-296.082377,-9252.574275,-1378.971896
562.147293,-370.102971,-9474.636058,-1302.362347
562.147616,-518.144159,-9548.656652,-1378.971896
562.147939,-518.144159,-9548.656652,-1072.533697
562.148261,-148.041188,-9548.656652,-1532.190996
562.148584,-296.082377,-9178.553681,-1302.362347
562.148906,-222.061783,-8882.471304,-1378.971896
562.149229,-370.102971,-8808.450710,-1302.362347
562.149552,222.061783,-8882.471304,-1532.190996
562.149874,1406.391290,-9326.594869,-1455.581446
562.150197,2220.617826,-9548.656652,-1532.190996
562.150519,2294.638420,-9400.615463,-536.266849
562.150842,1258.350101,-8808.450710,0.000000
562.151165,888.247130,-8734.430116,-1378.971896
562.151487,0.000000,-8734.430116,-2374.896044
562.151810,-1628.453072,-8808.450710,-2298.286494
562.152132,-3182.885551,-9252.574275,-2145.067394
562.152455,-3923.091493,-9400.615463,-2374.896044
562.152778,-3034.844362,-8956.491898,-2834.553343
562.153100,-370.102971,-9844.739029,-3140.991542
562.153423,1850.514855,-11029.068536,-2221.676944
562.153746,3034.844362,-10955.047942,-306.438199
562.154068,2220.617826,-9326.594869,459.657299
562.154391,1924.535449,-8660.409521,-689.485948
562.154713,2590.720797,-9696.697840,-2451.505594
562.155036,2886.803174,-10510.924376,-2451.505594
562.155359,1184.329507,-8956.491898,-1149.143247
562.155681,-296.082377,-7550.100608,-76.609550
562.156004,444.123565,-7624.121203,-1378.971896
562.156326,2072.576638,-9474.636058,-2757.943793
562.156649,1628.453072,-10658.965565,-1685.410096
562.156972,-370.102971,-9178.553681,383.047749
562.157294,-1184.329507,-9178.553681,-1762.019645
562.157617,0.000000,-9474.636058,-4366.744339
562.157939,1036.288319,-9770.718434,-3370.820191
562.158262,1184.329507,-10584.944971,-1072.533697
562.158585,1628.453072,-10658.965565,-766.095498
562.158907,2442.679609,-9400.615463,-1991.848295
562.159230,3701.029710,-9622.677246,-1685.410096
562.159552,4515.256246,-11251.130318,-536.266849
562.159875,3997.112087,-11621.233289,-459.657299
562.160198,2072.576638,-8956.491898,-1455.581446
562.160520,1702.473667,-7550.100608,-536.266849
562.160843,2146.597232,-8364.327145,-995.924147
562.161165,2516.700203,-8142.265362,-1532.190996
562.161488,1628.453072,-6883.915261,-1532.190996
562.161811,1184.329507,-7772.162391,-689.485948
562.162133,2146.597232,-9474.636058,-383.047749
562.162456,2368.659014,-10140.821405,-842.705048
562.162778,2220.617826,-9400.615463,-1991.848295
562.163101,1702.473667,-9696.697840,-2068.457845
562.163424,2590.720797,-10436.903782,-689.485948
562.163746,2960.823768,-9400.615463,-995.924147
562.164069,3034.844362,-9252.574275,-2298.286494
562.164391,2960.823768,-9770.718434,-2068.457845
562.164714,3404.947333,-9918.759623,-995.924147
562.165037,3627.009116,-9548.656652,-1072.533697
562.165359,2886.803174,-9178.553681,-1762.019645
562.165682,2516.700203,-8956.491898,-1455.581446
562.166004,1850.514855,-8808.450710,0.000000
562.166327,1036.288319,-7550.100608,-612.876398
562.166650,0.000000,-8068.244768,-1608.800546
562.166972,-666.185348,-8882.471304,-1608.800546
562.167295,-370.102971,-9770.718434,-1302.362347
562.167617,-814.226536,-10436.903782,-612.876398
562.167940,-518.144159,-11103.089130,-766.095498
562.168263,0.000000,-11621.233289,-1225.752797
562.168585,666.185348,-11251.130318,-383.047749
562.168908,1184.329507,-10510.924376,-383.047749
562.169230,1776.494261,-9992.780217,-1225.752797
562.169553,1628.453072,-8586.388927,-1915.238745
562.169876,1702.473667,-7920.203579,-1685.410096
562.170198,1628.453072,-8364.327145,-919.314598
562.170521,1406.391290,-8290.306550,-1378.971896
562.170843,1776.494261,-8660.409521,-1915.238745
562.171166,1628.453072,-8956.491898,-1838.629195
562.171489,1850.514855,-8734.430116,-1762.019645
562.171811,1998.556043,-7846.182985,-2068.457845
562.172134,2072.576638,-7920.203579,-2451.505594
562.172456,1628.453072,-8364.327145,-1838.629195
562.172779,1628.453072,-9104.533087,-1838.629195
562.173102,1332.370696,-9770.718434,-1915.238745
562.173424,1110.308913,-10658.965565,-2145.067394
562.173747,1036.288319,-11843.295072,-1915.238745
562.174069,1406.391290,-11991.336260,-995.924147
562.174392,888.247130,-10510.924376,-766.095498
562.174715,1184.329507,-10214.842000,-842.705048
562.175037,1702.473667,-9474.636058,-1302.362347
562.175360,1998.556043,-8882.471304,-766.095498
562.175682,2146.597232,-8512.368333,-612.876398
562.176005,2664.741391,-7624.121203,-612.876398
562.176328,3256.906145,-7698.141797,-1762.019645
562.176650,4737.318029,-8216.285956,-2604.724693
562.176973,5255.462188,-8586.388927,-2221.676944
562.177296,4737.318029,-8956.491898,-1608.800546
562.177618,4441.235652,-9548.656652,-1762.019645
562.177941,3701.029710,-11029.068536,-3217.601092
562.178263,2590.720797,-12065.356855,-3140.991542
562.178586,1184.329507,-12583.501014,-2681.334243
562.178909,444.123565,-12139.377449,-1915.238745
562.179231,222.061783,-11103.089130,-1532.190996
562.179554,518.144159,-9548.656652,-229.828649
562.179876,370.102971,-8364.327145,306.438199
562.180199,518.144159,-7105.977043,0.000000
562.180522,592.164754,-6143.709319,-842.705048
562.180844,592.164754,-5625.565159,-842.705048
562.181167,1110.308913,-5329.482782,-842.705048
562.181489,1776.494261,-6735.874072,-1608.800546
562.181812,1628.453072,-8142.265362,-1685.410096
562.182135,1184.329507,-9918.759623,-1608.800546
562.182457,1110.308913,-11325.150913,-1838.629195
562.182780,1036.288319,-11843.295072,-3064.381992
562.183102,0.000000,-11621.233289,-2834.553343
562.183425,-592.164754,-11621.233289,-3217.601092
562.183748,-1036.288319,-11991.336260,-2604.724693
562.184070,-1332.370696,-11695.253884,-2068.457845
562.184393,-2146.597232,-11325.150913,-1225.752797
562.184715,-3256.906145,-11177.109724,-306.438199
562.185038,-2738.761985,-10807.006753,-536.266849
562.185361,-2146.597232,-9622.677246,0.000000
562.185683,-1406.391290,-8734.430116,229.828649
562.186006,-222.061783,-7624.121203,612.876398
562.186328,1110.308913,-5847.626942,919.314598
562.186651,3701.029710,-4515.256246,383.047749
562.186974,5625.565159,-4885.359217,-1149.143247
562.187296,6661.853478,-5699.585753,-1762.019645
562.187619,7105.977043,-6661.853478,-1915.238745
562.187941,6957.935855,-7994.224174,-2604.724693
562.188264,6661.853478,-11547.212695,-3600.648841
562.188587,5773.606348,-13841.851115,-2834.553343
562.188909,3849.070898,-13989.892304,-2145.067394
562.189232,962.267725,-12805.562797,-1455.581446
562.189554,-740.205942,-12139.377449,-1991.848295
562.189877,-1924.535449,-11177.109724,-2528.115143
562.190200,-3478.967927,-9474.636058,-1225.752797
562.190522,-4885.359217,-6735.874072,459.657299
562.190845,-5699.585753,-5403.503377,-306.438199
562.191167,-4145.153275,-7031.956449,-1378.971896
562.191490,-1184.329507,-7550.100608,-1149.143247
562.191813,2072.576638,-7698.141797,-2298.286494
562.192135,5847.626942,-9474.636058,-2451.505594
562.192458,9474.636058,-10288.862594,-995.924147
562.192780,12287.418637,-9844.739029,-306.438199
562.193103,13471.748144,-8586.388927,-1378.971896
562.193426,13027.624579,-8364.327145,-1838.629195
562.193748,10807.006753,-9400.615463,-2604.724693
562.194071,6957.935855,-11399.171507,-3064.381992
562.194393,2664.741391,-12065.356855,-2374.896044
562.194716,-1480.411884,-12139.377449,-2451.505594
562.195039,-3478.967927,-13101.645173,-2451.505594
562.195361,-4737.318029,-13841.851115,-1378.971896
562.195684,-6439.791695,-12509.480420,1762.019645
562.196006,-8734.430116,-8364.327145,3294.210641
562.196329,-8956.491898,-3997.112087,1455.581446
562.196652,-6069.688724,-3108.864956,-689.485948
562.196974,-1850.514855,-4811.338623,-2528.115143
562.197297,2220.617826,-5403.503377,-4060.306139
562.197620,6143.709319,-7698.141797,-3140.991542
562.197942,10362.883188,-10584.944971,-1072.533697
562.198265,12953.603985,-11843.295072,-1532.190996
562.198588,12879.583391,-12139.377449,-1762.019645
562.198910,8882.471304,-10807.006753,-2374.896044
562.199233,4515.256246,-9770.718434,-4596.572988
562.199556,1480.411884,-11177.109724,-7124.688131
562.199878,-370.102971,-11473.192101,-5898.935335
562.200201,-2812.782580,-10955.047942,-2068.457845
562.200523,-5403.503377,-11991.336260,1378.971896
562.200846,-6513.812290,-12213.398043,3064.381992
562.201169,-6143.709319,-10807.006753,3677.258390
562.201491,-5477.523971,-6661.853478,229.828649
562.201814,-4293.194464,-5329.482782,-1302.362347
562.202137,-592.164754,-7105.977043,-536.266849
562.202459,5107.421000,-5403.503377,-689.485948
562.202782,9252.574275,-4145.153275,-2298.286494
562.203105,11843.295072,-7624.121203,-1762.019645
562.203427,11769.274478,-11399.171507,76.609550
562.203750,9104.533087,-12361.439231,0.000000
562.204072,4737.318029,-12213.398043,-2451.505594
562.204395,-222.061783,-14434.015869,-5515.887586
562.204718,-4071.132681,-16136.489536,-5592.497135
562.205040,-6513.812290,-12657.521608,-2911.162892
562.205363,-8290.306550,-6661.853478,-2068.457845
562.205686,-6661.853478,-7105.977043,-2757.943793
562.206008,-3330.926739,-6883.915261,-1225.752797
562.206331,-370.102971,-8438.347739,766.095498
562.206654,-1036.288319,-8586.388927,2221.676944
562.206976,-592.164754,-8882.471304,3217.601092
562.207299,1628.453072,-7328.038826,842.705048
562.207622,4145.153275,-5255.462188,-1378.971896
562.207944,4589.276840,-5107.421000,-1838.629195
562.208267,3552.988522,-6365.771101,-1991.848295
562.208589,2738.761985,-9178.553681,-2451.505594
562.208912,3849.070898,-11177.109724,-2068.457845
562.209235,4589.276840,-12509.480420,-3983.696590
562.209557,4145.153275,-13397.727550,-5669.106685
562.209880,3775.050304,-12879.583391,-4826.401637
562.210203,1776.494261,-12435.459826,-1149.143247
562.210525,370.102971,-11325.150913,306.438199
562.210848,-888.247130,-10807.006753,-2298.286494
562.211171,-2294.638420,-10732.986159,-2604.724693
562.211493,-2590.720797,-10658.965565,0.000000
562.211816,-740.205942,-10214.842000,2374.896044
562.212139,3330.926739,-8882.471304,1838.629195
562.212461,7846.182985,-7105.977043,1302.362347
562.212784,10658.965565,-5329.482782,3294.210641
562.213106,11621.233289,-3478.967927,3600.648841
562.213429,10436.903782,-2886.803174,1225.752797
562.213752,7698.141797,-4293.194464,-1762.019645
562.214074,4885.359217,-5625.565159,-3370.820191
562.214397,1850.514855,-7846.182985,-4366.744339
562.214720,-814.226536,-11769.274478,-6894.859482
562.215042,-4515.256246,-14211.954086,-5669.106685
562.215365,-5995.668130,-14730.098246,-1762.019645
562.215688,-5255.462188,-13545.768739,-2528.115143
562.216010,-2738.761985,-13397.727550,-6818.249932
562.216333,-2220.617826,-12953.603985,-6511.811733
562.216656,-1850.514855,-11991.336260,-3064.381992
562.216978,-370.102971,-10140.821405,-536.266849
562.217301,2960.823768,-10584.944971,0.000000
562.217623,5551.544565,-11621.233289,-153.219100
562.217946,6735.874072,-10066.800811,919.314598
562.218269,5995.668130,-8438.347739,4366.744339
562.218591,5477.523971,-5329.482782,5515.887586
562.218914,6883.915261,-3478.967927,2068.457845
562.219237,9030.512492,-2590.720797,-2528.115143
562.219559,10436.903782,-4293.194464,-3140.991542
562.219882,8734.430116,-6365.771101,459.657299
562.220205,5403.503377,-7698.141797,2528.115143
562.220527,1702.473667,-11399.171507,306.438199
562.220850,-2590.720797,-14359.995275,-3064.381992
562.221173,-6883.915261,-13397.727550,-5592.497135
562.221495,-9474.636058,-11769.274478,-6665.030833
562.221818,-8068.244768,-12435.459826,-6971.469032
562.222140,-6143.709319,-13323.706956,-5669.106685
562.222463,-4737.318029,-11251.130318,-1685.410096
562.222786,-4515.256246,-8290.306550,1455.581446
562.223108,-3404.947333,-9326.594869,1532.190996
562.223431,-2146.597232,-11991.336260,-2451.505594
562.223754,-2220.617826,-11029.068536,-4443.353888
562.224076,-2664.741391,-8364.327145,-1455.581446
562.224399,148.041188,-6143.709319,2681.334243
562.224722,4737.318029,-5625.565159,1838.629195
562.225044,8512.368333,-4071.132681,306.438199
562.225367,9178.553681,-4071.132681,1149.143247
562.225690,8512.368333,-6069.688724,1378.971896
562.226012,8068.244768,-9770.718434,-229.828649
562.226335,6513.812290,-10807.006753,-1762.019645
562.226657,2442.679609,-11103.089130,-3064.381992
562.226980,-1480.411884,-11325.150913,-1685.410096
562.227303,-1850.514855,-11399.171507,-1225.752797
562.227625,-1110.308913,-11695.253884,-4136.915689
562.227948,-1702.473667,-11251.130318,-5975.544884
562.228271,-2886.803174,-10510.924376,-2757.943793
562.228593,-3034.844362,-11843.295072,-459.657299
562.228916,-1776.494261,-13249.686362,-612.876398
562.229239,-2294.638420,-11695.253884,-1608.800546
562.229561,-3923.091493,-7550.100608,-1149.143247
562.229884,-1406.391290,-5921.647536,-536.266849
562.230206,4145.153275,-5699.585753,-3140.991542
562.230529,6883.915261,-5699.585753,-4826.401637
562.230852,7846.182985,-7105.977043,0.000000
562.231174,9400.615463,-7328.038826,3907.087040
562.231497,11103.089130,-8512.368333,306.438199
562.231820,10140.821405,-9474.636058,-2757.943793
562.232142,5329.482782,-9252.574275,-1991.848295
562.232465,1776.494261,-8734.430116,-689.485948
562.232788,740.205942,-9474.636058,-2987.772442
562.233110,444.123565,-9548.656652,-5515.887586
562.233433,-370.102971,-10362.883188,-4903.011187
562.233756,-1258.350101,-11991.336260,-1455.581446
562.234078,-518.144159,-14211.954086,1838.629195
562.234401,-1036.288319,-14656.077652,689.485948
562.234723,-1332.370696,-12953.603985,-842.705048
562.235046,962.267725,-11695.253884,-612.876398
562.235369,4737.318029,-8734.430116,-1225.752797
562.235691,7105.977043,-5033.400406,-2834.553343
562.236014,7254.018232,-3404.947333,-1455.581446
562.236337,7402.059420,-3849.070898,1762.019645
562.236659,7179.997637,-5625.565159,995.924147
562.236982,5625.565159,-9474.636058,-3217.601092
562.237305,1110.308913,-11917.315666,-3217.601092
562.237627,-2072.576638,-13101.645173,-2221.676944
562.237950,-3330.926739,-11843.295072,-3370.820191
562.238273,-4589.276840,-9918.759623,-4136.915689
562.238595,-5255.462188,-9918.759623,-2834.553343
562.238918,-6883.915261,-9696.697840,-689.485948
562.239240,-6809.894666,-10362.883188,919.314598
562.239563,-5847.626942,-10807.006753,0.000000
562.239886,-962.267725,-11991.336260,-1762.019645
562.240208,3404.947333,-11843.295072,-1608.800546
562.240531,6439.791695,-9474.636058,2298.286494
562.240854,6883.915261,-6883.915261,5898.935335
562.241176,7031.956449,-3108.864956,3600.648841
562.241499,6143.709319,-1702.473667,-995.924147
562.241822,3552.988522,-4737.318029,-1762.019645
562.242144,-444.123565,-6587.832884,-2604.724693
562.242467,-4071.132681,-9252.574275,-5592.497135
562.242790,-6365.771101,-9918.759623,-5439.278036
562.243112,-5921.647536,-11621.233289,-4213.525239
562.243435,-4959.379811,-14730.098246,-5362.668486
562.243757,-5625.565159,-15174.221811,-5056.230287
562.244080,-6957.935855,-15248.242405,-2911.162892
562.244403,-5773.606348,-14804.118840,-1685.410096
562.244725,-2886.803174,-13471.748144,-2374.896044
562.245048,-148.041188,-12065.356855,-1225.752797
562.245371,2146.597232,-9030.512492,689.485948
562.245693,5107.421000,-6439.791695,1378.971896
562.246016,8734.430116,-5847.626942,2528.115143
562.246339,10732.986159,-4589.276840,4213.525239
562.246661,9844.739029,-3182.885551,2145.067394
562.246984,6513.812290,-4293.194464,-229.828649
562.247307,2886.803174,-5995.668130,-306.438199
562.247629,-1850.514855,-6809.894666,-1762.019645
562.247952,-5551.544565,-9252.574275,-4673.182538
562.248274,-7328.038826,-10955.047942,-5745.716235
562.248597,-6957.935855,-10658.965565,-5056.230287
562.248920,-4145.153275,-13397.727550,-5822.325785
562.249242,-2738.761985,-14211.954086,-3294.210641
562.249565,-2294.638420,-15322.262999,-383.047749
562.249888,-296.082377,-14656.077652,-1072.533697
562.250210,2146.597232,-12065.356855,-1915.238745
562.250533,3256.906145,-8808.450710,-1532.190996
562.250856,2960.823768,-5477.523971,-459.657299
562.251178,3404.947333,-5033.400406,842.705048
562.251501,2368.659014,-4737.318029,1225.752797
562.251824,-296.082377,-3997.112087,1072.533697
562.252146,-2664.741391,-3256.906145,536.266849
562.252469,-3627.009116,-5181.441594,-2681.334243
562.252791,-2738.761985,-7846.182985,-4290.134789
562.253114,-1998.556043,-10436.903782,-3217.601092
562.253437,-3256.906145,-11473.192101,-2681.334243
562.253759,-2664.741391,-11843.295072,-1378.971896
562.254082,-1110.308913,-11325.150913,-2528.115143
562.254405,370.102971,-12435.459826,-4673.182538
562.254727,1850.514855,-14508.036463,-4749.792088
562.255050,2516.700203,-13397.727550,-2068.457845
562.255373,3849.070898,-12805.562797,-1149.143247
562.255695,6143.709319,-13101.645173,-995.924147
562.256018,5773.606348,-11843.295072,995.924147
562.256340,1776.494261,-7624.121203,2374.896044
562.256663,-1998.556043,-4515.256246,1225.752797
562.256986,-4737.318029,-3923.091493,-1532.190996
562.257308,-5625.565159,-4663.297435,-2911.162892
562.257631,-5181.441594,-6365.771101,-3140.991542
562.257954,-4589.276840,-7772.162391,-1915.238745
562.258276,-3034.844362,-8364.327145,-1149.143247
562.258599,-666.185348,-9844.739029,-1225.752797
562.258922,666.185348,-11843.295072,-1991.848295
562.259244,296.082377,-13027.624579,-3294.210641
562.259567,-222.061783,-12065.356855,-3677.258390
562.259890,0.000000,-11177.109724,-4060.306139
562.260212,1184.329507,-12657.521608,-4060.306139
562.260535,666.185348,-13471.748144,-2528.115143
562.260857,-1110.308913,-11843.295072,-689.485948
562.261180,-2368.659014,-9844.739029,995.924147
562.261503,-2368.659014,-8956.491898,1072.533697
562.261825,-1332.370696,-8068.244768,0.000000
562.262148,-370.102971,-5255.462188,-1149.143247
562.262471,0.000000,-3330.926739,-536.266849
562.262793,592.164754,-3552.988522,1685.410096
562.263116,148.041188,-4737.318029,2757.943793
562.263439,-444.123565,-6735.874072,-536.266849
562.263761,-1258.350101,-7846.182985,-2681.334243
562.264084,-888.247130,-10214.842000,-2757.943793
562.264407,-592.164754,-12879.583391,-3294.210641
562.264729,-1850.514855,-14508.036463,-3447.429741
562.265052,-2960.823768,-14285.974681,-2068.457845
562.265374,-3182.885551,-12509.480420,-2068.457845
562.265697,-1628.453072,-11547.212695,-3677.258390
562.266020,-1036.288319,-11029.068536,-3447.429741
562.266342,-148.041188,-8734.430116,-2068.457845
562.266665,1184.329507,-7772.162391,-1532.190996
562.266988,2516.700203,-8808.450710,0.000000
562.267310,2738.761985,-9178.553681,2451.505594
562.267633,2368.659014,-8290.306550,1915.238745
562.267956,1776.494261,-5477.523971,-459.657299
562.268278,1110.308913,-5625.565159,-995.924147
562.268601,1036.288319,-7179.997637,-153.219100
562.268924,0.000000,-7698.141797,-1302.362347
562.269246,-1924.535449,-8512.368333,-2451.505594
562.269569,-3330.926739,-10288.862594,-2145.067394
562.269891,-2368.659014,-12509.480420,-2681.334243
562.270214,-3330.926739,-12213.398043,-5286.058936
562.270537,-3034.844362,-11843.295072,-5056.230287
562.270859,-1480.411884,-12657.521608,-4596.572988
562.271182,296.082377,-12731.542202,-2911.162892
562.271505,1702.473667,-11399.171507,-229.828649
562.271827,3404.947333,-9252.574275,-842.705048
562.272150,3775.050304,-7328.038826,-2528.115143
562.272473,3404.947333,-6069.688724,-1532.190996
562.272795,2368.659014,-5921.647536,766.095498
562.273118,1702.473667,-6957.935855,153.219100
562.273441,1036.288319,-8142.265362,-1532.190996
562.273763,-962.267725,-8956.491898,-536.266849
562.274086,-3552.988522,-8586.388927,842.705048
562.274408,-4219.173869,-8216.285956,-995.924147
562.274731,-3701.029710,-7846.182985,-2757.943793
562.275054,-1998.556043,-9030.512492,-3524.039291
562.275376,-592.164754,-9104.533087,-2451.505594
562.275699,814.226536,-9844.739029,-1991.848295
562.276022,2442.679609,-10658.965565,-766.095498
562.276344,3182.885551,-12213.398043,-1532.190996
562.276667,2072.576638,-11843.295072,-2528.115143
562.276990,-740.205942,-10362.883188,-1302.362347
562.277312,-1554.432478,-9696.697840,-1302.362347
562.277635,-2072.576638,-8438.347739,-3217.601092
562.277958,-2960.823768,-8142.265362,-3370.820191
562.278280,-4441.235652,-7402.059420,-1149.143247
562.278603,-4367.215058,-6957.935855,-1532.190996
562.278925,-4885.359217,-7624.121203,-2987.772442
562.279248,-4367.215058,-9252.574275,-1149.143247
562.279571,-3997.112087,-9030.512492,-1762.019645
562.279893,-3108.864956,-9696.697840,-4060.306139
562.280216,-888.247130,-9844.739029,-2451.505594
562.280539,1776.494261,-11399.171507,-1532.190996
562.280861,3552.988522,-12435.459826,-1608.800546
562.281184,3923.091493,-10584.944971,-1072.533697
562.281507,3849.070898,-8660.409521,-306.438199
562.281829,4737.318029,-9030.512492,-1455.581446
562.282152,3849.070898,-10955.047942,-1685.410096
562.282474,-296.082377,-10881.027347,-536.266849
562.282797,-4663.297435,-9326.594869,536.266849
562.283120,-6291.750507,-8512.368333,-1225.752797
562.283442,-6069.688724,-8808.450710,-2374.896044
562.283765,-4663.297435,-6883.915261,-2374.896044
562.284088,-3330.926739,-6365.771101,-2987.772442
562.284410,-1258.350101,-7772.162391,-2068.457845
562.284733,370.102971,-9252.574275,383.047749
562.285056,814.226536,-10140.821405,536.266849
562.285378,148.041188,-10732.986159,-1991.848295
562.285701,-592.164754,-10584.944971,-2451.505594
562.286024,-888.247130,-10362.883188,-2528.115143
562.286346,74.020594,-10214.842000,-3600.648841
562.286669,666.185348,-9918.759623,-3294.210641
562.286991,222.061783,-8882.471304,-689.485948
562.287314,0.000000,-7994.224174,919.314598
562.287637,222.061783,-9400.615463,0.000000
562.287959,-370.102971,-9474.636058,-1608.800546
562.288282,-666.185348,-8586.388927,-1225.752797
562.288605,444.123565,-8808.450710,-1149.143247
562.288927,1702.473667,-9030.512492,0.000000
562.289250,3108.864956,-8142.265362,995.924147
562.289573,3923.091493,-6735.874072,842.705048
562.289895,4737.318029,-8216.285956,0.000000
562.290218,4737.318029,-9252.574275,0.000000
562.290541,3923.091493,-9696.697840,0.000000
562.290863,1850.514855,-9844.739029,-2451.505594
562.291186,-1258.350101,-11251.130318,-2757.943793
562.291508,-3478.967927,-11547.212695,-2604.724693
562.291831,-5329.482782,-9844.739029,-3600.648841
562.292154,-6587.832884,-8586.388927,-4366.744339
562.292476,-7179.997637,-8290.306550,-4443.353888
562.292799,-4589.276840,-10288.862594,-4290.134789
562.293122,-2516.700203,-11473.192101,-4673.182538
562.293444,-1110.308913,-11251.130318,-2451.505594
562.293767,740.205942,-11029.068536,0.000000
562.294090,3404.947333,-9844.739029,-766.095498
562.294412,4885.359217,-8216.285956,-1685.410096
562.294735,4367.215058,-6513.812290,-1225.752797
562.295058,3034.844362,-5551.544565,0.000000
562.295380,1406.391290,-7105.977043,-919.314598
562.295703,-1776.494261,-9030.512492,-1302.362347
562.296025,-4737.318029,-9400.615463,-1225.752797
562.296348,-5773.606348,-10584.944971,-1991.848295
562.296670,-5033.400406,-11843.295072,-2528.115143
562.296993,-3034.844362,-11547.212695,-1685.410096
562.297315,-1480.411884,-8660.409521,-1455.581446
562.297638,370.102971,-7105.977043,-2451.505594
562.297960,2886.803174,-7846.182985,-1149.143247
562.298282,4071.132681,-9474.636058,-1532.190996
562.298605,3701.029710,-10658.965565,-3447.429741
562.298927,2294.638420,-11473.192101,-2987.772442
562.299250,1258.350101,-12139.377449,-842.705048
562.299572,1110.308913,-12065.356855,-383.047749
562.299894,666.185348,-11843.295072,-1838.629195
562.300217,-1406.391290,-9622.677246,-1149.143247
562.300539,-2812.782580,-7105.977043,-612.876398
562.300861,-4663.297435,-6587.832884,-689.485948
562.301184,-4071.132681,-6587.832884,-229.828649
562.301506,-3849.070898,-6513.812290,-995.924147
562.301829,-2072.576638,-8216.285956,-2451.505594
562.302151,-592.164754,-9104.533087,-689.485948
562.302473,296.082377,-9770.718434,1302.362347
562.302796,1184.329507,-10584.944971,-229.828649
562.303118,2294.638420,-9622.677246,-995.924147
562.303441,2072.576638,-9548.656652,-766.095498
562.303763,1184.329507,-8734.430116,-459.657299
562.304085,888.247130,-9770.718434,-2451.505594
562.304408,-814.226536,-11177.109724,-3064.381992
562.304730,-2960.823768,-10732.986159,-1991.848295
562.305052,-5255.462188,-9622.677246,0.000000
562.305375,-7105.977043,-9252.574275,-1838.629195
562.305697,-6735.874072,-8808.450710,-3753.867940
562.306020,-4367.215058,-9252.574275,-4826.401637
562.306342,-2146.597232,-9178.553681,-3370.820191
562.306664,222.061783,-9178.553681,-919.314598
562.306987,2368.659014,-8660.409521,536.266849
562.307309,3923.091493,-8586.388927,-689.485948
562.307631,4811.338623,-9474.636058,-1225.752797
562.307954,4219.173869,-9252.574275,-766.095498
562.308276,2664.741391,-8586.388927,0.000000
562.308599,2368.659014,-9844.739029,-1225.752797
562.308921,1110.308913,-10807.006753,-1302.362347
562.309243,-666.185348,-11177.109724,0.000000
562.309566,-2442.679609,-10066.800811,76.609550
562.309888,-2368.659014,-8808.450710,-1072.533697
562.310211,-1628.453072,-7698.141797,-3447.429741
562.310533,-518.144159,-7624.121203,-2911.162892
562.310855,-296.082377,-7772.162391,-689.485948
562.311178,-888.247130,-8068.244768,612.876398
562.311500,-814.226536,-8216.285956,-612.876398
562.311822,-592.164754,-9252.574275,-2911.162892
562.312145,-740.205942,-10214.842000,-4060.306139
562.312467,-148.041188,-10658.965565,-2757.943793
562.312790,222.061783,-11251.130318,-2221.676944
562.313112,0.000000,-11103.089130,-2834.553343
562.313434,-1258.350101,-11251.130318,-1225.752797
562.313757,-2516.700203,-10436.903782,-1149.143247
562.314079,-3923.091493,-9400.615463,-2604.724693
562.314402,-3552.988522,-8660.409521,-3677.258390
562.314724,-2442.679609,-7698.141797,-3447.429741
562.315046,-518.144159,-7179.997637,-2681.334243
562.315369,518.144159,-7698.141797,0.000000
562.315691,2294.638420,-7624.121203,2068.457845
562.316013,3849.070898,-8956.491898,0.000000
562.316336,4885.359217,-8956.491898,-2451.505594
562.316658,5625.565159,-9548.656652,-1838.629195
562.316981,6217.729913,-9770.718434,76.609550
562.317303,4959.379811,-9992.780217,-153.219100
562.317625,1850.514855,-9104.533087,306.438199
562.317948,-3404.947333,-9326.594869,-612.876398
562.318270,-7328.038826,-9474.636058,-2451.505594
562.318592,-8808.450710,-9474.636058,-4213.525239
562.318915,-9474.636058,-9548.656652,-5439.278036
562.319237,-7105.977043,-11029.068536,-5515.887586
562.319560,-3478.967927,-10584.944971,-3907.087040
562.319882,814.226536,-9696.697840,-383.047749
562.320204,3997.112087,-9548.656652,1532.190996
562.320527,6069.688724,-10066.800811,-1149.143247
562.320849,4811.338623,-9030.512492,-3140.991542
562.321172,3182.885551,-7920.203579,-2451.505594
562.321494,1406.391290,-9178.553681,-1532.190996
562.321816,0.000000,-10436.903782,-995.924147
562.322139,-1924.535449,-11029.068536,-1302.362347
562.322461,-2812.782580,-9030.512492,-1838.629195
562.322783,-2368.659014,-9474.636058,-2528.115143
562.323106,-1036.288319,-9474.636058,153.219100
562.323428,-1924.535449,-8290.306550,995.924147
562.323751,-1480.411884,-7772.162391,-1072.533697
562.324073,-1702.473667,-7476.080014,-2068.457845
562.324395,-814.226536,-8438.347739,-459.657299
562.324718,-444.123565,-9252.574275,-1378.971896
562.325040,-444.123565,-9474.636058,-2221.676944
562.325362,222.061783,-9844.739029,-766.095498
562.325685,1480.411884,-10436.903782,-766.095498
562.326007,2072.576638,-11991.336260,-1991.848295
562.326330,518.144159,-11399.171507,-2221.676944
562.326652,-1184.329507,-11029.068536,-1685.410096
562.326974,-3256.906145,-9104.533087,-1532.190996
562.327297,-4219.173869,-8882.471304,-2068.457845
562.327619,-5551.544565,-7698.141797,-1608.800546
562.327942,-4293.194464,-8364.327145,-2528.115143
562.328264,-1628.453072,-8512.368333,-2681.334243
562.328586,1406.391290,-9474.636058,-919.314598
562.328909,3923.091493,-9030.512492,919.314598
562.329231,5329.482782,-9104.533087,1302.362347
562.329553,5995.668130,-8882.471304,1608.800546
562.329876,5625.565159,-8068.244768,919.314598
562.330198,4737.318029,-7550.100608,-1302.362347
562.330521,2442.679609,-7920.203579,-2221.676944
562.330843,74.020594,-8586.388927,-383.047749
562.331165,-2368.659014,-9326.594869,-1149.143247
562.331488,-3404.947333,-10066.800811,-2145.067394
562.331810,-4441.235652,-10658.965565,-2221.676944
562.332133,-3997.112087,-11177.109724,-1378.971896
562.332455,-3404.947333,-8660.409521,-2221.676944
562.332777,-1850.514855,-9030.512492,-3907.087040
562.333100,0.000000,-8586.388927,-3370.820191
562.333422,1406.391290,-7550.100608,-1072.533697
562.333744,2072.576638,-8364.327145,-536.266849
562.334067,1554.432478,-9326.594869,-1072.533697
562.334389,1702.473667,-10214.842000,-1302.362347
562.334712,1406.391290,-11251.130318,-2374.896044
562.335034,370.102971,-12731.542202,-2221.676944
562.335356,-1406.391290,-12213.398043,-689.485948
562.335679,-3997.112087,-9030.512492,-995.924147
562.336001,-5107.421000,-7254.018232,-2681.334243
562.336323,-5847.626942,-7031.956449,-2298.286494
562.336646,-4811.338623,-7920.203579,-3447.429741
562.336968,-2368.659014,-8290.306550,-4749.792088
562.337291,0.000000,-8956.491898,-2681.334243
562.337613,1776.494261,-10436.903782,536.266849
562.337935,3404.947333,-11399.171507,1149.143247
562.338258,3849.070898,-11695.253884,-306.438199
562.338580,2960.823768,-10658.965565,-536.266849
562.338903,2368.659014,-8734.430116,-1225.752797
562.339225,1924.535449,-7698.141797,-3140.991542
562.339547,518.144159,-8216.285956,-2604.724693
562.339870,-2368.659014,-8364.327145,-1378.971896
562.340192,-5403.503377,-9030.512492,-1225.752797
562.340514,-7179.997637,-9770.718434,-1991.848295
562.340837,-5699.585753,-9622.677246,-3907.087040
562.341159,-3552.988522,-9844.739029,-5898.935335
562.341482,-1850.514855,-10214.842000,-4366.744339
562.341804,-148.041188,-10140.821405,0.000000
562.342126,1702.473667,-9104.533087,1455.581446
562.342449,2886.803174,-8956.491898,-1225.752797
562.342771,4145.153275,-8734.430116,-3600.648841
562.343094,4737.318029,-9548.656652,-2528.115143
562.343416,4367.215058,-9474.636058,-1072.533697
562.343738,3182.885551,-9696.697840,0.000000
562.344061,1258.350101,-9918.759623,229.828649
562.344383,-370.102971,-9622.677246,306.438199
562.344705,-2294.638420,-8882.471304,-842.705048
562.345028,-3256.906145,-8290.306550,-2068.457845
562.345350,-3923.091493,-7698.141797,-2834.553343
562.345673,-2886.803174,-8512.368333,-2451.505594
562.345995,-2220.617826,-8438.347739,-1378.971896
562.346317,-1406.391290,-8882.471304,-459.657299
562.346640,222.061783,-9400.615463,-995.924147
562.346962,1850.514855,-9696.697840,-3064.381992
562.347284,1924.535449,-10362.883188,-3217.601092
562.347607,1258.350101,-9992.780217,-842.705048
562.347929,1850.514855,-11399.171507,-1072.533697
562.348252,1702.473667,-11695.253884,-2911.162892
562.348574,814.226536,-11547.212695,-1762.019645
562.348896,-1628.453072,-9178.553681,-1762.019645
562.349219,-2516.700203,-8364.327145,-3064.381992
562.349541,-2146.597232,-7994.224174,-1532.190996
562.349864,-518.144159,-8734.430116,-1302.362347
562.350186,0.000000,-8142.265362,-766.095498
562.350508,148.041188,-7476.080014,-306.438199
562.350831,740.205942,-8142.265362,-689.485948
562.351153,2072.576638,-10140.821405,-919.314598
562.351475,2368.659014,-10955.047942,229.828649
562.351798,1258.350101,-9474.636058,1608.800546
562.352120,888.247130,-7328.038826,536.266849
562.352443,962.267725,-7550.100608,-1915.238745
562.352765,592.164754,-9030.512492,-1532.190996
562.353087,-518.144159,-9770.718434,-1302.362347
562.353410,-2368.659014,-9030.512492,-1838.629195
562.353732,-3404.947333,-9474.636058,-2451.505594
562.354055,-3552.988522,-10140.821405,-2451.505594
562.354377,-3404.947333,-11177.109724,-2451.505594
562.354699,-4219.173869,-10807.006753,-2451.505594
562.355022,-3108.864956,-9622.677246,-1608.800546
562.355344,-888.247130,-8438.347739,-2068.457845
562.355666,814.226536,-8142.265362,-3294.210641
562.355989,148.041188,-8364.327145,-1302.362347
562.356311,-518.144159,-8512.368333,536.266849
562.356634,962.267725,-9992.780217,-383.047749
562.356956,1776.494261,-10510.924376,-2757.943793
562.357278,296.082377,-10066.800811,-1838.629195
562.357601,-2368.659014,-10140.821405,-536.266849
562.357923,-3849.070898,-9992.780217,-766.095498
562.358245,-3404.947333,-9326.594869,-536.266849
562.358568,-2368.659014,-8068.244768,-1838.629195
562.358890,-666.185348,-8216.285956,-3447.429741
562.359213,148.041188,-8216.285956,-2987.772442
562.359535,666.185348,-8512.368333,-306.438199
562.359857,1628.453072,-10066.800811,689.485948
562.360180,1480.411884,-11251.130318,-612.876398
562.360502,444.123565,-10140.821405,-1072.533697
562.360825,74.020594,-8734.430116,-2911.162892
562.361147,74.020594,-9474.636058,-4060.306139
562.361469,-1184.329507,-10066.800811,-1302.362347
562.361792,-2812.782580,-8586.388927,306.438199
562.362114,-4811.338623,-7772.162391,-2834.553343
562.362436,-5181.441594,-8660.409521,-5132.839837
562.362759,-4885.359217,-9548.656652,-4366.744339
562.363081,-3552.988522,-10732.986159,-3524.039291
562.363404,-1702.473667,-10140.821405,-3294.210641
562.363726,1110.308913,-9918.759623,-2451.505594
562.364048,3478.967927,-10362.883188,-1225.752797
562.364371,4737.318029,-11103.089130,153.219100
562.364693,3849.070898,-10955.047942,76.609550
562.365015,3404.947333,-9326.594869,-995.924147
562.365338,4515.256246,-7402.059420,-1762.019645
562.365660,5181.441594,-9030.512492,-1532.190996
562.365983,3552.988522,-8956.491898,766.095498
562.366305,888.247130,-7476.080014,1991.848295
562.366627,-1480.411884,-6069.688724,76.609550
562.366950,-1554.432478,-7031.956449,-2068.457845
562.367272,-1628.453072,-9400.615463,-3064.381992
562.367595,-2886.803174,-9696.697840,-3217.601092
562.367917,-3330.926739,-9844.739029,-2374.896044
562.368239,-2516.700203,-11029.068536,-995.924147
562.368562,-740.205942,-11917.315666,-689.485948
562.368884,222.061783,-11177.109724,-1762.019645
562.369206,-740.205942,-9474.636058,-2987.772442
562.369529,-666.185348,-8882.471304,-2145.067394
562.369851,1036.288319,-9400.615463,-2221.676944
562.370174,888.247130,-9030.512492,-2757.943793
562.370496,-962.267725,-8216.285956,76.609550
562.370818,-1998.556043,-8438.347739,0.000000
562.371141,-2590.720797,-8956.491898,-1532.190996
562.371463,-2368.659014,-9252.574275,-536.266849
562.371786,-1702.473667,-8660.409521,76.609550
562.372108,-444.123565,-8068.244768,-1455.581446
562.372430,1332.370696,-8068.244768,-229.828649
562.372753,1406.391290,-8142.265362,2068.457845
562.373075,1924.535449,-9178.553681,1225.752797
562.373397,1850.514855,-10214.842000,-2451.505594
562.373720,1258.350101,-10807.006753,-2451.505594
562.374042,1406.391290,-10140.821405,-995.924147
562.374365,1480.411884,-9326.594869,-2068.457845
562.374687,1036.288319,-9326.594869,-2145.067394
562.375009,296.082377,-10584.944971,-995.924147
562.375332,-1258.350101,-11103.089130,-1302.362347
562.375654,-3108.864956,-9474.636058,-1762.019645
562.375976,-4293.194464,-9548.656652,-1532.190996
562.376299,-3256.906145,-9770.718434,-3217.601092
562.376621,-1554.432478,-9548.656652,-4596.572988
562.376944,-370.102971,-8586.388927,-2451.505594
562.377266,-222.061783,-8290.306550,76.609550
562.377588,814.226536,-8660.409521,-1225.752797
562.377911,0.000000,-8660.409521,-2374.896044
562.378233,-814.226536,-8660.409521,-2145.067394
562.378556,-1628.453072,-9104.533087,-2604.724693
562.378878,-1702.473667,-10955.047942,-2911.162892
562.379200,-2146.597232,-10288.862594,-1685.410096
562.379523,-2368.659014,-9326.594869,-1532.190996
562.379845,-2590.720797,-8586.388927,-2068.457845
562.380167,-1998.556043,-9104.533087,-1915.238745
562.380490,-1776.494261,-8734.430116,-1455.581446
562.380812,-962.267725,-9104.533087,-2451.505594
562.381135,-370.102971,-9474.636058,-3830.477490
562.381457,814.226536,-9918.759623,-1762.019645
562.381779,2294.638420,-10288.862594,-612.876398
562.382102,2442.679609,-10066.800811,-689.485948
562.382424,1554.432478,-8956.491898,-919.314598
562.382747,962.267725,-7105.977043,-1762.019645
562.383069,1924.535449,-7846.182985,-2528.115143
562.383391,1406.391290,-9474.636058,-2451.505594
562.383714,-1036.288319,-9844.739029,-612.876398
562.384036,-3923.091493,-9178.553681,-306.438199
562.384358,-5551.544565,-8512.368333,-1915.238745
562.384681,-4293.194464,-10362.883188,-3064.381992
562.385003,-1628.453072,-11621.233289,-4596.572988
562.385326,592.164754,-10436.903782,-4519.963438
562.385648,2220.617826,-8734.430116,-2068.457845
562.385970,3997.112087,-9030.512492,1378.971896
562.386293,5107.421000,-10288.862594,1149.143247
562.386615,3627.009116,-9474.636058,-689.485948
562.386937,1776.494261,-8586.388927,-1915.238745
562.387260,1480.411884,-7846.182985,-2221.676944
562.387582,1184.329507,-8956.491898,-2068.457845
562.387905,-592.164754,-8882.471304,-306.438199
562.388227,-2220.617826,-8956.491898,919.314598
562.388549,-3256.906145,-10658.965565,-689.485948
562.388872,-3627.009116,-10436.903782,-1378.971896
562.389194,-3256.906145,-11177.109724,-1532.190996
562.389517,-3182.885551,-8882.471304,-1991.848295
562.389839,-2368.659014,-7772.162391,-2451.505594
562.390161,-1480.411884,-7550.100608,-919.314598
562.390484,-222.061783,-9400.615463,-153.219100
562.390806,0.000000,-9252.574275,-1149.143247
562.391128,-148.041188,-8512.368333,-3140.991542
562.391451,0.000000,-9474.636058,-2298.286494
562.391773,1036.288319,-11251.130318,-689.485948
562.392096,814.226536,-11029.068536,-995.924147
562.392418,-814.226536,-9252.574275,-995.924147
562.392740,-1850.514855,-8882.471304,-1455.581446
562.393063,-2368.659014,-9474.636058,-1991.848295
562.393385,-3478.967927,-8512.368333,-766.095498
562.393708,-4071.132681,-6883.915261,-383.047749
562.394030,-3108.864956,-7328.038826,-1991.848295
562.394352,-1184.329507,-8586.388927,-1225.752797
562.394675,296.082377,-8956.491898,306.438199
562.394997,888.247130,-8290.306550,-229.828649
562.395319,1628.453072,-9696.697840,-2145.067394
562.395642,1850.514855,-9992.780217,-1225.752797
562.395964,1628.453072,-8068.244768,-766.095498
562.396287,1258.350101,-7179.997637,-2528.115143
562.396609,518.144159,-8956.491898,-3064.381992
562.396931,-666.185348,-9992.780217,-2834.553343
562.397254,-1924.535449,-11325.150913,-2757.943793
562.397576,-3478.967927,-11843.295072,-2681.334243
562.397898,-4071.132681,-11473.192101,-1225.752797
562.398221,-2146.597232,-10288.862594,-2987.772442
562.398543,296.082377,-8512.368333,-4136.915689
562.398866,2072.576638,-8364.327145,-3370.820191
562.399188,2812.782580,-8660.409521,-689.485948
562.399510,3701.029710,-9252.574275,153.219100
562.399833,3478.967927,-9104.533087,0.000000
562.400155,1850.514855,-9252.574275,-1608.800546
562.400478,666.185348,-9178.553681,-2298.286494
562.400800,296.082377,-9326.594869,-3217.601092
562.401123,-888.247130,-9252.574275,-2451.505594
562.401445,-2664.741391,-9474.636058,-1685.410096
562.401767,-4219.173869,-9696.697840,-2298.286494
562.402090,-4663.297435,-10807.006753,-2757.943793
562.402412,-3627.009116,-11843.295072,-2298.286494
562.402735,-1480.411884,-10955.047942,-3140.991542
562.403057,74.020594,-10288.862594,-4290.134789
562.403380,1850.514855,-9252.574275,-2298.286494
562.403702,3478.967927,-8734.430116,306.438199
562.404024,3701.029710,-8734.430116,-919.314598
562.404347,2960.823768,-9030.512492,-1838.629195
562.404669,1850.514855,-9252.574275,-2068.457845
562.404992,814.226536,-8660.409521,-1915.238745
562.405314,-370.102971,-9252.574275,-919.314598
562.405637,-2146.597232,-9918.759623,-383.047749
562.405959,-2960.823768,-11103.089130,-995.924147
562.406281,-3775.050304,-10140.821405,-766.095498
562.406604,-5477.523971,-8290.306550,0.000000
562.406926,-4663.297435,-7179.997637,-1532.190996
562.407249,-2146.597232,-7920.203579,-4749.792088
562.407571,740.205942,-8734.430116,-4443.353888
562.407894,2294.638420,-9252.574275,-536.266849
562.408216,3330.926739,-9474.636058,1685.410096
562.408538,3552.988522,-9548.656652,459.657299
562.408861,2220.617826,-8290.306550,0.000000
562.409183,666.185348,-7772.162391,-1225.752797
562.409506,-666.185348,-9474.636058,-2374.896044
562.409828,-2368.659014,-10881.027347,-2068.457845
562.410151,-3404.947333,-9474.636058,-306.438199
562.410473,-3923.091493,-7476.080014,-536.266849
562.410795,-3775.050304,-8142.265362,-1225.752797
562.411118,-3478.967927,-10436.903782,-689.485948
562.411440,-2220.617826,-9992.780217,-1302.362347
562.411763,-1184.329507,-8142.265362,-3524.039291
562.412085,370.102971,-7624.121203,-2068.457845
562.412408,2294.638420,-9474.636058,0.000000
562.412730,3552.988522,-9696.697840,-612.876398
562.413052,2960.823768,-9992.780217,-1455.581446
562.413375,2886.803174,-10955.047942,-995.924147
562.413697,2886.803174,-11177.109724,0.000000
562.414020,2146.597232,-10362.883188,-1072.533697
562.414342,0.000000,-9474.636058,-1762.019645
562.414665,-1924.535449,-9474.636058,-1532.190996
562.414987,-2590.720797,-9992.780217,-1685.410096
562.415309,-3775.050304,-9030.512492,-1225.752797
562.415632,-4737.318029,-8142.265362,-153.219100
562.415954,-3627.009116,-7328.038826,-1455.581446
562.416277,-1332.370696,-7476.080014,-2681.334243
562.416599,666.185348,-8882.471304,-1915.238745
562.416922,962.267725,-9622.677246,-919.314598
562.417244,814.226536,-9030.512492,-1302.362347
562.417566,888.247130,-9326.594869,-1991.848295
562.417889,1776.494261,-10214.842000,-2987.772442
562.418211,740.205942,-10510.924376,-2451.505594
562.418534,-1480.411884,-10362.883188,-2298.286494
562.418856,-3182.885551,-11029.068536,-2068.457845
562.419179,-2886.803174,-11103.089130,-2757.943793
562.419501,-2960.823768,-9548.656652,-3447.429741
562.419824,-2738.761985,-9104.533087,-1302.362347
562.420146,-1850.514855,-7994.224174,-383.047749
562.420468,0.000000,-7846.182985,-2374.896044
562.420791,1924.535449,-7698.141797,-3294.210641
562.421113,2886.803174,-8290.306550,-536.266849
562.421436,3552.988522,-9326.594869,153.219100
562.421758,3108.864956,-9104.533087,-383.047749
562.422081,2368.659014,-9030.512492,-459.657299
562.422403,2072.576638,-9474.636058,-766.095498
562.422725,1184.329507,-9918.759623,-2145.067394
562.423048,-296.082377,-9992.780217,-1991.848295
562.423370,-2738.761985,-9474.636058,-1532.190996
562.423693,-4663.297435,-9844.739029,-3064.381992
562.424015,-5255.462188,-10584.944971,-3830.477490
562.424338,-5403.503377,-10288.862594,-1838.629195
562.424660,-3701.029710,-10362.883188,-1915.238745
562.424982,-1628.453072,-9918.759623,-4366.744339
562.425305,444.123565,-8660.409521,-2451.505594
562.425627,1258.350101,-8290.306550,-383.047749
562.425950,2220.617826,-9474.636058,-689.485948
562.426272,2590.720797,-9992.780217,-766.095498
562.426595,1480.411884,-8438.347739,-1915.238745
562.426917,518.144159,-7476.080014,-3140.991542
562.427239,814.226536,-9178.553681,-2911.162892
562.427562,296.082377,-11251.130318,-1532.190996
562.427884,-1406.391290,-11251.130318,383.047749
562.428207,-3478.967927,-9992.780217,-459.657299
562.428529,-3701.029710,-9030.512492,-995.924147
562.428852,-3182.885551,-7772.162391,-2528.115143
562.429174,-2368.659014,-7550.100608,-3983.696590
562.429496,-1554.432478,-7772.162391,-3677.258390
562.429819,222.061783,-8290.306550,-1532.190996
562.430141,3256.906145,-9326.594869,-919.314598
562.430464,5847.626942,-10658.965565,-1762.019645
562.430786,6439.791695,-12287.418637,-229.828649
562.431109,5551.544565,-10658.965565,1991.848295
562.431431,3478.967927,-8216.285956,1608.800546
562.431753,814.226536,-7920.203579,-842.705048
562.432076,-1998.556043,-9474.636058,-1915.238745
562.432398,-4589.276840,-8956.491898,-2221.676944
562.432721,-6365.771101,-7254.018232,-2145.067394
562.433043,-5403.503377,-8142.265362,-1455.581446
562.433366,-3849.070898,-9474.636058,-1608.800546
562.433688,-1332.370696,-10362.883188,-1762.019645
562.434010,0.000000,-9326.594869,-1302.362347
562.434333,1110.308913,-8956.491898,-919.314598
562.434655,2220.617826,-9548.656652,-1302.362347
562.434978,2368.659014,-9178.553681,-1915.238745
562.435300,2146.597232,-8808.450710,-2221.676944
562.435623,1776.494261,-8808.450710,-1455.581446
562.435945,2146.597232,-9770.718434,-1072.533697
562.436267,1036.288319,-9844.739029,-842.705048
562.436590,-888.247130,-9548.656652,-689.485948
562.436912,-2886.803174,-10140.821405,-612.876398
562.437235,-4293.194464,-9918.759623,-995.924147
562.437557,-4811.338623,-8586.388927,-1072.533697
562.437880,-2960.823768,-7624.121203,-2298.286494
562.438202,-1998.556043,-6661.853478,-3753.867940
562.438524,-888.247130,-6365.771101,-2451.505594
562.438847,74.020594,-7772.162391,0.000000
562.439169,1776.494261,-10732.986159,-919.314598
562.439492,2368.659014,-12435.459826,-2451.505594
562.439814,2294.638420,-12435.459826,-2374.896044
562.440137,2886.803174,-11769.274478,-1991.848295
562.440459,3108.864956,-11325.150913,-3064.381992
562.440781,1924.535449,-10140.821405,-1991.848295
562.441104,-888.247130,-9474.636058,-1455.581446
562.441426,-3256.906145,-8290.306550,-1915.238745
562.441749,-4441.235652,-8734.430116,-2528.115143
562.442071,-3404.947333,-9918.759623,-3217.601092
562.442394,-2442.679609,-10140.821405,-3524.039291
562.442716,-1036.288319,-10214.842000,-1532.190996
562.443038,592.164754,-9548.656652,306.438199
562.443361,2442.679609,-8364.327145,1225.752797
562.443683,3552.988522,-8290.306550,-229.828649
562.444006,3552.988522,-7550.100608,-1149.143247
562.444328,2146.597232,-7476.080014,-1838.629195
562.444651,0.000000,-8512.368333,-1991.848295
562.444973,-1850.514855,-11029.068536,-2221.676944
562.445296,-3182.885551,-12805.562797,-1608.800546
562.445618,-4959.379811,-11769.274478,-1762.019645
562.445940,-4663.297435,-10066.800811,-2451.505594
562.446263,-3256.906145,-8142.265362,-2834.553343
562.446585,-1258.350101,-8660.409521,-2528.115143
562.446908,0.000000,-7179.997637,-919.314598
562.447230,-962.267725,-7328.038826,76.609550
562.447553,-592.164754,-7402.059420,-306.438199
562.447875,222.061783,-8512.368333,-2145.067394
562.448197,666.185348,-9252.574275,-2987.772442
562.448520,444.123565,-9696.697840,-766.095498
562.448842,1702.473667,-10214.842000,-383.047749
562.449165,2590.720797,-9770.718434,-229.828649
562.449487,1924.535449,-9178.553681,153.219100
562.449810,-444.123565,-9030.512492,-383.047749
562.450132,-2664.741391,-9474.636058,-2374.896044
562.450454,-3701.029710,-8734.430116,-2987.772442
562.450777,-4367.215058,-8290.306550,-3294.210641
562.451099,-2960.823768,-9252.574275,-2987.772442
562.451422,-888.247130,-10362.883188,-1838.629195
562.451744,1332.370696,-9252.574275,-612.876398
562.452067,3108.864956,-7846.182985,76.609550
562.452389,4219.173869,-9178.553681,-842.705048
562.452711,3849.070898,-10510.924376,-1072.533697
562.453034,2812.782580,-9252.574275,-919.314598
562.453356,1332.370696,-9030.512492,-1762.019645
562.453679,0.000000,-10510.924376,-1915.238745
562.454001,-592.164754,-11251.130318,-1762.019645
562.454324,-3034.844362,-8808.450710,-2068.457845
562.454646,-3478.967927,-8068.244768,-3064.381992
562.454968,-2146.597232,-9844.739029,-2604.724693
562.455291,-1258.350101,-10510.924376,-1302.362347
562.455613,0.000000,-10362.883188,-1302.362347
562.455936,0.000000,-8586.388927,-1762.019645
562.456258,0.000000,-8216.285956,-689.485948
562.456581,518.144159,-8956.491898,-536.266849
562.456903,592.164754,-8734.430116,-2298.286494
562.457225,-296.082377,-8068.244768,-1991.848295
562.457548,-296.082377,-8586.388927,-459.657299
562.457870,1406.391290,-9770.718434,-1302.362347
562.458193,1776.494261,-10955.047942,-2221.676944
562.458515,296.082377,-11399.171507,-153.219100
562.458838,-1554.432478,-10732.986159,306.438199
562.459160,-2590.720797,-8956.491898,-612.876398
562.459482,-3997.112087,-7550.100608,-1532.190996
562.459805,-3701.029710,-7179.997637,-2298.286494
562.460127,-2516.700203,-7328.038826,-3524.039291
562.460450,-370.102971,-8882.471304,-2604.724693
562.460772,1480.411884,-9474.636058,-612.876398
562.461095,1998.556043,-9400.615463,536.266849
562.461417,1850.514855,-9474.636058,-459.657299
562.461739,1406.391290,-10510.924376,-919.314598
562.462062,1110.308913,-9918.759623,-1838.629195
562.462384,370.102971,-9400.615463,-3983.696590
562.462707,-962.267725,-9770.718434,-3753.867940
562.463029,-2442.679609,-9918.759623,-1838.629195
562.463352,-3627.009116,-9178.553681,-1685.410096
562.463674,-3552.988522,-9474.636058,-2451.505594
562.463996,-2220.617826,-10658.965565,-2911.162892
562.464319,-370.102971,-10881.027347,-2221.676944
562.464641,1036.288319,-10066.800811,-1915.238745
562.464964,888.247130,-9474.636058,-153.219100
562.465286,962.267725,-8734.430116,689.485948
562.465609,1332.370696,-7772.162391,-1762.019645
562.465931,962.267725,-7698.141797,-2604.724693
562.466253,666.185348,-8660.409521,-1608.800546
562.466576,740.205942,-9252.574275,-1915.238745
562.466898,666.185348,-10436.903782,-2757.943793
562.467221,-444.123565,-11991.336260,-1072.533697
562.467543,-2664.741391,-12361.439231,383.047749
562.467866,-4145.153275,-10288.862594,-1762.019645
562.468188,-4219.173869,-8290.306550,-4366.744339
562.468510,-3701.029710,-7550.100608,-4596.572988
562.468833,-2368.659014,-8882.471304,-3600.648841
562.469155,-2220.617826,-9844.739029,-1149.143247
562.469478,-1406.391290,-10214.842000,536.266849
562.469800,1184.329507,-10658.965565,-1225.752797
562.470123,3701.029710,-11325.150913,-2221.676944
562.470445,4367.215058,-10140.821405,-689.485948
562.470768,3701.029710,-8068.244768,383.047749
562.471090,3256.906145,-7402.059420,-536.266849
562.471412,1924.535449,-7846.182985,0.000000
562.471735,-444.123565,-7550.100608,536.266849
562.472057,-3108.864956,-7105.977043,-1149.143247
562.472380,-4145.153275,-7402.059420,-3447.429741
562.472702,-3256.906145,-8734.430116,-2528.115143
562.473025,-1554.432478,-9622.677246,-1532.190996
562.473347,74.020594,-10658.965565,-612.876398
562.473669,518.144159,-10140.821405,-306.438199
562.473992,1258.350101,-9918.759623,-306.438199
562.474314,1924.535449,-9992.780217,-1302.362347
562.474637,1998.556043,-8364.327145,-2834.553343
562.474959,1554.432478,-8438.347739,-3294.210641
562.475282,1776.494261,-8956.491898,-2451.505594
562.475604,1850.514855,-9252.574275,-689.485948
562.475926,518.144159,-8882.471304,-689.485948
562.476249,-2664.741391,-8660.409521,-229.828649
562.476571,-4811.338623,-9178.553681,-1685.410096
562.476894,-4441.235652,-10362.883188,-4903.011187
562.477216,-4219.173869,-10066.800811,-4213.525239
562.477539,-3330.926739,-9770.718434,-1378.971896
562.477861,-2960.823768,-8734.430116,-1532.190996
562.478183,-518.144159,-9326.594869,-1378.971896
562.478506,1628.453072,-9918.759623,-306.438199
562.478828,2368.659014,-11029.068536,-2298.286494
562.479151,2220.617826,-10584.944971,-1455.581446
562.479473,1776.494261,-9178.553681,0.000000
562.479796,1332.370696,-7624.121203,-1149.143247
562.480118,296.082377,-9178.553681,-1149.143247
562.480440,-2072.576638,-10807.006753,229.828649
562.480763,-4589.276840,-11325.150913,-689.485948
562.481085,-6217.729913,-8512.368333,-1838.629195
562.481408,-5847.626942,-7772.162391,-2834.553343
562.481730,-4589.276840,-9474.636058,-2911.162892
562.482053,-3034.844362,-10066.800811,-995.924147
562.482375,-2738.761985,-9252.574275,-1225.752797
562.482697,-2220.617826,-8734.430116,-1378.971896
562.483020,-1036.288319,-9770.718434,-1378.971896
562.483342,-1480.411884,-9030.512492,-2298.286494
562.483665,-3330.926739,-7846.182985,-2145.067394
562.483987,-3997.112087,-9030.512492,-2068.457845
562.484310,-2664.741391,-10362.883188,-2451.505594
562.484632,-2146.597232,-9992.780217,-2528.115143
562.484954,-3552.988522,-8808.450710,-1532.190996
562.485277,-4367.215058,-9474.636058,-612.876398
562.485599,-4441.235652,-9770.718434,-1378.971896
562.485922,-4145.153275,-9474.636058,-1762.019645
562.486244,-3256.906145,-9104.533087,-2451.505594
562.486567,-1406.391290,-8438.347739,-2451.505594
562.486889,888.247130,-8142.265362,-1378.971896
562.487211,2072.576638,-7550.100608,0.000000
562.487534,2590.720797,-8438.347739,1455.581446
562.487856,1998.556043,-9400.615463,-306.438199
562.488179,666.185348,-9844.739029,-2374.896044
562.488501,-1036.288319,-9326.594869,-2374.896044
562.488824,-1850.514855,-9252.574275,-1838.629195
562.489146,-2812.782580,-9918.759623,-2911.162892
562.489468,-4367.215058,-10214.842000,-2911.162892
562.489791,-6513.812290,-10214.842000,-1915.238745
562.490113,-7254.018232,-10807.006753,-2298.286494
562.490436,-7476.080014,-10066.800811,-2374.896044
562.490758,-7402.059420,-10140.821405,-3140.991542
562.491081,-5699.585753,-9844.739029,-3294.210641
562.491403,-3404.947333,-9474.636058,-2987.772442
562.491725,-1406.391290,-9918.759623,-1838.629195
562.492048,-592.164754,-7624.121203,153.219100
562.492370,1258.350101,-6587.832884,-536.266849
562.492693,2220.617826,-7476.080014,-2834.553343
562.493015,2368.659014,-10362.883188,-2911.162892
562.493338,666.185348,-10881.027347,-612.876398
562.493660,-888.247130,-9474.636058,-229.828649
562.493982,-2220.617826,-9548.656652,-995.924147
562.494305,-3256.906145,-9252.574275,-1762.019645
562.494627,-5477.523971,-6809.894666,-1762.019645
562.494950,-7105.977043,-6809.894666,-4060.306139
562.495272,-7624.121203,-9548.656652,-4749.792088
562.495595,-7328.038826,-11621.233289,-2451.505594
562.495917,-6291.750507,-11177.109724,-995.924147
562.496240,-2960.823768,-9844.739029,-1378.971896
562.496562,1036.288319,-9030.512492,-2451.505594
562.496884,3775.050304,-8586.388927,-1608.800546
562.497207,5107.421000,-7920.203579,306.438199
562.497529,5551.544565,-7105.977043,383.047749
562.497852,4367.215058,-8290.306550,-1149.143247
562.498174,1480.411884,-9400.615463,-766.095498
562.498497,-1776.494261,-9030.512492,-383.047749
562.498819,-3404.947333,-8142.265362,-2757.943793
562.499141,-3552.988522,-9030.512492,-5286.058936
562.499464,-4885.359217,-9474.636058,-4060.306139
562.499786,-7624.121203,-9104.533087,-1149.143247
562.500109,-10066.800811,-9622.677246,-612.876398
562.500431,-11251.130318,-11843.295072,-2374.896044
562.500754,-10140.821405,-13915.871710,-3600.648841
562.501076,-8216.285956,-12805.562797,-3524.039291
562.501399,-4589.276840,-10658.965565,-2681.334243
562.501721,1110.308913,-8882.471304,-1072.533697
562.502043,6143.709319,-7550.100608,842.705048
562.502366,8364.327145,-6809.894666,2145.067394
562.502688,9696.697840,-7031.956449,1685.410096
562.503011,9104.533087,-7772.162391,-919.314598
562.503333,4885.359217,-9104.533087,-1991.848295
562.503656,-1850.514855,-8734.430116,-383.047749
562.503978,-7328.038826,-8068.244768,76.609550
562.504301,-9400.615463,-7550.100608,-2451.505594
562.504623,-8660.409521,-8438.347739,-6128.763984
562.504946,-9400.615463,-9844.739029,-6511.811733
562.505268,-11843.295072,-11029.068536,-3217.601092
562.505590,-11177.109724,-13915.871710,-995.924147
562.505913,-7846.182985,-15692.365970,-2298.286494
562.506235,-5477.523971,-14137.933492,-2221.676944
562.506558,-5921.647536,-11769.274478,-1608.800546
562.506880,-4219.173869,-8142.265362,-612.876398
562.507203,-222.061783,-5625.565159,-383.047749
562.507525,3775.050304,-4737.318029,-1149.143247
562.507848,6069.688724,-4663.297435,-1072.533697
562.508170,7179.997637,-5847.626942,1302.362347
562.508493,7476.080014,-7624.121203,2221.676944
562.508815,6291.750507,-8586.388927,1149.143247
562.509137,3034.844362,-9844.739029,-612.876398
562.509460,-1924.535449,-10807.006753,-2604.724693
562.509782,-6513.812290,-9548.656652,-2451.505594
562.510105,-9474.636058,-9474.636058,-3907.087040
562.510427,-10214.842000,-11029.068536,-6281.983084
562.510750,-10288.862594,-12435.459826,-6511.811733
562.511072,-8956.491898,-12657.521608,-2757.943793
562.511395,-5329.482782,-11843.295072,-536.266849
562.511717,-2294.638420,-10584.944971,-306.438199
562.512040,296.082377,-11399.171507,-1149.143247
562.512362,666.185348,-10214.842000,-1149.143247
562.512684,-518.144159,-8068.244768,76.609550
562.513007,-888.247130,-6957.935855,1455.581446
562.513329,-592.164754,-4885.359217,1225.752797
562.513652,592.164754,-2664.741391,-306.438199
562.513974,2220.617826,-3330.926739,-1302.362347
562.514297,3182.885551,-6661.853478,-1532.190996
562.514619,2886.803174,-10510.924376,-612.876398
562.514942,1702.473667,-12287.418637,-1072.533697
562.515264,0.000000,-10732.986159,-2298.286494
562.515587,-2590.720797,-11103.089130,-4903.011187
562.515909,-5107.421000,-11991.336260,-5286.058936
562.516231,-8438.347739,-12139.377449,-4290.134789
562.516554,-10658.965565,-11843.295072,-3907.087040
562.516876,-9474.636058,-11547.212695,-3217.601092
562.517199,-5625.565159,-10658.965565,-3830.477490
562.517521,-2294.638420,-9178.553681,-3140.991542
562.517844,-148.041188,-8068.244768,-229.828649
562.518166,1480.411884,-6291.750507,2374.896044
562.518489,2812.782580,-5107.421000,1991.848295
562.518811,1628.453072,-4515.256246,0.000000
562.519133,-1628.453072,-5995.668130,-1838.629195
562.519456,-6069.688724,-8364.327145,-2221.676944
562.519778,-9030.512492,-10288.862594,-1149.143247
562.520101,-8438.347739,-11399.171507,-2298.286494
562.520423,-5329.482782,-11473.192101,-4826.401637
562.520746,-1480.411884,-11695.253884,-5209.449386
562.521068,1258.350101,-11917.315666,-2528.115143
562.521391,1776.494261,-10288.862594,-229.828649
562.521713,1776.494261,-10732.986159,-1225.752797
562.522036,1036.288319,-10732.986159,-2681.334243
562.522358,-444.123565,-10658.965565,-4290.134789
562.522680,-2664.741391,-9474.636058,-4519.963438
562.523003,-4293.194464,-9252.574275,-3064.381992
562.523325,-4737.318029,-10066.800811,-689.485948
562.523648,-4737.318029,-9400.615463,1302.362347
562.523970,-4737.318029,-7476.080014,153.219100
562.524293,-4293.194464,-6291.750507,-1608.800546
562.524615,-4367.215058,-6069.688724,-3830.477490
562.524938,-4589.276840,-6735.874072,-3140.991542
562.525260,-3923.091493,-7624.121203,-1302.362347
562.525583,-4441.235652,-8734.430116,-2145.067394
562.525905,-3404.947333,-10955.047942,-3677.258390
562.526227,-2368.659014,-12435.459826,-3677.258390
562.526550,-2072.576638,-12139.377449,-2604.724693
562.526872,-814.226536,-12435.459826,-2911.162892
562.527195,0.000000,-12731.542202,-2451.505594
562.527517,444.123565,-13323.706956,-459.657299
562.527840,-888.247130,-11103.089130,1455.581446
562.528162,-3182.885551,-7698.141797,1455.581446
562.528485,-4441.235652,-6069.688724,-842.705048
562.528807,-3997.112087,-4293.194464,-2374.896044
562.529130,-2590.720797,-3923.091493,-2757.943793
562.529452,-2072.576638,-4071.132681,-2221.676944
562.529774,-1110.308913,-5921.647536,-995.924147
562.530097,814.226536,-8586.388927,-919.314598
562.530419,2220.617826,-9992.780217,-1378.971896
562.530742,1702.473667,-10807.006753,-2604.724693
562.531064,74.020594,-11843.295072,-3830.477490
562.531387,-1480.411884,-12583.501014,-4060.306139
562.531709,-2590.720797,-12435.459826,-3370.820191
562.532032,-3034.844362,-12657.521608,-3217.601092
562.532354,-3849.070898,-12213.398043,-1608.800546
562.532677,-4367.215058,-11843.295072,-306.438199
562.532999,-5107.421000,-9252.574275,536.266849
562.533321,-4515.256246,-7105.977043,-689.485948
562.533644,-3034.844362,-7179.997637,-995.924147
562.533966,-1554.432478,-7105.977043,0.000000
562.534289,-518.144159,-5847.626942,995.924147
562.534611,-370.102971,-4737.318029,153.219100
562.534934,592.164754,-6291.750507,1838.629195
562.535256,2368.659014,-7402.059420,1608.800546
562.535579,2516.700203,-8512.368333,-2451.505594
562.535901,1628.453072,-11991.336260,-4213.525239
562.536224,-148.041188,-13545.768739,-2221.676944
562.536546,-3034.844362,-12731.542202,-1838.629195
562.536868,-6439.791695,-12731.542202,-2298.286494
562.537191,-8956.491898,-12805.562797,-1915.238745
562.537513,-11103.089130,-10584.944971,-2911.162892
562.537836,-12953.603985,-8364.327145,-4749.792088
562.538158,-13249.686362,-7550.100608,-3294.210641
562.538481,-10288.862594,-8290.306550,-1378.971896
562.538803,-5995.668130,-7772.162391,-1149.143247
562.539126,-1924.535449,-4737.318029,-689.485948
562.539448,1036.288319,-3256.906145,0.000000
562.539771,2886.803174,-4737.318029,0.000000
562.540093,3330.926739,-7105.977043,-536.266849
562.540415,2812.782580,-9178.553681,-1378.971896
562.540738,2294.638420,-10214.842000,-3524.039291
562.541060,2664.741391,-12731.542202,-4213.525239
562.541383,2294.638420,-14137.933492,-2757.943793
562.541705,74.020594,-13471.748144,-766.095498
562.542028,-2664.741391,-12065.356855,-306.438199
562.542350,-5255.462188,-11399.171507,0.000000
562.542673,-6735.874072,-10288.862594,-1685.410096
562.542995,-8586.388927,-8216.285956,-3524.039291
562.543318,-9326.594869,-7105.977043,-3677.258390
562.543640,-7920.203579,-8216.285956,-1532.190996
562.543962,-4589.276840,-9104.533087,459.657299
562.544285,-1924.535449,-7476.080014,1532.190996
562.544607,592.164754,-6957.935855,536.266849
562.544930,2886.803174,-7031.956449,-995.924147
562.545252,4589.276840,-7772.162391,-2528.115143
562.545575,4219.173869,-8068.244768,-3753.867940
562.545897,2886.803174,-8364.327145,-4060.306139
562.546220,1850.514855,-9400.615463,-4596.572988
562.546542,370.102971,-11103.089130,-5209.449386
562.546865,-1924.535449,-12731.542202,-5056.230287
562.547187,-4737.318029,-14211.954086,-4213.525239
562.547509,-6661.853478,-15026.180623,-3447.429741
562.547832,-6513.812290,-14285.974681,-3294.210641
562.548154,-6439.791695,-12065.356855,-2451.505594
562.548477,-5699.585753,-9696.697840,-2451.505594
562.548799,-4441.235652,-6957.935855,-1302.362347
562.549122,-3034.844362,-4663.297435,919.314598
562.549444,-1998.556043,-2516.700203,1762.019645
562.549767,-1184.329507,-3404.947333,536.266849
562.550089,-888.247130,-5921.647536,-536.266849
562.550412,-1110.308913,-8956.491898,-1455.581446
562.550734,-1628.453072,-10807.006753,-1685.410096
562.551056,-1332.370696,-12213.398043,-306.438199
562.551379,222.061783,-12731.542202,-1149.143247
562.551701,1184.329507,-11991.336260,-2451.505594
562.552024,1036.288319,-10732.986159,-2221.676944
562.552346,0.000000,-9992.780217,-842.705048
562.552669,-1998.556043,-9474.636058,-1225.752797
562.552991,-3108.864956,-9326.594869,-1608.800546
562.553314,-4367.215058,-7920.203579,-1915.238745
562.553636,-5551.544565,-7105.977043,-2451.505594
562.553958,-6291.750507,-6513.812290,-2221.676944
562.554281,-6661.853478,-6365.771101,-995.924147
562.554603,-6809.894666,-7105.977043,-459.657299
562.554926,-6661.853478,-7105.977043,-1532.190996
562.555248,-5995.668130,-7254.018232,-3370.820191
562.555571,-5329.482782,-8734.430116,-4213.525239
562.555893,-4219.173869,-11029.068536,-3907.087040
562.556216,-3627.009116,-11843.295072,-2911.162892
562.556538,-2812.782580,-12435.459826,-1838.629195
562.556861,-1480.411884,-13027.624579,-2068.457845
562.557183,-518.144159,-12435.459826,-1991.848295
562.557505,74.020594,-11547.212695,-1991.848295
562.557828,592.164754,-10658.965565,-1532.190996
562.558150,1702.473667,-9622.677246,-612.876398
562.558473,1998.556043,-8438.347739,536.266849
562.558795,1924.535449,-7402.059420,1072.533697
562.559118,1184.329507,-6809.894666,842.705048
562.559440,370.102971,-6661.853478,306.438199
562.559763,-370.102971,-7031.956449,0.000000
562.560085,-518.144159,-7846.182985,-1225.752797
562.560408,-1554.432478,-8734.430116,-1915.238745
562.560730,-1850.514855,-9474.636058,-1685.410096
562.561052,-1924.535449,-10584.944971,-1302.362347
562.561375,-1924.535449,-11399.171507,-1838.629195
562.561697,-2220.617826,-11325.150913,-1532.190996
562.562020,-3034.844362,-11621.233289,-2374.896044
562.562342,-3701.029710,-11029.068536,-1915.238745
562.562665,-3775.050304,-10732.986159,-1915.238745
562.562987,-3478.967927,-9844.739029,-1762.019645
562.563310,-3034.844362,-9400.615463,-1225.752797
562.563632,-2886.803174,-8068.244768,-229.828649
562.563955,-3627.009116,-7624.121203,153.219100
562.564277,-4145.153275,-7105.977043,0.000000
562.564599,-4737.318029,-6735.874072,-612.876398
562.564922,-4959.379811,-6069.688724,-1532.190996
562.565244,-4515.256246,-6217.729913,-2604.724693
562.565567,-3701.029710,-7624.121203,-2757.943793
562.565889,-3478.967927,-8586.388927,-1455.581446
562.566212,-2886.803174,-9474.636058,-1225.752797
562.566534,-1998.556043,-11399.171507,-2451.505594
562.566857,-444.123565,-12879.583391,-2451.505594
562.567179,-296.082377,-12731.542202,-1455.581446
562.567502,-666.185348,-11695.253884,-766.095498
562.567824,-370.102971,-10436.903782,-1149.143247
562.568146,-296.082377,-9474.636058,-1455.581446
562.568469,-1332.370696,-8512.368333,-612.876398
562.568791,-2886.803174,-8512.368333,153.219100
562.569114,-4515.256246,-8438.347739,76.609550
562.569436,-5329.482782,-8438.347739,-919.314598
562.569759,-5477.523971,-7920.203579,-1991.848295
562.570081,-5181.441594,-8290.306550,-2068.457845
562.570404,-4441.235652,-8660.409521,-1302.362347
562.570726,-3108.864956,-9178.553681,-1608.800546
562.571049,-1850.514855,-8956.491898,-2528.115143
562.571371,-444.123565,-10658.965565,-3370.820191
562.571693,148.041188,-12139.377449,-3370.820191
562.572016,0.000000,-12879.583391,-2451.505594
562.572338,-888.247130,-12657.521608,-2451.505594
562.572661,-814.226536,-13027.624579,-2681.334243
562.572983,-148.041188,-13397.727550,-2451.505594
562.573306,-296.082377,-12361.439231,-612.876398
562.573628,-666.185348,-10436.903782,1302.362347
562.573951,0.000000,-8586.388927,1532.190996
562.574273,444.123565,-7328.038826,1225.752797
562.574596,1110.308913,-5699.585753,1762.019645
562.574918,1776.494261,-5033.400406,1915.238745
562.575240,2368.659014,-5995.668130,1685.410096
562.575563,3182.885551,-7031.956449,1685.410096
562.575885,3182.885551,-7550.100608,1302.362347
562.576208,3256.906145,-9992.780217,536.266849
562.576530,3034.844362,-11769.274478,919.314598
562.576853,2294.638420,-12065.356855,1225.752797
562.577175,1628.453072,-11029.068536,459.657299
562.577498,962.267725,-10807.006753,919.314598
562.577820,444.123565,-10807.006753,766.095498
562.578143,-814.226536,-9696.697840,1685.410096
562.578465,-1554.432478,-8438.347739,1915.238745
562.578787,-2146.597232,-7550.100608,1532.190996
562.579110,-2072.576638,-7476.080014,1532.190996
562.579432,-2072.576638,-7624.121203,2604.724693
562.579755,-2442.679609,-7328.038826,3217.601092
562.580077,-1998.556043,-7402.059420,3524.039291
562.580400,-1850.514855,-7772.162391,2987.772442
562.580722,-1480.411884,-8216.285956,2604.724693
562.581045,-1406.391290,-8586.388927,2374.896044
562.581367,-1110.308913,-9474.636058,2451.505594
562.581690,-888.247130,-10362.883188,2145.067394
562.582012,-1110.308913,-11251.130318,2068.457845
562.582334,-1332.370696,-11621.233289,2528.115143
562.582657,-1924.535449,-12139.377449,2068.457845
562.582979,-1998.556043,-11991.336260,1608.800546
562.583302,-2146.597232,-11695.253884,1532.190996
562.583624,-2146.597232,-11103.089130,1532.190996
562.583947,-2146.597232,-9844.739029,2145.067394
562.584269,-1480.411884,-9326.594869,3217.601092
562.584592,-1332.370696,-8882.471304,2451.505594
562.584914,-1332.370696,-9104.533087,2374.896044
562.585237,-1702.473667,-9326.594869,1991.848295
562.585559,-2294.638420,-9474.636058,1149.143247
562.585881,-2368.659014,-9696.697840,842.705048
562.586204,-2886.803174,-9696.697840,689.485948
562.586526,-3404.947333,-9622.677246,229.828649
562.586849,-3256.906145,-9400.615463,-842.705048
562.587171,-2220.617826,-9696.697840,-1225.752797
562.587494,-962.267725,-10510.924376,-1225.752797
562.587816,-1184.329507,-9918.759623,76.609550
562.588139,-1554.432478,-9770.718434,536.266849
562.588461,-1406.391290,-10066.800811,-459.657299
562.588783,0.000000,-9992.780217,-459.657299
562.589106,1258.350101,-9696.697840,-383.047749
562.589428,2738.761985,-7994.224174,306.438199
562.589751,4367.215058,-6365.771101,612.876398
562.590073,5773.606348,-5033.400406,306.438199
562.590396,6439.791695,-5403.503377,-383.047749
562.590718,5921.647536,-7031.956449,-1378.971896
562.591041,3997.112087,-9104.533087,-2451.505594
562.591363,666.185348,-9770.718434,-1378.971896
562.591686,-2960.823768,-9474.636058,-1532.190996
562.592008,-5181.441594,-10362.883188,-3370.820191
562.592330,-5477.523971,-11473.192101,-4826.401637
562.592653,-5107.421000,-11399.171507,-5286.058936
562.592975,-3108.864956,-11103.089130,-5132.839837
562.593298,444.123565,-12953.603985,-4136.915689
562.593620,3256.906145,-14730.098246,-229.828649
562.593943,4367.215058,-14211.954086,2068.457845
562.594265,4663.297435,-12065.356855,383.047749
562.594588,4515.256246,-9548.656652,306.438199
562.594910,4515.256246,-7624.121203,1608.800546
562.595233,4219.173869,-4219.173869,919.314598
562.595555,2812.782580,-2368.659014,-1302.362347
562.595877,1184.329507,-5107.421000,-306.438199
562.596200,-1036.288319,-7476.080014,919.314598
562.596522,-3552.988522,-9400.615463,0.000000
562.596845,-6883.915261,-11769.274478,-2145.067394
562.597167,-8956.491898,-13027.624579,-2911.162892
562.597490,-9104.533087,-13323.706956,-3983.696590
562.597812,-8068.244768,-13027.624579,-5592.497135
562.598135,-5773.606348,-14137.933492,-3370.820191
562.598457,-4441.235652,-13545.768739,-995.924147
562.598780,-3108.864956,-11251.130318,-689.485948
562.599102,-2146.597232,-9030.512492,-1225.752797
562.599424,-1258.350101,-8438.347739,-995.924147
562.599747,-1628.453072,-9400.615463,459.657299
562.600069,-1554.432478,-9104.533087,2451.505594
562.600391,-2516.700203,-8364.327145,3907.087040
562.600714,-2220.617826,-8290.306550,3830.477490
562.601036,-1258.350101,-8438.347739,4673.182538
562.601358,-740.205942,-8290.306550,5286.058936
562.601681,-444.123565,-7476.080014,5975.544884
562.602003,-296.082377,-7105.977043,5439.278036
562.602325,148.041188,-6365.771101,4213.525239
562.602648,740.205942,-6291.750507,2528.115143
562.602970,1184.329507,-6291.750507,1838.629195
562.603292,1332.370696,-7254.018232,919.314598
562.603615,2812.782580,-9252.574275,919.314598
562.603937,3923.091493,-11029.068536,1838.629195
562.604259,4589.276840,-12065.356855,2757.943793
562.604582,4293.194464,-11917.315666,2528.115143
562.604904,3552.988522,-11991.336260,2221.676944
562.605226,1554.432478,-11917.315666,1915.238745
562.605549,-1628.453072,-9696.697840,2757.943793
562.605871,-4663.297435,-6883.915261,2911.162892
562.606193,-6587.832884,-6513.812290,2068.457845
562.606516,-6883.915261,-8586.388927,919.314598
562.606838,-5181.441594,-10066.800811,766.095498
562.607160,-2664.741391,-10807.006753,1762.019645
562.607482,0.000000,-11991.336260,2451.505594
562.607805,3034.844362,-12657.521608,3907.087040
562.608127,5847.626942,-10510.924376,3370.820191
562.608449,6809.894666,-7846.182985,1378.971896
562.608772,5699.585753,-7105.977043,1608.800546
562.609094,6069.688724,-6069.688724,2757.943793
562.609416,7031.956449,-4219.173869,229.828649
562.609739,7031.956449,-7031.956449,-4903.011187
562.610061,6069.688724,-15322.262999,-2528.115143
562.610383,3034.844362,-15692.365970,2068.457845
562.610706,-2886.803174,-12213.398043,1991.848295
562.611028,-8142.265362,-13619.789333,919.314598
562.611350,-9178.553681,-13841.851115,76.609550
562.611673,-9918.759623,-9844.739029,-6358.592633
562.611995,-13767.830521,-8438.347739,-7507.735880
562.612317,-15914.427753,-10066.800811,1072.533697
562.612640,-13249.686362,-8216.285956,4903.011187
562.612962,-6957.935855,-5107.421000,-2451.505594
562.613284,296.082377,-6291.750507,-4366.744339
562.613607,6587.832884,-9548.656652,-2681.334243
562.613929,9474.636058,-9918.759623,-2298.286494
562.614251,10288.862594,-9178.553681,2757.943793
562.614574,9770.718434,-6587.832884,6818.249932
562.614896,8956.491898,-4885.359217,-306.438199
562.615218,7846.182985,-7328.038826,-8044.002729
562.615540,4959.379811,-11843.295072,-4749.792088
562.615863,-1480.411884,-13397.727550,612.876398
562.616185,-8512.368333,-15766.386565,2834.553343
562.616507,-11843.295072,-16506.592507,5822.325785
562.616830,-11769.274478,-13323.706956,3294.210641
562.617152,-10584.944971,-8216.285956,-7354.516781
562.617474,-10140.821405,-8364.327145,-6588.421283
562.617797,-7328.038826,-6513.812290,536.266849
562.618119,-4885.359217,-1036.288319,2911.162892
562.618441,-1332.370696,296.082377,1302.362347
562.618764,3034.844362,-4071.132681,919.314598
562.619086,5107.421000,-8808.450710,-2145.067394
562.619408,4071.132681,-10881.027347,-4366.744339
562.619731,2368.659014,-13619.789333,-842.705048
562.620053,2220.617826,-15248.242405,1532.190996
562.620375,3478.967927,-14063.912898,-689.485948
562.620698,2886.803174,-10881.027347,-1532.190996
562.621020,2368.659014,-11695.253884,-229.828649
562.621342,1332.370696,-12583.501014,-1608.800546
562.621665,1998.556043,-12953.603985,-383.047749
562.621987,740.205942,-9770.718434,2911.162892
562.622309,148.041188,-6587.832884,3677.258390
562.622632,444.123565,-7105.977043,2604.724693
562.622954,3627.009116,-8660.409521,1762.019645
562.623276,5107.421000,-6809.894666,689.485948
562.623598,4441.235652,-4737.318029,383.047749
562.623921,2220.617826,-6365.771101,2451.505594
562.624243,-518.144159,-9104.533087,3677.258390
562.624565,-2220.617826,-11325.150913,2451.505594
562.624888,-3256.906145,-12583.501014,-1608.800546
562.625210,-2146.597232,-13471.748144,-2604.724693
562.625532,-1184.329507,-10807.006753,-2451.505594
562.625855,-2146.597232,-9326.594869,383.047749
562.626177,-3108.864956,-10066.800811,2911.162892
562.626499,-4515.256246,-12139.377449,2681.334243
562.626822,-4589.276840,-13101.645173,-153.219100
562.627144,-4885.359217,-13027.624579,-1455.581446
562.627466,-6143.709319,-11177.109724,1072.533697
562.627789,-5699.585753,-8808.450710,3983.696590
562.628111,-3849.070898,-6661.853478,5362.668486
562.628433,74.020594,-6809.894666,5132.839837
562.628756,3552.988522,-5551.544565,4213.525239
562.629078,4959.379811,-3627.009116,2374.896044
562.629400,5477.523971,-2516.700203,1455.581446
562.629723,5625.565159,-4515.256246,1532.190996
562.630045,5921.647536,-9104.533087,1532.190996
562.630367,4145.153275,-12139.377449,2221.676944
562.630690,370.102971,-12139.377449,2451.505594
562.631012,-3849.070898,-11695.253884,995.924147
562.631334,-5699.585753,-13693.809927,-995.924147
562.631656,-5477.523971,-15396.283594,-1149.143247
562.631979,-6069.688724,-13397.727550,-153.219100
562.632301,-5329.482782,-10881.027347,2145.067394
562.632623,-4071.132681,-7994.224174,2451.505594
562.632946,-1628.453072,-6069.688724,1225.752797
562.633268,-740.205942,-6513.812290,-536.266849
562.633590,-2368.659014,-7105.977043,459.657299
562.633913,-4293.194464,-7846.182985,2221.676944
562.634235,-3997.112087,-6809.894666,689.485948
562.634557,-1036.288319,-7550.100608,-1915.238745
562.634880,2812.782580,-9918.759623,-1762.019645
562.635202,4515.256246,-10807.006753,1532.190996
562.635524,4441.235652,-10436.903782,2911.162892
562.635847,4219.173869,-10066.800811,0.000000
562.636169,4441.235652,-11177.109724,-3370.820191
562.636491,2368.659014,-12657.521608,-3217.601092
562.636814,-1702.473667,-13101.645173,-1532.190996
562.637136,-4737.318029,-12657.521608,-1225.752797
562.637458,-4515.256246,-11843.295072,-2068.457845
562.637781,-2368.659014,-12139.377449,-1302.362347
562.638103,-1406.391290,-11103.089130,2221.676944
562.638425,-2072.576638,-10214.842000,4443.353888
562.638748,-1406.391290,-7254.018232,4290.134789
562.639070,1110.308913,-5255.462188,995.924147
562.639392,2294.638420,-4663.297435,-1302.362347
562.639714,1184.329507,-4811.338623,612.876398
562.640037,-1110.308913,-5477.523971,2757.943793
562.640359,-666.185348,-6809.894666,995.924147
562.640681,1776.494261,-8438.347739,-1532.190996
562.641004,2812.782580,-10584.944971,-3140.991542
562.641326,2368.659014,-12361.439231,-2987.772442
562.641648,2220.617826,-13175.665768,-1991.848295
562.641971,1110.308913,-11917.315666,-612.876398
562.642293,-814.226536,-11177.109724,-689.485948
562.642615,-2812.782580,-11103.089130,-1608.800546
562.642938,-4293.194464,-10881.027347,-2987.772442
562.643260,-4441.235652,-10732.986159,-2757.943793
562.643582,-3552.988522,-10584.944971,-459.657299
562.643905,-3182.885551,-11103.089130,3140.991542
562.644227,-1036.288319,-10732.986159,4443.353888
562.644549,1406.391290,-8660.409521,4366.744339
562.644872,2368.659014,-5921.647536,4290.134789
562.645194,2072.576638,-4737.318029,3524.039291
562.645516,1924.535449,-3330.926739,1838.629195
562.645839,2960.823768,-4071.132681,459.657299
562.646161,3701.029710,-5181.441594,536.266849
562.646483,2516.700203,-7624.121203,0.000000
562.646806,1406.391290,-11843.295072,-153.219100
562.647128,-962.267725,-13989.892304,-1762.019645
562.647450,-3552.988522,-15322.262999,-1991.848295
562.647772,-6587.832884,-15840.407159,-3677.258390
562.648095,-8068.244768,-16506.592507,-4903.011187
562.648417,-8734.430116,-14508.036463,-4749.792088
562.648739,-8290.306550,-10955.047942,-1838.629195
562.649062,-6735.874072,-8734.430116,229.828649
562.649384,-4737.318029,-8216.285956,689.485948
562.649706,-3330.926739,-8142.265362,2681.334243
562.650029,-2442.679609,-7105.977043,5056.230287
562.650351,-1850.514855,-6957.935855,4136.915689
562.650673,1702.473667,-8364.327145,3600.648841
562.650996,4663.297435,-6735.874072,3830.477490
562.651318,6069.688724,-2368.659014,3140.991542
562.651640,7254.018232,-1480.411884,1302.362347
562.651963,8364.327145,-5551.544565,459.657299
562.652285,8068.244768,-10658.965565,1762.019645
562.652607,3997.112087,-12583.501014,1608.800546
562.652930,296.082377,-15248.242405,-1455.581446
562.653252,-666.185348,-17987.004391,-3600.648841
562.653574,-370.102971,-17024.736666,-2681.334243
562.653897,-1184.329507,-11547.212695,-1915.238745
562.654219,-3034.844362,-8660.409521,-1072.533697
562.654541,-3923.091493,-8216.285956,0.000000
562.654864,-4737.318029,-8068.244768,1072.533697
562.655186,-6069.688724,-9252.574275,995.924147
562.655508,-5995.668130,-12287.418637,842.705048
562.655830,-4737.318029,-10658.965565,1991.848295
562.656153,-962.267725,-4737.318029,2604.724693
562.656475,2886.803174,0.000000,1225.752797
562.656797,5255.462188,-1850.514855,1149.143247
562.657120,4293.194464,-3627.009116,2451.505594
562.657442,962.267725,-4811.338623,995.924147
562.657764,-1776.494261,-10658.965565,-3370.820191
562.658087,-3034.844362,-14952.160028,-5669.106685
562.658409,-3627.009116,-15840.407159,-4826.401637
562.658731,-3034.844362,-16062.468941,-3983.696590
562.659054,-2072.576638,-15766.386565,-2987.772442
562.659376,-1036.288319,-14063.912898,-842.705048
562.659698,-962.267725,-12213.398043,0.000000
562.660021,-2072.576638,-11695.253884,-766.095498
562.660343,-1998.556043,-10807.006753,153.219100
562.660665,0.000000,-5255.462188,612.876398
562.660988,4737.318029,-444.123565,-1915.238745
562.661310,8216.285956,-1480.411884,-2374.896044
562.661632,8290.306550,-4737.318029,2298.286494
562.661955,5403.503377,-7031.956449,5132.839837
562.662277,1998.556043,-10436.903782,2451.505594
562.662599,-296.082377,-13471.748144,-2528.115143
562.662922,-2294.638420,-12435.459826,-6128.763984
562.663244,-3330.926739,-9992.780217,-6818.249932
562.663566,-2960.823768,-10362.883188,-4903.011187
562.663888,-3404.947333,-10510.924376,-2451.505594
562.664211,-3256.906145,-11695.253884,-612.876398
562.664533,-3256.906145,-14063.912898,-2298.286494
562.664855,-4441.235652,-15396.283594,-2374.896044
562.665178,-4367.215058,-11843.295072,-3217.601092
562.665500,-1998.556043,-7698.141797,-5515.887586
562.665822,1184.329507,-6365.771101,-4596.572988
562.666145,2812.782580,-5403.503377,689.485948
562.666467,2664.741391,-3849.070898,3140.991542
562.666789,962.267725,-4441.235652,1149.143247
562.667112,-1184.329507,-7179.997637,-1302.362347
562.667434,-3849.070898,-8142.265362,-2757.943793
562.667756,-5773.606348,-9030.512492,-3983.696590
562.668079,-5033.400406,-11029.068536,-2911.162892
562.668401,-2960.823768,-11769.274478,-1685.410096
562.668723,0.000000,-11991.336260,-766.095498
562.669046,370.102971,-12287.418637,-536.266849
562.669368,-592.164754,-11843.295072,995.924147
562.669690,-592.164754,-9474.636058,-1991.848295
562.670013,1776.494261,-8586.388927,-5286.058936
562.670335,4145.153275,-9252.574275,-5132.839837
562.670657,4811.338623,-7846.182985,-1532.190996
562.670980,4441.235652,-7031.956449,2451.505594
562.671302,3330.926739,-8512.368333,3600.648841
562.671624,1184.329507,-9696.697840,2451.505594
562.671947,-2072.576638,-8956.491898,-536.266849
562.672269,-4811.338623,-8216.285956,-3217.601092
562.672591,-5403.503377,-9326.594869,-4290.134789
562.672913,-3256.906145,-9326.594869,-2221.676944
562.673236,-1258.350101,-10436.903782,0.000000
562.673558,148.041188,-11029.068536,1608.800546
562.673880,0.000000,-9474.636058,1149.143247
562.674203,-592.164754,-9252.574275,-2145.067394
562.674525,0.000000,-10881.027347,-4749.792088
562.674847,-592.164754,-10807.006753,-4596.572988
562.675170,-740.205942,-9030.512492,-3217.601092
562.675492,296.082377,-9696.697840,-1762.019645
562.675814,2516.700203,-11029.068536,229.828649
562.676137,3034.844362,-9474.636058,306.438199
562.676459,962.267725,-8068.244768,-1302.362347
562.676781,-740.205942,-9326.594869,-2298.286494
562.677104,-2072.576638,-9474.636058,-842.705048
562.677426,-2368.659014,-9844.739029,-612.876398
562.677748,-2442.679609,-9622.677246,-995.924147
562.678071,-2294.638420,-7994.224174,76.609550
562.678393,-592.164754,-7105.977043,689.485948
562.678715,1776.494261,-7254.018232,-1149.143247
562.679038,2220.617826,-6957.935855,-1838.629195
562.679360,666.185348,-6957.935855,-1991.848295
562.679682,-888.247130,-7846.182985,-1225.752797
562.680005,-592.164754,-10955.047942,-1225.752797
562.680327,-296.082377,-12805.562797,-1608.800546
562.680649,-962.267725,-11769.274478,-2987.772442
562.680971,-2368.659014,-9844.739029,-3600.648841
562.681294,-2738.761985,-8956.491898,-2987.772442
562.681616,-1332.370696,-9252.574275,-3370.820191
562.681938,-370.102971,-10362.883188,-3907.087040
562.682261,-518.144159,-11399.171507,-1225.752797
562.682583,-740.205942,-9400.615463,1072.533697
562.682905,296.082377,-5181.441594,536.266849
562.683228,1628.453072,-4219.173869,-2068.457845
562.683550,2442.679609,-5551.544565,-2374.896044
562.683872,888.247130,-6439.791695,-1991.848295
562.684195,-888.247130,-7846.182985,-1225.752797
562.684517,-1406.391290,-11251.130318,-1915.238745
562.684839,-1776.494261,-12361.439231,-2528.115143
562.685162,-3256.906145,-11769.274478,-2911.162892
562.685484,-4441.235652,-12583.501014,-3370.820191
562.685806,-4515.256246,-12583.501014,-4290.134789
562.686129,-2516.700203,-12065.356855,-3830.477490
562.686451,-222.061783,-11103.089130,-2987.772442
562.686773,1480.411884,-10288.862594,-766.095498
562.687096,1184.329507,-7994.224174,-1378.971896
562.687418,2368.659014,-6809.894666,-2604.724693
562.687740,3627.009116,-8216.285956,-3524.039291
562.688063,4071.132681,-9252.574275,-2374.896044
562.688385,1776.494261,-9252.574275,153.219100
562.688707,222.061783,-9622.677246,0.000000
562.689029,-1332.370696,-10140.821405,-536.266849
562.689352,-2442.679609,-9918.759623,-1378.971896
562.689674,-3627.009116,-7920.203579,-2451.505594
562.689996,-3627.009116,-7698.141797,-3524.039291
562.690319,-2590.720797,-7179.997637,-3600.648841
562.690641,-1110.308913,-10066.800811,-1838.629195
562.690963,518.144159,-12435.459826,-459.657299
562.691286,0.000000,-12953.603985,459.657299
562.691608,-296.082377,-10214.842000,229.828649
562.691930,2368.659014,-7179.997637,-2757.943793
562.692253,4811.338623,-6513.812290,-5745.716235
562.692575,4441.235652,-4959.379811,-3983.696590
562.692897,2294.638420,-5477.523971,-842.705048
562.693220,1036.288319,-9252.574275,842.705048
562.693542,518.144159,-10732.986159,0.000000
562.693864,-1184.329507,-10807.006753,-2298.286494
562.694187,-4367.215058,-11547.212695,-2757.943793
562.694509,-5847.626942,-11843.295072,-1915.238745
562.694831,-4589.276840,-9474.636058,-1149.143247
562.695154,-2072.576638,-8142.265362,-612.876398
562.695476,-444.123565,-8660.409521,153.219100
562.695798,148.041188,-7179.997637,842.705048
562.696121,740.205942,-5921.647536,-995.924147
562.696443,1554.432478,-7994.224174,-2834.553343
562.696765,2368.659014,-10288.862594,-3140.991542
562.697087,2146.597232,-9326.594869,-1915.238745
562.697410,2220.617826,-9104.533087,-842.705048
562.697732,1554.432478,-9918.759623,-306.438199
562.698054,296.082377,-10807.006753,-1225.752797
562.698377,-1998.556043,-11103.089130,-2298.286494
562.698699,-5255.462188,-11325.150913,-2528.115143
562.699021,-6735.874072,-11843.295072,-3140.991542
562.699344,-5847.626942,-10955.047942,-2834.553343
562.699666,-2664.741391,-11251.130318,-2221.676944
562.699988,0.000000,-9992.780217,-612.876398
562.700311,592.164754,-7031.956449,459.657299
562.700633,1480.411884,-5921.647536,766.095498
562.700956,2294.638420,-7920.203579,0.000000
562.701278,1628.453072,-8586.388927,-1532.190996
562.701600,-370.102971,-7994.224174,-2298.286494
562.701923,-888.247130,-9030.512492,-1455.581446
562.702245,592.164754,-9326.594869,-995.924147
562.702568,888.247130,-7920.203579,-2145.067394
562.702890,-296.082377,-9992.780217,-1991.848295
562.703212,-3330.926739,-11917.315666,-536.266849
562.703535,-5477.523971,-11843.295072,-1225.752797
562.703857,-4663.297435,-12361.439231,-3447.429741
562.704180,-2368.659014,-12879.583391,-3524.039291
562.704502,0.000000,-10362.883188,-2528.115143
562.704824,1998.556043,-6143.709319,-1378.971896
562.705147,4293.194464,-4441.235652,76.609550
562.705469,5847.626942,-5921.647536,459.657299
562.705792,4811.338623,-6439.791695,-612.876398
562.706114,2072.576638,-8364.327145,-2451.505594
562.706436,-370.102971,-11251.130318,-1608.800546
562.706759,-814.226536,-11399.171507,-842.705048
562.707081,-370.102971,-10066.800811,-1378.971896
562.707403,-1036.288319,-8882.471304,-1762.019645
562.707726,-1554.432478,-7846.182985,-1685.410096
562.708048,-2220.617826,-6291.750507,-1608.800546
562.708371,-1628.453072,-9696.697840,-2987.772442
562.708693,-1628.453072,-13101.645173,-2911.162892
562.709015,-2220.617826,-11991.336260,-2298.286494
562.709338,-1850.514855,-8438.347739,-2374.896044
562.709660,740.205942,-7698.141797,-2451.505594
562.709983,3775.050304,-7031.956449,-3064.381992
562.710305,3256.906145,-6069.688724,-3064.381992
562.710627,1258.350101,-8216.285956,-1991.848295
562.710950,-1110.308913,-11399.171507,-1225.752797
562.711272,-3330.926739,-11547.212695,-2604.724693
562.711595,-4663.297435,-12583.501014,-3370.820191
562.711917,-5847.626942,-12065.356855,-2834.553343
562.712239,-5033.400406,-9918.759623,-3370.820191
562.712562,-3404.947333,-8438.347739,-2298.286494
562.712884,-444.123565,-10140.821405,-1762.019645
562.713207,518.144159,-9474.636058,-1149.143247
562.713529,1036.288319,-7550.100608,-1838.629195
562.713851,2294.638420,-6439.791695,-2451.505594
562.714174,3923.091493,-8142.265362,-2221.676944
562.714496,3997.112087,-9474.636058,-1762.019645
562.714818,3256.906145,-9474.636058,-919.314598
562.715141,1406.391290,-10436.903782,-536.266849
562.715463,444.123565,-10066.800811,-229.828649
562.715786,0.000000,-9696.697840,-1455.581446
562.716108,-1184.329507,-9918.759623,-2451.505594
562.716430,-3997.112087,-10510.924376,-2604.724693
562.716753,-4293.194464,-10732.986159,-842.705048
562.717075,-2812.782580,-12065.356855,-459.657299
562.717398,-1406.391290,-11325.150913,-383.047749
562.717720,-1258.350101,-8216.285956,306.438199
562.718042,0.000000,-3108.864956,919.314598
562.718365,2368.659014,-1480.411884,-1685.410096
562.718687,3552.988522,-2886.803174,-2834.553343
562.719010,1850.514855,-5699.585753,-919.314598
562.719332,-814.226536,-9548.656652,-153.219100
562.719654,-1998.556043,-13989.892304,-842.705048
562.719977,-2146.597232,-15248.242405,-1455.581446
562.720299,-2294.638420,-13693.809927,-4060.306139
562.720621,-1924.535449,-12139.377449,-4290.134789
562.720944,-2072.576638,-9400.615463,-2528.115143
562.721266,-814.226536,-8512.368333,-1915.238745
562.721589,-222.061783,-10066.800811,-1762.019645
562.721911,-148.041188,-12287.418637,-919.314598
562.722233,-1258.350101,-12435.459826,-919.314598
562.722556,-592.164754,-10066.800811,-2298.286494
562.722878,1702.473667,-8586.388927,-2374.896044
562.723201,4663.297435,-6883.915261,-689.485948
562.723523,5107.421000,-4737.318029,0.000000
562.723845,3849.070898,-5403.503377,229.828649
562.724168,1554.432478,-8734.430116,459.657299
562.724490,-1554.432478,-11251.130318,-306.438199
562.724813,-3552.988522,-11103.089130,-1378.971896
562.725135,-5033.400406,-10362.883188,-3524.039291
562.725457,-4219.173869,-10510.924376,-3524.039291
562.725780,-2294.638420,-10362.883188,-2374.896044
562.726102,-1258.350101,-11843.295072,-536.266849
562.726425,-1258.350101,-11991.336260,919.314598
562.726747,-1480.411884,-9770.718434,-153.219100
562.727069,-666.185348,-7179.997637,-3830.477490
562.727392,74.020594,-6957.935855,-4979.620737
562.727714,1184.329507,-6957.935855,-3294.210641
562.728036,1036.288319,-6365.771101,-1072.533697
562.728359,1110.308913,-7698.141797,-459.657299
562.728681,1406.391290,-10066.800811,0.000000
562.729004,888.247130,-9992.780217,-1991.848295
562.729326,-1628.453072,-10955.047942,-3294.210641
562.729648,-4367.215058,-11843.295072,-2221.676944
562.729971,-4293.194464,-10362.883188,-1072.533697
562.730293,-1480.411884,-9548.656652,-2298.286494
562.730616,1258.350101,-9474.636058,-1762.019645
562.730938,1258.350101,-9030.512492,-306.438199
562.731260,296.082377,-7254.018232,153.219100
562.731583,1998.556043,-6883.915261,-689.485948
562.731905,4071.132681,-6957.935855,-2834.553343
562.732228,3997.112087,-7402.059420,-4290.134789
562.732550,2220.617826,-9030.512492,-1532.190996
562.732872,518.144159,-10807.006753,1302.362347
562.733195,-1110.308913,-11769.274478,229.828649
562.733517,-2738.761985,-12879.583391,-1225.752797
562.733840,-5255.462188,-11917.315666,-2451.505594
562.734162,-6217.729913,-9918.759623,-3907.087040
562.734484,-4885.359217,-7698.141797,-3907.087040
562.734807,-2146.597232,-8364.327145,-2528.115143
562.735129,74.020594,-9474.636058,-766.095498
562.735451,0.000000,-8068.244768,383.047749
562.735774,-222.061783,-6809.894666,153.219100
562.736096,296.082377,-8068.244768,-1991.848295
562.736419,444.123565,-10362.883188,-3447.429741
562.736741,-1110.308913,-10214.842000,-1762.019645
562.737063,-1110.308913,-10288.862594,229.828649
562.737386,1110.308913,-8882.471304,-153.219100
562.737708,3775.050304,-7328.038826,-1991.848295
562.738031,3330.926739,-8364.327145,-1915.238745
562.738353,-962.267725,-9178.553681,0.000000
562.738675,-3552.988522,-10362.883188,0.000000
562.738998,-3552.988522,-12287.418637,-1915.238745
562.739320,-1924.535449,-13915.871710,-2068.457845
562.739643,-518.144159,-11399.171507,-995.924147
562.739965,1036.288319,-5995.668130,0.000000
562.740287,3997.112087,-3552.988522,-306.438199
562.740610,6513.812290,-3997.112087,153.219100
562.740932,6439.791695,-5625.565159,-459.657299
562.741254,2516.700203,-8142.265362,-1302.362347
562.741577,-1480.411884,-11621.233289,-1455.581446
562.741899,-3108.864956,-13989.892304,-1608.800546
562.742222,-2812.782580,-13471.748144,-2451.505594
562.742544,-2886.803174,-11991.336260,-4519.963438
562.742866,-3627.009116,-10214.842000,-3830.477490
562.743189,-4071.132681,-9104.533087,-1915.238745
562.743511,-3330.926739,-10807.006753,-1532.190996
562.743834,-2960.823768,-12879.583391,-3217.601092
562.744156,-3849.070898,-12657.521608,-3217.601092
562.744478,-4145.153275,-8808.450710,-2987.772442
562.744801,-1258.350101,-6217.729913,-3064.381992
562.745123,1406.391290,-5773.606348,-2451.505594
562.745446,2368.659014,-5625.565159,-995.924147
562.745768,518.144159,-6439.791695,0.000000
562.746090,-592.164754,-9696.697840,-153.219100
562.746413,-370.102971,-11621.233289,-766.095498
562.746735,444.123565,-12361.439231,-3370.820191
562.747058,444.123565,-12287.418637,-3140.991542
562.747380,-222.061783,-9474.636058,-1072.533697
562.747702,74.020594,-6661.853478,306.438199
562.748025,1628.453072,-6661.853478,-229.828649
562.748347,2886.803174,-9696.697840,-459.657299
562.748669,1036.288319,-10288.862594,-1072.533697
562.748992,-888.247130,-10807.006753,-536.266849
562.749314,740.205942,-10807.006753,0.000000
562.749637,3404.947333,-10140.821405,-1378.971896
562.749959,4367.215058,-7846.182985,-2068.457845
562.750281,3849.070898,-5773.606348,0.000000
562.750604,2220.617826,-4885.359217,919.314598
562.750926,148.041188,-5995.668130,-383.047749
562.751249,-2220.617826,-9696.697840,-2451.505594
562.751571,-5477.523971,-13175.665768,-2987.772442
562.751893,-8216.285956,-11399.171507,-2757.943793
562.752216,-7105.977043,-9474.636058,-2221.676944
562.752538,-2368.659014,-10584.944971,-1378.971896
562.752861,148.041188,-10436.903782,-1532.190996
562.753183,-888.247130,-7254.018232,-612.876398
562.753505,-2294.638420,-6661.853478,-612.876398
562.753828,-2220.617826,-9104.533087,-2681.334243
562.754150,-1850.514855,-10510.924376,-4213.525239
562.754473,-1998.556043,-10584.944971,-3294.210641
562.754795,-1184.329507,-11325.150913,-459.657299
562.755117,1924.535449,-10955.047942,306.438199
562.755440,3997.112087,-10140.821405,-766.095498
562.755762,3108.864956,-10955.047942,-306.438199
562.756084,296.082377,-10214.842000,229.828649
562.756407,-888.247130,-8734.430116,-1838.629195
562.756729,222.061783,-9400.615463,-2528.115143
562.757052,2146.597232,-10658.965565,-2451.505594
562.757374,2220.617826,-10362.883188,-1149.143247
562.757696,1628.453072,-8142.265362,1991.848295
562.758019,3034.844362,-7550.100608,2757.943793
562.758341,3034.844362,-7698.141797,-459.657299
562.758664,1332.370696,-8142.265362,-2757.943793
562.758986,-888.247130,-9104.533087,-1838.629195
562.759308,-2664.741391,-9622.677246,-1225.752797
562.759631,-3330.926739,-8882.471304,-1685.410096
562.759953,-2590.720797,-10362.883188,-2221.676944
562.760276,-3256.906145,-11029.068536,-1915.238745
562.760598,-4515.256246,-9696.697840,-2451.505594
562.760920,-5033.400406,-8956.491898,-2834.553343
562.761243,-4515.256246,-11251.130318,-2374.896044
562.761565,-2960.823768,-10140.821405,-1378.971896
562.761888,-1850.514855,-7105.977043,-1072.533697
562.762210,370.102971,-6291.750507,-1838.629195
562.762532,2146.597232,-8068.244768,-1608.800546
562.762855,2146.597232,-8216.285956,-229.828649
562.763177,1776.494261,-8882.471304,0.000000
562.763499,1184.329507,-10955.047942,-1685.410096
562.763822,2886.803174,-11695.253884,-2298.286494
562.764144,3478.967927,-9844.739029,-1991.848295
562.764467,3775.050304,-8734.430116,-1378.971896
562.764789,2960.823768,-8216.285956,-995.924147
562.765111,1406.391290,-7772.162391,-919.314598
562.765434,-962.267725,-9326.594869,-1378.971896
562.765756,-1702.473667,-11621.233289,-995.924147
562.766079,-1998.556043,-11251.130318,-2451.505594
562.766401,-1332.370696,-9178.553681,-3830.477490
562.766723,666.185348,-9252.574275,-3140.991542
562.767046,1554.432478,-9252.574275,-1991.848295
562.767368,444.123565,-8290.306550,-1608.800546
562.767691,-1702.473667,-8364.327145,-1378.971896
562.768013,-2738.761985,-9178.553681,-2604.724693
562.768335,-2738.761985,-9844.739029,-4826.401637
562.768658,-3478.967927,-9696.697840,-4749.792088
562.768980,-3552.988522,-11991.336260,-2757.943793
562.769302,-3701.029710,-13027.624579,-612.876398
562.769625,-2664.741391,-12731.542202,766.095498
562.769947,-666.185348,-12435.459826,76.609550
562.770270,592.164754,-11029.068536,-2068.457845
562.770592,222.061783,-7994.224174,-2145.067394
562.770914,1110.308913,-5847.626942,0.000000
562.771237,3404.947333,-5995.668130,-306.438199
562.771559,3923.091493,-5329.482782,-1915.238745
562.771882,1628.453072,-7328.038826,-306.438199
562.772204,0.000000,-9400.615463,1225.752797
562.772526,-1184.329507,-11177.109724,-612.876398
562.772849,-2146.597232,-11769.274478,-2451.505594
562.773171,-2664.741391,-11399.171507,-1991.848295
562.773494,-2886.803174,-9696.697840,-1532.190996
562.773816,-2294.638420,-7846.182985,-1378.971896
562.774138,-1036.288319,-7105.977043,-536.266849
562.774461,444.123565,-8438.347739,-1378.971896
562.774783,-370.102971,-9622.677246,-1915.238745
562.775106,-1406.391290,-9548.656652,0.000000
562.775428,-1332.370696,-9844.739029,76.609550
562.775750,0.000000,-9326.594869,-1532.190996
562.776073,1110.308913,-7328.038826,-612.876398
562.776395,1406.391290,-5551.544565,536.266849
562.776717,1406.391290,-4885.359217,0.000000
562.777040,518.144159,-6587.832884,-612.876398
562.777362,-962.267725,-8512.368333,383.047749
562.777685,-2886.803174,-9992.780217,-229.828649
562.778007,-3923.091493,-11843.295072,-2451.505594
562.778329,-3404.947333,-12435.459826,-2451.505594
562.778652,-666.185348,-11917.315666,-766.095498
562.778974,1258.350101,-10658.965565,-383.047749
562.779297,2146.597232,-9030.512492,-153.219100
562.779619,2886.803174,-7994.224174,0.000000
562.779941,3552.988522,-7994.224174,-1991.848295
562.780264,2442.679609,-8808.450710,-3677.258390
562.780586,0.000000,-9844.739029,-2681.334243
562.780909,-1554.432478,-11325.150913,-2145.067394
562.781231,-1480.411884,-12657.521608,-2374.896044
562.781553,-1332.370696,-13471.748144,-2068.457845
562.781876,-2368.659014,-11695.253884,-1225.752797
562.782198,-2738.761985,-10881.027347,-2068.457845
562.782521,-3404.947333,-8956.491898,-3064.381992
562.782843,-2664.741391,-9030.512492,-3140.991542
562.783165,-1332.370696,-9326.594869,-2451.505594
562.783488,0.000000,-8660.409521,-1608.800546
562.783810,222.061783,-7105.977043,-1149.143247
562.784132,1332.370696,-6291.750507,-689.485948
562.784455,2442.679609,-9400.615463,-2221.676944
562.784777,2590.720797,-10436.903782,-2451.505594
562.785100,1110.308913,-9992.780217,-2068.457845
562.785422,0.000000,-10436.903782,-1838.629195
562.785744,74.020594,-10436.903782,-2068.457845
562.786067,-444.123565,-9400.615463,-2528.115143
562.786389,-2146.597232,-8734.430116,-1225.752797
562.786712,-3701.029710,-7846.182985,-1532.190996
562.787034,-3849.070898,-7920.203579,-3370.820191
562.787356,-3330.926739,-8808.450710,-3600.648841
562.787679,-1998.556043,-9770.718434,-1685.410096
562.788001,-1406.391290,-9400.615463,-1149.143247
562.788324,74.020594,-8438.347739,-1991.848295
562.788646,1776.494261,-8660.409521,-1378.971896
562.788968,2442.679609,-7698.141797,-842.705048
562.789291,1554.432478,-5773.606348,-842.705048
562.789613,0.000000,-6217.729913,-995.924147
562.789935,0.000000,-7846.182985,-1532.190996
562.790258,888.247130,-8586.388927,-2604.724693
562.790580,592.164754,-10436.903782,-2298.286494
562.790903,-1184.329507,-12065.356855,0.000000
562.791225,-2812.782580,-12139.377449,536.266849
562.791547,-2812.782580,-10955.047942,-1838.629195
562.791870,74.020594,-10362.883188,-3370.820191
562.792192,2368.659014,-9622.677246,-3447.429741
562.792515,2590.720797,-6735.874072,-2987.772442
562.792837,1406.391290,-5995.668130,-2145.067394
562.793159,296.082377,-8882.471304,-612.876398
562.793482,74.020594,-11621.233289,-612.876398
562.793804,-962.267725,-12953.603985,-2298.286494
562.794127,-2516.700203,-12805.562797,-3524.039291
562.794449,-2960.823768,-11843.295072,-2757.943793
562.794771,-444.123565,-10066.800811,-2757.943793
562.795094,-888.247130,-8438.347739,-2145.067394
562.795416,-1184.329507,-8660.409521,-459.657299
562.795739,-1998.556043,-8438.347739,-1072.533697
562.796061,-1776.494261,-8808.450710,-2911.162892
562.796383,-1406.391290,-10807.006753,-2221.676944
562.796706,-1406.391290,-11695.253884,-1302.362347
562.797028,222.061783,-10584.944971,306.438199
562.797350,3627.009116,-9030.512492,459.657299
562.797673,5477.523971,-9030.512492,76.609550
562.797995,3701.029710,-7920.203579,1149.143247
562.798318,518.144159,-6587.832884,1455.581446
562.798640,-666.185348,-6735.874072,-536.266849
562.798962,-592.164754,-8882.471304,-3753.867940
562.799285,-1554.432478,-10140.821405,-3983.696590
562.799607,-4145.153275,-9252.574275,0.000000
562.799930,-5551.544565,-9326.594869,2221.676944
562.800252,-4811.338623,-9474.636058,383.047749
562.800574,-3034.844362,-11029.068536,-2451.505594
562.800897,-2886.803174,-10732.986159,-2068.457845
562.801219,-3034.844362,-8290.306550,229.828649
562.801542,-1258.350101,-6439.791695,76.609550
562.801864,1184.329507,-7105.977043,-536.266849
562.802186,3182.885551,-6809.894666,-536.266849
562.802509,2220.617826,-3849.070898,-153.219100
562.802831,1332.370696,-3923.091493,-1532.190996
562.803153,1998.556043,-8660.409521,-2298.286494
562.803476,2220.617826,-11917.315666,-2604.724693
562.803798,74.020594,-12657.521608,-1532.190996
562.804121,-2812.782580,-13619.789333,0.000000
562.804443,-3478.967927,-13545.768739,0.000000
562.804765,-1776.494261,-11769.274478,-2911.162892
562.805088,296.082377,-9622.677246,-4136.915689
562.805410,592.164754,-8142.265362,-3753.867940
562.805732,1110.308913,-7698.141797,-1838.629195
562.806055,3256.906145,-8586.388927,-1149.143247
562.806377,4441.235652,-11029.068536,-1149.143247
562.806700,3478.967927,-11325.150913,-1608.800546
562.807022,740.205942,-9474.636058,-2451.505594
562.807344,-444.123565,-9622.677246,-3140.991542
562.807667,-148.041188,-11103.089130,-3753.867940
562.807989,-888.247130,-10288.862594,-3140.991542
562.808311,-3627.009116,-8734.430116,-1991.848295
562.808634,-5107.421000,-10362.883188,-919.314598
562.808956,-5773.606348,-11325.150913,-1991.848295
562.809279,-5477.523971,-11769.274478,-4060.306139
562.809601,-4737.318029,-11843.295072,-4443.353888
562.809923,-1850.514855,-10584.944971,-2451.505594
562.810246,1184.329507,-7920.203579,-1149.143247
562.810568,3182.885551,-5329.482782,-2221.676944
562.810890,4145.153275,-6217.729913,-1915.238745
562.811213,2960.823768,-7994.224174,-459.657299
562.811535,666.185348,-8290.306550,-842.705048
562.811858,-1184.329507,-8142.265362,-1838.629195
562.812180,-518.144159,-10288.862594,-3600.648841
562.812502,74.020594,-9400.615463,-2911.162892
562.812825,-1480.411884,-7550.100608,-1149.143247
562.813147,-2886.803174,-8364.327145,76.609550
562.813469,-4293.194464,-8956.491898,612.876398
562.813792,-3182.885551,-9548.656652,-2374.896044
562.814114,-1702.473667,-9178.553681,-4060.306139
562.814437,0.000000,-8438.347739,-3447.429741
562.814759,1554.432478,-5995.668130,-1838.629195
562.815081,5033.400406,-5255.462188,-229.828649
562.815404,7698.141797,-8660.409521,0.000000
562.815726,4959.379811,-9474.636058,-153.219100
562.816048,0.000000,-9992.780217,-919.314598
562.816371,-2886.803174,-11547.212695,-1915.238745
562.816693,-2072.576638,-11325.150913,-3600.648841
562.817016,-370.102971,-9474.636058,-4749.792088
562.817338,296.082377,-9104.533087,-2911.162892
562.817660,-1776.494261,-8512.368333,0.000000
562.817983,-2072.576638,-9400.615463,612.876398
562.818305,-2664.741391,-11177.109724,-2221.676944
562.818627,-2738.761985,-13397.727550,-3677.258390
562.818950,-3552.988522,-12213.398043,-3753.867940
562.819272,-3108.864956,-8290.306550,-3140.991542
562.819595,-518.144159,-8142.265362,-2451.505594
562.819917,2072.576638,-9104.533087,-536.266849
562.820239,1406.391290,-8734.430116,-306.438199
562.820562,-222.061783,-8808.450710,-2374.896044
562.820884,-1184.329507,-11843.295072,-3447.429741
562.821206,-1406.391290,-12361.439231,-3140.991542
562.821529,-1110.308913,-11621.233289,-2757.943793
562.821851,-2590.720797,-10658.965565,-1378.971896
562.822173,-2220.617826,-10140.821405,1072.533697
562.822496,-1258.350101,-10436.903782,536.266849
562.822818,148.041188,-9474.636058,306.438199
562.823141,1406.391290,-8882.471304,0.000000
562.823463,2368.659014,-7624.121203,-689.485948
562.823785,3330.926739,-5699.585753,-383.047749
562.824108,5921.647536,-5403.503377,459.657299
562.824430,5329.482782,-6439.791695,1149.143247
562.824752,3775.050304,-7772.162391,1072.533697
562.825075,1184.329507,-10658.965565,766.095498
562.825397,-1924.535449,-11843.295072,0.000000
562.825720,-3849.070898,-11325.150913,-612.876398
562.826042,-4663.297435,-9178.553681,-1532.190996
562.826364,-4293.194464,-7254.018232,-2987.772442
562.826687,-3034.844362,-6439.791695,-1532.190996
562.827009,-2368.659014,-7105.977043,-153.219100
562.827331,-2516.700203,-9992.780217,153.219100
562.827654,-4145.153275,-10732.986159,0.000000
562.827976,-5033.400406,-9770.718434,-1378.971896
562.828299,-3404.947333,-9104.533087,-4519.963438
562.828621,-1332.370696,-8586.388927,-4213.525239
562.828943,74.020594,-6439.791695,-306.438199
562.829266,2072.576638,-5181.441594,0.000000
562.829588,3997.112087,-8364.327145,-1762.019645
562.829910,3182.885551,-11325.150913,-1532.190996
562.830233,148.041188,-11325.150913,-459.657299
562.830555,-3552.988522,-10881.027347,-2374.896044
562.830878,-4885.359217,-12509.480420,-3140.991542
562.831200,-3552.988522,-13915.871710,-2298.286494
562.831522,-1332.370696,-11547.212695,-1532.190996
562.831845,592.164754,-9474.636058,-1608.800546
562.832167,2590.720797,-9326.594869,-459.657299
562.832489,4515.256246,-8586.388927,-1072.533697
562.832812,5329.482782,-7105.977043,-2451.505594
562.833134,4071.132681,-7179.997637,-1991.848295
562.833457,2516.700203,-8512.368333,-1762.019645
562.833779,1998.556043,-9622.677246,-3524.039291
562.834101,1258.350101,-10658.965565,-4136.915689
562.834424,-962.267725,-11769.274478,-3524.039291
562.834746,-3404.947333,-11177.109724,-2298.286494
562.835068,-5329.482782,-11103.089130,-3447.429741
562.835391,-5329.482782,-11843.295072,-3677.258390
562.835713,-4515.256246,-10658.965565,-3217.601092
562.836036,-3182.885551,-9992.780217,-3370.820191
562.836358,-1110.308913,-7920.203579,-1455.581446
562.836680,518.144159,-4885.359217,-612.876398
562.837003,2368.659014,-5699.585753,-1685.410096
562.837325,3256.906145,-7846.182985,-1532.190996
562.837647,2072.576638,-8512.368333,0.000000
562.837970,1036.288319,-8068.244768,-153.219100
562.838292,1554.432478,-9548.656652,-536.266849
562.838615,3627.009116,-9326.594869,-766.095498
562.838937,3404.947333,-6661.853478,-2298.286494
562.839259,0.000000,-5255.462188,-1991.848295
562.839582,-2220.617826,-9030.512492,-153.219100
562.839904,-4663.297435,-10658.965565,-383.047749
562.840226,-6365.771101,-12139.377449,-3600.648841
562.840549,-6587.832884,-12953.603985,-3524.039291
562.840871,-3849.070898,-11843.295072,-2374.896044
562.841194,74.020594,-8216.285956,-3140.991542
562.841516,3256.906145,-6217.729913,-3217.601092
562.841838,2738.761985,-6439.791695,-842.705048
562.842161,444.123565,-7179.997637,-459.657299
562.842483,-1480.411884,-8364.327145,-2911.162892
562.842805,-2664.741391,-11473.192101,-4903.011187
562.843128,-3330.926739,-13397.727550,-4673.182538
562.843450,-2442.679609,-12879.583391,-2757.943793
562.843772,-2146.597232,-11769.274478,-995.924147
562.844095,-1480.411884,-11399.171507,153.219100
562.844417,-1036.288319,-9770.718434,459.657299
562.844740,-296.082377,-10066.800811,-1532.190996
562.845062,518.144159,-9918.759623,-2068.457845
562.845384,1332.370696,-8660.409521,-2757.943793
562.845707,2368.659014,-7624.121203,-2528.115143
562.846029,4811.338623,-7920.203579,-1149.143247
562.846351,5995.668130,-8586.388927,383.047749
562.846674,4441.235652,-9400.615463,0.000000
562.846996,1480.411884,-11177.109724,-766.095498
562.847319,-592.164754,-12657.521608,-1225.752797
562.847641,-1998.556043,-12287.418637,-2451.505594
562.847963,-2960.823768,-11029.068536,-2834.553343
562.848286,-3923.091493,-9252.574275,-1762.019645
562.848608,-3330.926739,-8142.265362,0.000000
562.848930,-2368.659014,-7105.977043,229.828649
562.849253,-1480.411884,-8068.244768,-1072.533697
562.849575,-2294.638420,-9178.553681,-459.657299
562.849898,-2294.638420,-7624.121203,0.000000
562.850220,-1406.391290,-6735.874072,-689.485948
562.850542,518.144159,-7550.100608,-1149.143247
562.850865,518.144159,-6883.915261,383.047749
562.851187,-148.041188,-6069.688724,1149.143247
562.851509,296.082377,-6661.853478,0.000000
562.851832,1480.411884,-7402.059420,-1838.629195
562.852154,962.267725,-8586.388927,-2987.772442
562.852477,0.000000,-11695.253884,-3217.601092
562.852799,-1258.350101,-13767.830521,-153.219100
562.853121,-1406.391290,-13249.686362,536.266849
562.853444,-666.185348,-11991.336260,0.000000
562.853766,962.267725,-9844.739029,-459.657299
562.854088,1998.556043,-6439.791695,-1838.629195
562.854411,3627.009116,-3923.091493,-2834.553343
562.854733,4145.153275,-6069.688724,-1838.629195
562.855056,2664.741391,-8956.491898,1225.752797
562.855378,-222.061783,-9400.615463,1991.848295
562.855700,-1702.473667,-10066.800811,-766.095498
562.856023,-2146.597232,-11769.274478,-3447.429741
562.856345,-2664.741391,-12435.459826,-3677.258390
562.856667,-3627.009116,-11177.109724,-2221.676944
562.856990,-4515.256246,-9030.512492,-2374.896044
562.857312,-4589.276840,-9400.615463,-1838.629195
562.857635,-3997.112087,-10436.903782,-2451.505594
562.857957,-2960.823768,-10955.047942,-3447.429741
562.858279,-2664.741391,-11103.089130,-4519.963438
562.858602,-1628.453072,-10140.821405,-3600.648841
562.858924,592.164754,-9474.636058,-3217.601092
562.859246,2590.720797,-10955.047942,-2221.676944
562.859569,2220.617826,-10510.924376,-383.047749
562.859891,296.082377,-9474.636058,0.000000
562.860214,-518.144159,-9696.697840,-1685.410096
562.860536,444.123565,-8808.450710,-2604.724693
562.860858,1850.514855,-7254.018232,-2451.505594
562.861181,888.247130,-5403.503377,-2298.286494
562.861503,-592.164754,-6439.791695,0.000000
562.861825,-1702.473667,-8808.450710,1838.629195
562.862148,-1776.494261,-11251.130318,459.657299
562.862470,-1628.453072,-12805.562797,-1991.848295
562.862793,-1406.391290,-10288.862594,-2528.115143
562.863115,740.205942,-7031.956449,-2834.553343
562.863437,4145.153275,-5699.585753,-3217.601092
562.863760,5477.523971,-5921.647536,-1685.410096
562.864082,3256.906145,-7179.997637,459.657299
562.864404,-222.061783,-7994.224174,153.219100
562.864727,-1850.514855,-10732.986159,-2374.896044
562.865049,-2590.720797,-12435.459826,-4596.572988
562.865372,-2960.823768,-12731.542202,-4673.182538
562.865694,-3256.906145,-10807.006753,-1838.629195
562.866016,-2294.638420,-9252.574275,1302.362347
562.866339,-222.061783,-8290.306550,919.314598
562.866661,444.123565,-8438.347739,-2068.457845
562.866983,-1184.329507,-9400.615463,-1532.190996
562.867306,-1702.473667,-8216.285956,-766.095498
562.867628,-222.061783,-6513.812290,-3447.429741
562.867950,2368.659014,-7920.203579,-4673.182538
562.868273,3034.844362,-9178.553681,-995.924147
562.868595,2072.576638,-8438.347739,1838.629195
562.868918,518.144159,-9326.594869,612.876398
562.869240,-888.247130,-12213.398043,-1991.848295
562.869562,-1702.473667,-13175.665768,-4060.306139
562.869885,-2442.679609,-12065.356855,-4673.182538
562.870207,-3256.906145,-10658.965565,-3524.039291
562.870529,-2590.720797,-10658.965565,-1762.019645
562.870852,-814.226536,-10066.800811,-766.095498
562.871174,-444.123565,-10066.800811,-383.047749
562.871497,-1480.411884,-10955.047942,-306.438199
562.871819,-1554.432478,-9696.697840,-919.314598
562.872141,-148.041188,-9252.574275,-2604.724693
562.872464,1998.556043,-8808.450710,-1915.238745
562.872786,2442.679609,-7105.977043,153.219100
562.873108,2146.597232,-5477.523971,1455.581446
562.873431,1998.556043,-6883.915261,995.924147
562.873753,1258.350101,-8660.409521,0.000000
562.874076,-740.205942,-9474.636058,-1225.752797
562.874398,-2738.761985,-10214.842000,-2681.334243
562.874720,-4367.215058,-11695.253884,-1378.971896
562.875043,-4293.194464,-11325.150913,766.095498
562.875365,-2072.576638,-10214.842000,459.657299
562.875687,-444.123565,-8438.347739,-842.705048
562.876010,148.041188,-7476.080014,0.000000
562.876332,740.205942,-5847.626942,306.438199
562.876655,1628.453072,-7254.018232,-1378.971896
562.876977,666.185348,-9400.615463,-1378.971896
562.877299,-814.226536,-8808.450710,612.876398
562.877622,-1184.329507,-7772.162391,766.095498
562.877944,0.000000,-8512.368333,-766.095498
562.878266,74.020594,-8438.347739,-1762.019645
562.878589,-1110.308913,-7550.100608,-1455.581446
562.878911,-3478.967927,-7698.141797,-995.924147
562.879234,-4145.153275,-9770.718434,-842.705048
562.879556,-3330.926739,-12435.459826,-3140.991542
562.879878,-2738.761985,-13027.624579,-2987.772442
562.880201,-2146.597232,-11769.274478,-1532.190996
562.880523,0.000000,-8364.327145,-1302.362347
562.880845,3182.885551,-5995.668130,-3294.210641
562.881168,5625.565159,-7105.977043,-3983.696590
562.881490,4737.318029,-8586.388927,-1685.410096
562.881813,1850.514855,-9326.594869,-689.485948
562.882135,-370.102971,-11991.336260,-1532.190996
562.882457,0.000000,-14878.139434,-2528.115143
562.882780,666.185348,-13619.789333,-3140.991542
562.883102,444.123565,-9252.574275,-2757.943793
562.883424,296.082377,-7846.182985,-1991.848295
562.883747,222.061783,-6513.812290,-919.314598
562.884069,814.226536,-8216.285956,-2451.505594
562.884392,-444.123565,-10732.986159,-2757.943793
562.884714,-1924.535449,-11843.295072,-1762.019645
562.885036,-1406.391290,-11547.212695,-2834.553343
562.885359,370.102971,-9474.636058,-4596.572988
562.885681,1554.432478,-8586.388927,-3064.381992
562.886003,1406.391290,-6957.935855,-766.095498
562.886326,148.041188,-5847.626942,-1225.752797
562.886648,-1554.432478,-8956.491898,-4290.134789
562.886971,-4589.276840,-12731.542202,-3983.696590
562.887293,-7772.162391,-13323.706956,-2911.162892
562.887615,-8586.388927,-11473.192101,-2911.162892
562.887938,-6809.894666,-9400.615463,-3370.820191
562.888260,-3034.844362,-7105.977043,-3140.991542
562.888582,-592.164754,-6143.709319,-1838.629195
562.888905,-148.041188,-7031.956449,-153.219100
562.889227,-592.164754,-8068.244768,536.266849
562.889549,444.123565,-8660.409521,-1302.362347
562.889872,2516.700203,-9104.533087,-3524.039291
562.890194,3775.050304,-9326.594869,-3524.039291
562.890517,3775.050304,-7550.100608,-229.828649
562.890839,4663.297435,-7550.100608,1225.752797
562.891161,5699.585753,-9474.636058,766.095498
562.891484,4663.297435,-10510.924376,0.000000
562.891806,666.185348,-10288.862594,0.000000
562.892128,-2516.700203,-10436.903782,-995.924147
562.892451,-2516.700203,-10807.006753,-2145.067394
562.892773,148.041188,-10214.842000,-2834.553343
562.893096,1998.556043,-8882.471304,-1915.238745
562.893418,2368.659014,-8660.409521,0.000000
562.893740,1258.350101,-7105.977043,1608.800546
562.894063,814.226536,-7328.038826,-306.438199
562.894385,0.000000,-8956.491898,-3983.696590
562.894707,-2146.597232,-8956.491898,-4366.744339
562.895030,-3997.112087,-8216.285956,-3600.648841
562.895352,-4145.153275,-9178.553681,-2834.553343
562.895675,-3330.926739,-11473.192101,-1225.752797
562.895997,-2886.803174,-11547.212695,-689.485948
562.896319,-4441.235652,-10140.821405,-2451.505594
562.896642,-6291.750507,-10436.903782,-4213.525239
562.896964,-6291.750507,-11991.336260,-3830.477490
562.897286,-4811.338623,-11991.336260,-2374.896044
562.897609,-2072.576638,-10510.924376,-2068.457845
562.897931,1036.288319,-9252.574275,-766.095498
562.898254,4293.194464,-5995.668130,-306.438199
562.898576,7031.956449,-3849.070898,-766.095498
562.898898,6883.915261,-5773.606348,-1532.190996
562.899221,4959.379811,-8956.491898,76.609550
562.899544,2146.597232,-9992.780217,-842.705048
562.899866,518.144159,-10732.986159,-2068.457845
562.900188,814.226536,-11547.212695,-1991.848295
562.900511,1924.535449,-9474.636058,-3600.648841
562.900833,888.247130,-7328.038826,-4366.744339
562.901155,-1332.370696,-7402.059420,-3370.820191
562.901478,-2960.823768,-9178.553681,-2451.505594
562.901800,-3997.112087,-10658.965565,-3677.258390
562.902122,-3849.070898,-13323.706956,-5592.497135
562.902444,-3923.091493,-14137.933492,-4596.572988
562.902767,-1332.370696,-10436.903782,-3600.648841
562.903089,2664.741391,-6291.750507,-4596.572988
562.903411,4959.379811,-6513.812290,-5132.839837
562.903734,3330.926739,-6957.935855,-2528.115143
562.904056,-1036.288319,-5847.626942,76.609550
562.904378,-3627.009116,-6735.874072,-3447.429741
562.904701,-3182.885551,-9326.594869,-8197.221829
562.905023,-1924.535449,-9696.697840,-8733.488677
562.905345,-962.267725,-7846.182985,-6205.373534
562.905667,-1850.514855,-7179.997637,-3600.648841
562.905990,-2220.617826,-9474.636058,-1532.190996
562.906312,-3701.029710,-11991.336260,-2221.676944
562.906634,-4515.256246,-13693.809927,-4979.620737
562.906957,-4515.256246,-14730.098246,-7967.393179
562.907279,-1406.391290,-13101.645173,-7277.907231
562.907601,2960.823768,-9104.533087,-4903.011187
562.907923,8142.265362,-5995.668130,-2911.162892
562.908246,10362.883188,-4441.235652,-2145.067394
562.908568,8364.327145,-4589.276840,-1532.190996
562.908890,2812.782580,-6587.832884,-2221.676944
562.909213,-2368.659014,-10214.842000,-4749.792088
562.909535,-4885.359217,-13249.686362,-7890.783629
562.909857,-5033.400406,-13397.727550,-8350.440928
562.910180,-3552.988522,-11621.233289,-5515.887586
562.910502,-1406.391290,-9548.656652,-1378.971896
562.910824,-814.226536,-8290.306550,-459.657299
562.911146,-1258.350101,-8142.265362,-1685.410096
562.911469,-2886.803174,-9474.636058,-3677.258390
562.911791,-3404.947333,-10881.027347,-5515.887586
562.912113,-370.102971,-10288.862594,-6052.154434
562.912436,3997.112087,-8586.388927,-5362.668486
562.912758,6217.729913,-8216.285956,-1608.800546
562.913080,7402.059420,-8734.430116,1991.848295
562.913403,5625.565159,-7402.059420,2604.724693
562.913725,1628.453072,-6661.853478,0.000000
562.914047,-3034.844362,-5921.647536,-3983.696590
562.914369,-5477.523971,-5551.544565,-8197.221829
562.914692,-6291.750507,-6069.688724,-9039.926876
562.915014,-5255.462188,-8216.285956,-5209.449386
562.915336,-4885.359217,-10362.883188,-459.657299
562.915659,-4811.338623,-13101.645173,-306.438199
562.915981,-4737.318029,-13397.727550,-2757.943793
562.916303,-4959.379811,-12953.603985,-4136.915689
562.916626,-5847.626942,-12139.377449,-3600.648841
562.916948,-3108.864956,-9474.636058,-2834.553343
562.917270,2886.803174,-6809.894666,-3753.867940
562.917592,9622.677246,-4515.256246,-3447.429741
562.917915,12509.480420,-4515.256246,-612.876398
