#time,accel_x,accel_y,accel_z
540.787355,-518.144159,-9400.615463,-1455.581446
540.787678,-814.226536,-9400.615463,-1378.971896
540.788000,-666.185348,-9474.636058,-1149.143247
540.788323,0.000000,-9400.615463,-1149.143247
540.788645,0.000000,-9474.636058,-1378.971896
540.788968,-222.061783,-9474.636058,-1455.581446
540.789290,-370.102971,-9400.615463,-1149.143247
540.789612,-370.102971,-9474.636058,-1072.533697
540.789935,-444.123565,-9400.615463,-919.314598
540.790257,-148.041188,-9252.574275,-1762.019645
540.790580,-296.082377,-9474.636058,-1455.581446
540.790902,-148.041188,-9548.656652,-1455.581446
540.791224,-148.041188,-9252.574275,-1072.533697
540.791547,-222.061783,-9326.594869,-1302.362347
540.791869,-222.061783,-9030.512492,-1532.190996
540.792192,-296.082377,-9252.574275,-1302.362347
540.792514,-444.123565,-9400.615463,-1455.581446
540.792837,-592.164754,-9400.615463,-1378.971896
540.793159,-592.164754,-9178.553681,-1225.752797
540.793481,0.000000,-9030.512492,-1685.410096
540.793804,-222.061783,-9104.533087,-2221.676944
540.794126,-222.061783,-9104.533087,-1532.190996
540.794449,-296.082377,-9326.594869,-1302.362347
540.794771,-592.164754,-9252.574275,-1532.190996
540.795093,-370.102971,-9326.594869,-1608.800546
540.795416,-518.144159,-9252.574275,-1685.410096
540.795738,-296.082377,-9178.553681,-1915.238745
540.796061,-592.164754,-9030.512492,-1915.238745
540.796383,-370.102971,-9326.594869,-1838.629195
540.796706,-444.123565,-9030.512492,-1762.019645
540.797028,-222.061783,-9030.512492,-1762.019645
540.797350,-148.041188,-9326.594869,-1762.019645
540.797673,-370.102971,-9474.636058,-1838.629195
540.797995,-370.102971,-9474.636058,-2068.457845
540.798318,-444.123565,-9474.636058,-1762.019645
540.798640,-444.123565,-9326.594869,-1991.848295
540.798963,-296.082377,-9326.594869,-2451.505594
540.799285,-296.082377,-9474.636058,-2068.457845
540.799607,-444.123565,-9548.656652,-1762.019645
540.799930,-296.082377,-9622.677246,-1991.848295
540.800252,-592.164754,-9548.656652,-1991.848295
540.800575,-592.164754,-9400.615463,-1762.019645
540.800897,-592.164754,-9252.574275,-1532.190996
540.801219,-444.123565,-9474.636058,-1838.629195
540.801542,-370.102971,-9548.656652,-1838.629195
540.801864,-222.061783,-9474.636058,-1608.800546
540.802187,0.000000,-9178.553681,-1991.848295
540.802509,-518.144159,-9326.594869,-1532.190996
540.802832,-666.185348,-9696.697840,-1915.238745
540.803154,-666.185348,-9548.656652,-1915.238745
540.803476,-518.144159,-9622.677246,-1532.190996
540.803799,0.000000,-9474.636058,-1685.410096
540.804121,888.247130,-9104.533087,-2068.457845
540.804444,2220.617826,-9548.656652,-1915.238745
540.804766,2590.720797,-9474.636058,-919.314598
540.805088,1850.514855,-8734.430116,0.000000
540.805411,740.205942,-8438.347739,-766.095498
540.805733,0.000000,-9030.512492,-2451.505594
540.806056,-1036.288319,-9770.718434,-2451.505594
540.806378,-2886.803174,-9474.636058,-1762.019645
540.806701,-3701.029710,-9474.636058,-1915.238745
540.807023,-2738.761985,-9030.512492,-2374.896044
540.807345,-296.082377,-9696.697840,-2298.286494
540.807668,2220.617826,-10658.965565,-1072.533697
540.807990,2812.782580,-10214.842000,76.609550
540.808313,2146.597232,-8808.450710,689.485948
540.808635,1406.391290,-8660.409521,-306.438199
540.808957,1998.556043,-9252.574275,-1838.629195
540.809280,2146.597232,-9474.636058,-1762.019645
540.809602,1332.370696,-9104.533087,-919.314598
540.809925,148.041188,-7402.059420,306.438199
540.810247,814.226536,-7105.977043,0.000000
540.810570,2220.617826,-8660.409521,-2145.067394
540.810892,2294.638420,-10066.800811,-1532.190996
540.811214,-444.123565,-9474.636058,459.657299
540.811537,-1554.432478,-9178.553681,-689.485948
540.811859,-666.185348,-9400.615463,-3217.601092
540.812182,222.061783,-9252.574275,-3677.258390
540.812504,518.144159,-9992.780217,-1378.971896
540.812826,962.267725,-11029.068536,-1532.190996
540.813149,1850.514855,-9548.656652,-1838.629195
540.813471,3404.947333,-9696.697840,-2221.676944
540.813794,4367.215058,-11325.150913,-766.095498
540.814116,4219.173869,-11843.295072,-383.047749
540.814439,2590.720797,-9548.656652,-1378.971896
540.814761,1998.556043,-7920.203579,-919.314598
540.815083,2590.720797,-8068.244768,-1072.533697
540.815406,2664.741391,-8438.347739,-1455.581446
540.815728,2146.597232,-7698.141797,-1608.800546
540.816051,1258.350101,-7402.059420,-1072.533697
540.816373,1998.556043,-9696.697840,-1072.533697
540.816695,2738.761985,-11177.109724,-1225.752797
540.817018,2738.761985,-9844.739029,-1685.410096
540.817340,2072.576638,-9252.574275,-2451.505594
540.817663,2738.761985,-9548.656652,-1532.190996
540.817985,3627.009116,-9548.656652,-1685.410096
540.818308,3182.885551,-9178.553681,-2681.334243
540.818630,2368.659014,-9474.636058,-2298.286494
540.818952,2368.659014,-10510.924376,-1302.362347
540.819275,2960.823768,-10510.924376,-1072.533697
540.819597,2886.803174,-10436.903782,-2145.067394
540.819920,2146.597232,-9474.636058,-1532.190996
540.820242,1850.514855,-8586.388927,-842.705048
540.820565,1702.473667,-7254.018232,-766.095498
540.820887,740.205942,-7179.997637,-1608.800546
540.821209,-148.041188,-8068.244768,-1685.410096
540.821532,-1036.288319,-9400.615463,-1225.752797
540.821854,-962.267725,-10362.883188,-1225.752797
540.822177,-296.082377,-11695.253884,-1608.800546
540.822499,74.020594,-12139.377449,-1378.971896
540.822821,962.267725,-11251.130318,-383.047749
540.823144,1702.473667,-10066.800811,0.000000
540.823466,2442.679609,-9474.636058,-995.924147
540.823789,2072.576638,-8364.327145,-1532.190996
540.824111,1554.432478,-8068.244768,-1378.971896
540.824434,888.247130,-8142.265362,-995.924147
540.824756,1036.288319,-8808.450710,-1608.800546
540.825078,1258.350101,-8808.450710,-1608.800546
540.825401,1628.453072,-9178.553681,-1302.362347
540.825723,1850.514855,-8364.327145,-1072.533697
540.826046,1850.514855,-7402.059420,-1455.581446
540.826368,1776.494261,-7624.121203,-2221.676944
540.826690,1850.514855,-8216.285956,-2451.505594
540.827013,1258.350101,-9326.594869,-1991.848295
540.827335,814.226536,-9918.759623,-2068.457845
540.827658,740.205942,-11029.068536,-2145.067394
540.827980,666.185348,-11843.295072,-1685.410096
540.828303,666.185348,-11621.233289,-919.314598
540.828625,592.164754,-10955.047942,-536.266849
540.828947,740.205942,-10436.903782,-612.876398
540.829270,1184.329507,-10066.800811,-995.924147
540.829592,1554.432478,-9326.594869,-689.485948
540.829915,2294.638420,-8438.347739,0.000000
540.830237,3034.844362,-8216.285956,-919.314598
540.830559,4515.256246,-8068.244768,-995.924147
540.830882,5551.544565,-8068.244768,-1455.581446
540.831204,5847.626942,-8142.265362,-1378.971896
540.831527,5477.523971,-8808.450710,-995.924147
540.831849,4737.318029,-9104.533087,-1225.752797
540.832172,3997.112087,-10658.965565,-2604.724693
540.832494,2738.761985,-11621.233289,-2987.772442
540.832816,1332.370696,-11917.315666,-2221.676944
540.833139,296.082377,-11547.212695,-1149.143247
540.833461,0.000000,-10436.903782,-1302.362347
540.833784,0.000000,-9474.636058,-383.047749
540.834106,-370.102971,-8586.388927,0.000000
540.834428,-666.185348,-7105.977043,76.609550
540.834751,-370.102971,-6439.791695,-153.219100
540.835073,296.082377,-5773.606348,-766.095498
540.835396,1332.370696,-5773.606348,-842.705048
540.835718,1702.473667,-6587.832884,-1302.362347
540.836041,1184.329507,-7105.977043,-842.705048
540.836363,1184.329507,-8808.450710,-1915.238745
540.836685,1480.411884,-10584.944971,-2451.505594
540.837008,1258.350101,-11029.068536,-2757.943793
540.837330,444.123565,-11325.150913,-3447.429741
540.837653,-740.205942,-11621.233289,-3600.648841
540.837975,-814.226536,-12139.377449,-3294.210641
540.838297,-1480.411884,-11917.315666,-3140.991542
540.838620,-2294.638420,-11621.233289,-2681.334243
540.838942,-2442.679609,-11251.130318,-1608.800546
540.839265,-2368.659014,-11103.089130,-1608.800546
540.839587,-1628.453072,-10732.986159,-1225.752797
540.839910,-666.185348,-10288.862594,-383.047749
540.840232,148.041188,-8956.491898,0.000000
540.840554,1924.535449,-7476.080014,0.000000
540.840877,4145.153275,-6291.750507,-459.657299
540.841199,5847.626942,-5921.647536,-842.705048
540.841522,6661.853478,-5699.585753,-612.876398
540.841844,7105.977043,-5773.606348,-842.705048
540.842167,7476.080014,-6439.791695,-2374.896044
540.842489,7402.059420,-9474.636058,-4060.306139
540.842811,6365.771101,-12805.562797,-2987.772442
540.843134,3849.070898,-13249.686362,-1532.190996
540.843456,0.000000,-12435.459826,-689.485948
540.843779,-2886.803174,-11769.274478,-1149.143247
540.844101,-4441.235652,-11621.233289,-3217.601092
540.844423,-5551.544565,-10362.883188,-3907.087040
540.844746,-6735.874072,-8290.306550,-1991.848295
540.845068,-6439.791695,-6957.935855,-1838.629195
540.845391,-4441.235652,-7772.162391,-1225.752797
540.845713,-666.185348,-8438.347739,-229.828649
540.846036,2664.741391,-8068.244768,-1225.752797
540.846358,5255.462188,-10214.842000,-2911.162892
540.846680,8734.430116,-11177.109724,-1225.752797
540.847003,11473.192101,-10214.842000,76.609550
540.847325,13471.748144,-8586.388927,-536.266849
540.847648,14211.954086,-7179.997637,0.000000
540.847970,13175.665768,-7179.997637,-306.438199
540.848292,10658.965565,-8808.450710,-766.095498
540.848615,6661.853478,-10288.862594,-995.924147
540.848937,1480.411884,-11843.295072,-459.657299
540.849260,-2368.659014,-12731.542202,306.438199
540.849582,-4959.379811,-11843.295072,0.000000
540.849905,-7105.977043,-12287.418637,-153.219100
540.850227,-9696.697840,-9474.636058,1149.143247
540.850549,-10214.842000,-5477.523971,2068.457845
540.850872,-8660.409521,-3256.906145,-459.657299
540.851194,-5403.503377,-5329.482782,-2834.553343
540.851517,-444.123565,-7328.038826,-3370.820191
540.851839,3849.070898,-8734.430116,-4136.915689
540.852161,6957.935855,-10362.883188,-3217.601092
540.852484,10288.862594,-11621.233289,-1838.629195
540.852806,11695.253884,-12065.356855,-2681.334243
540.853129,10881.027347,-10807.006753,-3524.039291
540.853451,7476.080014,-9326.594869,-3370.820191
540.853774,3330.926739,-9326.594869,-5209.449386
540.854097,888.247130,-10436.903782,-6281.983084
540.854419,-370.102971,-11695.253884,-3600.648841
540.854742,-3923.091493,-12139.377449,76.609550
540.855064,-6069.688724,-13101.645173,2987.772442
540.855386,-6957.935855,-10436.903782,4903.011187
540.855709,-5773.606348,-7179.997637,1915.238745
540.856031,-4441.235652,-5995.668130,-919.314598
540.856354,-518.144159,-7698.141797,-459.657299
540.856676,4515.256246,-6069.688724,-153.219100
540.856998,9252.574275,-4885.359217,-2604.724693
540.857321,12657.521608,-7994.224174,-2834.553343
540.857643,13323.706956,-11843.295072,76.609550
540.857966,11177.109724,-12731.542202,612.876398
540.858288,4737.318029,-11473.192101,-1608.800546
540.858611,-1480.411884,-11621.233289,-5592.497135
540.858933,-5255.462188,-14730.098246,-8197.221829
540.859255,-6809.894666,-14211.954086,-5362.668486
540.859578,-8068.244768,-7550.100608,-1302.362347
540.859900,-9030.512492,-6143.709319,-1838.629195
540.860223,-5773.606348,-5847.626942,-995.924147
540.860545,-1036.288319,-8438.347739,0.000000
540.860867,-370.102971,-9252.574275,1149.143247
540.861190,-592.164754,-8068.244768,2911.162892
540.861512,-148.041188,-6661.853478,1762.019645
540.861835,2664.741391,-4737.318029,-919.314598
540.862157,4663.297435,-5329.482782,-1608.800546
540.862480,4515.256246,-6513.812290,-2221.676944
540.862802,4145.153275,-8956.491898,-2681.334243
540.863124,5625.565159,-11177.109724,-1685.410096
540.863447,6513.812290,-11843.295072,-3140.991542
540.863769,7179.997637,-13323.706956,-5669.106685
540.864092,5995.668130,-13841.851115,-4443.353888
540.864414,3701.029710,-13471.748144,-842.705048
540.864736,888.247130,-11251.130318,153.219100
540.865059,-1184.329507,-10214.842000,-2757.943793
540.865381,-2442.679609,-10510.924376,-3907.087040
540.865704,-2664.741391,-11547.212695,-1608.800546
540.866026,-1776.494261,-11103.089130,1991.848295
540.866349,1184.329507,-8882.471304,3140.991542
540.866671,5773.606348,-7105.977043,1072.533697
540.866993,9696.697840,-6069.688724,1991.848295
540.867316,10288.862594,-4811.338623,3447.429741
540.867638,8438.347739,-3256.906145,2834.553343
540.867961,6439.791695,-3108.864956,-766.095498
540.868283,4885.359217,-4959.379811,-3830.477490
540.868605,3330.926739,-7772.162391,-4443.353888
540.868928,814.226536,-10436.903782,-5362.668486
540.869250,-2664.741391,-13323.706956,-5592.497135
540.869573,-4737.318029,-15248.242405,-2834.553343
540.869895,-3552.988522,-14656.077652,-1302.362347
540.870218,-3478.967927,-13693.809927,-5056.230287
540.870540,-4811.338623,-12435.459826,-6511.811733
540.870862,-4737.318029,-11029.068536,-3753.867940
540.871185,-1332.370696,-10881.027347,-1532.190996
540.871507,3404.947333,-11399.171507,-766.095498
540.871830,6439.791695,-10955.047942,459.657299
540.872152,5847.626942,-9770.718434,2451.505594
540.872474,6291.750507,-8438.347739,5132.839837
540.872797,7550.100608,-7402.059420,5286.058936
540.873119,8956.491898,-4737.318029,2911.162892
540.873442,9622.677246,-2442.679609,-1225.752797
540.873764,9844.739029,-2072.576638,-2528.115143
540.874086,8734.430116,-5477.523971,306.438199
540.874409,6513.812290,-7476.080014,2757.943793
540.874731,2442.679609,-9400.615463,306.438199
540.875054,-1628.453072,-12509.480420,-3983.696590
540.875376,-5921.647536,-13323.706956,-4749.792088
540.875699,-9918.759623,-11103.089130,-4826.401637
540.876021,-11177.109724,-10955.047942,-6971.469032
540.876343,-8586.388927,-12657.521608,-8044.002729
540.876666,-5847.626942,-12435.459826,-5745.716235
540.876988,-4811.338623,-10140.821405,-1608.800546
540.877311,-4293.194464,-8808.450710,1455.581446
540.877633,-2738.761985,-10436.903782,-1149.143247
540.877955,-1924.535449,-12139.377449,-4213.525239
540.878278,-1628.453072,-9918.759623,-2145.067394
540.878600,74.020594,-6883.915261,153.219100
540.878923,3775.050304,-5847.626942,0.000000
540.879245,7698.141797,-6143.709319,-383.047749
540.879568,10140.821405,-4219.173869,1149.143247
540.879890,11103.089130,-3923.091493,1608.800546
540.880212,10881.027347,-8364.327145,459.657299
540.880535,9104.533087,-11843.295072,-306.438199
540.880857,4441.235652,-12065.356855,-2298.286494
540.881180,74.020594,-11177.109724,-2145.067394
540.881502,-1702.473667,-11769.274478,-2528.115143
540.881824,-740.205942,-12583.501014,-4673.182538
540.882147,-1110.308913,-11769.274478,-5362.668486
540.882469,-1110.308913,-10732.986159,-3217.601092
540.882792,-2886.803174,-11325.150913,-919.314598
540.883114,-2960.823768,-13397.727550,-383.047749
540.883437,-3701.029710,-12953.603985,-689.485948
540.883759,-5403.503377,-9252.574275,-1532.190996
540.884081,-4589.276840,-7031.956449,-2374.896044
540.884404,-148.041188,-6587.832884,-2987.772442
540.884726,3701.029710,-5477.523971,-3447.429741
540.885049,6069.688724,-4663.297435,-919.314598
540.885371,7476.080014,-4959.379811,2528.115143
540.885693,8882.471304,-7105.977043,2145.067394
540.886016,6957.935855,-8512.368333,-1225.752797
540.886338,3627.009116,-9992.780217,-2374.896044
540.886661,1332.370696,-10807.006753,-2604.724693
540.886983,814.226536,-11177.109724,-2834.553343
540.887306,1184.329507,-9770.718434,-2451.505594
540.887628,888.247130,-9178.553681,-2221.676944
540.887950,888.247130,-10436.903782,-1149.143247
540.888273,962.267725,-12509.480420,383.047749
540.888595,148.041188,-13989.892304,1455.581446
540.888918,-1554.432478,-13693.809927,1225.752797
540.889240,-518.144159,-12657.521608,383.047749
540.889562,3256.906145,-9844.739029,-383.047749
540.889885,6143.709319,-5773.606348,-1685.410096
540.890207,7179.997637,-3849.070898,0.000000
540.890530,7328.038826,-2886.803174,2374.896044
540.890852,5773.606348,-2960.823768,1072.533697
540.891174,2590.720797,-7105.977043,-919.314598
540.891497,-1110.308913,-10510.924376,-1991.848295
540.891819,-4441.235652,-12657.521608,-4443.353888
540.892142,-5625.565159,-13027.624579,-6128.763984
540.892464,-6587.832884,-10584.944971,-4366.744339
540.892787,-7698.141797,-8216.285956,-3294.210641
540.893109,-8956.491898,-9030.512492,-3524.039291
540.893431,-8142.265362,-12065.356855,-1608.800546
540.893754,-8142.265362,-13323.706956,-1455.581446
540.894076,-6217.729913,-13471.748144,-3064.381992
540.894399,-2886.803174,-12953.603985,-3370.820191
540.894721,1184.329507,-11473.192101,-1685.410096
540.895043,4737.318029,-8882.471304,2451.505594
540.895366,6587.832884,-4515.256246,4443.353888
540.895688,7105.977043,-1480.411884,1685.410096
540.896011,5107.421000,-1924.535449,-1378.971896
540.896333,2220.617826,-4071.132681,-3140.991542
540.896656,-1332.370696,-7920.203579,-4060.306139
540.896978,-3404.947333,-11251.130318,-4596.572988
540.897300,-3552.988522,-12435.459826,-4826.401637
540.897623,-2516.700203,-12139.377449,-4903.011187
540.897945,-2664.741391,-13471.748144,-4213.525239
540.898268,-3256.906145,-14804.118840,-2911.162892
540.898590,-5625.565159,-14211.954086,-1532.190996
540.898912,-5033.400406,-13027.624579,-1455.581446
540.899235,-2738.761985,-12287.418637,-3217.601092
540.899557,518.144159,-10955.047942,-3294.210641
540.899880,3404.947333,-9622.677246,153.219100
540.900202,5181.441594,-6661.853478,3447.429741
540.900525,7550.100608,-5329.482782,3524.039291
540.900847,8438.347739,-4293.194464,1532.190996
540.901169,5847.626942,-2812.782580,919.314598
540.901492,888.247130,-1850.514855,689.485948
540.901814,-2220.617826,-4663.297435,-1915.238745
540.902137,-4515.256246,-7031.956449,-5209.449386
540.902459,-6217.729913,-8290.306550,-6665.030833
540.902781,-6291.750507,-11103.089130,-5975.544884
540.903104,-7254.018232,-14285.974681,-5362.668486
540.903426,-7254.018232,-15692.365970,-3600.648841
540.903749,-4885.359217,-16654.633695,-3370.820191
540.904071,-1184.329507,-16654.633695,-3524.039291
540.904394,1258.350101,-14730.098246,-2298.286494
540.904716,2886.803174,-11399.171507,919.314598
540.905038,4367.215058,-7179.997637,3217.601092
540.905361,6883.915261,-4515.256246,1991.848295
540.905683,8660.409521,-3849.070898,306.438199
540.906006,8068.244768,-3849.070898,306.438199
540.906328,6217.729913,-4071.132681,2451.505594
540.906650,3849.070898,-4589.276840,2068.457845
540.906973,1258.350101,-6365.771101,-612.876398
540.907295,-1998.556043,-8734.430116,-2834.553343
540.907618,-4959.379811,-10510.924376,-2911.162892
540.907940,-7402.059420,-11547.212695,-3753.867940
540.908263,-8068.244768,-11695.253884,-4673.182538
540.908585,-6513.812290,-13323.706956,-5132.839837
540.908907,-2812.782580,-15396.283594,-4290.134789
540.909230,222.061783,-14878.139434,-2068.457845
540.909552,1850.514855,-13989.892304,0.000000
540.909875,2146.597232,-12583.501014,1149.143247
540.910197,3330.926739,-9844.739029,383.047749
540.910519,2812.782580,-7402.059420,-766.095498
540.910842,518.144159,-5181.441594,-536.266849
540.911164,-1702.473667,-3404.947333,612.876398
540.911487,-1998.556043,-2442.679609,-459.657299
540.911809,-2072.576638,-2886.803174,-1762.019645
540.912131,-2812.782580,-5107.421000,-1149.143247
540.912454,-5033.400406,-8290.306550,-1149.143247
540.912776,-5551.544565,-12435.459826,-3294.210641
540.913099,-6069.688724,-14359.995275,-3140.991542
540.913421,-5773.606348,-13841.851115,-2757.943793
540.913744,-3923.091493,-13619.789333,-3140.991542
540.914066,-370.102971,-13175.665768,-2451.505594
540.914388,3256.906145,-11399.171507,-766.095498
540.914711,6365.771101,-9622.677246,-689.485948
540.915033,8216.285956,-9918.759623,-995.924147
540.915356,8586.388927,-11843.295072,995.924147
540.915678,6513.812290,-9992.780217,3217.601092
540.916000,2516.700203,-5847.626942,2604.724693
540.916323,-814.226536,-3849.070898,0.000000
540.916645,-3627.009116,-3330.926739,-1762.019645
540.916968,-7476.080014,-2590.720797,-1991.848295
540.917290,-10066.800811,-3182.885551,-3677.258390
540.917613,-9992.780217,-7846.182985,-4596.572988
540.917935,-8586.388927,-11695.253884,-4136.915689
540.918257,-5255.462188,-14211.954086,-2911.162892
540.918580,-2146.597232,-14656.077652,-2528.115143
540.918902,962.267725,-14582.057057,-3217.601092
540.919225,2664.741391,-13397.727550,-1915.238745
540.919547,4737.318029,-11251.130318,-1608.800546
540.919869,5033.400406,-8808.450710,-3140.991542
540.920192,4145.153275,-8142.265362,-4366.744339
540.920514,2738.761985,-8808.450710,-2298.286494
540.920837,2738.761985,-9548.656652,536.266849
540.921159,1998.556043,-8142.265362,689.485948
540.921482,-1036.288319,-6513.812290,-459.657299
540.921804,-4145.153275,-4737.318029,-306.438199
540.922126,-4959.379811,-5477.523971,-842.705048
540.922449,-6069.688724,-6883.915261,-3064.381992
540.922771,-5773.606348,-8216.285956,-3830.477490
540.923094,-3108.864956,-8956.491898,-4136.915689
540.923416,2590.720797,-11769.274478,-3983.696590
540.923738,6883.915261,-14434.015869,-1991.848295
540.924061,8512.368333,-15026.180623,76.609550
540.924383,7994.224174,-15396.283594,612.876398
540.924706,7624.121203,-14211.954086,-306.438199
540.925028,5181.441594,-11177.109724,-2298.286494
540.925351,1184.329507,-7402.059420,-3370.820191
540.925673,-1480.411884,-5995.668130,-4366.744339
540.925995,-3034.844362,-5329.482782,-2298.286494
540.926318,-4959.379811,-4737.318029,-1455.581446
540.926640,-6439.791695,-5403.503377,-1455.581446
540.926963,-7994.224174,-7476.080014,-1915.238745
540.927285,-8734.430116,-9844.739029,-1302.362347
540.927607,-8882.471304,-9622.677246,-1991.848295
540.927930,-5403.503377,-11547.212695,-3677.258390
540.928252,-962.267725,-11769.274478,-3677.258390
540.928575,3108.864956,-10288.862594,-1838.629195
540.928897,5551.544565,-8882.471304,995.924147
540.929219,6957.935855,-9252.574275,1991.848295
540.929542,7328.038826,-11251.130318,-612.876398
540.929864,5477.523971,-12361.439231,-1225.752797
540.930187,2368.659014,-10436.903782,995.924147
540.930509,666.185348,-8438.347739,612.876398
540.930832,148.041188,-6883.915261,-766.095498
540.931154,-888.247130,-4589.276840,306.438199
540.931476,-2886.803174,-3404.947333,1378.971896
540.931799,-6587.832884,-4885.359217,-459.657299
540.932121,-9326.594869,-7772.162391,-1762.019645
540.932444,-10436.903782,-10584.944971,-1685.410096
540.932766,-7328.038826,-13175.665768,-2987.772442
540.933088,-3256.906145,-13619.789333,-4826.401637
540.933411,518.144159,-13545.768739,-3217.601092
540.933733,3627.009116,-12509.480420,306.438199
540.934056,5847.626942,-10658.965565,842.705048
540.934378,5625.565159,-8438.347739,-459.657299
540.934701,4737.318029,-8290.306550,-2681.334243
540.935023,2738.761985,-7846.182985,-4366.744339
540.935345,1702.473667,-9844.739029,-3983.696590
540.935668,592.164754,-10362.883188,-689.485948
540.935990,-1776.494261,-7179.997637,995.924147
540.936313,-3997.112087,-5847.626942,612.876398
540.936635,-4959.379811,-8290.306550,-306.438199
540.936957,-6735.874072,-9252.574275,-1378.971896
540.937280,-8216.285956,-8216.285956,-2757.943793
540.937602,-5551.544565,-8808.450710,-3064.381992
540.937925,0.000000,-10066.800811,-2987.772442
540.938247,5181.441594,-11251.130318,-1838.629195
540.938570,7476.080014,-10658.965565,1072.533697
540.938892,7328.038826,-10658.965565,2145.067394
540.939214,6069.688724,-11029.068536,0.000000
540.939537,3627.009116,-10584.944971,-3217.601092
540.939859,296.082377,-10214.842000,-5132.839837
540.940182,-2960.823768,-9178.553681,-4366.744339
540.940504,-4663.297435,-7328.038826,-3217.601092
540.940826,-6069.688724,-5773.606348,-2834.553343
540.941149,-7550.100608,-6069.688724,-2374.896044
540.941471,-7328.038826,-9474.636058,-3370.820191
540.941794,-8660.409521,-11103.089130,-3447.429741
540.942116,-8586.388927,-11547.212695,-2987.772442
540.942439,-4737.318029,-10955.047942,-3677.258390
540.942761,1924.535449,-11695.253884,-3983.696590
540.943083,7254.018232,-10807.006753,-2451.505594
540.943406,10584.944971,-9474.636058,1838.629195
540.943728,11843.295072,-7994.224174,3753.867940
540.944051,10807.006753,-6439.791695,1608.800546
540.944373,7772.162391,-7105.977043,-919.314598
540.944695,3404.947333,-7772.162391,-1072.533697
540.945018,74.020594,-8808.450710,-2221.676944
540.945340,-1998.556043,-9326.594869,-1762.019645
540.945663,-4293.194464,-7698.141797,-1378.971896
540.945985,-7772.162391,-5699.585753,-1225.752797
540.946307,-8734.430116,-7624.121203,-2451.505594
540.946630,-8882.471304,-10066.800811,-3907.087040
540.946952,-9696.697840,-11769.274478,-4826.401637
540.947275,-7476.080014,-11917.315666,-4673.182538
540.947597,-2294.638420,-13323.706956,-4903.011187
540.947920,2664.741391,-13693.809927,-3294.210641
540.948242,5847.626942,-12583.501014,-689.485948
540.948564,7328.038826,-11843.295072,1072.533697
540.948887,7846.182985,-9696.697840,306.438199
540.949209,6143.709319,-7476.080014,-1302.362347
540.949532,3182.885551,-5329.482782,-1685.410096
540.949854,370.102971,-6291.750507,-1302.362347
540.950176,-1554.432478,-7105.977043,229.828649
540.950499,-3997.112087,-6809.894666,459.657299
540.950821,-5921.647536,-6439.791695,153.219100
540.951144,-7031.956449,-8142.265362,-1225.752797
540.951466,-7624.121203,-9400.615463,-1838.629195
540.951789,-6809.894666,-10436.903782,-1378.971896
540.952111,-4885.359217,-10584.944971,-2221.676944
540.952433,-962.267725,-11325.150913,-3217.601092
540.952756,2812.782580,-11843.295072,-2068.457845
540.953078,6291.750507,-11843.295072,229.828649
540.953401,8290.306550,-12805.562797,-459.657299
540.953723,7179.997637,-11325.150913,-1455.581446
540.954045,5625.565159,-9622.677246,-306.438199
540.954368,2886.803174,-7698.141797,-689.485948
540.954690,740.205942,-7402.059420,-2451.505594
540.955012,-1998.556043,-6291.750507,-2987.772442
540.955335,-5773.606348,-4441.235652,-1838.629195
540.955657,-8364.327145,-5625.565159,-536.266849
540.955979,-8956.491898,-10140.821405,-1302.362347
540.956302,-10584.944971,-10807.006753,-1225.752797
540.956624,-10732.986159,-10214.842000,-2145.067394
540.956946,-6365.771101,-10214.842000,-2451.505594
540.957269,1036.288319,-12139.377449,-3830.477490
540.957591,7772.162391,-11769.274478,-3064.381992
540.957913,11769.274478,-10955.047942,229.828649
540.958236,13545.768739,-10362.883188,2911.162892
540.958558,12287.418637,-10066.800811,2528.115143
540.958880,9030.512492,-9178.553681,612.876398
540.959203,3775.050304,-8068.244768,-1608.800546
540.959525,148.041188,-7402.059420,-4060.306139
540.959847,-2516.700203,-7254.018232,-3677.258390
540.960170,-5921.647536,-6735.874072,-1838.629195
540.960492,-9178.553681,-7179.997637,-689.485948
540.960814,-12065.356855,-8882.471304,-612.876398
540.961137,-12879.583391,-8956.491898,-1378.971896
540.961459,-10584.944971,-9770.718434,-5362.668486
540.961781,-5995.668130,-11325.150913,-7354.516781
540.962104,518.144159,-13101.645173,-5515.887586
540.962426,5107.421000,-13249.686362,0.000000
540.962748,8734.430116,-11769.274478,2834.553343
540.963071,11103.089130,-9992.780217,1532.190996
540.963393,10955.047942,-9474.636058,-1608.800546
540.963715,7476.080014,-8290.306550,-2757.943793
540.964038,3478.967927,-8808.450710,-1838.629195
540.964360,444.123565,-9252.574275,-2221.676944
540.964682,-2220.617826,-8364.327145,-1378.971896
540.965005,-5477.523971,-6809.894666,0.000000
540.965327,-7328.038826,-6291.750507,-229.828649
540.965649,-10066.800811,-7105.977043,-2451.505594
540.965972,-11251.130318,-7920.203579,-2145.067394
540.966294,-9844.739029,-8364.327145,-2757.943793
540.966616,-4663.297435,-10362.883188,-4136.915689
540.966939,1702.473667,-13249.686362,-4443.353888
540.967261,7846.182985,-13841.851115,0.000000
540.967583,11251.130318,-12805.562797,2145.067394
540.967906,11769.274478,-10881.027347,1838.629195
540.968228,8586.388927,-9252.574275,1378.971896
540.968550,3849.070898,-7031.956449,-1072.533697
540.968873,222.061783,-6883.915261,-3677.258390
540.969195,-1924.535449,-7179.997637,-4519.963438
540.969517,-4219.173869,-7920.203579,-3447.429741
540.969840,-6661.853478,-5995.668130,-612.876398
540.970162,-8586.388927,-7328.038826,76.609550
540.970484,-10658.965565,-9400.615463,306.438199
540.970807,-11251.130318,-10584.944971,-306.438199
540.971129,-10881.027347,-9622.677246,-3600.648841
540.971451,-6439.791695,-9844.739029,-6588.421283
540.971774,74.020594,-11547.212695,-5822.325785
540.972096,5033.400406,-11991.336260,-1915.238745
540.972418,8882.471304,-11621.233289,1608.800546
540.972741,11695.253884,-11695.253884,2068.457845
540.973063,11325.150913,-9918.759623,-153.219100
540.973385,7476.080014,-8660.409521,-995.924147
540.973708,3775.050304,-8660.409521,-1378.971896
540.974030,1184.329507,-9326.594869,-2834.553343
540.974352,-1628.453072,-7624.121203,-2221.676944
540.974675,-4959.379811,-5255.462188,0.000000
540.974997,-8882.471304,-4589.276840,-689.485948
540.975319,-10066.800811,-7772.162391,-1455.581446
540.975642,-10140.821405,-9252.574275,-1608.800546
540.975964,-8290.306550,-10436.903782,-3983.696590
540.976286,-3849.070898,-12139.377449,-5056.230287
540.976609,1480.411884,-13027.624579,-2221.676944
540.976931,6735.874072,-12509.480420,0.000000
540.977253,10955.047942,-11843.295072,459.657299
540.977576,12065.356855,-10807.006753,1915.238745
540.977898,10140.821405,-7550.100608,919.314598
540.978220,5773.606348,-5699.585753,-2451.505594
540.978543,3034.844362,-8068.244768,-4213.525239
540.978865,370.102971,-9474.636058,-2834.553343
540.979187,-3404.947333,-7698.141797,-2221.676944
540.979510,-6069.688724,-6735.874072,-1762.019645
540.979832,-8364.327145,-9400.615463,-766.095498
540.980154,-9400.615463,-9474.636058,-383.047749
540.980477,-11621.233289,-9030.512492,-383.047749
540.980799,-10955.047942,-8734.430116,-3447.429741
540.981121,-6217.729913,-9474.636058,-4903.011187
540.981444,518.144159,-11325.150913,-4290.134789
540.981766,5403.503377,-10140.821405,-1532.190996
540.982088,8882.471304,-11473.192101,689.485948
540.982411,10658.965565,-11843.295072,2528.115143
540.982733,9622.677246,-10066.800811,1991.848295
540.983055,6661.853478,-7254.018232,-1838.629195
540.983378,3552.988522,-7698.141797,-3370.820191
540.983700,888.247130,-8142.265362,-3983.696590
540.984022,-1702.473667,-7402.059420,-2757.943793
540.984345,-4811.338623,-7105.977043,-612.876398
540.984667,-7846.182985,-9104.533087,0.000000
540.984989,-10288.862594,-9992.780217,-1455.581446
540.985312,-11621.233289,-11103.089130,-1378.971896
540.985634,-11621.233289,-10732.986159,-2987.772442
540.985956,-7402.059420,-10510.924376,-4290.134789
540.986279,-962.267725,-11843.295072,-3447.429741
540.986601,4737.318029,-10066.800811,-306.438199
540.986923,8734.430116,-9252.574275,689.485948
540.987246,11251.130318,-11103.089130,1378.971896
540.987568,11325.150913,-10436.903782,1302.362347
540.987890,7846.182985,-7698.141797,76.609550
540.988213,3330.926739,-5329.482782,-1915.238745
540.988535,-666.185348,-6587.832884,-2987.772442
540.988857,-2960.823768,-8808.450710,-4366.744339
540.989180,-5699.585753,-8364.327145,-3830.477490
540.989502,-9104.533087,-7846.182985,-1685.410096
540.989824,-10214.842000,-9548.656652,-1455.581446
540.990147,-10362.883188,-9918.759623,-306.438199
540.990469,-9030.512492,-10807.006753,-2221.676944
540.990791,-6365.771101,-11251.130318,-4673.182538
540.991114,-740.205942,-11843.295072,-4136.915689
540.991436,5699.585753,-10807.006753,-306.438199
540.991758,10881.027347,-7994.224174,1915.238745
540.992081,12213.398043,-7550.100608,1991.848295
540.992403,10436.903782,-7328.038826,3370.820191
540.992725,7179.997637,-7550.100608,1762.019645
540.993048,4145.153275,-8142.265362,-2451.505594
540.993370,814.226536,-7179.997637,-4903.011187
540.993692,-3775.050304,-7031.956449,-4749.792088
540.994015,-7254.018232,-7846.182985,-1378.971896
540.994337,-9104.533087,-10214.842000,-306.438199
540.994659,-9770.718434,-10658.965565,-2068.457845
540.994982,-10288.862594,-11399.171507,-3600.648841
540.995304,-6957.935855,-11917.315666,-5898.935335
540.995626,-1776.494261,-12583.501014,-3983.696590
540.995949,2368.659014,-13471.748144,-1762.019645
540.996271,6957.935855,-11399.171507,689.485948
540.996593,11177.109724,-10584.944971,842.705048
540.996916,13915.871710,-10288.862594,1302.362347
540.997238,13101.645173,-7920.203579,1225.752797
540.997560,7698.141797,-4885.359217,1378.971896
540.997883,3034.844362,-5181.441594,1225.752797
540.998205,0.000000,-7254.018232,-153.219100
540.998527,-3108.864956,-7920.203579,-2987.772442
540.998850,-7179.997637,-7105.977043,-3600.648841
540.999172,-11251.130318,-7402.059420,-2374.896044
540.999494,-13619.789333,-8734.430116,-1685.410096
540.999817,-12953.603985,-9918.759623,-2911.162892
541.000139,-9548.656652,-11621.233289,-6052.154434
541.000461,-6217.729913,-13175.665768,-5898.935335
541.000784,-2368.659014,-14063.912898,-3140.991542
541.001106,2960.823768,-13397.727550,-1991.848295
541.001428,7772.162391,-12065.356855,-1991.848295
541.001751,11325.150913,-11917.315666,-536.266849
541.002073,9622.677246,-10288.862594,1455.581446
541.002395,5847.626942,-6291.750507,2451.505594
541.002718,2516.700203,-3923.091493,0.000000
541.003040,1184.329507,-4441.235652,-3600.648841
541.003362,-1554.432478,-5255.462188,-4136.915689
541.003685,-5551.544565,-5847.626942,-1838.629195
541.004007,-9992.780217,-6809.894666,536.266849
541.004329,-10807.006753,-9844.739029,229.828649
541.004652,-10288.862594,-10584.944971,-766.095498
541.004974,-8364.327145,-10955.047942,-4213.525239
541.005296,-4663.297435,-12139.377449,-5286.058936
541.005619,148.041188,-13101.645173,-3064.381992
541.005941,5033.400406,-11695.253884,-612.876398
541.006263,9474.636058,-10584.944971,-689.485948
541.006586,12361.439231,-11991.336260,-919.314598
541.006908,11843.295072,-12065.356855,536.266849
541.007230,8290.306550,-8438.347739,76.609550
541.007553,3256.906145,-7328.038826,-1455.581446
541.007875,592.164754,-8660.409521,-3447.429741
541.008197,-2812.782580,-7994.224174,-4443.353888
541.008520,-7624.121203,-5921.647536,-3447.429741
541.008842,-11547.212695,-5995.668130,-1302.362347
541.009164,-10955.047942,-9030.512492,-842.705048
541.009487,-9400.615463,-8586.388927,-2681.334243
541.009809,-7179.997637,-10881.027347,-4596.572988
541.010131,-3552.988522,-12879.583391,-2604.724693
541.010454,1850.514855,-13915.871710,-1225.752797
541.010776,6883.915261,-11843.295072,-842.705048
541.011098,9696.697840,-10140.821405,229.828649
541.011421,9178.553681,-9474.636058,1532.190996
541.011743,7105.977043,-8660.409521,2298.286494
541.012065,4219.173869,-6291.750507,536.266849
541.012388,2738.761985,-6587.832884,-3677.258390
541.012710,962.267725,-7476.080014,-5132.839837
541.013032,-1036.288319,-7328.038826,-2145.067394
541.013355,-1850.514855,-6587.832884,995.924147
541.013677,-4811.338623,-7254.018232,-536.266849
541.013999,-7254.018232,-9992.780217,-1225.752797
541.014322,-10214.842000,-10140.821405,-1762.019645
541.014644,-9474.636058,-11177.109724,-2757.943793
541.014966,-5995.668130,-11547.212695,-4519.963438
541.015289,-1406.391290,-11917.315666,-4060.306139
541.015611,3330.926739,-11103.089130,-1838.629195
541.015933,7179.997637,-9252.574275,153.219100
541.016256,9844.739029,-10140.821405,2145.067394
541.016578,8512.368333,-9770.718434,2221.676944
541.016900,5847.626942,-7698.141797,842.705048
541.017223,2516.700203,-6143.709319,-3217.601092
541.017545,592.164754,-6957.935855,-5439.278036
541.017867,-1332.370696,-9104.533087,-3447.429741
541.018190,-4293.194464,-8734.430116,-1149.143247
541.018512,-5403.503377,-8364.327145,536.266849
541.018834,-7624.121203,-7402.059420,-842.705048
541.019157,-7698.141797,-9770.718434,-2528.115143
541.019479,-5107.421000,-13693.809927,-4673.182538
541.019801,-2738.761985,-14211.954086,-3677.258390
541.020124,-518.144159,-12657.521608,-3064.381992
541.020446,2590.720797,-10510.924376,-995.924147
541.020768,5477.523971,-9104.533087,919.314598
541.021091,6513.812290,-8956.491898,995.924147
541.021413,3404.947333,-6069.688724,0.000000
541.021735,1406.391290,-6069.688724,-612.876398
541.022058,592.164754,-8512.368333,-2987.772442
541.022380,-296.082377,-9474.636058,-2834.553343
541.022702,-3182.885551,-7105.977043,306.438199
541.023025,-5255.462188,-6291.750507,0.000000
541.023347,-4737.318029,-10214.842000,-2451.505594
541.023669,-6143.709319,-10066.800811,-2604.724693
541.023992,-8956.491898,-8808.450710,-995.924147
541.024314,-9030.512492,-8660.409521,-3064.381992
541.024636,-4515.256246,-11843.295072,-4903.011187
541.024959,-148.041188,-13471.748144,-3907.087040
541.025281,3404.947333,-12213.398043,-2298.286494
541.025603,5625.565159,-11251.130318,-919.314598
541.025926,7105.977043,-11843.295072,2221.676944
541.026248,6291.750507,-9326.594869,3753.867940
541.026570,4441.235652,-6069.688724,-842.705048
541.026893,2590.720797,-5403.503377,-3447.429741
541.027215,1480.411884,-7846.182985,-3983.696590
541.027537,-1110.308913,-7105.977043,-1838.629195
541.027860,-4663.297435,-5921.647536,842.705048
541.028182,-5477.523971,-6809.894666,689.485948
541.028504,-5107.421000,-10140.821405,-1532.190996
541.028827,-5847.626942,-11103.089130,-1991.848295
541.029149,-5403.503377,-11177.109724,-2681.334243
541.029471,-2442.679609,-11399.171507,-3830.477490
541.029794,1554.432478,-10658.965565,-2757.943793
541.030116,4885.359217,-9918.759623,0.000000
541.030438,7254.018232,-10584.944971,689.485948
541.030761,6439.791695,-10732.986159,306.438199
541.031083,3627.009116,-9178.553681,0.000000
541.031405,1110.308913,-6883.915261,-842.705048
541.031728,814.226536,-7476.080014,-3983.696590
541.032050,740.205942,-8734.430116,-5439.278036
541.032372,-2146.597232,-7105.977043,-1991.848295
541.032695,-5107.421000,-5699.585753,536.266849
541.033017,-6143.709319,-8216.285956,-1072.533697
541.033339,-6957.935855,-9548.656652,-3677.258390
541.033662,-6883.915261,-10807.006753,-4519.963438
541.033984,-5329.482782,-12509.480420,-4903.011187
541.034306,-1554.432478,-14285.974681,-2834.553343
541.034629,2738.761985,-14211.954086,-229.828649
541.034951,6439.791695,-11029.068536,536.266849
541.035273,8512.368333,-9992.780217,229.828649
541.035596,7772.162391,-9178.553681,1608.800546
541.035918,4663.297435,-6291.750507,689.485948
541.036240,1406.391290,-4071.132681,-1302.362347
541.036563,962.267725,-6365.771101,-2987.772442
541.036885,296.082377,-7254.018232,-3140.991542
541.037207,-1184.329507,-7328.038826,-1378.971896
541.037530,-3330.926739,-7476.080014,0.000000
541.037852,-3775.050304,-10510.924376,-383.047749
541.038174,-5477.523971,-11399.171507,-1378.971896
541.038497,-7698.141797,-10658.965565,-1915.238745
541.038819,-8660.409521,-9770.718434,-3677.258390
541.039141,-6143.709319,-11399.171507,-4903.011187
541.039464,-1628.453072,-12213.398043,-4903.011187
541.039786,2368.659014,-10955.047942,-3217.601092
541.040108,4663.297435,-10584.944971,-919.314598
541.040431,5847.626942,-10362.883188,995.924147
541.040753,5107.421000,-8808.450710,1608.800546
541.041075,3478.967927,-6883.915261,-919.314598
541.041398,2220.617826,-6883.915261,-2987.772442
541.041720,148.041188,-7105.977043,-2987.772442
541.042042,-2220.617826,-6883.915261,-1225.752797
541.042365,-4737.318029,-7698.141797,229.828649
541.042687,-5773.606348,-9696.697840,-612.876398
541.043009,-5625.565159,-10881.027347,-842.705048
541.043332,-4589.276840,-10140.821405,-1762.019645
541.043654,-2368.659014,-10362.883188,-2987.772442
541.043976,1110.308913,-11917.315666,-3907.087040
541.044299,3849.070898,-11769.274478,-2068.457845
541.044621,4737.318029,-10288.862594,842.705048
541.044943,4959.379811,-8956.491898,1455.581446
541.045266,4293.194464,-8290.306550,-1225.752797
541.045588,2294.638420,-7624.121203,-3217.601092
541.045910,0.000000,-9030.512492,-2987.772442
541.046233,-1258.350101,-9992.780217,-2451.505594
541.046555,-2146.597232,-9622.677246,-2145.067394
541.046877,-3923.091493,-8660.409521,-1225.752797
541.047200,-5033.400406,-7476.080014,-919.314598
541.047522,-6217.729913,-8660.409521,-3140.991542
541.047844,-7476.080014,-9178.553681,-3294.210641
541.048167,-8142.265362,-10140.821405,-1762.019645
541.048489,-7179.997637,-9178.553681,-1991.848295
541.048811,-2960.823768,-10584.944971,-3830.477490
541.049134,2516.700203,-11843.295072,-4136.915689
541.049456,5477.523971,-11103.089130,-1762.019645
541.049778,7031.956449,-11547.212695,1225.752797
541.050101,7624.121203,-10732.986159,2757.943793
541.050423,7105.977043,-7994.224174,1149.143247
541.050745,5181.441594,-5477.523971,-1608.800546
541.051068,3108.864956,-5625.565159,-1762.019645
541.051390,888.247130,-7624.121203,-1225.752797
541.051712,-2516.700203,-7624.121203,-1378.971896
541.052035,-5033.400406,-7550.100608,-766.095498
541.052357,-6069.688724,-9474.636058,-1225.752797
541.052679,-5403.503377,-11695.253884,-1915.238745
541.053002,-5255.462188,-12435.459826,-2757.943793
541.053324,-2886.803174,-11695.253884,-3217.601092
541.053646,666.185348,-10658.965565,-3370.820191
541.053969,3923.091493,-9770.718434,-1532.190996
541.054291,5181.441594,-8956.491898,919.314598
541.054613,4515.256246,-8364.327145,842.705048
541.054935,3627.009116,-8660.409521,-995.924147
541.055258,2886.803174,-9252.574275,-2451.505594
541.055580,2072.576638,-9474.636058,-2298.286494
541.055902,888.247130,-9474.636058,-1685.410096
541.056225,-666.185348,-7846.182985,-612.876398
541.056547,-2590.720797,-8882.471304,-689.485948
541.056869,-4589.276840,-8808.450710,-229.828649
541.057191,-7254.018232,-8808.450710,-1455.581446
541.057514,-9622.677246,-7328.038826,-2834.553343
541.057836,-7920.203579,-9548.656652,-3524.039291
541.058158,-3330.926739,-11917.315666,-4366.744339
541.058481,1702.473667,-12213.398043,-3677.258390
541.058803,4811.338623,-12139.377449,-612.876398
541.059125,7031.956449,-11843.295072,2068.457845
541.059447,8068.244768,-11399.171507,2834.553343
541.059770,7328.038826,-8438.347739,689.485948
541.060092,4367.215058,-5255.462188,-3140.991542
541.060414,1628.453072,-5699.585753,-4290.134789
541.060737,370.102971,-8364.327145,-2374.896044
541.061059,-2590.720797,-7105.977043,-536.266849
541.061381,-6291.750507,-5551.544565,-842.705048
541.061703,-7550.100608,-7624.121203,-689.485948
541.062026,-8364.327145,-11991.336260,-1991.848295
541.062348,-9918.759623,-11769.274478,-3140.991542
541.062670,-10658.965565,-11621.233289,-3600.648841
541.062993,-7994.224174,-10955.047942,-2834.553343
541.063315,-2664.741391,-10362.883188,-4136.915689
541.063637,2072.576638,-9622.677246,-1838.629195
541.063959,4367.215058,-8216.285956,-995.924147
541.064282,5255.462188,-8142.265362,-1991.848295
541.064604,6365.771101,-10214.842000,-1455.581446
541.064926,5921.647536,-10362.883188,0.000000
541.065249,4145.153275,-9992.780217,-1302.362347
541.065571,2220.617826,-8290.306550,-2834.553343
541.065893,74.020594,-7254.018232,-2757.943793
541.066215,-1702.473667,-8216.285956,-1915.238745
541.066538,-4885.359217,-8808.450710,-1532.190996
541.066860,-6735.874072,-9474.636058,-995.924147
541.067182,-7328.038826,-8882.471304,-1149.143247
541.067505,-5403.503377,-9844.739029,-2451.505594
541.067827,-1628.453072,-11695.253884,-3064.381992
541.068149,2368.659014,-12287.418637,-1991.848295
541.068471,5995.668130,-10584.944971,-842.705048
541.068794,8364.327145,-9696.697840,919.314598
541.069116,9548.656652,-8216.285956,1532.190996
541.069438,8142.265362,-6439.791695,-459.657299
541.069761,4885.359217,-6069.688724,-2681.334243
541.070083,1850.514855,-9030.512492,-3217.601092
541.070405,-370.102971,-10807.006753,-3447.429741
541.070727,-3627.009116,-9252.574275,-3983.696590
541.071050,-6439.791695,-10066.800811,-3370.820191
541.071372,-8882.471304,-11251.130318,-1608.800546
541.071694,-8364.327145,-10807.006753,-1378.971896
541.072017,-8956.491898,-8512.368333,-2451.505594
541.072339,-7402.059420,-8956.491898,-4903.011187
541.072661,-3404.947333,-9474.636058,-3600.648841
541.072983,1184.329507,-10436.903782,-2528.115143
541.073306,4219.173869,-9622.677246,-689.485948
541.073628,6513.812290,-9178.553681,1838.629195
541.073950,7920.203579,-9844.739029,2911.162892
541.074273,9178.553681,-7031.956449,-1072.533697
541.074595,7772.162391,-5995.668130,-2681.334243
541.074917,4737.318029,-8142.265362,0.000000
541.075239,1702.473667,-8290.306550,1225.752797
541.075562,-2368.659014,-7772.162391,-612.876398
541.075884,-5255.462188,-8068.244768,-1915.238745
541.076206,-7105.977043,-10214.842000,-2068.457845
541.076529,-9326.594869,-10732.986159,-3140.991542
541.076851,-10658.965565,-11103.089130,-2221.676944
541.077173,-9474.636058,-11177.109724,-2068.457845
541.077495,-4441.235652,-10658.965565,-2911.162892
541.077818,888.247130,-11029.068536,-3294.210641
541.078140,5551.544565,-9844.739029,-1532.190996
541.078462,7624.121203,-9400.615463,0.000000
541.078785,7846.182985,-9992.780217,536.266849
541.079107,6513.812290,-9770.718434,1532.190996
541.079429,3997.112087,-8586.388927,229.828649
541.079751,1628.453072,-7105.977043,-2757.943793
541.080074,148.041188,-7846.182985,-3753.867940
541.080396,-1480.411884,-7105.977043,-2528.115143
541.080718,-3330.926739,-8586.388927,-2987.772442
541.081041,-5551.544565,-11177.109724,-306.438199
541.081363,-8290.306550,-11103.089130,1302.362347
541.081685,-9992.780217,-10214.842000,-919.314598
541.082007,-8364.327145,-10881.027347,-4673.182538
541.082330,-4071.132681,-12509.480420,-6358.592633
541.082652,0.000000,-11843.295072,-4060.306139
541.082974,3997.112087,-10140.821405,-919.314598
541.083297,7624.121203,-8586.388927,2911.162892
541.083619,9770.718434,-7550.100608,3064.381992
541.083941,9992.780217,-6587.832884,-612.876398
541.084263,6661.853478,-6291.750507,-1685.410096
541.084586,3108.864956,-8290.306550,-995.924147
541.084908,0.000000,-9326.594869,-2374.896044
541.085230,-3478.967927,-7772.162391,-2528.115143
541.085553,-5995.668130,-7476.080014,-2145.067394
541.085875,-8364.327145,-8438.347739,-1532.190996
541.086197,-8660.409521,-10955.047942,-2374.896044
541.086520,-9252.574275,-9770.718434,-2604.724693
541.086842,-8216.285956,-10362.883188,-3447.429741
541.087164,-4441.235652,-12435.459826,-3064.381992
541.087486,1184.329507,-12805.562797,-2911.162892
541.087809,5181.441594,-11473.192101,-2451.505594
541.088131,8438.347739,-10140.821405,-995.924147
541.088453,10066.800811,-9992.780217,383.047749
541.088776,10066.800811,-7624.121203,1149.143247
541.089098,6957.935855,-4663.297435,229.828649
541.089420,2664.741391,-5847.626942,-383.047749
541.089742,296.082377,-8438.347739,-1378.971896
541.090065,-1628.453072,-9622.677246,-2987.772442
541.090387,-4885.359217,-8660.409521,-2911.162892
541.090709,-7624.121203,-9474.636058,-153.219100
541.091032,-9400.615463,-9474.636058,459.657299
541.091354,-9400.615463,-9474.636058,-459.657299
541.091676,-8142.265362,-9770.718434,-3907.087040
541.091998,-4515.256246,-11029.068536,-5669.106685
541.092321,148.041188,-12213.398043,-4903.011187
541.092643,4885.359217,-11843.295072,-1991.848295
541.092965,8290.306550,-10066.800811,842.705048
541.093288,8882.471304,-9770.718434,1378.971896
541.093610,7254.018232,-8364.327145,689.485948
541.093932,4367.215058,-7105.977043,-1838.629195
541.094254,1776.494261,-6883.915261,-3753.867940
541.094577,-1110.308913,-8438.347739,-4596.572988
541.094899,-4293.194464,-8660.409521,-2681.334243
541.095221,-5995.668130,-8142.265362,-153.219100
541.095544,-7772.162391,-8956.491898,-536.266849
541.095866,-8290.306550,-11399.171507,-1149.143247
541.096188,-8586.388927,-10732.986159,-1915.238745
541.096510,-7550.100608,-9474.636058,-2451.505594
541.096833,-4663.297435,-10140.821405,-2911.162892
541.097155,0.000000,-10881.027347,-2604.724693
541.097477,3701.029710,-10510.924376,-1072.533697
541.097800,5181.441594,-9104.533087,995.924147
541.098122,6809.894666,-8364.327145,1685.410096
541.098444,7031.956449,-6957.935855,-612.876398
541.098766,6217.729913,-5773.606348,-2757.943793
541.099089,3997.112087,-7698.141797,-2987.772442
541.099411,1924.535449,-9400.615463,-1685.410096
541.099733,-1332.370696,-9696.697840,-1149.143247
541.100056,-4293.194464,-9400.615463,0.000000
541.100378,-7105.977043,-9474.636058,-995.924147
541.100700,-8438.347739,-11103.089130,-2451.505594
541.101022,-8290.306550,-11029.068536,-2451.505594
541.101345,-7476.080014,-10140.821405,-2528.115143
541.101667,-3849.070898,-10510.924376,-2681.334243
541.101989,2368.659014,-11029.068536,-1915.238745
541.102312,7328.038826,-10140.821405,-1608.800546
541.102634,9104.533087,-8808.450710,-919.314598
541.102956,9252.574275,-8734.430116,1838.629195
541.103278,8512.368333,-8660.409521,2145.067394
541.103601,6661.853478,-6883.915261,-536.266849
541.103923,3108.864956,-7031.956449,-2145.067394
541.104245,-296.082377,-7920.203579,-2298.286494
541.104568,-3478.967927,-8660.409521,-3217.601092
541.104890,-5847.626942,-9030.512492,-3370.820191
541.105212,-8290.306550,-11251.130318,-1838.629195
541.105534,-9252.574275,-11399.171507,-1915.238745
541.105857,-9178.553681,-11029.068536,-2374.896044
541.106179,-6883.915261,-11769.274478,-2834.553343
541.106501,-2368.659014,-12731.542202,-3447.429741
541.106824,1628.453072,-11769.274478,-3294.210641
541.107146,4959.379811,-9474.636058,-1685.410096
541.107468,7846.182985,-7772.162391,612.876398
541.107790,10362.883188,-7624.121203,1532.190996
541.108113,10881.027347,-6217.729913,1072.533697
541.108435,7624.121203,-6291.750507,459.657299
541.108757,3108.864956,-6957.935855,689.485948
541.109080,-370.102971,-7846.182985,-1225.752797
541.109402,-3923.091493,-8734.430116,-3294.210641
541.109724,-6587.832884,-8364.327145,-3524.039291
541.110046,-9548.656652,-9252.574275,-2374.896044
541.110369,-11251.130318,-9696.697840,-766.095498
541.110691,-10658.965565,-10214.842000,-2068.457845
541.111013,-7476.080014,-10807.006753,-4443.353888
541.111336,-2664.741391,-12731.542202,-5056.230287
541.111658,666.185348,-13101.645173,-3064.381992
541.111980,4515.256246,-11103.089130,-1915.238745
541.112302,7624.121203,-10214.842000,-1838.629195
541.112625,9622.677246,-10510.924376,-919.314598
541.112947,9400.615463,-9844.739029,612.876398
541.113269,6143.709319,-6883.915261,1072.533697
541.113592,3404.947333,-5477.523971,-689.485948
541.113914,0.000000,-6513.812290,-2451.505594
541.114236,-2738.761985,-7476.080014,-2987.772442
541.114558,-6291.750507,-6587.832884,-2604.724693
541.114881,-8956.491898,-8142.265362,-1838.629195
541.115203,-9548.656652,-10807.006753,-612.876398
541.115525,-9474.636058,-12287.418637,-1378.971896
541.115848,-7624.121203,-11917.315666,-3217.601092
541.116170,-3923.091493,-12435.459826,-3830.477490
541.116492,296.082377,-13101.645173,-3140.991542
541.116814,5625.565159,-11473.192101,-1991.848295
541.117137,8512.368333,-9770.718434,-919.314598
541.117459,9104.533087,-8734.430116,459.657299
541.117781,7772.162391,-8364.327145,1302.362347
541.118104,4737.318029,-6883.915261,459.657299
541.118426,592.164754,-6735.874072,-1608.800546
541.118748,-2590.720797,-7772.162391,-3524.039291
541.119070,-5181.441594,-7179.997637,-3217.601092
541.119393,-6661.853478,-7105.977043,-2528.115143
541.119715,-6587.832884,-8808.450710,-1378.971896
541.120037,-7254.018232,-10066.800811,-612.876398
541.120360,-7402.059420,-10732.986159,-383.047749
541.120682,-5699.585753,-10881.027347,-2145.067394
541.121004,-2220.617826,-12731.542202,-2987.772442
541.121326,1628.453072,-12065.356855,-3370.820191
541.121649,5403.503377,-10362.883188,-2221.676944
541.121971,7846.182985,-9474.636058,0.000000
541.122293,9918.759623,-9400.615463,2451.505594
541.122616,8734.430116,-6809.894666,1838.629195
541.122938,5181.441594,-5329.482782,459.657299
541.123260,2442.679609,-7402.059420,-1685.410096
541.123582,222.061783,-8734.430116,-3370.820191
541.123905,-1480.411884,-8290.306550,-3217.601092
541.124227,-3404.947333,-8438.347739,-1991.848295
541.124549,-3997.112087,-9918.759623,76.609550
541.124872,-6217.729913,-9548.656652,995.924147
541.125194,-8734.430116,-9030.512492,-612.876398
541.125516,-7698.141797,-10140.821405,-3600.648841
541.125838,-3923.091493,-13397.727550,-5439.278036
541.126161,74.020594,-13989.892304,-5439.278036
541.126483,3627.009116,-11399.171507,-2757.943793
541.126805,6365.771101,-9696.697840,1608.800546
541.127128,7624.121203,-9474.636058,3524.039291
541.127450,7402.059420,-7476.080014,995.924147
541.127772,3775.050304,-5773.606348,-1915.238745
541.128094,888.247130,-6883.915261,-2834.553343
541.128417,-814.226536,-8512.368333,-3447.429741
541.128739,-3182.885551,-7772.162391,-3140.991542
541.129061,-4811.338623,-8142.265362,-1915.238745
541.129384,-6587.832884,-10214.842000,-919.314598
541.129706,-6365.771101,-11843.295072,-1608.800546
541.130028,-7254.018232,-10584.944971,-1762.019645
541.130350,-5847.626942,-11177.109724,-3217.601092
541.130673,-2072.576638,-12805.562797,-4290.134789
541.130995,1628.453072,-12805.562797,-3217.601092
541.131317,3256.906145,-11103.089130,229.828649
541.131640,5329.482782,-8438.347739,1915.238745
541.131962,7550.100608,-8364.327145,306.438199
541.132284,7179.997637,-5477.523971,-536.266849
541.132606,3923.091493,-4515.256246,842.705048
541.132929,888.247130,-6735.874072,-612.876398
541.133251,-666.185348,-9326.594869,-2528.115143
541.133573,-2294.638420,-9104.533087,-2528.115143
541.133896,-4515.256246,-8142.265362,-1915.238745
541.134218,-6809.894666,-9252.574275,-766.095498
541.134540,-8586.388927,-9770.718434,-842.705048
541.134862,-9474.636058,-9252.574275,-995.924147
541.135185,-7476.080014,-9918.759623,-4290.134789
541.135507,-4293.194464,-11251.130318,-5515.887586
541.135829,-222.061783,-12139.377449,-4673.182538
541.136152,2442.679609,-10807.006753,-2604.724693
541.136474,5329.482782,-10140.821405,-229.828649
541.136796,7105.977043,-11177.109724,1762.019645
541.137118,6143.709319,-8734.430116,459.657299
541.137441,2738.761985,-5477.523971,-1838.629195
541.137763,-444.123565,-5995.668130,-2068.457845
541.138085,-1850.514855,-7846.182985,-2681.334243
541.138408,-3182.885551,-7846.182985,-4060.306139
541.138730,-4367.215058,-6883.915261,-2834.553343
541.139052,-4219.173869,-8956.491898,-459.657299
541.139374,-4589.276840,-10658.965565,0.000000
541.139697,-3330.926739,-12287.418637,-229.828649
541.140019,-1998.556043,-13323.706956,-2451.505594
541.140341,1406.391290,-13989.892304,-3753.867940
541.140664,4145.153275,-13101.645173,-2451.505594
541.140986,5403.503377,-9548.656652,459.657299
541.141308,6217.729913,-7254.018232,383.047749
541.141630,7179.997637,-7254.018232,-383.047749
541.141953,6439.791695,-7550.100608,-612.876398
541.142275,3034.844362,-8216.285956,-612.876398
541.142597,962.267725,-8438.347739,-1838.629195
541.142920,-1332.370696,-8586.388927,-4366.744339
541.143242,-3034.844362,-9326.594869,-3753.867940
541.143564,-4959.379811,-9104.533087,-1225.752797
541.143887,-8808.450710,-7846.182985,-1991.848295
541.144209,-10066.800811,-8660.409521,-3600.648841
541.144531,-8586.388927,-10436.903782,-3983.696590
541.144853,-5107.421000,-12731.542202,-4519.963438
541.145176,-2220.617826,-13767.830521,-3983.696590
541.145498,888.247130,-13175.665768,-1455.581446
541.145820,3997.112087,-11251.130318,536.266849
541.146143,7994.224174,-9104.533087,-459.657299
541.146465,9400.615463,-6809.894666,536.266849
541.146787,6957.935855,-4145.153275,2374.896044
541.147109,2590.720797,-3182.885551,1455.581446
541.147432,0.000000,-5699.585753,-1072.533697
541.147754,-1850.514855,-6809.894666,-2451.505594
541.148076,-4145.153275,-6883.915261,-2987.772442
541.148399,-5255.462188,-8512.368333,-1455.581446
541.148721,-4367.215058,-11769.274478,-612.876398
541.149043,-4219.173869,-11769.274478,-306.438199
541.149365,-5255.462188,-11621.233289,766.095498
541.149688,-5625.565159,-10955.047942,-766.095498
541.150010,-3478.967927,-11103.089130,-3600.648841
541.150332,-666.185348,-11399.171507,-5515.887586
541.150655,2516.700203,-10140.821405,-5439.278036
541.150977,5551.544565,-10140.821405,-2757.943793
541.151299,7402.059420,-11325.150913,1685.410096
541.151621,6217.729913,-10140.821405,3677.258390
541.151944,3256.906145,-8364.327145,1532.190996
541.152266,888.247130,-6587.832884,-2145.067394
541.152588,-1480.411884,-5995.668130,-4519.963438
541.152911,-4367.215058,-5477.523971,-4673.182538
541.153233,-7105.977043,-5847.626942,-2451.505594
541.153555,-7920.203579,-8216.285956,-459.657299
541.153877,-6957.935855,-11103.089130,-1225.752797
541.154199,-5181.441594,-13323.706956,-2451.505594
541.154522,-2960.823768,-15174.221811,-3064.381992
541.154844,-148.041188,-14804.118840,-4290.134789
541.155166,3404.947333,-12435.459826,-2528.115143
541.155488,5995.668130,-9622.677246,-153.219100
541.155811,7476.080014,-7179.997637,1915.238745
541.156133,7031.956449,-5995.668130,1455.581446
541.156455,4441.235652,-4589.276840,-306.438199
541.156777,2072.576638,-6143.709319,-536.266849
541.157100,222.061783,-8808.450710,-1762.019645
541.157422,-1480.411884,-8808.450710,-2221.676944
541.157744,-3182.885551,-8882.471304,-1532.190996
541.158066,-4515.256246,-9474.636058,-766.095498
541.158388,-4663.297435,-9770.718434,-306.438199
541.158711,-7031.956449,-8734.430116,-1149.143247
541.159033,-8734.430116,-7105.977043,-3217.601092
541.159355,-5921.647536,-9178.553681,-5515.887586
541.159677,-1554.432478,-11843.295072,-5745.716235
541.160000,1258.350101,-13027.624579,-3447.429741
541.160322,4737.318029,-13027.624579,-459.657299
541.160644,7105.977043,-12361.439231,1991.848295
541.160966,8290.306550,-10955.047942,1762.019645
541.161289,5625.565159,-7550.100608,-689.485948
541.161611,2220.617826,-5107.421000,-766.095498
541.161933,0.000000,-6143.709319,-766.095498
541.162255,-2442.679609,-5329.482782,-2757.943793
541.162577,-4885.359217,-4367.215058,-2834.553343
541.162900,-5403.503377,-6439.791695,-1915.238745
541.163222,-5921.647536,-10584.944971,-1608.800546
541.163544,-6513.812290,-11991.336260,-383.047749
541.163866,-6291.750507,-12657.521608,-1225.752797
541.164189,-2886.803174,-13915.871710,-3677.258390
541.164511,1480.411884,-13693.809927,-5286.058936
541.164833,3627.009116,-11769.274478,-2834.553343
541.165155,3627.009116,-9474.636058,-306.438199
541.165477,4219.173869,-7105.977043,1149.143247
541.165800,4219.173869,-7105.977043,-536.266849
541.166122,2886.803174,-8290.306550,-2604.724693
541.166444,0.000000,-10881.027347,-2298.286494
541.166766,-2960.823768,-9844.739029,-766.095498
541.167089,-5329.482782,-7402.059420,-1685.410096
541.167411,-5847.626942,-7105.977043,-2145.067394
541.167733,-5773.606348,-8364.327145,-2298.286494
541.168055,-7772.162391,-8068.244768,-2834.553343
541.168378,-10658.965565,-8660.409521,-1685.410096
541.168700,-11695.253884,-9844.739029,-995.924147
541.169022,-7550.100608,-11695.253884,-2221.676944
541.169344,-3552.988522,-12287.418637,-4903.011187
541.169666,444.123565,-11399.171507,-4519.963438
541.169989,2886.803174,-9178.553681,-1072.533697
541.170311,5477.523971,-8512.368333,1532.190996
541.170633,6957.935855,-8438.347739,0.000000
541.170955,5107.421000,-8438.347739,-919.314598
541.171278,2738.761985,-8660.409521,-1225.752797
541.171600,518.144159,-8438.347739,-1532.190996
541.171922,-1332.370696,-8290.306550,-1532.190996
541.172244,-3627.009116,-7624.121203,-459.657299
541.172566,-5255.462188,-6587.832884,-306.438199
541.172889,-5773.606348,-7846.182985,-1608.800546
541.173211,-7624.121203,-9770.718434,-2068.457845
541.173533,-9548.656652,-10881.027347,-1302.362347
541.173855,-9844.739029,-9918.759623,-1532.190996
541.174178,-6143.709319,-10066.800811,-3294.210641
541.174500,-666.185348,-11103.089130,-4366.744339
541.174822,2886.803174,-9992.780217,-1608.800546
541.175144,4589.276840,-8068.244768,1991.848295
541.175467,5847.626942,-7476.080014,1072.533697
541.175789,6069.688724,-9178.553681,-1608.800546
541.176111,2886.803174,-9474.636058,-2987.772442
541.176433,-2294.638420,-8956.491898,-1838.629195
541.176755,-4959.379811,-8290.306550,-3217.601092
541.177078,-5477.523971,-8956.491898,-4903.011187
541.177400,-6587.832884,-8364.327145,-4290.134789
541.177722,-9326.594869,-8364.327145,-1685.410096
541.178044,-9696.697840,-11177.109724,-1915.238745
541.178367,-9474.636058,-14211.954086,-2451.505594
541.178689,-9770.718434,-13915.871710,-2068.457845
541.179011,-8734.430116,-11325.150913,-2145.067394
541.179333,-4071.132681,-9474.636058,-3217.601092
541.179655,2294.638420,-8290.306550,-3064.381992
541.179978,6957.935855,-6957.935855,-459.657299
541.180300,9104.533087,-6365.771101,1225.752797
541.180622,10214.842000,-6069.688724,1532.190996
541.180944,9474.636058,-7179.997637,306.438199
541.181267,5033.400406,-9696.697840,-612.876398
541.181589,-2738.761985,-9548.656652,-1302.362347
541.181911,-7550.100608,-9548.656652,-1915.238745
541.182233,-7179.997637,-9696.697840,-4673.182538
541.182556,-5329.482782,-10214.842000,-6358.592633
541.182878,-8290.306550,-9178.553681,-4903.011187
541.183200,-11547.212695,-9622.677246,-153.219100
541.183522,-10584.944971,-11251.130318,1225.752797
541.183844,-7698.141797,-12509.480420,-2451.505594
541.184167,-6661.853478,-13693.809927,-6205.373534
541.184489,-6291.750507,-12361.439231,-4673.182538
541.184811,-4737.318029,-9474.636058,-919.314598
541.185133,-888.247130,-7179.997637,1302.362347
541.185456,4737.318029,-5329.482782,2757.943793
541.185778,8438.347739,-3627.009116,153.219100
541.186100,9770.718434,-3997.112087,-1378.971896
541.186422,9474.636058,-5477.523971,1455.581446
541.186744,6439.791695,-7254.018232,2528.115143
541.187067,740.205942,-10658.965565,-306.438199
541.187389,-5921.647536,-11103.089130,-1225.752797
541.187711,-10066.800811,-8142.265362,-2145.067394
541.188033,-11547.212695,-7031.956449,-7967.393179
541.188356,-11399.171507,-10658.965565,-9576.193725
541.188678,-9770.718434,-14878.139434,-6281.983084
541.189000,-7550.100608,-14952.160028,-1149.143247
541.189322,-4737.318029,-13471.748144,1685.410096
541.189645,-2072.576638,-11473.192101,0.000000
541.189967,-370.102971,-10510.924376,-3294.210641
541.190289,-1850.514855,-9770.718434,-4213.525239
541.190611,-3701.029710,-7624.121203,-1225.752797
541.190933,-3478.967927,-4885.359217,1685.410096
541.191256,-1184.329507,-3923.091493,1149.143247
541.191578,1850.514855,-4293.194464,459.657299
541.191900,3997.112087,-5699.585753,229.828649
541.192222,4589.276840,-7328.038826,-306.438199
541.192545,4071.132681,-10658.965565,-536.266849
541.192867,3034.844362,-11843.295072,-766.095498
541.193189,1406.391290,-10955.047942,-1915.238745
541.193511,-1258.350101,-10140.821405,-3907.087040
541.193833,-5107.421000,-10807.006753,-4673.182538
541.194156,-8808.450710,-12213.398043,-3524.039291
541.194478,-9918.759623,-12879.583391,-3600.648841
541.194800,-7550.100608,-12361.439231,-4673.182538
541.195122,-4145.153275,-11325.150913,-3830.477490
541.195445,-2368.659014,-10066.800811,-383.047749
541.195767,-740.205942,-8364.327145,2374.896044
541.196089,0.000000,-6217.729913,2911.162892
541.196411,222.061783,-4071.132681,536.266849
541.196734,-740.205942,-2664.741391,-2681.334243
541.197056,-4367.215058,-4367.215058,-3294.210641
541.197378,-8068.244768,-8068.244768,-689.485948
541.197700,-9992.780217,-10881.027347,0.000000
541.198022,-8734.430116,-12213.398043,-2757.943793
541.198345,-4737.318029,-13545.768739,-4443.353888
541.198667,-1184.329507,-12435.459826,-4443.353888
541.198989,1702.473667,-11621.233289,-3064.381992
541.199311,1998.556043,-8364.327145,-1225.752797
541.199634,3330.926739,-8882.471304,-689.485948
541.199956,3849.070898,-8956.491898,-1685.410096
541.200278,3256.906145,-10066.800811,-3677.258390
541.200600,222.061783,-10658.965565,-3294.210641
541.200922,-2368.659014,-10584.944971,-1302.362347
541.201245,-3330.926739,-10881.027347,842.705048
541.201567,-3849.070898,-10214.842000,1608.800546
541.201889,-4071.132681,-7846.182985,919.314598
541.202211,-4515.256246,-3923.091493,-1762.019645
541.202534,-4589.276840,-3775.050304,-3983.696590
541.202856,-4885.359217,-6587.832884,-3524.039291
541.203178,-4959.379811,-9178.553681,-2221.676944
541.203500,-4885.359217,-9992.780217,-1915.238745
541.203823,-3552.988522,-11621.233289,-3600.648841
541.204145,-1924.535449,-13397.727550,-4979.620737
541.204467,-814.226536,-14285.974681,-4673.182538
541.204789,-1480.411884,-13249.686362,-3524.039291
541.205111,-2664.741391,-10732.986159,-1915.238745
541.205434,-2368.659014,-10807.006753,-1685.410096
541.205756,-2664.741391,-10584.944971,-1302.362347
541.206078,-2812.782580,-8882.471304,-1608.800546
541.206400,-2886.803174,-6809.894666,-1072.533697
541.206723,-1850.514855,-6809.894666,153.219100
541.207045,148.041188,-6661.853478,1455.581446
541.207367,1776.494261,-5403.503377,842.705048
541.207689,1628.453072,-4293.194464,0.000000
541.208012,1776.494261,-5255.462188,-919.314598
541.208334,1850.514855,-7846.182985,-2068.457845
541.208656,740.205942,-9770.718434,-2451.505594
541.208978,-1184.329507,-11399.171507,-2451.505594
541.209300,-3182.885551,-12213.398043,-2911.162892
541.209623,-4145.153275,-13249.686362,-3677.258390
541.209945,-4293.194464,-13619.789333,-3983.696590
541.210267,-4515.256246,-12583.501014,-3447.429741
541.210589,-6143.709319,-10658.965565,-3447.429741
541.210912,-6291.750507,-9400.615463,-2298.286494
541.211234,-6883.915261,-8364.327145,-1378.971896
541.211556,-6661.853478,-7698.141797,-1225.752797
541.211878,-5551.544565,-6735.874072,-1302.362347
541.212200,-4219.173869,-5921.647536,-1608.800546
541.212523,-2220.617826,-6513.812290,-1225.752797
541.212845,-666.185348,-6661.853478,0.000000
541.213167,1036.288319,-7920.203579,919.314598
541.213489,2590.720797,-9252.574275,229.828649
541.213812,3108.864956,-10807.006753,-2451.505594
541.214134,2146.597232,-11991.336260,-3064.381992
541.214456,444.123565,-12361.439231,-2298.286494
541.214778,-2294.638420,-12287.418637,-1532.190996
541.215101,-5403.503377,-11991.336260,-1149.143247
541.215423,-7624.121203,-11843.295072,-842.705048
541.215745,-9770.718434,-9918.759623,-1225.752797
541.216067,-10510.924376,-7846.182985,-2451.505594
541.216389,-9474.636058,-7254.018232,-2451.505594
541.216712,-6809.894666,-6587.832884,-1149.143247
541.217034,-3256.906145,-5625.565159,-919.314598
541.217356,0.000000,-4515.256246,-229.828649
541.217678,2516.700203,-5181.441594,-689.485948
541.218001,3034.844362,-6957.935855,-1455.581446
541.218323,3108.864956,-9474.636058,-2757.943793
541.218645,1776.494261,-11843.295072,-3294.210641
541.218967,222.061783,-13545.768739,-3447.429741
541.219289,-1628.453072,-13397.727550,-2221.676944
541.219612,-3108.864956,-12879.583391,-2451.505594
541.219934,-4811.338623,-11399.171507,-2068.457845
541.220256,-5773.606348,-10288.862594,-1762.019645
541.220578,-6513.812290,-10066.800811,-2145.067394
541.220901,-6587.832884,-8586.388927,-995.924147
541.221223,-5847.626942,-9030.512492,-1608.800546
541.221545,-5107.421000,-9178.553681,306.438199
541.221867,-3034.844362,-8660.409521,995.924147
541.222190,-1258.350101,-7402.059420,919.314598
541.222512,222.061783,-5995.668130,76.609550
541.222834,1406.391290,-5551.544565,-536.266849
541.223156,3034.844362,-6439.791695,-995.924147
541.223478,4515.256246,-6883.915261,-1762.019645
541.223801,4737.318029,-8438.347739,-3447.429741
541.224123,4293.194464,-10955.047942,-4290.134789
541.224445,3108.864956,-12879.583391,-3217.601092
541.224767,-296.082377,-12805.562797,-2911.162892
541.225090,-4367.215058,-13545.768739,-3140.991542
541.225412,-7105.977043,-13989.892304,-2451.505594
541.225734,-8512.368333,-12509.480420,-2451.505594
541.226056,-9474.636058,-9548.656652,-3677.258390
541.226378,-8216.285956,-7846.182985,-2604.724693
541.226701,-7402.059420,-7105.977043,-842.705048
541.227023,-4959.379811,-6957.935855,-229.828649
541.227345,-3256.906145,-4959.379811,459.657299
541.227667,-2294.638420,-4071.132681,0.000000
541.227990,-2072.576638,-6143.709319,-1378.971896
541.228312,-2368.659014,-8660.409521,-1991.848295
541.228634,-2886.803174,-10288.862594,-2374.896044
541.228956,-3182.885551,-11029.068536,-2911.162892
541.229279,-2886.803174,-12065.356855,-2757.943793
541.229601,-962.267725,-13027.624579,-2221.676944
541.229923,296.082377,-11991.336260,-2757.943793
541.230245,518.144159,-11473.192101,-1838.629195
541.230567,296.082377,-11399.171507,-153.219100
541.230890,-962.267725,-9474.636058,689.485948
541.231212,-2516.700203,-7550.100608,-229.828649
541.231534,-4071.132681,-5699.585753,-1915.238745
541.231856,-4293.194464,-5477.523971,-1685.410096
541.232179,-3997.112087,-5403.503377,-1532.190996
541.232501,-4071.132681,-5477.523971,-1149.143247
541.232823,-4145.153275,-7031.956449,-689.485948
541.233145,-3182.885551,-8660.409521,-1225.752797
541.233467,-2812.782580,-9326.594869,-2911.162892
541.233790,-3404.947333,-10732.986159,-4136.915689
541.234112,-4293.194464,-11769.274478,-4749.792088
541.234434,-4367.215058,-12805.562797,-4519.963438
541.234756,-4515.256246,-12953.603985,-4443.353888
541.235079,-4737.318029,-12583.501014,-4060.306139
541.235401,-3923.091493,-12583.501014,-2757.943793
541.235723,-2590.720797,-11399.171507,-2068.457845
541.236045,-1554.432478,-9992.780217,-2068.457845
541.236368,-518.144159,-9252.574275,-689.485948
541.236690,444.123565,-7846.182985,612.876398
541.237012,1258.350101,-5403.503377,459.657299
541.237334,1998.556043,-4737.318029,153.219100
541.237656,2220.617826,-5403.503377,153.219100
541.237979,1850.514855,-6587.832884,0.000000
541.238301,1332.370696,-7846.182985,-383.047749
541.238623,888.247130,-9326.594869,-689.485948
541.238945,814.226536,-11621.233289,-689.485948
541.239268,370.102971,-12509.480420,-766.095498
541.239590,-444.123565,-12213.398043,-1225.752797
541.239912,-1776.494261,-11769.274478,-1685.410096
541.240234,-2590.720797,-10436.903782,-1072.533697
541.240556,-2590.720797,-10584.944971,-1991.848295
541.240879,-3997.112087,-9326.594869,-2068.457845
541.241201,-4811.338623,-8956.491898,-1225.752797
541.241523,-5403.503377,-8882.471304,-689.485948
541.241845,-4515.256246,-8364.327145,-1149.143247
541.242168,-4737.318029,-8068.244768,-1302.362347
541.242490,-4959.379811,-7402.059420,-1532.190996
541.242812,-4737.318029,-6587.832884,-1685.410096
541.243134,-4515.256246,-6883.915261,-2757.943793
541.243457,-4219.173869,-7846.182985,-2528.115143
541.243779,-5107.421000,-8068.244768,-2221.676944
541.244101,-5699.585753,-9178.553681,-2911.162892
541.244423,-5033.400406,-11399.171507,-3983.696590
541.244745,-3701.029710,-13323.706956,-3294.210641
541.245068,-2738.761985,-13619.789333,-2068.457845
541.245390,-1998.556043,-12139.377449,-842.705048
541.245712,-888.247130,-10436.903782,-383.047749
541.246034,-518.144159,-9252.574275,-612.876398
541.246357,-1184.329507,-8216.285956,0.000000
541.246679,-1998.556043,-8068.244768,306.438199
541.247001,-3256.906145,-6883.915261,76.609550
541.247323,-3627.009116,-6587.832884,-306.438199
541.247645,-3849.070898,-6661.853478,-995.924147
541.247968,-3330.926739,-7994.224174,-689.485948
541.248290,-2664.741391,-9030.512492,-306.438199
541.248612,-2664.741391,-8660.409521,-995.924147
541.248934,-1628.453072,-8586.388927,-1838.629195
541.249257,-740.205942,-10140.821405,-4060.306139
541.249579,-518.144159,-12287.418637,-3524.039291
541.249901,-1480.411884,-12435.459826,-2221.676944
541.250223,-2220.617826,-11769.274478,-1991.848295
541.250546,-1924.535449,-11843.295072,-3217.601092
541.250868,-666.185348,-12953.603985,-2987.772442
541.251190,-1036.288319,-11621.233289,-1072.533697
541.251512,-1480.411884,-9770.718434,229.828649
541.251834,-814.226536,-8142.265362,383.047749
541.252157,592.164754,-7846.182985,0.000000
541.252479,2072.576638,-6809.894666,689.485948
541.252801,2442.679609,-6365.771101,612.876398
541.253123,2738.761985,-6735.874072,995.924147
541.253446,2738.761985,-7772.162391,1685.410096
541.253768,2960.823768,-9474.636058,1455.581446
541.254090,3330.926739,-10881.027347,995.924147
541.254412,3034.844362,-11547.212695,383.047749
541.254735,2886.803174,-12065.356855,612.876398
541.255057,3182.885551,-11917.315666,842.705048
541.255379,3256.906145,-11325.150913,1302.362347
541.255701,2664.741391,-10436.903782,2145.067394
541.256023,1554.432478,-9548.656652,2604.724693
541.256346,888.247130,-8882.471304,2451.505594
541.256668,74.020594,-8142.265362,1378.971896
541.256990,-962.267725,-8068.244768,1532.190996
541.257312,-1776.494261,-8068.244768,2681.334243
541.257634,-2368.659014,-8364.327145,3753.867940
541.257957,-2664.741391,-8512.368333,3830.477490
541.258279,-3478.967927,-8142.265362,2528.115143
541.258601,-3849.070898,-8068.244768,1915.238745
541.258923,-3997.112087,-9178.553681,1991.848295
541.259246,-3997.112087,-9104.533087,2298.286494
541.259568,-4293.194464,-9400.615463,2221.676944
541.259890,-4293.194464,-10584.944971,2221.676944
541.260212,-4441.235652,-11177.109724,2911.162892
541.260534,-4811.338623,-11251.130318,2911.162892
541.260857,-4737.318029,-11103.089130,2834.553343
541.261179,-3701.029710,-10732.986159,2911.162892
541.261501,-2960.823768,-9770.718434,3294.210641
541.261823,-1628.453072,-8734.430116,3830.477490
541.262145,-666.185348,-7550.100608,4443.353888
541.262468,222.061783,-7550.100608,4366.744339
541.262790,1184.329507,-7994.224174,2757.943793
541.263112,888.247130,-8142.265362,3217.601092
541.263434,740.205942,-8956.491898,2528.115143
541.263756,0.000000,-9918.759623,2451.505594
541.264079,-888.247130,-10362.883188,2068.457845
541.264401,-1554.432478,-10288.862594,1685.410096
541.264723,-1702.473667,-9178.553681,536.266849
541.265045,-1036.288319,-9696.697840,-1072.533697
541.265368,-962.267725,-10066.800811,-1225.752797
541.265690,-1702.473667,-9400.615463,0.000000
541.266012,-2664.741391,-9104.533087,-306.438199
541.266334,-2590.720797,-9696.697840,-1838.629195
541.266656,-1184.329507,-11251.130318,-2068.457845
541.266979,296.082377,-11769.274478,-1532.190996
541.267301,1924.535449,-10510.924376,-689.485948
541.267623,3627.009116,-8882.471304,-153.219100
541.267945,5403.503377,-7254.018232,153.219100
541.268267,5995.668130,-5921.647536,-919.314598
541.268590,5921.647536,-6883.915261,-2681.334243
541.268912,3404.947333,-7476.080014,-2987.772442
541.269234,370.102971,-8512.368333,-2757.943793
541.269556,-2664.741391,-10066.800811,-3447.429741
541.269878,-4737.318029,-12731.542202,-4519.963438
541.270201,-5033.400406,-13397.727550,-4136.915689
541.270523,-5477.523971,-12361.439231,-4903.011187
541.270845,-3330.926739,-11843.295072,-4826.401637
541.271167,666.185348,-12953.603985,-3600.648841
541.271489,3775.050304,-12953.603985,-1455.581446
541.271812,4441.235652,-11029.068536,536.266849
541.272134,4737.318029,-9326.594869,2145.067394
541.272456,5699.585753,-7550.100608,1225.752797
541.272778,7179.997637,-7402.059420,-842.705048
541.273101,6069.688724,-6069.688724,-1532.190996
541.273423,2738.761985,-4811.338623,1685.410096
541.273745,-148.041188,-4145.153275,3294.210641
541.274067,-3627.009116,-4737.318029,919.314598
541.274389,-6217.729913,-7179.997637,-2834.553343
541.274712,-8586.388927,-9326.594869,-3753.867940
541.275034,-10584.944971,-11029.068536,-4519.963438
541.275356,-9474.636058,-11843.295072,-4060.306139
541.275678,-6217.729913,-14508.036463,-4596.572988
541.276000,-3478.967927,-16062.468941,-2604.724693
541.276323,-2146.597232,-15100.201217,-459.657299
541.276645,-1776.494261,-11177.109724,-306.438199
541.276967,-370.102971,-9400.615463,-3600.648841
541.277289,1110.308913,-8882.471304,-3830.477490
541.277611,518.144159,-8364.327145,-1378.971896
541.277934,-1554.432478,-7105.977043,1915.238745
541.278256,-2664.741391,-8216.285956,3907.087040
541.278578,-2590.720797,-8956.491898,3294.210641
541.278900,-2220.617826,-10140.821405,1378.971896
541.279223,-2368.659014,-10881.027347,2451.505594
541.279545,-3552.988522,-10584.944971,4213.525239
541.279867,-3404.947333,-8808.450710,5132.839837
541.280189,-2442.679609,-6661.853478,3600.648841
541.280511,-962.267725,-5181.441594,536.266849
541.280834,-148.041188,-5625.565159,-1302.362347
541.281156,1110.308913,-7624.121203,-766.095498
541.281478,2220.617826,-9770.718434,1149.143247
541.281800,3923.091493,-11399.171507,3294.210641
541.282122,4959.379811,-12583.501014,3600.648841
541.282445,5181.441594,-13101.645173,3140.991542
541.282767,4071.132681,-12731.542202,2987.772442
541.283089,2368.659014,-11103.089130,2987.772442
541.283411,148.041188,-8364.327145,3830.477490
541.283733,-1998.556043,-5995.668130,4979.620737
541.284056,-3627.009116,-5255.462188,5056.230287
541.284378,-3404.947333,-7402.059420,4290.134789
541.284700,-2220.617826,-9622.677246,3524.039291
541.285022,-1036.288319,-10658.965565,3600.648841
541.285344,592.164754,-11769.274478,4749.792088
541.285667,2886.803174,-11843.295072,5822.325785
541.285989,5107.421000,-10214.842000,4903.011187
541.286311,6661.853478,-8216.285956,2451.505594
541.286633,6143.709319,-8142.265362,1762.019645
541.286956,5329.482782,-7772.162391,3830.477490
541.287278,4811.338623,-5847.626942,3524.039291
541.287600,3849.070898,-7550.100608,-766.095498
541.287922,3627.009116,-13915.871710,-2528.115143
541.288244,2220.617826,-15914.427753,842.705048
541.288567,-2738.761985,-11695.253884,2528.115143
541.288889,-7772.162391,-11399.171507,2374.896044
541.289211,-9844.739029,-13619.789333,1991.848295
541.289533,-10214.842000,-11695.253884,-3064.381992
541.289855,-14137.933492,-10066.800811,-5286.058936
541.290178,-16580.613101,-9252.574275,1302.362347
541.290500,-14508.036463,-6069.688724,3677.258390
541.290822,-7846.182985,-5255.462188,-2374.896044
541.291144,370.102971,-7624.121203,-3983.696590
541.291466,6143.709319,-8956.491898,-1991.848295
541.291789,8290.306550,-9326.594869,-1915.238745
541.292111,10510.924376,-8586.388927,2374.896044
541.292433,12065.356855,-6217.729913,4903.011187
541.292755,11251.130318,-4737.318029,-4290.134789
541.293078,8438.347739,-8216.285956,-8963.317327
541.293400,3997.112087,-13027.624579,-3217.601092
541.293722,-2664.741391,-14137.933492,1225.752797
541.294044,-9918.759623,-16062.468941,1302.362347
541.294366,-13841.851115,-16580.613101,2374.896044
541.294689,-13027.624579,-13175.665768,-1149.143247
541.295011,-11473.192101,-8216.285956,-8044.002729
541.295333,-8586.388927,-6291.750507,-4826.401637
541.295655,-3923.091493,-5033.400406,536.266849
541.295977,148.041188,-1554.432478,1455.581446
541.296300,3849.070898,-3034.844362,459.657299
541.296622,7550.100608,-6291.750507,383.047749
541.296944,7624.121203,-9622.677246,-2298.286494
541.297266,6439.791695,-11325.150913,-2604.724693
541.297588,4367.215058,-12139.377449,-536.266849
541.297911,3775.050304,-11621.233289,-459.657299
541.298233,3330.926739,-10362.883188,-2604.724693
541.298555,2072.576638,-10362.883188,-2987.772442
541.298877,0.000000,-12361.439231,-2528.115143
541.299199,-2886.803174,-13619.789333,-3064.381992
541.299522,-3182.885551,-14508.036463,-2068.457845
541.299844,-4071.132681,-11843.295072,306.438199
541.300166,-2886.803174,-7550.100608,1225.752797
541.300488,-2442.679609,-5847.626942,-229.828649
541.300811,-592.164754,-6883.915261,-383.047749
541.301133,1258.350101,-5181.441594,-536.266849
541.301455,1850.514855,-3923.091493,-1302.362347
541.301777,666.185348,-7179.997637,0.000000
541.302099,-888.247130,-11103.089130,2757.943793
541.302422,-1332.370696,-13101.645173,2298.286494
541.302744,-740.205942,-13693.809927,76.609550
541.303066,1776.494261,-13693.809927,-612.876398
541.303388,4293.194464,-11843.295072,-306.438199
541.303710,3404.947333,-8438.347739,1302.362347
541.304033,1850.514855,-8364.327145,3907.087040
541.304355,296.082377,-10214.842000,2834.553343
541.304677,74.020594,-12139.377449,229.828649
541.304999,-1924.535449,-13175.665768,1378.971896
541.305321,-5033.400406,-12509.480420,3753.867940
541.305644,-6365.771101,-11695.253884,5822.325785
541.305966,-4293.194464,-10510.924376,5286.058936
541.306288,-444.123565,-8142.265362,3447.429741
541.306610,2072.576638,-5329.482782,2834.553343
541.306933,1924.535449,-1850.514855,2681.334243
541.307255,962.267725,-1924.535449,2374.896044
541.307577,-296.082377,-4441.235652,1532.190996
541.307899,-1036.288319,-9030.512492,766.095498
541.308221,-3330.926739,-12509.480420,842.705048
541.308544,-6439.791695,-14137.933492,689.485948
541.308866,-9252.574275,-15026.180623,1455.581446
541.309188,-9252.574275,-15766.386565,1991.848295
541.309510,-8142.265362,-13471.748144,1608.800546
541.309832,-5329.482782,-9696.697840,3370.820191
541.310155,-2812.782580,-3923.091493,3677.258390
541.310477,0.000000,-2146.597232,1685.410096
541.310799,3923.091493,-3701.029710,76.609550
541.311121,5773.606348,-7179.997637,766.095498
541.311443,4145.153275,-12065.356855,4060.306139
541.311766,1628.453072,-13767.830521,7890.783629
541.312088,888.247130,-11325.150913,5975.544884
541.312410,3552.988522,-7772.162391,459.657299
541.312732,7105.977043,-6735.874072,-2451.505594
541.313054,9400.615463,-6661.853478,0.000000
541.313377,8956.491898,-4811.338623,1072.533697
541.313699,7254.018232,-6217.729913,229.828649
541.314021,4293.194464,-11769.274478,0.000000
541.314343,-148.041188,-17246.798449,-1532.190996
541.314666,-6291.750507,-18505.148550,-2528.115143
541.314988,-11251.130318,-15396.283594,-2834.553343
541.315310,-10881.027347,-12139.377449,-4749.792088
541.315632,-7402.059420,-10881.027347,-4443.353888
541.315954,-3330.926739,-10955.047942,-1149.143247
541.316277,-2886.803174,-8068.244768,3140.991542
541.316599,-2220.617826,-7105.977043,2451.505594
541.316921,0.000000,-7254.018232,-536.266849
541.317243,888.247130,-8216.285956,-2374.896044
541.317565,0.000000,-8142.265362,-1378.971896
541.317888,-814.226536,-7179.997637,919.314598
541.318210,592.164754,-7772.162391,1455.581446
541.318532,3182.885551,-8882.471304,842.705048
541.318854,3849.070898,-9104.533087,-383.047749
541.319176,3849.070898,-9252.574275,-1608.800546
541.319499,4293.194464,-9548.656652,-2221.676944
541.319821,4145.153275,-9770.718434,-1149.143247
541.320143,1776.494261,-8438.347739,-995.924147
541.320465,-1258.350101,-8882.471304,-919.314598
541.320788,-4145.153275,-10436.903782,-1762.019645
541.321110,-6143.709319,-11991.336260,-2221.676944
541.321432,-7698.141797,-11917.315666,-1072.533697
541.321754,-7254.018232,-10288.862594,612.876398
541.322076,-4145.153275,-8586.388927,-612.876398
541.322399,0.000000,-6291.750507,536.266849
541.322721,1850.514855,-3256.906145,2451.505594
541.323043,2072.576638,-2664.741391,2681.334243
541.323365,1776.494261,-4663.297435,1608.800546
541.323687,1332.370696,-6587.832884,-229.828649
541.324010,0.000000,-9326.594869,-1455.581446
541.324332,-1184.329507,-10732.986159,-1608.800546
541.324654,148.041188,-11621.233289,-2298.286494
541.324976,1850.514855,-12435.459826,-3600.648841
541.325298,1184.329507,-13101.645173,-2681.334243
541.325621,-1924.535449,-13619.789333,-1072.533697
541.325943,-4145.153275,-13693.809927,-2834.553343
541.326265,-5107.421000,-13767.830521,-5898.935335
541.326587,-5921.647536,-13693.809927,-5209.449386
541.326909,-5773.606348,-11621.233289,-2528.115143
541.327232,-3034.844362,-10066.800811,-1991.848295
541.327554,-1332.370696,-9622.677246,383.047749
541.327876,-1184.329507,-9770.718434,3370.820191
541.328198,-2368.659014,-11325.150913,4366.744339
541.328521,-1406.391290,-11769.274478,1608.800546
541.328843,1406.391290,-9992.780217,-229.828649
541.329165,2442.679609,-5477.523971,306.438199
541.329487,4219.173869,-2072.576638,306.438199
541.329809,6735.874072,-2664.741391,0.000000
541.330132,7476.080014,-5033.400406,689.485948
541.330454,4663.297435,-7254.018232,1915.238745
541.330776,0.000000,-11843.295072,229.828649
541.331098,-3108.864956,-16876.695478,-3294.210641
541.331420,-3849.070898,-18283.086767,-3370.820191
541.331743,-3997.112087,-13619.789333,-766.095498
541.332065,-2960.823768,-7550.100608,612.876398
541.332387,74.020594,-5403.503377,995.924147
541.332709,1406.391290,-3404.947333,1532.190996
541.333031,-666.185348,-3701.029710,2911.162892
541.333354,-3330.926739,-7476.080014,3447.429741
541.333676,-3034.844362,-11917.315666,2298.286494
541.333998,0.000000,-11103.089130,1455.581446
541.334320,2442.679609,-5033.400406,1532.190996
541.334643,5107.421000,-2220.617826,1302.362347
541.334965,6883.915261,-3552.988522,2068.457845
541.335287,5033.400406,-4811.338623,2604.724693
541.335609,444.123565,-6661.853478,536.266849
541.335931,-4367.215058,-11547.212695,-4290.134789
541.336254,-5181.441594,-15766.386565,-6971.469032
541.336576,-4663.297435,-16654.633695,-5669.106685
541.336898,-4219.173869,-14508.036463,-4673.182538
541.337220,-3627.009116,-13915.871710,-3064.381992
541.337542,-3330.926739,-12731.542202,-1302.362347
541.337865,-3997.112087,-11547.212695,306.438199
541.338187,-5181.441594,-10584.944971,-1532.190996
541.338509,-4737.318029,-10584.944971,-4290.134789
541.338831,-1702.473667,-8142.265362,-3447.429741
541.339153,1850.514855,-3552.988522,-1991.848295
541.339476,5477.523971,-3404.947333,-1225.752797
541.339798,7476.080014,-6735.874072,1455.581446
541.340120,6513.812290,-7105.977043,2528.115143
541.340442,2368.659014,-7476.080014,-1608.800546
541.340764,-1036.288319,-11621.233289,-6741.640382
541.341087,-2516.700203,-15174.221811,-7584.345430
541.341409,-3330.926739,-13693.809927,-6588.421283
541.341731,-2146.597232,-11399.171507,-4673.182538
541.342053,-1406.391290,-10955.047942,-3294.210641
541.342376,-1924.535449,-10955.047942,-1685.410096
541.342698,-3034.844362,-11177.109724,-612.876398
541.343020,-3997.112087,-13027.624579,-1762.019645
541.343342,-1924.535449,-14285.974681,-2987.772442
541.343664,1628.453072,-10510.924376,-3524.039291
541.343987,4885.359217,-4663.297435,-1608.800546
541.344309,7994.224174,-2294.638420,1608.800546
541.344631,9104.533087,-2146.597232,3217.601092
541.344953,6069.688724,-2072.576638,2451.505594
541.345275,296.082377,-3256.906145,-229.828649
541.345598,-4071.132681,-7179.997637,-4366.744339
541.345920,-5921.647536,-10584.944971,-7124.688131
541.346242,-6291.750507,-12139.377449,-4443.353888
541.346564,-6587.832884,-13027.624579,-2298.286494
541.346886,-5255.462188,-14211.954086,-2221.676944
541.347209,-5255.462188,-12583.501014,-1455.581446
541.347531,-6661.853478,-11917.315666,-1685.410096
541.347853,-7994.224174,-11621.233289,-3140.991542
541.348175,-6735.874072,-12509.480420,-4979.620737
541.348498,-3775.050304,-8808.450710,-3140.991542
541.348820,1036.288319,-3478.967927,-1608.800546
541.349142,5921.647536,-3404.947333,-919.314598
541.349464,9400.615463,-5551.544565,1762.019645
541.349786,8660.409521,-6513.812290,3753.867940
541.350109,3997.112087,-6439.791695,1838.629195
541.350431,1406.391290,-10362.883188,-1991.848295
541.350753,592.164754,-12657.521608,-3064.381992
541.351075,1036.288319,-11103.089130,-3447.429741
541.351397,1036.288319,-10510.924376,-3064.381992
541.351720,1258.350101,-11177.109724,-1762.019645
541.352042,1036.288319,-11769.274478,76.609550
541.352364,-592.164754,-13027.624579,383.047749
541.352686,-2664.741391,-14952.160028,-995.924147
541.353008,-2442.679609,-15618.345376,-2374.896044
541.353331,148.041188,-11325.150913,-1378.971896
541.353653,3627.009116,-6143.709319,-1302.362347
541.353976,6661.853478,-5033.400406,-919.314598
541.354298,6957.935855,-5995.668130,1991.848295
541.354620,2960.823768,-3775.050304,3753.867940
541.354943,-2664.741391,-5107.421000,1455.581446
541.355265,-6735.874072,-9030.512492,-3140.991542
541.355587,-7846.182985,-11473.192101,-5209.449386
541.355910,-8216.285956,-10584.944971,-4826.401637
541.356232,-7179.997637,-10140.821405,-2911.162892
541.356554,-5255.462188,-11029.068536,-2068.457845
541.356877,-5551.544565,-11251.130318,-229.828649
541.357199,-8290.306550,-9178.553681,-306.438199
541.357521,-8068.244768,-11473.192101,-2374.896044
541.357844,-5699.585753,-14434.015869,-4213.525239
541.358166,-1628.453072,-10436.903782,-3140.991542
541.358489,1184.329507,-3701.029710,-1302.362347
541.358811,6661.853478,-3330.926739,459.657299
541.359133,12213.398043,-6735.874072,1378.971896
541.359456,12731.542202,-7624.121203,2451.505594
541.359778,7994.224174,-8290.306550,2911.162892
541.360100,2886.803174,-10066.800811,689.485948
541.360423,0.000000,-11621.233289,-2145.067394
541.360745,-370.102971,-9474.636058,-3447.429741
541.361067,-888.247130,-6587.832884,-4060.306139
541.361390,-2368.659014,-5329.482782,-3600.648841
541.361712,-2886.803174,-7105.977043,-1302.362347
541.362034,-3404.947333,-10288.862594,-153.219100
541.362357,-3849.070898,-14952.160028,-2604.724693
541.362679,-4737.318029,-16580.613101,-3600.648841
541.363001,-4663.297435,-12953.603985,-2911.162892
541.363324,-2368.659014,-7624.121203,-3447.429741
541.363646,1480.411884,-6291.750507,-5209.449386
541.363969,4441.235652,-6439.791695,-3064.381992
541.364291,3034.844362,-4885.359217,-1302.362347
541.364613,-592.164754,-7105.977043,-2451.505594
541.364936,-2738.761985,-13175.665768,-4213.525239
541.365258,-3552.988522,-14582.057057,-4979.620737
541.365580,-3849.070898,-11843.295072,-5286.058936
541.365903,-3330.926739,-10436.903782,-5286.058936
541.366225,-666.185348,-11695.253884,-4136.915689
541.366547,-1924.535449,-9844.739029,-1455.581446
541.366870,-4737.318029,-10066.800811,229.828649
541.367192,-5107.421000,-11991.336260,153.219100
541.367514,-1702.473667,-11621.233289,-2987.772442
541.367837,2812.782580,-7550.100608,-4443.353888
541.368159,7105.977043,-4071.132681,-1762.019645
541.368482,11769.274478,-5033.400406,1608.800546
541.368804,14137.933492,-8068.244768,4213.525239
541.369126,11547.212695,-8216.285956,3830.477490
541.369449,5181.441594,-8438.347739,842.705048
541.369771,-518.144159,-9400.615463,-3217.601092
541.370093,-3849.070898,-9474.636058,-5132.839837
541.370416,-4811.338623,-8438.347739,-5286.058936
541.370738,-3478.967927,-7476.080014,-3830.477490
541.371060,-3256.906145,-8438.347739,-3447.429741
541.371383,-4737.318029,-11325.150913,0.000000
541.371705,-7994.224174,-13989.892304,1455.581446
541.372027,-10066.800811,-15766.386565,-995.924147
541.372350,-9622.677246,-14434.015869,-3983.696590
541.372672,-6143.709319,-8364.327145,-3830.477490
541.372995,-1110.308913,-1998.556043,-3677.258390
541.373317,4737.318029,-370.102971,-1455.581446
541.373639,8882.471304,-3108.864956,1915.238745
541.373962,6735.874072,-5773.606348,2451.505594
541.374284,2516.700203,-11029.068536,1838.629195
541.374606,-666.185348,-14730.098246,-612.876398
541.374929,-2812.782580,-14211.954086,-2834.553343
541.375251,-3256.906145,-12065.356855,-3064.381992
541.375573,-666.185348,-9252.574275,-1532.190996
541.375896,370.102971,-6735.874072,-1838.629195
541.376218,370.102971,-6291.750507,-229.828649
541.376540,-1554.432478,-11325.150913,689.485948
541.376863,-3034.844362,-15544.324782,-383.047749
541.377185,-2516.700203,-15248.242405,-2145.067394
541.377508,-148.041188,-10436.903782,-1532.190996
541.377830,3627.009116,-6439.791695,-1838.629195
541.378152,7994.224174,-4959.379811,-2145.067394
541.378475,9326.594869,-4959.379811,995.924147
541.378797,5773.606348,-3997.112087,2221.676944
541.379119,-444.123565,-5995.668130,-383.047749
541.379442,-5181.441594,-11103.089130,-4136.915689
541.379764,-7105.977043,-14137.933492,-5439.278036
541.380086,-7698.141797,-12583.501014,-5669.106685
541.380409,-5995.668130,-11547.212695,-4979.620737
541.380731,-3775.050304,-10288.862594,-2987.772442
541.381053,-3701.029710,-9252.574275,-766.095498
541.381376,-4737.318029,-10140.821405,-1149.143247
541.381698,-5033.400406,-13175.665768,-2451.505594
541.382021,-4885.359217,-13545.768739,-3294.210641
541.382343,-1628.453072,-8808.450710,-1991.848295
541.382665,4071.132681,-3627.009116,-1455.581446
541.382988,10436.903782,-3108.864956,-3524.039291
541.383310,12879.583391,-4663.297435,-612.876398
541.383632,9992.780217,-5847.626942,4290.134789
541.383955,4663.297435,-7994.224174,3140.991542
541.384277,-1110.308913,-10955.047942,-2068.457845
541.384599,-4663.297435,-13027.624579,-4673.182538
541.384922,-6957.935855,-11547.212695,-4979.620737
541.385244,-6809.894666,-9326.594869,-5056.230287
541.385566,-3849.070898,-9178.553681,-4749.792088
541.385889,-2294.638420,-8660.409521,-2604.724693
541.386211,-3404.947333,-11325.150913,-766.095498
541.386534,-5181.441594,-13323.706956,153.219100
541.386856,-5699.585753,-13915.871710,-2374.896044
541.387178,-3997.112087,-12361.439231,-4826.401637
541.387501,666.185348,-9474.636058,-4596.572988
541.387823,6069.688724,-6587.832884,-2834.553343
541.388145,7846.182985,-2220.617826,0.000000
541.388468,7698.141797,-592.164754,2681.334243
541.388790,6661.853478,-5181.441594,536.266849
541.389112,4737.318029,-9770.718434,-3064.381992
541.389435,444.123565,-11103.089130,-3447.429741
541.389757,-4293.194464,-11991.336260,-1608.800546
541.390079,-4663.297435,-13915.871710,-995.924147
541.390402,-2442.679609,-12583.501014,-2374.896044
541.390724,-3923.091493,-9400.615463,-2681.334243
541.391047,-5551.544565,-10362.883188,-1455.581446
541.391369,-5551.544565,-13767.830521,-689.485948
541.391691,-3256.906145,-13397.727550,-1149.143247
541.392014,-518.144159,-7846.182985,-1072.533697
541.392336,3256.906145,-2886.803174,-2757.943793
541.392658,7328.038826,-3627.009116,-4443.353888
541.392981,9474.636058,-6587.832884,-2681.334243
541.393303,5255.462188,-7254.018232,2451.505594
541.393625,-1110.308913,-9030.512492,1685.410096
541.393948,-5033.400406,-11769.274478,-2221.676944
541.394270,-7031.956449,-14063.912898,-4596.572988
541.394592,-8438.347739,-12361.439231,-5362.668486
541.394915,-6661.853478,-11991.336260,-3524.039291
541.395237,-4367.215058,-9326.594869,-2221.676944
541.395559,-1480.411884,-8660.409521,0.000000
541.395882,-1554.432478,-10066.800811,383.047749
541.396204,-2220.617826,-11177.109724,229.828649
541.396527,-2960.823768,-10955.047942,306.438199
541.396849,444.123565,-8586.388927,-153.219100
541.397171,5107.421000,-4737.318029,-3524.039291
541.397494,9474.636058,-3627.009116,-3294.210641
541.397816,10288.862594,-4737.318029,919.314598
541.398138,8216.285956,-7698.141797,4749.792088
541.398461,4885.359217,-11251.130318,3600.648841
541.398783,814.226536,-11843.295072,-536.266849
541.399105,-3552.988522,-10436.903782,-3677.258390
541.399428,-5403.503377,-8512.368333,-4060.306139
541.399750,-4737.318029,-6735.874072,-4596.572988
541.400072,-3849.070898,-6809.894666,-4290.134789
541.400395,-5033.400406,-10288.862594,-2604.724693
541.400717,-6883.915261,-13915.871710,612.876398
541.401040,-7476.080014,-15914.427753,383.047749
541.401362,-6587.832884,-15470.304188,-1149.143247
541.401684,-3256.906145,-10362.883188,-3140.991542
541.402007,1406.391290,-6143.709319,-4903.011187
541.402329,7402.059420,-3108.864956,-3294.210641
541.402651,9696.697840,222.061783,0.000000
541.402974,7105.977043,-1036.288319,1072.533697
541.403296,4737.318029,-7772.162391,-306.438199
541.403618,2590.720797,-14211.954086,-3753.867940
541.403941,-1258.350101,-15692.365970,-5669.106685
541.404263,-4737.318029,-15988.448347,-2374.896044
541.404585,-4219.173869,-15026.180623,-306.438199
541.404908,-888.247130,-9770.718434,-1685.410096
541.405230,-1776.494261,-4441.235652,-3217.601092
541.405553,-3701.029710,-6217.729913,-1225.752797
541.405875,-4959.379811,-11917.315666,-536.266849
541.406197,-4589.276840,-12805.562797,-689.485948
541.406520,-2368.659014,-9696.697840,-1762.019645
541.406842,2442.679609,-7031.956449,-2911.162892
541.407164,7920.203579,-7476.080014,-3140.991542
541.407487,9992.780217,-6883.915261,-536.266849
541.407809,6513.812290,-5921.647536,2451.505594
541.408131,1184.329507,-6735.874072,536.266849
541.408454,-3108.864956,-9252.574275,-3064.381992
541.408776,-5995.668130,-11547.212695,-5975.544884
541.409098,-8660.409521,-11547.212695,-6588.421283
541.409421,-8882.471304,-10510.924376,-5362.668486
541.409743,-5699.585753,-11769.274478,-3677.258390
541.410066,-3923.091493,-11029.068536,-689.485948
541.410388,-3775.050304,-13841.851115,383.047749
541.410710,-4071.132681,-15618.345376,-766.095498
541.411033,-4367.215058,-14063.912898,-383.047749
541.411355,-2738.761985,-9696.697840,-306.438199
541.411677,2368.659014,-5329.482782,-1991.848295
541.412000,9696.697840,-2294.638420,-1455.581446
541.412322,12287.418637,518.144159,612.876398
541.412644,11473.192101,-1628.453072,2681.334243
541.412967,8216.285956,-7846.182985,3524.039291
541.413289,3775.050304,-11473.192101,1149.143247
541.413611,-2294.638420,-11991.336260,-1072.533697
541.413934,-6661.853478,-13027.624579,-3447.429741
541.414256,-7254.018232,-11843.295072,-5286.058936
541.414579,-6143.709319,-10362.883188,-5975.544884
541.414901,-6587.832884,-8734.430116,-3600.648841
541.415223,-6513.812290,-10955.047942,-229.828649
541.415546,-5921.647536,-12509.480420,0.000000
541.415868,-5107.421000,-12657.521608,-1072.533697
541.416190,-4737.318029,-9696.697840,-536.266849
541.416513,-1776.494261,-7402.059420,-2451.505594
541.416835,3182.885551,-6661.853478,-3447.429741
541.417157,6587.832884,-3330.926739,-306.438199
541.417480,5847.626942,-1332.370696,1225.752797
541.417802,4959.379811,-5995.668130,0.000000
541.418124,4959.379811,-11251.130318,-1072.533697
541.418447,3404.947333,-11325.150913,-2145.067394
541.418769,814.226536,-11547.212695,-2451.505594
541.419092,518.144159,-13545.768739,-1532.190996
541.419414,-296.082377,-12583.501014,-1608.800546
541.419736,-2146.597232,-9992.780217,-1149.143247
541.420059,-4367.215058,-10214.842000,-919.314598
541.420381,-4737.318029,-13767.830521,-1762.019645
541.420703,-3552.988522,-14211.954086,-1685.410096
541.421026,-1702.473667,-10510.924376,-306.438199
541.421348,2442.679609,-7994.224174,-842.705048
541.421670,7328.038826,-7031.956449,-1838.629195
541.421993,9474.636058,-5403.503377,76.609550
541.422315,6143.709319,-3849.070898,2757.943793
541.422637,1110.308913,-5477.523971,919.314598
541.422960,-3182.885551,-8438.347739,-2221.676944
541.423282,-7031.956449,-9770.718434,-4366.744339
541.423605,-8956.491898,-10436.903782,-4673.182538
541.423927,-7698.141797,-11917.315666,-4060.306139
541.424249,-6513.812290,-11843.295072,-4213.525239
541.424572,-4737.318029,-12509.480420,-995.924147
541.424894,-3701.029710,-13101.645173,-153.219100
541.425216,-3552.988522,-14508.036463,-459.657299
541.425539,-3997.112087,-13101.645173,0.000000
541.425861,-2220.617826,-7920.203579,-766.095498
541.426183,1406.391290,-4737.318029,-3217.601092
541.426506,6143.709319,-3256.906145,-1991.848295
541.426828,9178.553681,-592.164754,2604.724693
541.427150,9474.636058,-1998.556043,2987.772442
541.427473,9030.512492,-8808.450710,383.047749
541.427795,6365.771101,-14063.912898,-306.438199
541.428117,888.247130,-12361.439231,229.828649
541.428440,-4663.297435,-11103.089130,-459.657299
541.428762,-5773.606348,-11473.192101,-2451.505594
541.429085,-4811.338623,-9030.512492,-4136.915689
541.429407,-5921.647536,-5255.462188,-4519.963438
541.429729,-6217.729913,-8216.285956,-3140.991542
541.430052,-5329.482782,-13767.830521,-2451.505594
541.430374,-3627.009116,-14656.077652,-919.314598
541.430696,-2442.679609,-11991.336260,-536.266849
541.431019,148.041188,-9622.677246,-2681.334243
541.431341,2590.720797,-8438.347739,-4060.306139
541.431663,4515.256246,-6217.729913,-3524.039291
541.431986,3701.029710,-3923.091493,-1991.848295
541.432308,1332.370696,-5551.544565,-1225.752797
541.432630,222.061783,-9030.512492,-842.705048
541.432953,-666.185348,-10510.924376,-1991.848295
541.433275,-2516.700203,-10881.027347,-3294.210641
541.433598,-2664.741391,-12287.418637,-3907.087040
541.433920,-1776.494261,-12361.439231,-4979.620737
541.434242,-1480.411884,-11769.274478,-3753.867940
541.434565,-2590.720797,-11917.315666,-1302.362347
541.434887,-2664.741391,-13027.624579,-153.219100
541.435209,-2072.576638,-11917.315666,0.000000
541.435532,-518.144159,-9844.739029,-995.924147
541.435854,2664.741391,-9252.574275,-2451.505594
541.436176,5625.565159,-7846.182985,-2221.676944
541.436499,6291.750507,-4145.153275,1149.143247
541.436821,6291.750507,-3627.009116,2757.943793
541.437143,5625.565159,-6217.729913,0.000000
541.437466,3775.050304,-7920.203579,-3447.429741
541.437788,-518.144159,-7698.141797,-3217.601092
541.438111,-5477.523971,-8808.450710,-1915.238745
541.438433,-7328.038826,-12287.418637,-2145.067394
541.438755,-6957.935855,-13323.706956,-1072.533697
541.439078,-7476.080014,-10881.027347,-1532.190996
541.439400,-7105.977043,-10955.047942,-2757.943793
541.439722,-5033.400406,-12361.439231,-2911.162892
541.440045,-2960.823768,-11547.212695,-689.485948
541.440367,-2220.617826,-7179.997637,689.485948
541.440689,-296.082377,-5181.441594,-383.047749
541.441012,3256.906145,-5329.482782,-1149.143247
541.441334,5403.503377,-3256.906145,-383.047749
541.441656,5181.441594,-2886.803174,-306.438199
541.441979,3849.070898,-7476.080014,-842.705048
541.442301,2812.782580,-10288.862594,919.314598
541.442624,444.123565,-9622.677246,1302.362347
541.442946,-1998.556043,-10807.006753,-76.609550
541.443268,-1702.473667,-12509.480420,-2221.676944
541.443591,-1998.556043,-11843.295072,-3677.258390
541.443913,-2368.659014,-9992.780217,-2911.162892
541.444235,-2368.659014,-11103.089130,-1838.629195
541.444558,-888.247130,-14211.954086,-1532.190996
541.444880,-518.144159,-12879.583391,612.876398
541.445202,-148.041188,-10881.027347,459.657299
541.445525,518.144159,-9770.718434,-1302.362347
541.445847,2368.659014,-8660.409521,-2604.724693
541.446169,3701.029710,-6143.709319,-1302.362347
541.446492,2368.659014,-5477.523971,-383.047749
541.446814,1406.391290,-8586.388927,-842.705048
541.447137,0.000000,-11325.150913,-1072.533697
541.447459,-1924.535449,-9844.739029,-1455.581446
541.447781,-3330.926739,-10288.862594,-1608.800546
541.448104,-3478.967927,-11621.233289,-2757.943793
541.448426,-2960.823768,-11473.192101,-2451.505594
541.448748,-2886.803174,-9400.615463,-1762.019645
541.449071,-2072.576638,-10584.944971,-2145.067394
541.449393,-444.123565,-13693.809927,-2451.505594
541.449715,0.000000,-12805.562797,-1072.533697
541.450038,74.020594,-9178.553681,919.314598
541.450360,1036.288319,-7550.100608,153.219100
541.450682,4441.235652,-6883.915261,-766.095498
541.451005,5477.523971,-3478.967927,-306.438199
541.451327,4071.132681,-1998.556043,-153.219100
541.451650,2220.617826,-5329.482782,0.000000
541.451972,444.123565,-7254.018232,459.657299
541.452294,-1924.535449,-8068.244768,-229.828649
541.452617,-3923.091493,-9474.636058,-2145.067394
541.452939,-4737.318029,-10436.903782,-3983.696590
541.453261,-4367.215058,-10732.986159,-3907.087040
541.453584,-3849.070898,-10510.924376,-2451.505594
541.453906,-3256.906145,-11843.295072,-1608.800546
541.454228,-2368.659014,-12361.439231,-1685.410096
541.454551,-1776.494261,-9844.739029,-229.828649
541.454873,-1480.411884,-6883.915261,-1762.019645
541.455195,370.102971,-8290.306550,-3600.648841
541.455518,3182.885551,-10140.821405,-3370.820191
541.455840,3997.112087,-8808.450710,-1762.019645
541.456162,2590.720797,-8882.471304,-766.095498
541.456485,2220.617826,-10436.903782,-459.657299
541.456807,1332.370696,-9844.739029,-1149.143247
541.457129,-740.205942,-7402.059420,-2298.286494
541.457452,-2664.741391,-7179.997637,-4519.963438
541.457774,-3404.947333,-8808.450710,-4903.011187
541.458096,-3627.009116,-9548.656652,-3064.381992
541.458419,-3849.070898,-11769.274478,-2068.457845
541.458741,-3627.009116,-14952.160028,-3447.429741
541.459063,-2960.823768,-17172.777854,-3140.991542
541.459386,-1628.453072,-13989.892304,-1225.752797
541.459708,1036.288319,-9844.739029,-1532.190996
541.460030,3997.112087,-8956.491898,-3753.867940
541.460353,5699.585753,-7179.997637,-2528.115143
541.460675,4367.215058,-3034.844362,536.266849
541.460997,1628.453072,-2960.823768,383.047749
541.461320,0.000000,-7402.059420,-2221.676944
541.461642,-962.267725,-10584.944971,-3064.381992
541.461964,-3256.906145,-9844.739029,-1991.848295
541.462286,-4663.297435,-9992.780217,-1608.800546
541.462609,-3701.029710,-11843.295072,-1685.410096
541.462931,-1628.453072,-11991.336260,-1455.581446
541.463253,-1406.391290,-9104.533087,-995.924147
541.463576,-2146.597232,-9252.574275,-1225.752797
541.463898,-1702.473667,-9104.533087,-229.828649
541.464220,-444.123565,-6735.874072,0.000000
541.464543,444.123565,-5255.462188,-612.876398
541.464865,2368.659014,-6587.832884,-1608.800546
541.465187,4145.153275,-7105.977043,-536.266849
541.465510,3478.967927,-6291.750507,229.828649
541.465832,1628.453072,-8068.244768,459.657299
541.466154,0.000000,-11325.150913,-383.047749
541.466477,-2590.720797,-10066.800811,-766.095498
541.466799,-4441.235652,-8364.327145,-1608.800546
541.467121,-3404.947333,-8142.265362,-2911.162892
541.467444,-1702.473667,-7476.080014,-3524.039291
541.467766,-814.226536,-6587.832884,-2757.943793
541.468088,-1554.432478,-8734.430116,-1149.143247
541.468411,-1850.514855,-13693.809927,-766.095498
541.468733,-740.205942,-16950.716072,-766.095498
541.469055,518.144159,-15174.221811,-766.095498
541.469377,2442.679609,-11621.233289,-2987.772442
541.469700,4737.318029,-11177.109724,-3830.477490
541.470022,6439.791695,-8586.388927,-612.876398
541.470344,5107.421000,-3849.070898,1685.410096
541.470667,2294.638420,-4737.318029,-153.219100
541.470989,-592.164754,-8660.409521,-2834.553343
541.471311,-3849.070898,-11103.089130,-3600.648841
541.471634,-6513.812290,-11843.295072,-3447.429741
541.471956,-5551.544565,-13841.851115,-3370.820191
541.472278,-3701.029710,-14804.118840,-4596.572988
541.472601,-2294.638420,-12361.439231,-2528.115143
541.472923,-2960.823768,-8956.491898,612.876398
541.473245,-3997.112087,-10807.006753,459.657299
541.473568,-3182.885551,-13175.665768,-1455.581446
541.473890,-2368.659014,-10436.903782,-1915.238745
541.474212,-1110.308913,-6587.832884,-2757.943793
541.474535,2812.782580,-5551.544565,-1915.238745
541.474857,6661.853478,-4071.132681,766.095498
541.475179,7254.018232,-2590.720797,2298.286494
541.475501,4959.379811,-5181.441594,766.095498
541.475824,1628.453072,-10140.821405,-306.438199
541.476146,-1702.473667,-11991.336260,995.924147
541.476468,-2960.823768,-10510.924376,229.828649
541.476791,-2886.803174,-9474.636058,-1608.800546
541.477113,-518.144159,-8068.244768,-2068.457845
541.477435,1332.370696,-4589.276840,-306.438199
541.477758,1258.350101,-3923.091493,1149.143247
541.478080,888.247130,-9030.512492,689.485948
541.478402,-296.082377,-12435.459826,383.047749
541.478725,-444.123565,-9622.677246,-1072.533697
541.479047,222.061783,-7476.080014,-4596.572988
541.479369,3478.967927,-9844.739029,-5439.278036
541.479692,5329.482782,-10066.800811,-766.095498
541.480014,3034.844362,-5551.544565,1915.238745
541.480336,-2146.597232,-5773.606348,1072.533697
541.480659,-5181.441594,-10510.924376,-1838.629195
541.480981,-7105.977043,-12953.603985,-4596.572988
541.481303,-8216.285956,-11769.274478,-6818.249932
541.481625,-6587.832884,-11325.150913,-7048.078582
541.481948,-4071.132681,-10066.800811,-6281.983084
541.482270,-1702.473667,-11029.068536,-2681.334243
541.482592,-740.205942,-11029.068536,459.657299
541.482915,-1850.514855,-12509.480420,-766.095498
541.483237,-1702.473667,-14359.995275,-3600.648841
541.483559,74.020594,-11991.336260,-5056.230287
541.483882,3034.844362,-9696.697840,-6281.983084
541.484204,7179.997637,-9548.656652,-5822.325785
541.484526,9252.574275,-9844.739029,-229.828649
541.484849,7105.977043,-6217.729913,5132.839837
541.485171,2960.823768,-5107.421000,2681.334243
541.485493,-296.082377,-9622.677246,-2911.162892
541.485816,-4145.153275,-11917.315666,-5898.935335
541.486138,-7550.100608,-10807.006753,-5898.935335
541.486460,-7402.059420,-9844.739029,-4673.182538
541.486783,-4811.338623,-9770.718434,-3907.087040
541.487105,-1924.535449,-9030.512492,-1455.581446
541.487427,-1184.329507,-9252.574275,919.314598
541.487749,-2146.597232,-9474.636058,995.924147
541.488072,-2664.741391,-9104.533087,-995.924147
541.488394,-2072.576638,-7846.182985,-2451.505594
541.488716,370.102971,-6365.771101,-4366.744339
541.489039,3256.906145,-6883.915261,-4596.572988
541.489361,5329.482782,-7105.977043,0.000000
541.489683,4737.318029,-5921.647536,4060.306139
541.490006,2072.576638,-4441.235652,2987.772442
541.490328,-1776.494261,-6957.935855,-1225.752797
541.490650,-4589.276840,-9918.759623,-2374.896044
541.490973,-6217.729913,-10584.944971,-2528.115143
541.491295,-5995.668130,-11325.150913,-3524.039291
541.491617,-3701.029710,-11769.274478,-2374.896044
541.491940,-1924.535449,-9622.677246,689.485948
541.492262,-1184.329507,-8438.347739,2221.676944
541.492584,-740.205942,-9548.656652,153.219100
541.492907,1036.288319,-10362.883188,-1302.362347
541.493229,2960.823768,-8734.430116,-3064.381992
541.493551,5329.482782,-9474.636058,-4366.744339
541.493873,6957.935855,-11399.171507,-3140.991542
541.494196,6809.894666,-11251.130318,919.314598
541.494518,5625.565159,-8512.368333,2145.067394
541.494840,4885.359217,-8438.347739,-1762.019645
541.495163,2812.782580,-10510.924376,-5362.668486
541.495485,-1776.494261,-10807.006753,-4366.744339
541.495807,-5329.482782,-11991.336260,-1532.190996
541.496130,-5625.565159,-14211.954086,-1915.238745
541.496452,-4885.359217,-14211.954086,-3447.429741
541.496774,-5329.482782,-12435.459826,-2604.724693
541.497097,-6069.688724,-9844.739029,-1149.143247
541.497419,-3997.112087,-9844.739029,-459.657299
541.497741,-518.144159,-9400.615463,-919.314598
541.498064,2072.576638,-5403.503377,-1225.752797
541.498386,4145.153275,-3478.967927,-2374.896044
541.498708,6069.688724,-6587.832884,-2987.772442
541.499031,5847.626942,-9178.553681,153.219100
541.499353,3182.885551,-9252.574275,1915.238745
541.499675,-296.082377,-9326.594869,153.219100
541.499997,-3182.885551,-10807.006753,-1991.848295
541.500320,-4737.318029,-10955.047942,-1685.410096
541.500642,-4959.379811,-7179.997637,-1378.971896
541.500964,-4663.297435,-7105.977043,-3524.039291
541.501287,-3552.988522,-8216.285956,-2834.553343
541.501609,-3701.029710,-10362.883188,0.000000
541.501931,-5403.503377,-10436.903782,2451.505594
541.502254,-4811.338623,-11621.233289,2451.505594
541.502576,-2294.638420,-9696.697840,612.876398
541.502898,1036.288319,-4589.276840,-1149.143247
541.503221,4293.194464,-1332.370696,-1608.800546
541.503543,7254.018232,-2812.782580,-383.047749
541.503865,8142.265362,-4885.359217,0.000000
541.504188,5773.606348,-6957.935855,1455.581446
541.504510,2664.741391,-9548.656652,-766.095498
541.504832,-1554.432478,-13027.624579,-2528.115143
541.505155,-6069.688724,-14656.077652,-2911.162892
541.505477,-7772.162391,-12509.480420,-3294.210641
541.505799,-6217.729913,-10362.883188,-6052.154434
541.506121,-4885.359217,-9178.553681,-7660.954980
541.506444,-3997.112087,-10510.924376,-3907.087040
541.506766,-3108.864956,-12583.501014,-459.657299
541.507088,-2294.638420,-14804.118840,-383.047749
541.507411,-1036.288319,-13545.768739,-1532.190996
541.507733,1480.411884,-8364.327145,-2911.162892
541.508055,5625.565159,-5921.647536,-5209.449386
541.508378,10140.821405,-8438.347739,-6281.983084
541.508700,10510.924376,-9622.677246,-1608.800546
541.509022,6809.894666,-8512.368333,2911.162892
541.509345,3701.029710,-7698.141797,1762.019645
541.509667,148.041188,-10214.842000,-2911.162892
541.509989,-3034.844362,-13101.645173,-4443.353888
541.510312,-5921.647536,-12583.501014,-2987.772442
541.510634,-7254.018232,-10214.842000,-3830.477490
541.510956,-5625.565159,-9474.636058,-4903.011187
541.511279,-3775.050304,-10510.924376,-2451.505594
541.511601,-3404.947333,-11473.192101,-919.314598
541.511923,-4811.338623,-12583.501014,-459.657299
541.512245,-5329.482782,-11325.150913,-153.219100
541.512568,-2516.700203,-8068.244768,-1378.971896
541.512890,1480.411884,-5699.585753,-4596.572988
541.513212,5107.421000,-2960.823768,-3600.648841
541.513535,5107.421000,-1850.514855,-306.438199
541.513857,4737.318029,-4145.153275,1378.971896
541.514179,4145.153275,-8142.265362,1225.752797
541.514502,1554.432478,-10214.842000,0.000000
541.514824,-4293.194464,-10584.944971,-306.438199
541.515146,-7994.224174,-11473.192101,689.485948
541.515469,-7105.977043,-8808.450710,-1149.143247
541.515791,-5329.482782,-6217.729913,-5515.887586
541.516113,-2886.803174,-6735.874072,-3217.601092
541.516436,-1998.556043,-8512.368333,306.438199
541.516758,-1406.391290,-11177.109724,1915.238745
541.517080,-296.082377,-10807.006753,2374.896044
541.517403,1332.370696,-7698.141797,76.609550
541.517725,4811.338623,-8216.285956,-5822.325785
541.518047,8808.450710,-10362.883188,-6971.469032
541.518369,9548.656652,-10288.862594,-1455.581446
541.518692,6143.709319,-7920.203579,2757.943793
541.519014,2516.700203,-8586.388927,2145.067394
541.519336,-222.061783,-10658.965565,-1608.800546
541.519659,-3478.967927,-10140.821405,-4903.011187
541.519981,-5995.668130,-9770.718434,-5669.106685
541.520303,-6217.729913,-12731.542202,-6435.202183
541.520626,-4811.338623,-14878.139434,-3983.696590
541.520948,-5107.421000,-16950.716072,919.314598
541.521270,-6217.729913,-14137.933492,4903.011187
541.521593,-5477.523971,-11547.212695,2298.286494
541.521915,-2146.597232,-8808.450710,-4826.401637
541.522237,2072.576638,-6883.915261,-7660.954980
541.522560,5699.585753,-5033.400406,-4826.401637
541.522882,7179.997637,-3330.926739,1302.362347
541.523204,7402.059420,-4145.153275,4366.744339
541.523527,6439.791695,-9548.656652,1762.019645
541.523849,4515.256246,-15248.242405,-2221.676944
541.524171,0.000000,-13545.768739,-3907.087040
541.524493,-5181.441594,-9178.553681,-2834.553343
541.524816,-6661.853478,-9030.512492,0.000000
541.525138,-4737.318029,-8216.285956,-842.705048
541.525460,-3775.050304,-6883.915261,-2528.115143
541.525783,-6587.832884,-6809.894666,-153.219100
541.526105,-8364.327145,-11473.192101,2068.457845
541.526427,-6587.832884,-14730.098246,383.047749
541.526750,-3552.988522,-11399.171507,-76.609550
541.527072,222.061783,-5551.544565,536.266849
541.527394,5255.462188,-2738.761985,153.219100
541.527717,10362.883188,-3256.906145,842.705048
541.528039,11177.109724,-1554.432478,3677.258390
541.528361,7772.162391,-2516.700203,1532.190996
541.528684,3997.112087,-7698.141797,-2145.067394
541.529006,2368.659014,-11843.295072,-2221.676944
541.529328,-222.061783,-12509.480420,-2298.286494
541.529651,-3108.864956,-13841.851115,-766.095498
541.529973,-3330.926739,-13471.748144,-459.657299
541.530295,-5181.441594,-10732.986159,-2298.286494
541.530617,-6735.874072,-9992.780217,-1838.629195
541.530940,-6809.894666,-11843.295072,-1302.362347
541.531262,-6365.771101,-13175.665768,-3294.210641
541.531584,-5033.400406,-10288.862594,-4443.353888
541.531907,-1850.514855,-6439.791695,-2298.286494
541.532229,3108.864956,-7550.100608,-1685.410096
541.532551,7031.956449,-9474.636058,-1455.581446
541.532874,6735.874072,-8956.491898,-612.876398
541.533196,3034.844362,-9030.512492,-1608.800546
541.533518,962.267725,-11843.295072,-3447.429741
541.533841,74.020594,-11843.295072,-4596.572988
541.534163,-2442.679609,-10732.986159,-4903.011187
541.534485,-4737.318029,-10362.883188,-3447.429741
541.534808,-5699.585753,-9992.780217,-2528.115143
541.535130,-6143.709319,-11103.089130,-2987.772442
541.535452,-5773.606348,-12287.418637,-3524.039291
541.535775,-4515.256246,-14508.036463,-4213.525239
541.536097,-3182.885551,-14434.015869,-3753.867940
541.536419,-740.205942,-9770.718434,-306.438199
541.536741,2516.700203,-5255.462188,995.924147
541.537064,6513.812290,-4071.132681,-1225.752797
541.537386,8882.471304,-4885.359217,-2145.067394
541.537708,7550.100608,-4367.215058,-1762.019645
541.538031,4737.318029,-6439.791695,-1225.752797
541.538353,2220.617826,-9918.759623,-1608.800546
541.538675,0.000000,-10658.965565,-2068.457845
541.538998,-2886.803174,-8956.491898,-1149.143247
541.539320,-5107.421000,-7105.977043,-536.266849
541.539642,-6809.894666,-6661.853478,-3064.381992
541.539965,-7105.977043,-6587.832884,-3753.867940
541.540287,-6883.915261,-8734.430116,-4443.353888
541.540609,-6069.688724,-12361.439231,-2451.505594
541.540932,-4959.379811,-14582.057057,-689.485948
541.541254,-2812.782580,-11029.068536,1915.238745
541.541576,444.123565,-7698.141797,459.657299
541.541899,4293.194464,-6809.894666,-1915.238745
541.542221,6809.894666,-5329.482782,-1455.581446
541.542543,5625.565159,-1998.556043,-229.828649
541.542865,4441.235652,-4071.132681,-1072.533697
541.543188,5033.400406,-9400.615463,-3677.258390
541.543510,4959.379811,-12361.439231,-3447.429741
541.543832,962.267725,-11473.192101,-383.047749
541.544155,-3256.906145,-12657.521608,0.000000
541.544477,-4885.359217,-15174.221811,-1072.533697
541.544799,-4441.235652,-14211.954086,-3524.039291
541.545122,-5033.400406,-11103.089130,-4826.401637
541.545444,-6217.729913,-11029.068536,-4290.134789
541.545766,-5403.503377,-12583.501014,-1378.971896
541.546089,-1998.556043,-12213.398043,536.266849
541.546411,1480.411884,-9696.697840,689.485948
541.546733,4219.173869,-8068.244768,-1302.362347
541.547056,5699.585753,-7031.956449,-2298.286494
541.547378,6365.771101,-3849.070898,-766.095498
541.547700,5995.668130,-5107.421000,-766.095498
541.548023,5033.400406,-9622.677246,-1685.410096
541.548345,2886.803174,-12435.459826,-1455.581446
541.548667,-666.185348,-11547.212695,842.705048
541.548989,-2960.823768,-11843.295072,1455.581446
541.549312,-3182.885551,-11917.315666,-1455.581446
541.549634,-3108.864956,-11769.274478,-2757.943793
541.549956,-3478.967927,-9400.615463,-1455.581446
541.550279,-3849.070898,-10140.821405,459.657299
541.550601,-2738.761985,-11103.089130,2068.457845
541.550923,-1332.370696,-8660.409521,3370.820191
541.551246,74.020594,-5033.400406,2068.457845
541.551568,2664.741391,-3849.070898,-229.828649
541.551890,4515.256246,-4663.297435,-2145.067394
541.552213,3849.070898,-5329.482782,76.609550
541.552535,814.226536,-6883.915261,2451.505594
541.552857,-1924.535449,-8438.347739,1608.800546
541.553180,-4663.297435,-9474.636058,0.000000
541.553502,-6661.853478,-8142.265362,-2298.286494
541.553824,-7254.018232,-8142.265362,-4596.572988
541.554147,-7772.162391,-9326.594869,-6358.592633
541.554469,-7105.977043,-10955.047942,-4213.525239
541.554791,-6587.832884,-12509.480420,-306.438199
541.555113,-4441.235652,-13323.706956,0.000000
541.555436,-2368.659014,-13693.809927,-1072.533697
541.555758,0.000000,-11769.274478,-383.047749
541.556080,1702.473667,-8216.285956,-306.438199
541.556403,5625.565159,-5477.523971,-1378.971896
541.556725,9474.636058,-4515.256246,-2221.676944
541.557048,11325.150913,-3923.091493,-2451.505594
541.557370,10807.006753,-7772.162391,-995.924147
541.557692,8586.388927,-10658.965565,229.828649
541.558015,5033.400406,-10955.047942,229.828649
541.558337,370.102971,-11473.192101,-1838.629195
541.558660,-2368.659014,-12879.583391,-4443.353888
541.558982,-5033.400406,-11547.212695,-6894.859482
541.559304,-6661.853478,-10955.047942,-6358.592633
541.559627,-7179.997637,-11473.192101,-4060.306139
541.559949,-5107.421000,-14804.118840,-4136.915689
541.560272,-2590.720797,-15174.221811,-4213.525239
541.560594,-1406.391290,-11029.068536,-1685.410096
541.560916,-740.205942,-8142.265362,-1455.581446
541.561239,1184.329507,-9548.656652,-3753.867940
541.561561,2738.761985,-8734.430116,-2451.505594
541.561884,1036.288319,-4589.276840,-1532.190996
541.562206,-444.123565,-3701.029710,-3370.820191
541.562528,814.226536,-7550.100608,-3907.087040
541.562851,666.185348,-9252.574275,-2374.896044
541.563173,-2146.597232,-8586.388927,153.219100
541.563496,-4663.297435,-10436.903782,689.485948
541.563818,-4811.338623,-11177.109724,-1762.019645
541.564140,-3997.112087,-9474.636058,-4060.306139
541.564463,-4367.215058,-8068.244768,-4136.915689
541.564785,-4367.215058,-10140.821405,-3294.210641
541.565108,-1998.556043,-12361.439231,-1455.581446
541.565430,370.102971,-10066.800811,1532.190996
541.565753,3404.947333,-7994.224174,2145.067394
541.566075,6513.812290,-9030.512492,-2145.067394
541.566397,7624.121203,-8956.491898,-2451.505594
541.566720,6365.771101,-5995.668130,1991.848295
541.567042,3256.906145,-3923.091493,2374.896044
541.567365,1776.494261,-5107.421000,-383.047749
541.567687,296.082377,-6661.853478,-1608.800546
541.568009,-2812.782580,-5921.647536,-536.266849
541.568332,-5033.400406,-8216.285956,-1225.752797
541.568654,-5477.523971,-11325.150913,-2451.505594
541.568977,-4293.194464,-13323.706956,-1455.581446
541.569299,-3108.864956,-13175.665768,-1762.019645
541.569621,-2738.761985,-13545.768739,-1532.190996
541.569944,-2590.720797,-13619.789333,766.095498
541.570266,-1628.453072,-10955.047942,1685.410096
541.570589,-296.082377,-7105.977043,-536.266849
541.570911,2516.700203,-6365.771101,-3677.258390
541.571233,4737.318029,-7179.997637,-4749.792088
541.571556,4959.379811,-8068.244768,-1991.848295
541.571878,4071.132681,-9918.759623,2068.457845
541.572201,1998.556043,-12213.398043,2681.334243
541.572523,-296.082377,-12509.480420,612.876398
