#time,accel_x,accel_y,accel_z
443.887904,-666.185348,-9548.656652,-1762.019645
443.888226,-666.185348,-9326.594869,-1915.238745
443.888548,-296.082377,-9326.594869,-2374.896044
443.888870,-370.102971,-9252.574275,-1685.410096
443.889192,-296.082377,-9326.594869,-1991.848295
443.889514,-518.144159,-9548.656652,-1838.629195
443.889835,-444.123565,-9548.656652,-1762.019645
443.890157,-518.144159,-9474.636058,-1762.019645
443.890479,-296.082377,-9104.533087,-1608.800546
443.890801,-518.144159,-9326.594869,-1685.410096
443.891123,-222.061783,-9400.615463,-1915.238745
443.891445,-370.102971,-9474.636058,-1762.019645
443.891767,-444.123565,-9400.615463,-1532.190996
443.892089,-740.205942,-9400.615463,-1838.629195
443.892411,-148.041188,-9400.615463,-1532.190996
443.892733,-444.123565,-9252.574275,-1532.190996
443.893055,-444.123565,-9326.594869,-1762.019645
443.893377,-370.102971,-9474.636058,-1378.971896
443.893698,-222.061783,-9252.574275,-1991.848295
443.894020,-74.020594,-9326.594869,-1378.971896
443.894342,0.000000,-9474.636058,-1608.800546
443.894664,-148.041188,-9548.656652,-1455.581446
443.894986,-148.041188,-9548.656652,-1225.752797
443.895308,-222.061783,-9474.636058,-1149.143247
443.895630,74.020594,-9252.574275,-995.924147
443.895952,0.000000,-9326.594869,-1302.362347
443.896274,0.000000,-8956.491898,-1302.362347
443.896596,-148.041188,-9178.553681,-1378.971896
443.896918,0.000000,-9474.636058,-1149.143247
443.897240,0.000000,-9400.615463,-995.924147
443.897561,0.000000,-9474.636058,-1608.800546
443.897883,-148.041188,-9474.636058,-1378.971896
443.898205,0.000000,-9400.615463,-1378.971896
443.898527,0.000000,-9400.615463,-1302.362347
443.898849,-370.102971,-9252.574275,-1225.752797
443.899171,-444.123565,-8956.491898,-1455.581446
443.899493,-296.082377,-9252.574275,-1378.971896
443.899815,-370.102971,-9400.615463,-1302.362347
443.900137,-370.102971,-9400.615463,-995.924147
443.900459,-592.164754,-9326.594869,-995.924147
443.900781,-222.061783,-8956.491898,-1225.752797
443.901103,-370.102971,-9178.553681,-1225.752797
443.901424,-592.164754,-9252.574275,-1149.143247
443.901746,-444.123565,-9326.594869,-1532.190996
443.902068,-814.226536,-9548.656652,-1532.190996
443.902390,-740.205942,-9696.697840,-1149.143247
443.902712,-444.123565,-9400.615463,-1838.629195
443.903034,-888.247130,-9474.636058,-1302.362347
443.903356,-444.123565,-9104.533087,-1685.410096
443.903678,296.082377,-9030.512492,-1685.410096
443.904000,1036.288319,-9548.656652,-1838.629195
443.904322,1110.308913,-10066.800811,-1532.190996
443.904644,592.164754,-9622.677246,-229.828649
443.904966,74.020594,-9548.656652,-689.485948
443.905287,-296.082377,-9474.636058,-1302.362347
443.905609,-444.123565,-9474.636058,-1838.629195
443.905931,-1184.329507,-8882.471304,-2221.676944
443.906253,-1184.329507,-8068.244768,-1608.800546
443.906575,-370.102971,-8734.430116,-2298.286494
443.906897,148.041188,-9918.759623,-2068.457845
443.907219,74.020594,-10658.965565,-1149.143247
443.907541,-370.102971,-9770.718434,-995.924147
443.907863,592.164754,-9474.636058,-995.924147
443.908185,1924.535449,-10510.924376,-2451.505594
443.908507,1776.494261,-10436.903782,-1455.581446
443.908829,1184.329507,-9104.533087,-612.876398
443.909150,1850.514855,-8290.306550,-766.095498
443.909472,3552.988522,-9030.512492,-1149.143247
443.909794,3923.091493,-9474.636058,-919.314598
443.910116,2960.823768,-9030.512492,-306.438199
443.910438,2368.659014,-8068.244768,-229.828649
443.910760,3256.906145,-8438.347739,-689.485948
443.911082,3182.885551,-9400.615463,-1225.752797
443.911404,2516.700203,-8512.368333,-842.705048
443.911726,2516.700203,-8068.244768,-1302.362347
443.912048,3404.947333,-8512.368333,-2604.724693
443.912370,4145.153275,-9918.759623,-2145.067394
443.912691,3997.112087,-10214.842000,-1302.362347
443.913013,3701.029710,-9844.739029,-1838.629195
443.913335,3849.070898,-9844.739029,-1378.971896
443.913657,4737.318029,-11103.089130,-1991.848295
443.913979,4663.297435,-10732.986159,-1991.848295
443.914301,3923.091493,-9622.677246,-1915.238745
443.914623,3997.112087,-9474.636058,-1225.752797
443.914945,4441.235652,-8512.368333,-1302.362347
443.915267,4589.276840,-8068.244768,-1685.410096
443.915589,4811.338623,-8216.285956,-1762.019645
443.915911,5107.421000,-8660.409521,-1225.752797
443.916233,5551.544565,-9252.574275,-1302.362347
443.916554,5995.668130,-9252.574275,-919.314598
443.916876,5477.523971,-9326.594869,-995.924147
443.917198,4515.256246,-9474.636058,-1302.362347
443.917520,2886.803174,-9622.677246,-2374.896044
443.917842,1406.391290,-10658.965565,-2451.505594
443.918164,370.102971,-11695.253884,-1838.629195
443.918486,0.000000,-12361.439231,-1762.019645
443.918808,-814.226536,-13175.665768,-229.828649
443.919130,-666.185348,-12953.603985,766.095498
443.919452,0.000000,-11843.295072,1532.190996
443.919774,888.247130,-10066.800811,1455.581446
443.920096,888.247130,-8142.265362,1838.629195
443.920417,0.000000,-6439.791695,1455.581446
443.920739,-888.247130,-4737.318029,459.657299
443.921061,-1036.288319,-3997.112087,-995.924147
443.921383,148.041188,-4515.256246,-2221.676944
443.921705,1628.453072,-4959.379811,-2757.943793
443.922027,3849.070898,-5699.585753,-3600.648841
443.922349,5773.606348,-7994.224174,-3983.696590
443.922671,6809.894666,-10362.883188,-3830.477490
443.922993,6883.915261,-12805.562797,-3447.429741
443.923315,5921.647536,-14137.933492,-2834.553343
443.923637,5625.565159,-14508.036463,-2604.724693
443.923959,4885.359217,-14211.954086,-1838.629195
443.924280,3627.009116,-13175.665768,0.000000
443.924602,1702.473667,-11399.171507,1838.629195
443.924924,740.205942,-9326.594869,3294.210641
443.925246,592.164754,-6883.915261,2834.553343
443.925568,814.226536,-5181.441594,2681.334243
443.925890,-148.041188,-3923.091493,2987.772442
443.926212,-444.123565,-3552.988522,1991.848295
443.926534,74.020594,-4885.359217,-383.047749
443.926856,888.247130,-6883.915261,-919.314598
443.927178,740.205942,-8142.265362,-842.705048
443.927500,148.041188,-9474.636058,-3370.820191
443.927822,444.123565,-11769.274478,-5822.325785
443.928143,1332.370696,-14508.036463,-6205.373534
443.928465,1406.391290,-16876.695478,-5822.325785
443.928787,666.185348,-17098.757260,-5362.668486
443.929109,370.102971,-14508.036463,-3370.820191
443.929431,1998.556043,-11251.130318,-3447.429741
443.929753,4071.132681,-9622.677246,-3830.477490
443.930075,5995.668130,-8586.388927,-2145.067394
443.930397,6587.832884,-8216.285956,153.219100
443.930719,7105.977043,-7772.162391,3064.381992
443.931041,7920.203579,-6365.771101,4290.134789
443.931363,8956.491898,-4663.297435,3600.648841
443.931685,8808.450710,-4219.173869,1302.362347
443.932006,6661.853478,-4959.379811,2374.896044
443.932328,3256.906145,-3775.050304,2987.772442
443.932650,2368.659014,-5329.482782,-459.657299
443.932972,2368.659014,-9474.636058,-4213.525239
443.933294,1184.329507,-11103.089130,-3983.696590
443.933616,-962.267725,-11251.130318,-4366.744339
443.933938,-2368.659014,-14285.974681,-3983.696590
443.934260,-2738.761985,-17394.839637,-3370.820191
443.934582,-4219.173869,-14878.139434,-4290.134789
443.934904,-4663.297435,-9696.697840,-6205.373534
443.935226,-1554.432478,-9548.656652,-6435.202183
443.935548,2146.597232,-10732.986159,-5439.278036
443.935869,4959.379811,-10140.821405,-3907.087040
443.936191,6365.771101,-8956.491898,0.000000
443.936513,8438.347739,-8882.471304,2451.505594
443.936835,9400.615463,-8586.388927,2221.676944
443.937157,8068.244768,-8364.327145,689.485948
443.937479,6217.729913,-7254.018232,0.000000
443.937801,4367.215058,-7402.059420,0.000000
443.938123,2960.823768,-8364.327145,919.314598
443.938445,296.082377,-9030.512492,1455.581446
443.938767,-1554.432478,-8956.491898,1608.800546
443.939089,-1998.556043,-9178.553681,689.485948
443.939411,-814.226536,-10658.965565,-1915.238745
443.939732,-444.123565,-11103.089130,-2757.943793
443.940054,0.000000,-9770.718434,-1762.019645
443.940376,962.267725,-9252.574275,-383.047749
443.940698,2738.761985,-8882.471304,-1302.362347
443.941020,4589.276840,-8586.388927,-3370.820191
443.941342,5255.462188,-9178.553681,-4366.744339
443.941664,4737.318029,-9622.677246,-2528.115143
443.941986,4145.153275,-9400.615463,-842.705048
443.942308,3552.988522,-8660.409521,-459.657299
443.942630,2812.782580,-7698.141797,-383.047749
443.942952,2146.597232,-7179.997637,-842.705048
443.943273,1702.473667,-7476.080014,-2221.676944
443.943595,1776.494261,-8882.471304,-3217.601092
443.943917,888.247130,-10510.924376,-1149.143247
443.944239,-1258.350101,-9400.615463,3600.648841
443.944561,-1036.288319,-7550.100608,2834.553343
443.944883,-296.082377,-9252.574275,-459.657299
443.945205,2590.720797,-11399.171507,-3447.429741
443.945527,3849.070898,-12657.521608,-3447.429741
443.945849,3404.947333,-13619.789333,-689.485948
443.946171,4219.173869,-14211.954086,3447.429741
443.946493,5625.565159,-12583.501014,3140.991542
443.946815,6439.791695,-9696.697840,-536.266849
443.947136,7179.997637,-7402.059420,-1762.019645
443.947458,7920.203579,-7698.141797,-2451.505594
443.947780,9104.533087,-8660.409521,-3140.991542
443.948102,9474.636058,-9400.615463,-1149.143247
443.948424,9400.615463,-7402.059420,2298.286494
443.948746,7179.997637,-6513.812290,2451.505594
443.949068,4663.297435,-6069.688724,536.266849
443.949390,962.267725,-4367.215058,-1915.238745
443.949712,-2886.803174,-3330.926739,-4443.353888
443.950034,-4515.256246,-6809.894666,-5056.230287
443.950356,-5107.421000,-11547.212695,-2834.553343
443.950678,-3923.091493,-12287.418637,-2757.943793
443.950999,-2442.679609,-12361.439231,-4290.134789
443.951321,-148.041188,-13693.809927,-2757.943793
443.951643,-148.041188,-13545.768739,-2604.724693
443.951965,-1850.514855,-12065.356855,-3753.867940
443.952287,-518.144159,-10436.903782,-4903.011187
443.952609,2516.700203,-11917.315666,-4826.401637
443.952931,4811.338623,-13767.830521,-4366.744339
443.953253,6957.935855,-13619.789333,-689.485948
443.953574,8216.285956,-10881.027347,2374.896044
443.953896,10140.821405,-7698.141797,3600.648841
443.954218,11769.274478,-6587.832884,3600.648841
443.954539,11103.089130,-6217.729913,919.314598
443.954861,9326.594869,-6809.894666,-995.924147
443.955183,7994.224174,-5921.647536,0.000000
443.955505,5403.503377,-4885.359217,536.266849
443.955826,1406.391290,-6291.750507,-229.828649
443.956148,-814.226536,-7550.100608,459.657299
443.956470,-3034.844362,-7624.121203,-1378.971896
443.956791,-4737.318029,-8512.368333,-5209.449386
443.957113,-5699.585753,-12583.501014,-5515.887586
443.957435,-7254.018232,-14508.036463,-3370.820191
443.957757,-9104.533087,-12509.480420,-2757.943793
443.958078,-9326.594869,-9992.780217,-2834.553343
443.958400,-7105.977043,-11917.315666,-5362.668486
443.958722,-4071.132681,-14211.954086,-5745.716235
443.959043,-2516.700203,-12731.542202,-2681.334243
443.959365,296.082377,-9844.739029,1072.533697
443.959687,4959.379811,-7994.224174,1991.848295
443.960008,9844.739029,-6217.729913,1455.581446
443.960330,10807.006753,-4367.215058,1225.752797
443.960652,10140.821405,-2516.700203,1685.410096
443.960974,9400.615463,-3404.947333,1991.848295
443.961295,8808.450710,-5995.668130,1455.581446
443.961617,8142.265362,-7920.203579,612.876398
443.961939,7254.018232,-8808.450710,-919.314598
443.962260,6513.812290,-9992.780217,-2145.067394
443.962582,5773.606348,-11991.336260,-1685.410096
443.962904,3330.926739,-13471.748144,-612.876398
443.963225,518.144159,-12657.521608,-766.095498
443.963547,-1924.535449,-11991.336260,-2374.896044
443.963869,-2738.761985,-13915.871710,-3447.429741
443.964191,-2738.761985,-13915.871710,-3447.429741
443.964512,-2146.597232,-10881.027347,-3064.381992
443.964834,-1036.288319,-9400.615463,-995.924147
443.965156,-592.164754,-9474.636058,1838.629195
443.965477,-740.205942,-8512.368333,2911.162892
443.965799,-962.267725,-6143.709319,306.438199
443.966121,888.247130,-6217.729913,-2604.724693
443.966443,1406.391290,-7031.956449,-1685.410096
443.966764,-518.144159,-5033.400406,0.000000
443.967086,-1776.494261,-3552.988522,-459.657299
443.967408,-1184.329507,-6957.935855,-3294.210641
443.967729,-1184.329507,-9548.656652,-4290.134789
443.968051,-1480.411884,-11621.233289,-4443.353888
443.968373,-1036.288319,-14952.160028,-3217.601092
443.968694,888.247130,-15766.386565,-1455.581446
443.969016,2886.803174,-15174.221811,-1532.190996
443.969338,4663.297435,-13619.789333,-1915.238745
443.969660,6809.894666,-11547.212695,-1302.362347
443.969981,6217.729913,-9992.780217,-306.438199
443.970303,4145.153275,-8364.327145,536.266849
443.970625,3849.070898,-7846.182985,2068.457845
443.970946,4367.215058,-7476.080014,1762.019645
443.971268,3478.967927,-6513.812290,1149.143247
443.971590,148.041188,-5551.544565,1685.410096
443.971911,-2516.700203,-2516.700203,459.657299
443.972233,-4737.318029,-3256.906145,-919.314598
443.972555,-6735.874072,-7402.059420,-2604.724693
443.972877,-9178.553681,-9992.780217,-2757.943793
443.973198,-9770.718434,-11103.089130,-3983.696590
443.973520,-8956.491898,-11325.150913,-4903.011187
443.973842,-7402.059420,-12583.501014,-4903.011187
443.974163,-6291.750507,-12509.480420,-4826.401637
443.974485,-5255.462188,-11177.109724,-4519.963438
443.974807,-3108.864956,-9474.636058,-3907.087040
443.975129,0.000000,-9104.533087,-4903.011187
443.975450,2294.638420,-9622.677246,-4826.401637
443.975772,2368.659014,-9622.677246,-1608.800546
443.976094,1850.514855,-7994.224174,-229.828649
443.976415,2368.659014,-6291.750507,-1072.533697
443.976737,3404.947333,-7105.977043,-1378.971896
443.977059,1480.411884,-8364.327145,-459.657299
443.977380,-1776.494261,-8660.409521,536.266849
443.977702,-2146.597232,-9252.574275,689.485948
443.978024,296.082377,-11103.089130,0.000000
443.978346,2886.803174,-12139.377449,-612.876398
443.978667,3627.009116,-10658.965565,0.000000
443.978989,3775.050304,-9548.656652,0.000000
443.979311,3923.091493,-10140.821405,-153.219100
443.979632,3997.112087,-11325.150913,-842.705048
443.979954,3552.988522,-10732.986159,-2451.505594
443.980276,2664.741391,-9696.697840,-3064.381992
443.980597,1406.391290,-8956.491898,-2604.724693
443.980919,0.000000,-8808.450710,-2604.724693
443.981241,-2146.597232,-9104.533087,-2451.505594
443.981563,-4367.215058,-8734.430116,-1378.971896
443.981884,-6291.750507,-8882.471304,-1378.971896
443.982206,-7105.977043,-9178.553681,-2604.724693
443.982528,-7105.977043,-9770.718434,-2374.896044
443.982849,-5921.647536,-9400.615463,-1838.629195
443.983171,-4737.318029,-8882.471304,-153.219100
443.983493,-3256.906145,-7698.141797,0.000000
443.983815,-1702.473667,-7550.100608,306.438199
443.984136,370.102971,-7846.182985,536.266849
443.984458,3330.926739,-7698.141797,-612.876398
443.984780,5329.482782,-9030.512492,-689.485948
443.985101,6735.874072,-9844.739029,0.000000
443.985423,6439.791695,-9844.739029,995.924147
443.985745,5551.544565,-9178.553681,919.314598
443.986066,5255.462188,-9696.697840,-229.828649
443.986388,4589.276840,-10658.965565,-1532.190996
443.986710,3923.091493,-10362.883188,-1532.190996
443.987032,2664.741391,-10066.800811,-536.266849
443.987353,2368.659014,-10140.821405,229.828649
443.987675,1702.473667,-9474.636058,-766.095498
443.987997,0.000000,-8216.285956,-766.095498
443.988318,-2146.597232,-8364.327145,-689.485948
443.988640,-3256.906145,-8660.409521,-842.705048
443.988962,-3552.988522,-9104.533087,-1608.800546
443.989283,-2812.782580,-10066.800811,-1991.848295
443.989605,-2590.720797,-9992.780217,-1302.362347
443.989927,-2960.823768,-9030.512492,-919.314598
443.990249,-4219.173869,-8142.265362,-1455.581446
443.990570,-5107.421000,-9030.512492,-3217.601092
443.990892,-5921.647536,-9548.656652,-4596.572988
443.991214,-5773.606348,-10288.862594,-4903.011187
443.991535,-5107.421000,-11251.130318,-2987.772442
443.991857,-2886.803174,-12213.398043,-2068.457845
443.992179,-962.267725,-11621.233289,-1378.971896
443.992501,518.144159,-9992.780217,-1532.190996
443.992822,1628.453072,-9474.636058,-1532.190996
443.993144,1776.494261,-9030.512492,-1072.533697
443.993466,2294.638420,-8068.244768,-689.485948
443.993787,2590.720797,-7994.224174,-995.924147
443.994109,2886.803174,-8290.306550,-842.705048
443.994431,1998.556043,-9104.533087,0.000000
443.994752,1036.288319,-8438.347739,229.828649
443.995074,0.000000,-9474.636058,-536.266849
443.995396,-814.226536,-10288.862594,-2528.115143
443.995718,-2516.700203,-9696.697840,-1915.238745
443.996039,-3849.070898,-8882.471304,-1608.800546
443.996361,-3997.112087,-9178.553681,-1915.238745
443.996683,-3034.844362,-9326.594869,-2374.896044
443.997004,-2738.761985,-9474.636058,-2604.724693
443.997326,-2738.761985,-8956.491898,-2451.505594
443.997648,-1924.535449,-8956.491898,-1991.848295
443.997969,0.000000,-9104.533087,-2298.286494
443.998291,1924.535449,-9844.739029,-2451.505594
443.998613,2590.720797,-9326.594869,-919.314598
443.998935,1924.535449,-8660.409521,-766.095498
443.999256,518.144159,-7105.977043,-919.314598
443.999578,0.000000,-6883.915261,-2298.286494
443.999900,-444.123565,-7328.038826,-4213.525239
444.000221,-1184.329507,-8438.347739,-2451.505594
444.000543,-2294.638420,-8956.491898,-919.314598
444.000865,-2220.617826,-10066.800811,-459.657299
444.001187,-296.082377,-11399.171507,-919.314598
444.001508,1258.350101,-12509.480420,-1685.410096
444.001830,1554.432478,-12731.542202,-536.266849
444.002152,1036.288319,-10807.006753,-306.438199
444.002473,1554.432478,-9474.636058,-536.266849
444.002795,2516.700203,-9992.780217,-1149.143247
444.003117,3627.009116,-10881.027347,-1225.752797
444.003438,3627.009116,-9844.739029,-766.095498
444.003760,3182.885551,-9178.553681,-1225.752797
444.004082,2590.720797,-8808.450710,-536.266849
444.004404,1554.432478,-9844.739029,-1378.971896
444.004725,-962.267725,-9178.553681,-1915.238745
444.005047,-2590.720797,-8512.368333,-1302.362347
444.005369,-3108.864956,-9548.656652,-689.485948
444.005690,-2738.761985,-11103.089130,-1838.629195
444.006012,-3404.947333,-9992.780217,-1838.629195
444.006334,-3627.009116,-8956.491898,-383.047749
444.006655,-3108.864956,-8808.450710,0.000000
444.006977,-2072.576638,-7772.162391,-842.705048
444.007299,-1332.370696,-6957.935855,-1838.629195
444.007621,-148.041188,-7624.121203,-1991.848295
444.007942,888.247130,-9326.594869,-1838.629195
444.008264,1110.308913,-9992.780217,-536.266849
444.008586,148.041188,-10214.842000,536.266849
444.008907,-962.267725,-9844.739029,76.609550
444.009229,-1110.308913,-9252.574275,-1149.143247
444.009551,-1480.411884,-9548.656652,-1608.800546
444.009873,-962.267725,-8808.450710,-689.485948
444.010194,0.000000,-7698.141797,-612.876398
444.010516,666.185348,-7179.997637,-536.266849
444.010838,888.247130,-8512.368333,-153.219100
444.011159,-148.041188,-8290.306550,306.438199
444.011481,-1184.329507,-8290.306550,-842.705048
444.011803,-592.164754,-9252.574275,-2145.067394
444.012124,518.144159,-10584.944971,-2145.067394
444.012446,1332.370696,-11547.212695,-1915.238745
444.012768,740.205942,-10658.965565,-766.095498
444.013090,370.102971,-9548.656652,76.609550
444.013411,-962.267725,-9400.615463,-1838.629195
444.013733,-3034.844362,-8734.430116,-2528.115143
444.014055,-4441.235652,-9844.739029,-2757.943793
444.014376,-4145.153275,-10066.800811,-2834.553343
444.014698,-3404.947333,-10732.986159,-2451.505594
444.015020,-2960.823768,-11103.089130,-995.924147
444.015341,-2368.659014,-10584.944971,-766.095498
444.015663,-2146.597232,-9326.594869,-1532.190996
444.015985,-1480.411884,-8734.430116,-1838.629195
444.016307,-592.164754,-8438.347739,-2298.286494
444.016628,1110.308913,-8364.327145,-2757.943793
444.016950,2368.659014,-8956.491898,-2451.505594
444.017272,2368.659014,-9918.759623,153.219100
444.017593,2220.617826,-10066.800811,153.219100
444.017915,888.247130,-8808.450710,-1991.848295
444.018237,592.164754,-9696.697840,-3140.991542
444.018559,-222.061783,-11251.130318,-2681.334243
444.018880,-1258.350101,-10658.965565,-1532.190996
444.019202,-1036.288319,-9548.656652,-995.924147
444.019524,592.164754,-9474.636058,-229.828649
444.019845,1554.432478,-9030.512492,-459.657299
444.020167,814.226536,-7550.100608,-1532.190996
444.020489,-518.144159,-6957.935855,-1532.190996
444.020810,-666.185348,-7105.977043,-459.657299
444.021132,518.144159,-8364.327145,-1991.848295
444.021454,1406.391290,-9992.780217,-2221.676944
444.021776,2220.617826,-10066.800811,-612.876398
444.022097,2294.638420,-9770.718434,-229.828649
444.022419,1628.453072,-8808.450710,-1149.143247
444.022741,1184.329507,-8586.388927,-2451.505594
444.023062,-962.267725,-8142.265362,-2911.162892
444.023384,-1554.432478,-8586.388927,-2834.553343
444.023706,-1776.494261,-9326.594869,-2451.505594
444.024027,-1258.350101,-10732.986159,-1838.629195
444.024349,-666.185348,-11547.212695,-995.924147
444.024671,-740.205942,-10955.047942,-229.828649
444.024993,-1480.411884,-10362.883188,-536.266849
444.025314,-1850.514855,-10066.800811,-1455.581446
444.025636,-1036.288319,-9548.656652,-1225.752797
444.025958,666.185348,-8660.409521,-1378.971896
444.026279,1702.473667,-8882.471304,-2068.457845
444.026601,2146.597232,-9252.574275,-842.705048
444.026923,1406.391290,-8734.430116,536.266849
444.027244,-296.082377,-9030.512492,76.609550
444.027566,-1258.350101,-8512.368333,-2068.457845
444.027888,-1628.453072,-9178.553681,-3600.648841
444.028210,-2220.617826,-10584.944971,-2451.505594
444.028531,-2738.761985,-11103.089130,-766.095498
444.028853,-1924.535449,-10140.821405,-766.095498
444.029175,-740.205942,-9548.656652,-1608.800546
444.029496,-370.102971,-9548.656652,-766.095498
444.029818,-2442.679609,-7698.141797,-689.485948
444.030140,-3034.844362,-6365.771101,-1915.238745
444.030462,-2442.679609,-6661.853478,-3217.601092
444.030783,-1628.453072,-9548.656652,-3600.648841
444.031105,-1332.370696,-10510.924376,-1378.971896
444.031427,-1554.432478,-10066.800811,-153.219100
444.031748,-1554.432478,-9622.677246,-842.705048
444.032070,-1332.370696,-10214.842000,-1455.581446
444.032392,-1924.535449,-10288.862594,-1608.800546
444.032713,-2960.823768,-8956.491898,-1838.629195
444.033035,-1332.370696,-8660.409521,-2221.676944
444.033357,74.020594,-9548.656652,-1991.848295
444.033679,1184.329507,-9474.636058,-766.095498
444.034000,888.247130,-8734.430116,76.609550
444.034322,1110.308913,-8808.450710,-383.047749
444.034644,1776.494261,-9326.594869,-1838.629195
444.034965,2368.659014,-9548.656652,-1915.238745
444.035287,2960.823768,-9992.780217,-1838.629195
444.035609,2590.720797,-9548.656652,-1378.971896
444.035930,1702.473667,-8808.450710,-1149.143247
444.036252,296.082377,-9474.636058,-1532.190996
444.036574,-592.164754,-9696.697840,-2221.676944
444.036896,-2220.617826,-9844.739029,-3524.039291
444.037217,-3108.864956,-10288.862594,-3217.601092
444.037539,-2738.761985,-11695.253884,-1225.752797
444.037861,-1998.556043,-11843.295072,-919.314598
444.038182,-1776.494261,-10288.862594,-1225.752797
444.038504,-1406.391290,-9178.553681,-689.485948
444.038826,-518.144159,-8512.368333,-689.485948
444.039148,-370.102971,-6587.832884,-1455.581446
444.039469,-296.082377,-5403.503377,-1532.190996
444.039791,1332.370696,-6883.915261,-1149.143247
444.040113,3034.844362,-8882.471304,-1685.410096
444.040434,2590.720797,-9918.759623,-689.485948
444.040756,592.164754,-9474.636058,1072.533697
444.041078,-1332.370696,-9474.636058,-689.485948
444.041399,-2146.597232,-9844.739029,-3600.648841
444.041721,-2368.659014,-10584.944971,-2987.772442
444.042043,-1110.308913,-10955.047942,-2451.505594
444.042365,666.185348,-9696.697840,-3064.381992
444.042686,2664.741391,-9030.512492,-459.657299
444.043008,2664.741391,-8882.471304,1685.410096
444.043330,2294.638420,-8586.388927,229.828649
444.043651,1480.411884,-6957.935855,-2987.772442
444.043973,1776.494261,-8290.306550,-3294.210641
444.044295,1406.391290,-9918.759623,-1532.190996
444.044616,814.226536,-9474.636058,-689.485948
444.044938,370.102971,-9252.574275,-459.657299
444.045260,888.247130,-9252.574275,0.000000
444.045582,222.061783,-9918.759623,-2451.505594
444.045903,-1776.494261,-9178.553681,-3907.087040
444.046225,-3108.864956,-9474.636058,-2987.772442
444.046547,-2960.823768,-10362.883188,-1915.238745
444.046868,-1998.556043,-10807.006753,-2221.676944
444.047190,-1480.411884,-10732.986159,-1302.362347
444.047512,-2220.617826,-10732.986159,-459.657299
444.047834,-2072.576638,-10584.944971,-1608.800546
444.048155,-1998.556043,-9992.780217,-2911.162892
444.048477,-1776.494261,-9992.780217,-1532.190996
444.048799,-814.226536,-9326.594869,0.000000
444.049120,592.164754,-8216.285956,-842.705048
444.049442,1406.391290,-8068.244768,-2145.067394
444.049764,1036.288319,-9104.533087,-1072.533697
444.050085,-444.123565,-8882.471304,-919.314598
444.050407,-1850.514855,-8142.265362,-2068.457845
444.050729,-2516.700203,-9252.574275,-2451.505594
444.051051,-2368.659014,-10732.986159,-1302.362347
444.051372,-1554.432478,-10436.903782,-1685.410096
444.051694,-444.123565,-9474.636058,-1915.238745
444.052016,222.061783,-9104.533087,-919.314598
444.052337,444.123565,-9030.512492,-153.219100
444.052659,-1258.350101,-7550.100608,-1302.362347
444.052981,-2812.782580,-7105.977043,-2145.067394
444.053302,-2146.597232,-7550.100608,-2221.676944
444.053624,0.000000,-9178.553681,-2604.724693
444.053946,444.123565,-9622.677246,-3064.381992
444.054267,0.000000,-9400.615463,-766.095498
444.054589,-148.041188,-9474.636058,0.000000
444.054911,-296.082377,-9770.718434,-1915.238745
444.055232,-1110.308913,-9474.636058,-2834.553343
444.055554,-1554.432478,-9400.615463,-1838.629195
444.055876,-962.267725,-9622.677246,-1991.848295
444.056197,-222.061783,-9844.739029,-1149.143247
444.056519,74.020594,-9992.780217,153.219100
444.056841,592.164754,-9400.615463,766.095498
444.057162,1332.370696,-8364.327145,-229.828649
444.057484,1480.411884,-8290.306550,-2221.676944
444.057806,1332.370696,-8882.471304,-1685.410096
444.058127,1628.453072,-9252.574275,-1608.800546
444.058449,2368.659014,-9548.656652,-2068.457845
444.058771,2294.638420,-9844.739029,-1149.143247
444.059092,888.247130,-10288.862594,-383.047749
444.059414,-1850.514855,-9252.574275,-2221.676944
444.059736,-3256.906145,-9178.553681,-3753.867940
444.060057,-3849.070898,-11547.212695,-3524.039291
444.060379,-3182.885551,-12435.459826,-2604.724693
444.060701,-2220.617826,-11621.233289,-1991.848295
444.061022,-592.164754,-10732.986159,-1225.752797
444.061344,222.061783,-10881.027347,153.219100
444.061666,814.226536,-9252.574275,-383.047749
444.061987,592.164754,-7031.956449,-2604.724693
444.062309,1110.308913,-6809.894666,-2451.505594
444.062631,2738.761985,-8216.285956,-689.485948
444.062952,3034.844362,-7476.080014,-612.876398
444.063274,3404.947333,-8364.327145,-689.485948
444.063596,2812.782580,-9104.533087,306.438199
444.063917,814.226536,-9178.553681,-842.705048
444.064239,-1110.308913,-8882.471304,-2451.505594
444.064561,-2812.782580,-9252.574275,-2528.115143
444.064882,-3108.864956,-10140.821405,-1915.238745
444.065204,-2368.659014,-9770.718434,-1532.190996
444.065526,-1702.473667,-9548.656652,-1225.752797
444.065847,-1258.350101,-9030.512492,-536.266849
444.066169,-1036.288319,-8438.347739,-689.485948
444.066491,-1110.308913,-8216.285956,-1991.848295
444.066812,0.000000,-8216.285956,-2374.896044
444.067134,888.247130,-8882.471304,-1072.533697
444.067456,962.267725,-9252.574275,-383.047749
444.067777,666.185348,-8882.471304,-1072.533697
444.068099,148.041188,-9474.636058,-1225.752797
444.068421,-740.205942,-9326.594869,-2604.724693
444.068742,-1924.535449,-9326.594869,-3830.477490
444.069064,-2664.741391,-9474.636058,-3524.039291
444.069386,-2960.823768,-9696.697840,-2221.676944
444.069707,-2368.659014,-11325.150913,-766.095498
444.070029,-1776.494261,-11917.315666,-1149.143247
444.070351,-1184.329507,-11399.171507,-1302.362347
444.070672,-740.205942,-9918.759623,-1532.190996
444.070994,-740.205942,-9326.594869,-1838.629195
444.071316,-444.123565,-8290.306550,-1532.190996
444.071637,518.144159,-8586.388927,-995.924147
444.071959,1406.391290,-9400.615463,-842.705048
444.072281,1998.556043,-9474.636058,-1149.143247
444.072602,1554.432478,-9474.636058,-2068.457845
444.072924,814.226536,-8734.430116,-2145.067394
444.073246,-222.061783,-8956.491898,-2451.505594
444.073567,-1924.535449,-9178.553681,-2911.162892
444.073889,-2886.803174,-9326.594869,-2451.505594
444.074211,-2516.700203,-10140.821405,-2298.286494
444.074532,-1998.556043,-10362.883188,-2604.724693
444.074854,-1480.411884,-9474.636058,-1685.410096
444.075176,-1036.288319,-9474.636058,-995.924147
444.075497,-666.185348,-9104.533087,-1685.410096
444.075819,0.000000,-8364.327145,-2221.676944
444.076141,74.020594,-7846.182985,-995.924147
444.076462,888.247130,-7550.100608,-306.438199
444.076784,1554.432478,-8068.244768,-1915.238745
444.077106,1554.432478,-9104.533087,-1608.800546
444.077427,296.082377,-9548.656652,-766.095498
444.077749,-666.185348,-9400.615463,-1225.752797
444.078071,-666.185348,-9474.636058,-1455.581446
444.078392,-1184.329507,-10362.883188,-2068.457845
444.078714,-1480.411884,-10140.821405,-689.485948
444.079036,-962.267725,-9770.718434,-766.095498
444.079357,814.226536,-9400.615463,-1302.362347
444.079679,1998.556043,-9030.512492,-1149.143247
444.080001,2368.659014,-8364.327145,-919.314598
444.080322,2368.659014,-7846.182985,-612.876398
444.080644,2368.659014,-8734.430116,-1225.752797
444.080966,2516.700203,-9696.697840,-1378.971896
444.081287,2294.638420,-11029.068536,-689.485948
444.081609,1110.308913,-9696.697840,-229.828649
444.081931,-296.082377,-9474.636058,-995.924147
444.082252,-2368.659014,-9622.677246,-1532.190996
444.082574,-4071.132681,-9104.533087,-2221.676944
444.082896,-5181.441594,-9030.512492,-2604.724693
444.083217,-4589.276840,-9548.656652,-2451.505594
444.083539,-3108.864956,-10658.965565,-2221.676944
444.083861,-2590.720797,-11177.109724,-1225.752797
444.084182,-2146.597232,-10584.944971,-612.876398
444.084504,-1110.308913,-10066.800811,-612.876398
444.084825,296.082377,-9622.677246,-1838.629195
444.085147,1258.350101,-9474.636058,-1455.581446
444.085469,1332.370696,-8290.306550,-459.657299
444.085790,2220.617826,-7698.141797,-459.657299
444.086112,3775.050304,-8808.450710,-1685.410096
444.086434,3923.091493,-9696.697840,-1762.019645
444.086755,2368.659014,-9252.574275,-1378.971896
444.087077,-148.041188,-8734.430116,-1149.143247
444.087399,-1924.535449,-8808.450710,-1608.800546
444.087720,-2664.741391,-9400.615463,-2911.162892
444.088042,-3034.844362,-9696.697840,-2451.505594
444.088364,-3627.009116,-9992.780217,-1225.752797
444.088685,-2886.803174,-9400.615463,-1225.752797
444.089007,-1998.556043,-8882.471304,-1072.533697
444.089329,-1332.370696,-9622.677246,-766.095498
444.089650,-1850.514855,-9178.553681,0.000000
444.089972,-1480.411884,-7846.182985,-383.047749
444.090294,592.164754,-7179.997637,-2374.896044
444.090615,1702.473667,-8216.285956,-2681.334243
444.090937,1480.411884,-8808.450710,-2068.457845
444.091259,-296.082377,-8438.347739,-1378.971896
444.091580,-962.267725,-9104.533087,-2145.067394
444.091902,-1332.370696,-10510.924376,-3217.601092
444.092224,-1924.535449,-11399.171507,-3753.867940
444.092545,-2442.679609,-11399.171507,-2068.457845
444.092867,-1628.453072,-11325.150913,-1532.190996
444.093189,74.020594,-10732.986159,-1915.238745
444.093510,666.185348,-9548.656652,-1225.752797
444.093832,592.164754,-8364.327145,-383.047749
444.094154,888.247130,-8216.285956,-1608.800546
444.094475,1184.329507,-9104.533087,-1455.581446
444.094797,1924.535449,-9252.574275,-995.924147
444.095119,2368.659014,-9622.677246,-536.266849
444.095440,2072.576638,-9770.718434,-229.828649
444.095762,814.226536,-9400.615463,306.438199
444.096084,-370.102971,-8142.265362,-612.876398
444.096405,-1480.411884,-8142.265362,-2451.505594
444.096727,-2220.617826,-8660.409521,-3294.210641
444.097049,-2960.823768,-9030.512492,-2451.505594
444.097370,-3034.844362,-9770.718434,-2145.067394
444.097692,-2294.638420,-10658.965565,-1991.848295
444.098014,-1184.329507,-10955.047942,-2451.505594
444.098335,-814.226536,-10732.986159,-2757.943793
444.098657,-1036.288319,-10881.027347,-2145.067394
444.098979,-1258.350101,-10214.842000,-919.314598
444.099300,-1554.432478,-8438.347739,-995.924147
444.099622,-370.102971,-7994.224174,-1915.238745
444.099944,1554.432478,-8438.347739,-2298.286494
444.100265,2072.576638,-7772.162391,-1685.410096
444.100587,2146.597232,-7698.141797,-383.047749
444.100909,2072.576638,-7920.203579,153.219100
444.101230,888.247130,-9178.553681,-689.485948
444.101552,-370.102971,-9844.739029,-842.705048
444.101874,-1110.308913,-10584.944971,-689.485948
444.102195,-1184.329507,-10362.883188,-1532.190996
444.102517,-296.082377,-9178.553681,-1838.629195
444.102839,1110.308913,-9326.594869,-1532.190996
444.103160,518.144159,-9548.656652,-842.705048
444.103482,148.041188,-9622.677246,-919.314598
444.103804,0.000000,-8734.430116,-1455.581446
444.104125,370.102971,-8734.430116,-1685.410096
444.104447,592.164754,-9474.636058,-2757.943793
444.104769,-370.102971,-9844.739029,-1915.238745
444.105090,-1702.473667,-10510.924376,-689.485948
444.105412,-3404.947333,-10881.027347,-766.095498
444.105734,-4071.132681,-9770.718434,-1149.143247
444.106055,-3775.050304,-8956.491898,-1072.533697
444.106377,-3108.864956,-8586.388927,-1838.629195
444.106699,-1998.556043,-9252.574275,-1608.800546
444.107020,-962.267725,-8586.388927,-229.828649
444.107342,-370.102971,-8142.265362,153.219100
444.107664,222.061783,-8956.491898,-229.828649
444.107985,0.000000,-9622.677246,-1302.362347
444.108307,0.000000,-9474.636058,-1608.800546
444.108629,740.205942,-9992.780217,-1225.752797
444.108950,2072.576638,-10510.924376,-612.876398
444.109272,2442.679609,-9252.574275,-459.657299
444.109594,3108.864956,-8364.327145,-612.876398
444.109915,1850.514855,-7179.997637,-1608.800546
444.110237,370.102971,-7624.121203,-2604.724693
444.110559,-1628.453072,-8734.430116,-2528.115143
444.110880,-3108.864956,-9770.718434,-1685.410096
444.111202,-3034.844362,-10362.883188,-1225.752797
444.111524,-2072.576638,-11029.068536,-1838.629195
444.111845,-2146.597232,-11029.068536,-536.266849
444.112167,-1850.514855,-10066.800811,-383.047749
444.112489,-1702.473667,-8956.491898,-1991.848295
444.112810,-592.164754,-7994.224174,-2298.286494
444.113132,888.247130,-7920.203579,-1302.362347
444.113454,1036.288319,-8068.244768,-1532.190996
444.113775,1702.473667,-8142.265362,-1915.238745
444.114097,1554.432478,-8808.450710,-1532.190996
444.114419,888.247130,-9474.636058,-2451.505594
444.114740,-444.123565,-10807.006753,-2681.334243
444.115062,-1924.535449,-10807.006753,-2528.115143
444.115384,-2072.576638,-11399.171507,-2221.676944
444.115705,-740.205942,-11917.315666,-2451.505594
444.116027,74.020594,-11325.150913,-2528.115143
444.116349,0.000000,-10214.842000,-1149.143247
444.116670,-296.082377,-8142.265362,76.609550
444.116992,444.123565,-8734.430116,-1838.629195
444.117314,222.061783,-8660.409521,-2604.724693
444.117635,-370.102971,-8586.388927,-229.828649
444.117957,-888.247130,-9104.533087,0.000000
444.118279,296.082377,-8956.491898,-1225.752797
444.118600,592.164754,-9252.574275,-1302.362347
444.118922,148.041188,-9548.656652,-842.705048
444.119244,-962.267725,-8956.491898,-459.657299
444.119565,-1554.432478,-7402.059420,-1302.362347
444.119887,-2072.576638,-8142.265362,-2374.896044
444.120209,-1924.535449,-10140.821405,-1608.800546
444.120530,-2146.597232,-9696.697840,-2298.286494
444.120852,-2442.679609,-9548.656652,-2145.067394
444.121174,-1998.556043,-10066.800811,-306.438199
444.121495,-1332.370696,-9770.718434,-766.095498
444.121817,-888.247130,-8882.471304,-2298.286494
444.122139,-370.102971,-8808.450710,-1685.410096
444.122460,592.164754,-9326.594869,-536.266849
444.122782,1776.494261,-8660.409521,-689.485948
444.123104,2072.576638,-7772.162391,-612.876398
444.123425,2220.617826,-8438.347739,0.000000
444.123747,1332.370696,-8660.409521,-612.876398
444.124069,0.000000,-8290.306550,-1762.019645
444.124390,-814.226536,-8956.491898,-1685.410096
444.124712,-296.082377,-9844.739029,-1225.752797
444.125034,592.164754,-10510.924376,-1685.410096
444.125355,740.205942,-10362.883188,-2221.676944
444.125677,1036.288319,-10807.006753,-1225.752797
444.125999,1110.308913,-10362.883188,-1302.362347
444.126320,518.144159,-9622.677246,-2145.067394
444.126642,-222.061783,-9326.594869,-1838.629195
444.126964,-888.247130,-8660.409521,-2604.724693
444.127285,-740.205942,-8956.491898,-2757.943793
444.127607,-148.041188,-10436.903782,-2451.505594
444.127928,-444.123565,-11473.192101,-1149.143247
444.128250,-1702.473667,-10436.903782,-995.924147
444.128572,-2960.823768,-9474.636058,-842.705048
444.128893,-3627.009116,-9548.656652,-1302.362347
444.129215,-3256.906145,-9844.739029,-1991.848295
444.129537,-2368.659014,-9030.512492,-2528.115143
444.129858,-740.205942,-8956.491898,-2068.457845
444.130180,518.144159,-9178.553681,-1302.362347
444.130502,370.102971,-8808.450710,306.438199
444.130823,0.000000,-9548.656652,76.609550
444.131145,-296.082377,-9474.636058,-1302.362347
444.131467,888.247130,-9252.574275,-2374.896044
444.131788,2294.638420,-9104.533087,-2298.286494
444.132110,3108.864956,-8586.388927,-612.876398
444.132432,2368.659014,-8068.244768,459.657299
444.132753,1184.329507,-7994.224174,-306.438199
444.133075,296.082377,-8882.471304,-2145.067394
444.133397,-1480.411884,-8882.471304,-2757.943793
444.133718,-3775.050304,-8882.471304,-2221.676944
444.134040,-4663.297435,-8956.491898,-229.828649
444.134362,-3552.988522,-9622.677246,-1072.533697
444.134683,-1998.556043,-9844.739029,-1991.848295
444.135005,-1184.329507,-9770.718434,-612.876398
444.135327,-1184.329507,-9104.533087,1838.629195
444.135648,-222.061783,-7402.059420,-306.438199
444.135970,1036.288319,-6439.791695,-2834.553343
444.136292,2294.638420,-8512.368333,-3217.601092
444.136613,2294.638420,-10066.800811,-1532.190996
444.136935,1406.391290,-10436.903782,-459.657299
444.137257,222.061783,-9770.718434,-1302.362347
444.137578,148.041188,-10362.883188,-2298.286494
444.137900,-740.205942,-11251.130318,-3294.210641
444.138222,-1776.494261,-11325.150913,-2681.334243
444.138543,-1406.391290,-10881.027347,-2374.896044
444.138865,296.082377,-11029.068536,-2068.457845
444.139187,740.205942,-10436.903782,-1225.752797
444.139508,74.020594,-9474.636058,153.219100
444.139830,-1036.288319,-9178.553681,-842.705048
444.140152,-1702.473667,-8660.409521,-2221.676944
444.140473,-1332.370696,-8512.368333,-2221.676944
444.140795,-962.267725,-7402.059420,-1685.410096
444.141117,0.000000,-9030.512492,-1225.752797
444.141438,148.041188,-9770.718434,-383.047749
444.141760,148.041188,-10584.944971,0.000000
444.142082,-222.061783,-9918.759623,-1762.019645
444.142403,-888.247130,-9252.574275,-2221.676944
444.142725,-2220.617826,-9030.512492,-2757.943793
444.143047,-2146.597232,-9326.594869,-2298.286494
444.143368,-1036.288319,-9474.636058,-2451.505594
444.143690,222.061783,-10436.903782,-1455.581446
444.144012,518.144159,-10436.903782,0.000000
444.144333,148.041188,-8734.430116,-536.266849
444.144655,-296.082377,-8142.265362,-536.266849
444.144977,0.000000,-8290.306550,-536.266849
444.145298,370.102971,-7550.100608,-1532.190996
444.145620,1110.308913,-7105.977043,-1838.629195
444.145942,1036.288319,-6809.894666,0.000000
444.146263,2368.659014,-8364.327145,0.000000
444.146585,2368.659014,-9326.594869,-1838.629195
444.146907,1036.288319,-9474.636058,-1608.800546
444.147228,-1036.288319,-9992.780217,76.609550
444.147550,-1924.535449,-9622.677246,-536.266849
444.147872,-888.247130,-9474.636058,-3294.210641
444.148193,-370.102971,-9622.677246,-2987.772442
444.148515,-592.164754,-10436.903782,-1915.238745
444.148837,-740.205942,-9178.553681,-383.047749
444.149158,-666.185348,-7846.182985,-1378.971896
444.149480,148.041188,-8956.491898,-2374.896044
444.149802,148.041188,-10066.800811,-2374.896044
444.150123,-370.102971,-9918.759623,-2604.724693
444.150445,-592.164754,-11029.068536,-1302.362347
444.150767,-740.205942,-11621.233289,0.000000
444.151088,-1628.453072,-10288.862594,-1378.971896
444.151410,-2516.700203,-9622.677246,-3294.210641
444.151732,-3108.864956,-9622.677246,-2374.896044
444.152053,-2368.659014,-9918.759623,-2528.115143
444.152375,-296.082377,-9992.780217,-2604.724693
444.152697,1702.473667,-10658.965565,-766.095498
444.153018,1924.535449,-10807.006753,766.095498
444.153340,1332.370696,-10436.903782,919.314598
444.153662,-296.082377,-9770.718434,0.000000
444.153984,-444.123565,-9104.533087,-1532.190996
444.154305,-296.082377,-7698.141797,-3064.381992
444.154627,740.205942,-7031.956449,-2604.724693
444.154949,1628.453072,-7476.080014,-306.438199
444.155271,1258.350101,-7550.100608,306.438199
444.155592,962.267725,-8586.388927,-995.924147
444.155914,-444.123565,-9474.636058,-2528.115143
444.156236,-2220.617826,-10658.965565,-2834.553343
444.156557,-4737.318029,-9844.739029,-2374.896044
444.156879,-4885.359217,-9252.574275,-1991.848295
444.157201,-3108.864956,-9252.574275,-2221.676944
444.157523,-1184.329507,-9548.656652,-2374.896044
444.157844,-370.102971,-9474.636058,-689.485948
444.158166,296.082377,-7920.203579,153.219100
444.158488,888.247130,-7698.141797,-766.095498
444.158810,1850.514855,-7920.203579,-1149.143247
444.159131,1998.556043,-7920.203579,-1378.971896
444.159453,2368.659014,-8512.368333,-1532.190996
444.159775,3330.926739,-9104.533087,-1838.629195
444.160096,3256.906145,-9474.636058,-1532.190996
444.160418,2220.617826,-9400.615463,-766.095498
444.160740,148.041188,-9400.615463,-612.876398
444.161062,-962.267725,-10807.006753,-1378.971896
444.161383,-740.205942,-11769.274478,-2528.115143
444.161705,-148.041188,-12065.356855,-3600.648841
444.162027,-296.082377,-11029.068536,-1608.800546
444.162349,-370.102971,-10214.842000,383.047749
444.162670,-962.267725,-9844.739029,-306.438199
444.162992,-1850.514855,-8808.450710,-2068.457845
444.163314,-2072.576638,-8364.327145,-2374.896044
444.163635,-1776.494261,-9252.574275,-2451.505594
444.163957,-666.185348,-9770.718434,-2681.334243
444.164279,148.041188,-10066.800811,-1455.581446
444.164601,222.061783,-10214.842000,153.219100
444.164922,148.041188,-9474.636058,-229.828649
444.165244,-370.102971,-8882.471304,-2221.676944
444.165566,-1998.556043,-8956.491898,-3524.039291
444.165888,-2072.576638,-9178.553681,-2911.162892
444.166209,-888.247130,-9474.636058,-1915.238745
444.166531,444.123565,-10510.924376,-1149.143247
444.166853,1776.494261,-11029.068536,0.000000
444.167174,1924.535449,-9548.656652,229.828649
444.167496,1776.494261,-8216.285956,-1072.533697
444.167818,1702.473667,-7994.224174,-1838.629195
444.168140,1628.453072,-7846.182985,-1608.800546
444.168461,2146.597232,-7105.977043,-689.485948
444.168783,2368.659014,-7179.997637,-306.438199
444.169105,1776.494261,-8438.347739,0.000000
444.169426,444.123565,-8956.491898,-459.657299
444.169748,-1406.391290,-9918.759623,-1838.629195
444.170070,-3701.029710,-9474.636058,-2451.505594
444.170392,-4515.256246,-9918.759623,-1685.410096
444.170713,-4737.318029,-10214.842000,-1455.581446
444.171035,-3923.091493,-9474.636058,-1608.800546
444.171357,-2294.638420,-9104.533087,-2451.505594
444.171679,-1332.370696,-8512.368333,-2374.896044
444.172000,-666.185348,-9400.615463,-1838.629195
444.172322,-814.226536,-9474.636058,-2068.457845
444.172644,0.000000,-9770.718434,-2451.505594
444.172965,740.205942,-10288.862594,-2068.457845
444.173287,962.267725,-10807.006753,-1225.752797
444.173609,814.226536,-10658.965565,-612.876398
444.173931,592.164754,-9548.656652,-919.314598
444.174252,-666.185348,-9400.615463,-1915.238745
444.174574,-2294.638420,-9696.697840,-2145.067394
444.174896,-2886.803174,-9474.636058,-1838.629195
444.175218,-2590.720797,-10732.986159,-1225.752797
444.175539,-1036.288319,-10436.903782,-766.095498
444.175861,1184.329507,-10881.027347,-536.266849
444.176183,1480.411884,-9844.739029,-306.438199
444.176504,1332.370696,-9474.636058,842.705048
444.176826,0.000000,-9326.594869,153.219100
444.177148,-740.205942,-7698.141797,-1532.190996
444.177470,74.020594,-6735.874072,-2374.896044
444.177791,1332.370696,-8660.409521,-2834.553343
444.178113,1184.329507,-9104.533087,-1608.800546
444.178435,74.020594,-8364.327145,0.000000
444.178757,-1036.288319,-7994.224174,-1072.533697
444.179078,-2294.638420,-9622.677246,-2374.896044
444.179400,-4071.132681,-10066.800811,-3217.601092
444.179722,-5033.400406,-9474.636058,-3140.991542
444.180043,-3923.091493,-9474.636058,-2451.505594
444.180365,-2072.576638,-9770.718434,-1608.800546
444.180687,-370.102971,-9326.594869,-459.657299
444.181009,296.082377,-9178.553681,76.609550
444.181330,962.267725,-8438.347739,-153.219100
444.181652,2220.617826,-8142.265362,-1608.800546
444.181974,3701.029710,-8364.327145,-1455.581446
444.182296,4441.235652,-8882.471304,-689.485948
444.182617,4367.215058,-8512.368333,766.095498
444.182939,3849.070898,-8956.491898,153.219100
444.183261,2960.823768,-9252.574275,-995.924147
444.183582,1554.432478,-9474.636058,-2298.286494
444.183904,-592.164754,-9548.656652,-2528.115143
444.184226,-2072.576638,-9770.718434,-2757.943793
444.184548,-1406.391290,-11103.089130,-1838.629195
444.184869,-592.164754,-12657.521608,-1685.410096
444.185191,-148.041188,-12435.459826,-1149.143247
444.185513,-444.123565,-10658.965565,-306.438199
444.185835,-740.205942,-8956.491898,-1532.190996
444.186156,-1480.411884,-8290.306550,-2451.505594
444.186478,-814.226536,-7772.162391,-3217.601092
444.186800,-370.102971,-8142.265362,-2451.505594
444.187121,296.082377,-9252.574275,-2068.457845
444.187443,0.000000,-9770.718434,-1072.533697
444.187765,-1258.350101,-9178.553681,-689.485948
444.188087,-2368.659014,-8808.450710,-1302.362347
444.188408,-2812.782580,-9696.697840,-2911.162892
444.188730,-2738.761985,-9400.615463,-3217.601092
444.189052,-2072.576638,-8660.409521,-2221.676944
444.189374,0.000000,-9252.574275,-1915.238745
444.189695,888.247130,-9918.759623,-536.266849
444.190017,296.082377,-8956.491898,536.266849
444.190339,-296.082377,-9178.553681,0.000000
444.190660,-370.102971,-8956.491898,-2298.286494
444.190982,-296.082377,-8364.327145,-3064.381992
444.191304,222.061783,-7920.203579,-1838.629195
444.191626,1776.494261,-9178.553681,-459.657299
444.191947,2146.597232,-9178.553681,0.000000
444.192269,1776.494261,-9474.636058,-689.485948
444.192591,444.123565,-9548.656652,-1532.190996
444.192913,-1702.473667,-9474.636058,-2145.067394
444.193234,-3701.029710,-9622.677246,-3140.991542
444.193556,-4293.194464,-10288.862594,-2757.943793
444.193878,-2886.803174,-10584.944971,-2604.724693
444.194199,-1258.350101,-10584.944971,-2451.505594
444.194521,592.164754,-10584.944971,-995.924147
444.194843,1480.411884,-9548.656652,-76.609550
444.195165,1332.370696,-9030.512492,-766.095498
444.195486,1110.308913,-8808.450710,-1532.190996
444.195808,1850.514855,-9104.533087,-1685.410096
444.196130,1184.329507,-9104.533087,-1532.190996
444.196452,518.144159,-9326.594869,-383.047749
444.196773,-518.144159,-9474.636058,76.609550
444.197095,-1480.411884,-8808.450710,-766.095498
444.197417,-1924.535449,-8956.491898,-1991.848295
444.197738,-2886.803174,-9622.677246,-2374.896044
444.198060,-4367.215058,-10288.862594,-1455.581446
444.198382,-3849.070898,-10066.800811,-1302.362347
444.198704,-2812.782580,-10732.986159,-1762.019645
444.199025,-1332.370696,-11695.253884,-1762.019645
444.199347,-1036.288319,-10066.800811,-612.876398
444.199669,-1110.308913,-7994.224174,-689.485948
444.199991,-370.102971,-7476.080014,-1302.362347
444.200312,814.226536,-7105.977043,-2068.457845
444.200634,2590.720797,-8438.347739,-2451.505594
444.200956,3478.967927,-9696.697840,-1378.971896
444.201277,3330.926739,-9400.615463,689.485948
444.201599,2368.659014,-8290.306550,76.609550
444.201921,1184.329507,-8882.471304,-1455.581446
444.202243,-1036.288319,-9474.636058,-1762.019645
444.202564,-3330.926739,-9252.574275,-1608.800546
444.202886,-3034.844362,-8734.430116,-1915.238745
444.203208,-1036.288319,-9400.615463,-1762.019645
444.203530,74.020594,-9622.677246,-919.314598
444.203851,0.000000,-9474.636058,536.266849
444.204173,74.020594,-8882.471304,306.438199
444.204495,666.185348,-8068.244768,-1838.629195
444.204816,592.164754,-9030.512492,-2757.943793
444.205138,1110.308913,-10214.842000,-1532.190996
444.205460,1406.391290,-9992.780217,-1302.362347
444.205782,1850.514855,-9548.656652,-689.485948
444.206103,1776.494261,-10066.800811,76.609550
444.206425,518.144159,-9992.780217,-995.924147
444.206747,-666.185348,-8364.327145,-2528.115143
444.207069,-2294.638420,-7550.100608,-3600.648841
444.207390,-2664.741391,-9696.697840,-3064.381992
444.207712,-2368.659014,-10140.821405,-2451.505594
444.208034,-1850.514855,-10436.903782,-2451.505594
444.208355,-1332.370696,-11843.295072,-842.705048
444.208677,-1332.370696,-11177.109724,-153.219100
444.208999,-1702.473667,-9400.615463,-2451.505594
444.209321,-740.205942,-9474.636058,-2834.553343
444.209642,814.226536,-9844.739029,-1225.752797
444.209964,1924.535449,-9252.574275,-995.924147
444.210286,1998.556043,-8364.327145,-536.266849
444.210608,666.185348,-8290.306550,689.485948
444.210929,444.123565,-8808.450710,0.000000
444.211251,-666.185348,-8956.491898,-2834.553343
444.211573,-2072.576638,-9400.615463,-2911.162892
444.211894,-2590.720797,-9178.553681,-1302.362347
444.212216,-1924.535449,-9548.656652,-1225.752797
444.212538,-518.144159,-10066.800811,-1455.581446
444.212860,0.000000,-10214.842000,-766.095498
444.213181,-666.185348,-9030.512492,-1149.143247
444.213503,-1036.288319,-7920.203579,-2145.067394
444.213825,-296.082377,-8068.244768,-2911.162892
444.214147,0.000000,-8586.388927,-2681.334243
444.214468,814.226536,-9400.615463,-1991.848295
444.214790,444.123565,-9326.594869,-1378.971896
444.215112,0.000000,-9770.718434,-536.266849
444.215433,-1036.288319,-10658.965565,-383.047749
444.215755,-2664.741391,-9474.636058,-2068.457845
444.216077,-3404.947333,-8586.388927,-2757.943793
444.216399,-2738.761985,-8660.409521,-2298.286494
444.216720,-1776.494261,-9178.553681,-1149.143247
444.217042,-1184.329507,-8882.471304,-536.266849
444.217364,-444.123565,-8068.244768,-229.828649
444.217686,666.185348,-8956.491898,-459.657299
444.218007,1332.370696,-9622.677246,-2374.896044
444.218329,2072.576638,-10288.862594,-2834.553343
444.218651,2960.823768,-10584.944971,-1149.143247
444.218972,4737.318029,-10510.924376,-995.924147
444.219294,4737.318029,-9844.739029,-842.705048
444.219616,3552.988522,-8882.471304,-612.876398
444.219938,1480.411884,-9178.553681,-1532.190996
444.220259,-740.205942,-9400.615463,-3294.210641
444.220581,-3478.967927,-9252.574275,-3600.648841
444.220903,-4811.338623,-9770.718434,-1608.800546
444.221225,-4959.379811,-11325.150913,-1991.848295
444.221546,-4811.338623,-11399.171507,-1455.581446
444.221868,-4589.276840,-10584.944971,-1608.800546
444.222190,-3775.050304,-9474.636058,-1532.190996
444.222511,-2294.638420,-9030.512492,-1608.800546
444.222833,-1332.370696,-7624.121203,-2757.943793
444.223155,-370.102971,-8438.347739,-2528.115143
444.223477,1258.350101,-8586.388927,-995.924147
444.223798,2442.679609,-9622.677246,-459.657299
444.224120,2590.720797,-9844.739029,-383.047749
444.224442,2368.659014,-9474.636058,-689.485948
444.224764,814.226536,-9030.512492,-1378.971896
444.225085,-888.247130,-9770.718434,-1838.629195
444.225407,-1406.391290,-9622.677246,-1838.629195
444.225729,-1036.288319,-8808.450710,-2145.067394
444.226050,0.000000,-8438.347739,-2145.067394
444.226372,0.000000,-9474.636058,-306.438199
444.226694,-592.164754,-8586.388927,1149.143247
444.227016,-888.247130,-7402.059420,-536.266849
444.227337,-1110.308913,-8068.244768,-2221.676944
444.227659,-518.144159,-9104.533087,-1991.848295
444.227981,-666.185348,-9400.615463,-1149.143247
444.228303,370.102971,-9178.553681,-689.485948
444.228624,2072.576638,-9400.615463,-766.095498
444.228946,3256.906145,-9400.615463,-1532.190996
444.229268,2368.659014,-9104.533087,-2374.896044
444.229589,-518.144159,-8586.388927,-1991.848295
444.229911,-1850.514855,-8660.409521,-2374.896044
444.230233,-1924.535449,-9400.615463,-3677.258390
444.230555,-1036.288319,-11029.068536,-3830.477490
444.230876,-1036.288319,-11843.295072,-2068.457845
444.231198,-1110.308913,-11621.233289,-842.705048
444.231520,-1036.288319,-10140.821405,-919.314598
444.231842,-148.041188,-10066.800811,-766.095498
444.232163,0.000000,-9992.780217,-1225.752797
444.232485,-148.041188,-9178.553681,-1685.410096
444.232807,518.144159,-8586.388927,-766.095498
444.233128,1332.370696,-8438.347739,383.047749
444.233450,2368.659014,-8438.347739,306.438199
444.233772,1924.535449,-7846.182985,-1302.362347
444.234094,592.164754,-8882.471304,-1532.190996
444.234415,-518.144159,-10288.862594,-1149.143247
444.234737,-1332.370696,-11103.089130,-1685.410096
444.235059,-2072.576638,-10732.986159,-1915.238745
444.235381,-1332.370696,-10362.883188,-612.876398
444.235702,-1258.350101,-9844.739029,-995.924147
444.236024,-1184.329507,-8364.327145,-1838.629195
444.236346,-1776.494261,-7179.997637,-2145.067394
444.236667,-2516.700203,-7402.059420,-2145.067394
444.236989,-2220.617826,-7476.080014,-2451.505594
444.237311,-1258.350101,-7846.182985,-2451.505594
444.237633,-962.267725,-9548.656652,-1685.410096
444.237954,-1184.329507,-9992.780217,-459.657299
444.238276,-1110.308913,-9252.574275,-383.047749
444.238598,-1406.391290,-9622.677246,-2145.067394
444.238920,-1702.473667,-10436.903782,-1072.533697
444.239241,-2590.720797,-8956.491898,0.000000
444.239563,-2220.617826,-7476.080014,-383.047749
444.239885,148.041188,-8142.265362,-1608.800546
444.240206,962.267725,-9326.594869,-1378.971896
444.240528,740.205942,-9474.636058,-1149.143247
444.240850,0.000000,-9252.574275,-229.828649
444.241172,222.061783,-9770.718434,-919.314598
444.241493,888.247130,-10140.821405,-1762.019645
444.241815,814.226536,-9104.533087,-2298.286494
444.242137,1036.288319,-9178.553681,-1838.629195
444.242459,1776.494261,-9326.594869,-1302.362347
444.242780,1776.494261,-9474.636058,-2298.286494
444.243102,74.020594,-9326.594869,-2528.115143
444.243424,-1776.494261,-10288.862594,-2221.676944
444.243745,-3330.926739,-10881.027347,-2757.943793
444.244067,-4145.153275,-11325.150913,-3140.991542
444.244389,-3627.009116,-12435.459826,-2834.553343
444.244711,-3256.906145,-11769.274478,-1072.533697
444.245032,-2664.741391,-9770.718434,0.000000
444.245354,-1480.411884,-8512.368333,-1072.533697
444.245676,-148.041188,-8290.306550,-1532.190996
444.245998,296.082377,-7031.956449,-1915.238745
444.246319,444.123565,-5921.647536,-1532.190996
444.246641,1628.453072,-7179.997637,-1149.143247
444.246963,2368.659014,-8734.430116,-1225.752797
444.247284,1554.432478,-10288.862594,-1225.752797
444.247606,1110.308913,-11325.150913,-1149.143247
444.247928,518.144159,-11547.212695,-2068.457845
444.248250,444.123565,-10881.027347,-3217.601092
444.248571,0.000000,-10066.800811,-2221.676944
444.248893,-296.082377,-8808.450710,-1378.971896
444.249215,0.000000,-8882.471304,-1991.848295
444.249537,-518.144159,-8734.430116,-2068.457845
444.249858,-1554.432478,-8290.306550,-1149.143247
444.250180,-2886.803174,-7254.018232,-229.828649
444.250502,-3923.091493,-7994.224174,-1915.238745
444.250823,-3701.029710,-9178.553681,-1838.629195
444.251145,-2664.741391,-9326.594869,-1608.800546
444.251467,-1406.391290,-8734.430116,-1302.362347
444.251789,-518.144159,-8586.388927,-1072.533697
444.252110,-518.144159,-7476.080014,-612.876398
444.252432,-1702.473667,-7031.956449,-1608.800546
444.252754,-2886.803174,-9178.553681,-3370.820191
444.253075,-4811.338623,-10362.883188,-3677.258390
444.253397,-6069.688724,-10214.842000,-2834.553343
444.253719,-6143.709319,-10288.862594,-2757.943793
444.254041,-4515.256246,-11769.274478,-2604.724693
444.254362,-2738.761985,-12139.377449,-2757.943793
444.254684,-2590.720797,-11621.233289,-2374.896044
444.255006,-2886.803174,-10807.006753,-1149.143247
444.255327,-2886.803174,-9622.677246,-612.876398
444.255649,-2664.741391,-8438.347739,-2298.286494
444.255971,-2516.700203,-8068.244768,-1991.848295
444.256292,-2442.679609,-7476.080014,-1225.752797
444.256614,-2664.741391,-7772.162391,-1225.752797
444.256936,-2590.720797,-8364.327145,-1302.362347
444.257258,-3330.926739,-9252.574275,-459.657299
444.257579,-4589.276840,-10066.800811,-1532.190996
444.257901,-6291.750507,-11177.109724,-1608.800546
444.258223,-7402.059420,-10881.027347,-2298.286494
444.258544,-8216.285956,-10362.883188,-2374.896044
444.258866,-7105.977043,-9844.739029,-2451.505594
444.259188,-5033.400406,-9400.615463,-3370.820191
444.259510,-4071.132681,-8438.347739,-2604.724693
444.259831,-3478.967927,-8364.327145,-1072.533697
444.260153,-2738.761985,-8438.347739,-306.438199
444.260475,-1924.535449,-8660.409521,-2068.457845
444.260796,-1850.514855,-8882.471304,-1378.971896
444.261118,-2590.720797,-9178.553681,-689.485948
444.261440,-2738.761985,-7920.203579,-306.438199
444.261761,-2368.659014,-7105.977043,-1608.800546
444.262083,-1924.535449,-7624.121203,-1685.410096
444.262405,-2146.597232,-7698.141797,-766.095498
444.262727,-2960.823768,-8216.285956,-383.047749
444.263048,-3404.947333,-9622.677246,-995.924147
444.263370,-4293.194464,-11251.130318,-842.705048
444.263692,-5625.565159,-11177.109724,-689.485948
444.264013,-5107.421000,-10214.842000,-1225.752797
444.264335,-3034.844362,-9474.636058,-1991.848295
444.264657,-740.205942,-8956.491898,-2374.896044
444.264979,0.000000,-8586.388927,-1225.752797
444.265300,518.144159,-7846.182985,76.609550
444.265622,1110.308913,-8438.347739,-306.438199
444.265944,1332.370696,-9252.574275,-1378.971896
444.266265,370.102971,-9474.636058,-2068.457845
444.266587,-1332.370696,-8364.327145,-2374.896044
444.266909,-2368.659014,-7846.182985,-1532.190996
444.267230,-2664.741391,-8734.430116,-2834.553343
444.267552,-3404.947333,-9178.553681,-3370.820191
444.267874,-3997.112087,-9770.718434,-2757.943793
444.268196,-4737.318029,-11029.068536,-2911.162892
444.268517,-4959.379811,-13027.624579,-2834.553343
444.268839,-6143.709319,-13767.830521,-2528.115143
444.269161,-8068.244768,-13101.645173,-1532.190996
444.269482,-9252.574275,-11917.315666,-766.095498
444.269804,-8586.388927,-10140.821405,-2068.457845
444.270126,-7031.956449,-8364.327145,-3140.991542
444.270448,-4811.338623,-7624.121203,-2145.067394
444.270769,-2960.823768,-7105.977043,-306.438199
444.271091,-888.247130,-7031.956449,0.000000
444.271413,1258.350101,-7476.080014,536.266849
444.271734,2886.803174,-8216.285956,-612.876398
444.272056,2516.700203,-7920.203579,-1532.190996
444.272378,814.226536,-8068.244768,-2604.724693
444.272699,-1850.514855,-8660.409521,-2757.943793
444.273021,-4219.173869,-9474.636058,-2911.162892
444.273343,-5625.565159,-10436.903782,-3447.429741
444.273665,-6513.812290,-10732.986159,-4290.134789
444.273986,-6661.853478,-11325.150913,-4060.306139
444.274308,-6587.832884,-11843.295072,-2834.553343
444.274630,-6661.853478,-11325.150913,-1608.800546
444.274951,-5921.647536,-9474.636058,-76.609550
444.275273,-5699.585753,-8290.306550,-766.095498
444.275595,-5181.441594,-8068.244768,-1225.752797
444.275917,-5329.482782,-7772.162391,-842.705048
444.276238,-5329.482782,-8808.450710,229.828649
444.276560,-4441.235652,-8956.491898,1149.143247
444.276882,-3478.967927,-7994.224174,1302.362347
444.277203,-1554.432478,-7105.977043,1072.533697
444.277525,74.020594,-6439.791695,0.000000
444.277847,296.082377,-6217.729913,-919.314598
444.278168,74.020594,-6291.750507,-1302.362347
444.278490,-592.164754,-7846.182985,-1991.848295
444.278812,-592.164754,-9252.574275,-3370.820191
444.279134,-1036.288319,-10510.924376,-4596.572988
444.279455,-2220.617826,-11473.192101,-4366.744339
444.279777,-3108.864956,-12139.377449,-4060.306139
444.280099,-4219.173869,-11917.315666,-4443.353888
444.280420,-4663.297435,-12213.398043,-3677.258390
444.280742,-5033.400406,-11843.295072,-2834.553343
444.281064,-5403.503377,-10214.842000,-3140.991542
444.281385,-4959.379811,-9474.636058,-3294.210641
444.281707,-4515.256246,-9770.718434,-1608.800546
444.282029,-4589.276840,-9252.574275,76.609550
444.282351,-4515.256246,-8142.265362,1378.971896
444.282672,-3775.050304,-7550.100608,689.485948
444.282994,-1924.535449,-7772.162391,-459.657299
444.283316,0.000000,-8216.285956,-1072.533697
444.283637,1406.391290,-8290.306550,0.000000
444.283959,3552.988522,-7624.121203,1532.190996
444.284281,5329.482782,-8364.327145,0.000000
444.284603,5699.585753,-10658.965565,-3140.991542
444.284924,4515.256246,-12953.603985,-2221.676944
444.285246,888.247130,-13101.645173,-766.095498
444.285568,-4367.215058,-13027.624579,-1225.752797
444.285889,-8068.244768,-13101.645173,-1915.238745
444.286211,-10510.924376,-10584.944971,-2911.162892
444.286533,-11621.233289,-7476.080014,-5286.058936
444.286854,-12435.459826,-6439.791695,-4903.011187
444.287176,-13101.645173,-6661.853478,-2374.896044
444.287498,-12361.439231,-6439.791695,-995.924147
444.287820,-9696.697840,-6513.812290,-1378.971896
444.288141,-6513.812290,-8364.327145,-1685.410096
444.288463,-4441.235652,-9474.636058,-1455.581446
444.288785,-3404.947333,-9178.553681,-1149.143247
444.289106,-2220.617826,-7920.203579,-1072.533697
444.289428,444.123565,-8364.327145,-1762.019645
444.289750,2886.803174,-8956.491898,-2451.505594
444.290072,2442.679609,-8660.409521,-2298.286494
444.290393,888.247130,-8586.388927,-2145.067394
444.290715,-296.082377,-9844.739029,-1072.533697
444.291037,-1776.494261,-11695.253884,-842.705048
444.291358,-3478.967927,-12361.439231,-1072.533697
444.291680,-5329.482782,-11843.295072,-306.438199
444.292002,-6735.874072,-10807.006753,0.000000
444.292323,-7254.018232,-8586.388927,229.828649
444.292645,-6735.874072,-6809.894666,153.219100
444.292967,-5107.421000,-5551.544565,-1149.143247
444.293289,-3701.029710,-5477.523971,-2068.457845
444.293610,-2442.679609,-6735.874072,-1532.190996
444.293932,-1702.473667,-7846.182985,-1532.190996
444.294254,-1332.370696,-8808.450710,-2374.896044
444.294575,-1110.308913,-11103.089130,-3600.648841
444.294897,-1850.514855,-12953.603985,-3217.601092
444.295219,-3701.029710,-13323.706956,-3064.381992
444.295541,-4885.359217,-12583.501014,-2604.724693
444.295862,-4589.276840,-12879.583391,-3294.210641
444.296184,-4441.235652,-12805.562797,-3140.991542
444.296506,-5477.523971,-10732.986159,-1838.629195
444.296827,-6735.874072,-8808.450710,-536.266849
444.297149,-6735.874072,-7031.956449,-306.438199
444.297471,-5625.565159,-5995.668130,-1991.848295
444.297792,-4441.235652,-6143.709319,-3217.601092
444.298114,-3034.844362,-6735.874072,-3447.429741
444.298436,-1776.494261,-7772.162391,-1455.581446
444.298758,-888.247130,-8142.265362,76.609550
444.299079,-296.082377,-7772.162391,383.047749
444.299401,0.000000,-8586.388927,-1991.848295
444.299723,-370.102971,-10955.047942,-3217.601092
444.300044,-1554.432478,-13545.768739,-2604.724693
444.300366,-2516.700203,-15470.304188,-383.047749
444.300688,-2738.761985,-14656.077652,1838.629195
444.301010,-518.144159,-11991.336260,2298.286494
444.301331,1554.432478,-10436.903782,1455.581446
444.301653,2664.741391,-9474.636058,536.266849
444.301975,1554.432478,-8956.491898,2221.676944
444.302296,0.000000,-7328.038826,4596.572988
444.302618,-1924.535449,-5181.441594,5209.449386
444.302940,-4515.256246,-4219.173869,3600.648841
444.303261,-7698.141797,-3108.864956,1915.238745
444.303583,-9844.739029,-2294.638420,-1302.362347
444.303905,-10140.821405,-4071.132681,-5209.449386
444.304227,-8808.450710,-5403.503377,-5669.106685
444.304548,-7476.080014,-6883.915261,-4596.572988
444.304870,-6661.853478,-9992.780217,-4366.744339
444.305192,-5995.668130,-15470.304188,-3753.867940
444.305513,-5921.647536,-17838.963202,-3677.258390
444.305835,-5699.585753,-17468.860231,-4290.134789
444.306157,-3775.050304,-16284.530724,-3447.429741
444.306479,-1406.391290,-13915.871710,-1608.800546
444.306800,-666.185348,-10584.944971,919.314598
444.307122,-740.205942,-6883.915261,3907.087040
444.307444,148.041188,-4515.256246,5439.278036
444.307765,888.247130,-3627.009116,4213.525239
444.308087,296.082377,-2960.823768,2221.676944
444.308409,0.000000,-5329.482782,2068.457845
444.308730,-518.144159,-8216.285956,2757.943793
444.309052,-962.267725,-10066.800811,3753.867940
444.309374,0.000000,-12139.377449,1838.629195
444.309696,2072.576638,-11473.192101,-1149.143247
444.310017,2590.720797,-10362.883188,-3753.867940
444.310339,1406.391290,-11325.150913,-3677.258390
444.310661,-296.082377,-15100.201217,-3140.991542
444.310982,-1258.350101,-17098.757260,-2145.067394
444.311304,-888.247130,-16358.551318,-3064.381992
444.311626,-592.164754,-15322.262999,-2374.896044
444.311947,148.041188,-13545.768739,306.438199
444.312269,-962.267725,-10214.842000,2145.067394
444.312591,-2590.720797,-6439.791695,4136.915689
444.312913,-1924.535449,-2738.761985,5898.935335
444.313234,0.000000,-444.123565,2987.772442
444.313556,1850.514855,888.247130,0.000000
444.313878,2220.617826,-1998.556043,842.705048
444.314199,1258.350101,-5181.441594,5286.058936
444.314521,888.247130,-6735.874072,4903.011187
444.314843,2590.720797,-9252.574275,153.219100
444.315165,4737.318029,-11843.295072,-4596.572988
444.315486,3478.967927,-11917.315666,-4903.011187
444.315808,1110.308913,-13323.706956,-2451.505594
444.316130,-888.247130,-16654.633695,842.705048
444.316451,-1184.329507,-17394.839637,1378.971896
444.316773,-2516.700203,-15026.180623,-1455.581446
444.317095,-2738.761985,-12879.583391,-919.314598
444.317416,-2664.741391,-12361.439231,2604.724693
444.317738,-3256.906145,-10436.903782,4673.182538
444.318060,-3701.029710,-8364.327145,6281.983084
444.318382,-4145.153275,-6069.688724,8427.050478
444.318703,-3923.091493,-6069.688724,5975.544884
444.319025,-4515.256246,-7550.100608,2528.115143
444.319347,-5107.421000,-8142.265362,3140.991542
444.319668,-3627.009116,-6661.853478,4519.963438
444.319990,1480.411884,-6957.935855,2374.896044
444.320312,4959.379811,-6069.688724,0.000000
444.320634,4737.318029,-3034.844362,0.000000
444.320955,3256.906145,-4219.173869,-1608.800546
444.321277,1998.556043,-11621.233289,-4519.963438
444.321599,296.082377,-16802.674883,-5056.230287
444.321920,-4737.318029,-16580.613101,-5056.230287
444.322242,-9548.656652,-17764.942608,-1532.190996
444.322564,-11399.171507,-19171.333898,2987.772442
444.322885,-11547.212695,-15766.386565,3294.210641
444.323207,-10881.027347,-10658.965565,842.705048
444.323529,-8364.327145,-9770.718434,2298.286494
444.323851,-6365.771101,-10807.006753,5975.544884
444.324172,-4145.153275,-7846.182985,9116.536426
444.324494,-1850.514855,-1998.556043,11031.775171
444.324816,2738.761985,1998.556043,10112.460574
444.325137,7105.977043,0.000000,5822.325785
444.325459,11621.233289,-3034.844362,1532.190996
444.325781,11695.253884,-4219.173869,76.609550
444.326103,8808.450710,-7328.038826,2298.286494
444.326424,7031.956449,-15174.221811,6281.983084
444.326746,4293.194464,-20281.642811,4979.620737
444.327068,-518.144159,-18727.210333,-1991.848295
444.327389,-4219.173869,-16432.571912,-4596.572988
444.327711,-4589.276840,-16654.633695,-1838.629195
444.328033,-4737.318029,-12287.418637,766.095498
444.328354,-5625.565159,-4515.256246,919.314598
444.328676,-4959.379811,-2294.638420,1838.629195
444.328998,-3478.967927,-5329.482782,3830.477490
444.329320,-3701.029710,-5921.647536,4136.915689
444.329641,-5847.626942,-4737.318029,2604.724693
444.329963,-4145.153275,-6069.688724,3370.820191
444.330285,518.144159,-9622.677246,5669.106685
444.330606,2368.659014,-10510.924376,7048.078582
444.330928,3182.885551,-6365.771101,7431.126331
444.331250,7698.141797,-3627.009116,2528.115143
444.331572,12139.377449,-5699.585753,-4673.182538
444.331893,10955.047942,-6661.853478,-4136.915689
444.332215,4811.338623,-6883.915261,0.000000
444.332537,518.144159,-13027.624579,76.609550
444.332858,-1776.494261,-21095.869347,-1915.238745
444.333180,-3923.091493,-22206.178260,-4290.134789
444.333502,-5625.565159,-18431.127956,-5592.497135
444.333823,-3627.009116,-15248.242405,-3294.210641
444.334145,-962.267725,-11843.295072,612.876398
444.334467,-444.123565,-7476.080014,2221.676944
444.334789,444.123565,-4145.153275,3294.210641
444.335110,2220.617826,-5477.523971,1685.410096
444.335432,1406.391290,-8216.285956,0.000000
444.335754,-1184.329507,-9844.739029,1838.629195
444.336075,-888.247130,-7698.141797,4290.134789
444.336397,1776.494261,-8512.368333,306.438199
444.336719,3552.988522,-11991.336260,-1302.362347
444.337040,1850.514855,-11843.295072,1302.362347
444.337362,-3552.988522,-9622.677246,2068.457845
444.337684,-7846.182985,-9178.553681,-306.438199
444.338006,-9844.739029,-8734.430116,-1762.019645
444.338327,-11769.274478,-7698.141797,-6052.154434
444.338649,-12879.583391,-9252.574275,-9193.145976
444.338971,-11843.295072,-14063.912898,-5515.887586
444.339292,-7846.182985,-16802.674883,-919.314598
444.339614,-4293.194464,-14359.995275,459.657299
444.339936,-444.123565,-13175.665768,3140.991542
444.340258,1924.535449,-11029.068536,4673.182538
444.340579,3923.091493,-6217.729913,2145.067394
444.340901,7031.956449,-1110.308913,0.000000
444.341223,9770.718434,1258.350101,1149.143247
444.341544,10881.027347,-814.226536,4213.525239
444.341866,8808.450710,-5403.503377,7584.345430
444.342188,4589.276840,-9474.636058,8580.269578
444.342509,1554.432478,-12287.418637,8120.612279
444.342831,-370.102971,-15174.221811,3294.210641
444.343153,-2516.700203,-14656.077652,306.438199
444.343475,-3775.050304,-10658.965565,306.438199
444.343796,-3923.091493,-6809.894666,1149.143247
444.344118,-2960.823768,-5551.544565,1378.971896
444.344440,-2960.823768,-7031.956449,2068.457845
444.344761,-4885.359217,-8290.306550,-383.047749
444.345083,-6513.812290,-9918.759623,-1915.238745
444.345405,-6439.791695,-13767.830521,-383.047749
444.345727,-5329.482782,-15396.283594,2145.067394
444.346048,-3775.050304,-12805.562797,2604.724693
444.346370,-1406.391290,-10658.965565,3064.381992
444.346692,1406.391290,-9548.656652,3907.087040
444.347013,3256.906145,-8216.285956,4290.134789
444.347335,4515.256246,-5995.668130,3447.429741
444.347657,5847.626942,-5033.400406,3064.381992
444.347978,8068.244768,-6661.853478,2911.162892
444.348300,7624.121203,-8068.244768,4366.744339
444.348622,5107.421000,-9918.759623,4749.792088
444.348944,1628.453072,-11695.253884,4596.572988
444.349265,-1258.350101,-12509.480420,2987.772442
444.349587,-2812.782580,-13619.789333,1225.752797
444.349909,-3552.988522,-13767.830521,-306.438199
444.350230,-2368.659014,-12435.459826,689.485948
444.350552,-148.041188,-10214.842000,2221.676944
444.350874,1776.494261,-9844.739029,3524.039291
444.351196,2220.617826,-9474.636058,3753.867940
444.351517,148.041188,-10510.924376,3370.820191
444.351839,-3552.988522,-10436.903782,2911.162892
444.352161,-5921.647536,-9326.594869,3064.381992
444.352482,-5477.523971,-8142.265362,2221.676944
444.352804,-1924.535449,-7105.977043,2604.724693
444.353126,1332.370696,-5551.544565,2451.505594
444.353447,3256.906145,-4219.173869,2068.457845
444.353769,3923.091493,-5699.585753,2528.115143
444.354091,2886.803174,-8216.285956,2757.943793
444.354413,-518.144159,-10140.821405,459.657299
444.354734,-5107.421000,-11177.109724,-1302.362347
444.355056,-7476.080014,-13471.748144,-1991.848295
444.355378,-7624.121203,-12953.603985,-2451.505594
444.355700,-5699.585753,-11177.109724,-3907.087040
444.356021,-3404.947333,-10732.986159,-2911.162892
444.356343,-1702.473667,-12213.398043,842.705048
444.356665,-222.061783,-12657.521608,1608.800546
444.356987,-666.185348,-11547.212695,2451.505594
444.357309,-962.267725,-9844.739029,2451.505594
444.357631,-1332.370696,-7772.162391,1685.410096
444.357952,-962.267725,-5995.668130,842.705048
444.358274,444.123565,-5403.503377,1378.971896
444.358596,2960.823768,-5625.565159,2374.896044
444.358918,5477.523971,-7402.059420,1762.019645
444.359240,5995.668130,-9844.739029,842.705048
444.359561,4811.338623,-10732.986159,1149.143247
444.359883,2516.700203,-9252.574275,306.438199
444.360205,0.000000,-7179.997637,-2221.676944
444.360527,-1998.556043,-5995.668130,-5209.449386
444.360849,-3997.112087,-7105.977043,-7431.126331
444.361170,-6587.832884,-9474.636058,-8120.612279
444.361492,-9252.574275,-13397.727550,-5209.449386
444.361814,-8956.491898,-17912.983796,-1225.752797
444.362136,-8142.265362,-18875.251521,-842.705048
444.362458,-5921.647536,-15396.283594,-1685.410096
444.362780,-3256.906145,-11621.233289,-1378.971896
444.363101,0.000000,-7328.038826,0.000000
444.363423,2812.782580,-3849.070898,536.266849
444.363745,5181.441594,-1480.411884,1915.238745
444.364067,7031.956449,-3330.926739,4366.744339
444.364389,7476.080014,-6217.729913,5132.839837
444.364710,6809.894666,-8216.285956,3064.381992
444.365032,5847.626942,-8882.471304,612.876398
444.365354,5921.647536,-9548.656652,153.219100
444.365676,5699.585753,-9844.739029,-1072.533697
444.365998,3552.988522,-10658.965565,-1685.410096
444.366320,0.000000,-10807.006753,-1762.019645
444.366641,-4145.153275,-12509.480420,-1915.238745
444.366963,-7179.997637,-14878.139434,-3140.991542
444.367285,-8882.471304,-15396.283594,-4060.306139
444.367607,-9104.533087,-13545.768739,-4366.744339
444.367929,-7772.162391,-11251.130318,-2681.334243
444.368250,-5255.462188,-10658.965565,1225.752797
444.368572,-2590.720797,-8660.409521,3370.820191
444.368894,-666.185348,-5773.606348,2681.334243
444.369216,518.144159,-4589.276840,1455.581446
444.369538,1332.370696,-4515.256246,1608.800546
444.369859,2072.576638,-4145.153275,2604.724693
444.370181,3108.864956,-3775.050304,3064.381992
444.370503,5255.462188,-4959.379811,1378.971896
444.370825,7254.018232,-8438.347739,-536.266849
444.371147,5995.668130,-9918.759623,-306.438199
444.371469,2664.741391,-12435.459826,919.314598
444.371790,-518.144159,-16654.633695,995.924147
444.372112,-3182.885551,-16210.510130,-1225.752797
444.372434,-3552.988522,-13545.768739,-3217.601092
444.372756,-1776.494261,-11547.212695,-4213.525239
444.373078,518.144159,-10807.006753,-2145.067394
444.373399,1480.411884,-9252.574275,459.657299
444.373721,1184.329507,-7476.080014,3524.039291
444.374043,888.247130,-7105.977043,4366.744339
444.374365,518.144159,-6439.791695,2374.896044
444.374687,74.020594,-5625.565159,-1302.362347
444.375009,-370.102971,-6439.791695,-1762.019645
444.375330,-962.267725,-6883.915261,766.095498
444.375652,-1406.391290,-7254.018232,2451.505594
444.375974,-962.267725,-9326.594869,459.657299
444.376296,-2368.659014,-10732.986159,-1838.629195
444.376618,-5403.503377,-10436.903782,-3447.429741
444.376939,-8068.244768,-10658.965565,-4519.963438
444.377261,-7179.997637,-13397.727550,-5056.230287
444.377583,-5699.585753,-14804.118840,-5592.497135
444.377905,-5107.421000,-12953.603985,-5592.497135
444.378227,-3330.926739,-12805.562797,-2604.724693
444.378548,-1850.514855,-13101.645173,0.000000
444.378870,-1332.370696,-11029.068536,-1072.533697
444.379192,-962.267725,-7254.018232,-2221.676944
444.379514,1258.350101,-4737.318029,-1302.362347
444.379836,3997.112087,-4293.194464,-612.876398
444.380158,4811.338623,-4663.297435,-612.876398
444.380479,4515.256246,-5847.626942,536.266849
444.380801,3034.844362,-8660.409521,2451.505594
444.381123,1036.288319,-11251.130318,2298.286494
444.381445,-518.144159,-12361.439231,0.000000
444.381767,-814.226536,-11769.274478,-2757.943793
444.382088,666.185348,-10510.924376,-4443.353888
444.382410,2886.803174,-9030.512492,-2757.943793
444.382732,3627.009116,-7105.977043,-1149.143247
444.383054,2812.782580,-7698.141797,-1685.410096
444.383376,1110.308913,-9474.636058,-2911.162892
444.383698,-740.205942,-9622.677246,-4519.963438
444.384019,-1776.494261,-10140.821405,-4060.306139
444.384341,-740.205942,-10214.842000,-3370.820191
444.384663,-888.247130,-10214.842000,-3140.991542
444.384985,-1332.370696,-8956.491898,-1685.410096
444.385307,-1924.535449,-8364.327145,229.828649
444.385628,-2368.659014,-8512.368333,0.000000
444.385950,-2886.803174,-8586.388927,-3140.991542
444.386272,-3256.906145,-8586.388927,-3677.258390
444.386594,-2516.700203,-9474.636058,-1455.581446
444.386916,-962.267725,-10214.842000,689.485948
444.387237,1036.288319,-9474.636058,919.314598
444.387559,2442.679609,-8808.450710,-766.095498
444.387881,2516.700203,-8956.491898,-1532.190996
444.388203,1406.391290,-8586.388927,-2145.067394
444.388525,1406.391290,-8512.368333,-2528.115143
444.388847,2812.782580,-8660.409521,-3370.820191
444.389168,3330.926739,-9918.759623,-2834.553343
444.389490,3404.947333,-11473.192101,-1685.410096
444.389812,2220.617826,-12731.542202,-612.876398
444.390134,0.000000,-12879.583391,-383.047749
444.390456,-1702.473667,-12139.377449,-459.657299
444.390777,-1998.556043,-10362.883188,-1378.971896
444.391099,-296.082377,-7846.182985,-2221.676944
444.391421,518.144159,-7105.977043,-612.876398
444.391743,888.247130,-6513.812290,689.485948
444.392065,592.164754,-6365.771101,1149.143247
444.392387,0.000000,-7254.018232,383.047749
444.392708,-1628.453072,-8364.327145,-536.266849
444.393030,-3256.906145,-8660.409521,-1455.581446
444.393352,-3997.112087,-8438.347739,-2068.457845
444.393674,-3627.009116,-8956.491898,-1685.410096
444.393996,-2738.761985,-9474.636058,-2068.457845
444.394317,-3034.844362,-9548.656652,-2757.943793
444.394639,-3849.070898,-9844.739029,-3217.601092
444.394961,-4811.338623,-11843.295072,-2834.553343
444.395283,-4737.318029,-12361.439231,-3370.820191
444.395605,-3330.926739,-11843.295072,-4060.306139
444.395926,-1480.411884,-11769.274478,-2145.067394
444.396248,518.144159,-10955.047942,689.485948
444.396570,2516.700203,-9400.615463,536.266849
444.396892,3627.009116,-6883.915261,-383.047749
444.397214,4145.153275,-7105.977043,-612.876398
444.397536,4663.297435,-7624.121203,-229.828649
444.397857,4515.256246,-7476.080014,153.219100
444.398179,3923.091493,-8512.368333,919.314598
444.398501,2294.638420,-9696.697840,1532.190996
444.398823,962.267725,-9326.594869,0.000000
444.399145,-296.082377,-8808.450710,-1302.362347
444.399466,-2368.659014,-9400.615463,-1685.410096
444.399788,-4145.153275,-9696.697840,-2145.067394
444.400110,-4737.318029,-10732.986159,-2987.772442
444.400432,-4441.235652,-11917.315666,-2298.286494
444.400754,-3478.967927,-12583.501014,-919.314598
444.401076,-2516.700203,-10732.986159,-612.876398
444.401397,-1628.453072,-8068.244768,-1915.238745
444.401719,-740.205942,-6513.812290,-2451.505594
444.402041,-592.164754,-6587.832884,-3140.991542
444.402363,0.000000,-7105.977043,-3447.429741
444.402685,74.020594,-8364.327145,-2604.724693
444.403006,148.041188,-10066.800811,-689.485948
444.403328,222.061783,-10436.903782,0.000000
444.403650,592.164754,-10881.027347,-766.095498
444.403972,444.123565,-10658.965565,-1149.143247
444.404294,0.000000,-9918.759623,-689.485948
444.404615,296.082377,-9030.512492,-459.657299
444.404937,1628.453072,-8808.450710,76.609550
444.405259,2590.720797,-8882.471304,383.047749
444.405581,3034.844362,-8956.491898,919.314598
444.405903,3701.029710,-8290.306550,612.876398
444.406225,4219.173869,-7994.224174,612.876398
444.406546,4589.276840,-7698.141797,-842.705048
444.406868,3775.050304,-7031.956449,-1532.190996
444.407190,2738.761985,-8586.388927,-766.095498
444.407512,1184.329507,-9992.780217,0.000000
444.407834,-592.164754,-10658.965565,-995.924147
444.408155,-1924.535449,-10066.800811,-2298.286494
444.408477,-3330.926739,-10214.842000,-2834.553343
444.408799,-4589.276840,-10066.800811,-2911.162892
444.409121,-5625.565159,-10214.842000,-2757.943793
444.409443,-5551.544565,-10807.006753,-2451.505594
444.409765,-4663.297435,-11695.253884,-1532.190996
444.410086,-3923.091493,-10066.800811,-1302.362347
444.410408,-2664.741391,-7772.162391,-1762.019645
444.410730,-1110.308913,-6587.832884,-2145.067394
444.411052,444.123565,-6661.853478,-3524.039291
444.411374,888.247130,-6735.874072,-3830.477490
444.411695,888.247130,-8660.409521,-2145.067394
444.412017,888.247130,-10881.027347,-459.657299
444.412339,1184.329507,-12213.398043,-306.438199
444.412661,814.226536,-12287.418637,-1378.971896
444.412983,0.000000,-11621.233289,-1608.800546
444.413304,-1258.350101,-9622.677246,-1225.752797
444.413626,-1258.350101,-7550.100608,-1838.629195
444.413948,444.123565,-8068.244768,-3140.991542
444.414270,1258.350101,-9548.656652,-2604.724693
444.414592,592.164754,-11177.109724,-842.705048
444.414914,0.000000,-11103.089130,919.314598
444.415235,444.123565,-9992.780217,536.266849
444.415557,888.247130,-7920.203579,-1302.362347
444.415879,1110.308913,-6957.935855,-3294.210641
444.416201,1110.308913,-5995.668130,-3524.039291
444.416523,296.082377,-7105.977043,-3447.429741
444.416844,-1332.370696,-9178.553681,-2681.334243
444.417166,-2442.679609,-10510.924376,-1378.971896
444.417488,-3034.844362,-10436.903782,-1991.848295
444.417810,-3627.009116,-11103.089130,-3753.867940
444.418132,-4219.173869,-10658.965565,-4136.915689
444.418454,-4071.132681,-10732.986159,-3064.381992
444.418775,-2886.803174,-10807.006753,-1225.752797
444.419097,-1184.329507,-10140.821405,229.828649
444.419419,148.041188,-8068.244768,306.438199
444.419741,1554.432478,-5921.647536,-383.047749
444.420063,2960.823768,-4737.318029,-1378.971896
444.420384,4811.338623,-5625.565159,-2604.724693
444.420706,5329.482782,-7846.182985,-3370.820191
444.421028,4293.194464,-9918.759623,0.000000
444.421350,3330.926739,-12139.377449,1072.533697
444.421672,2886.803174,-11991.336260,76.609550
444.421993,2590.720797,-11695.253884,-2987.772442
444.422315,888.247130,-11177.109724,-4060.306139
444.422637,-1258.350101,-10658.965565,-3370.820191
444.422959,-2368.659014,-10140.821405,-2221.676944
444.423281,-2146.597232,-11177.109724,-2298.286494
444.423603,-1850.514855,-12361.439231,-1685.410096
444.423924,-2516.700203,-11399.171507,0.000000
444.424246,-3034.844362,-8660.409521,459.657299
444.424568,-2590.720797,-6587.832884,-306.438199
444.424890,-1406.391290,-6439.791695,-2145.067394
444.425212,-1110.308913,-5921.647536,-2374.896044
444.425533,-1110.308913,-6587.832884,-612.876398
444.425855,-1184.329507,-7994.224174,842.705048
444.426177,-518.144159,-9548.656652,-306.438199
444.426499,-370.102971,-10584.944971,-2757.943793
444.426821,-518.144159,-10955.047942,-2451.505594
444.427143,-1480.411884,-11695.253884,-1685.410096
444.427464,-1998.556043,-11843.295072,-1072.533697
444.427786,-2146.597232,-11843.295072,-459.657299
444.428108,-1480.411884,-11325.150913,229.828649
444.428430,296.082377,-9474.636058,-766.095498
444.428752,2220.617826,-7698.141797,-1685.410096
444.429073,2738.761985,-7031.956449,-459.657299
444.429395,2368.659014,-5847.626942,995.924147
444.429717,2294.638420,-4811.338623,1532.190996
444.430039,3404.947333,-5995.668130,0.000000
444.430361,2886.803174,-8660.409521,-306.438199
444.430682,592.164754,-9622.677246,-612.876398
444.431004,-1110.308913,-8882.471304,-1302.362347
444.431326,-1332.370696,-9326.594869,-919.314598
444.431648,-1776.494261,-10807.006753,-1378.971896
444.431970,-3034.844362,-11399.171507,-2374.896044
444.432292,-3849.070898,-11547.212695,-2221.676944
444.432613,-2960.823768,-11991.336260,-1072.533697
444.432935,-1702.473667,-11473.192101,-1225.752797
444.433257,-888.247130,-9252.574275,-1685.410096
444.433579,0.000000,-7254.018232,-1149.143247
444.433901,-222.061783,-6217.729913,-1455.581446
444.434222,-296.082377,-6143.709319,-2298.286494
444.434544,0.000000,-7476.080014,-2681.334243
444.434866,-814.226536,-9252.574275,-1991.848295
444.435188,-1924.535449,-11103.089130,-919.314598
444.435510,-2590.720797,-10658.965565,-1532.190996
444.435832,-1924.535449,-10362.883188,-2757.943793
444.436153,-2294.638420,-10732.986159,-3677.258390
444.436475,-2886.803174,-11103.089130,-3370.820191
444.436797,-3256.906145,-11251.130318,-2911.162892
444.437119,-2146.597232,-12287.418637,-2068.457845
444.437441,-666.185348,-12435.459826,-1685.410096
444.437762,666.185348,-9992.780217,-1762.019645
444.438084,2738.761985,-7994.224174,-2298.286494
444.438406,4737.318029,-7476.080014,-2528.115143
444.438728,4589.276840,-6735.874072,-2681.334243
444.439050,3701.029710,-7105.977043,-1838.629195
444.439371,3182.885551,-7920.203579,-459.657299
444.439693,2886.803174,-9400.615463,-612.876398
444.440015,1702.473667,-9992.780217,-2451.505594
444.440337,1110.308913,-9770.718434,-3217.601092
444.440659,0.000000,-9326.594869,-2528.115143
444.440981,-1258.350101,-9474.636058,-2528.115143
444.441302,-2072.576638,-10510.924376,-2604.724693
444.441624,-2442.679609,-11325.150913,-1685.410096
444.441946,-2590.720797,-11843.295072,-1991.848295
444.442268,-2442.679609,-10510.924376,-1838.629195
444.442590,-1406.391290,-8808.450710,-1608.800546
444.442911,-444.123565,-7402.059420,-1685.410096
444.443233,0.000000,-6439.791695,-2221.676944
444.443555,-222.061783,-5773.606348,-1838.629195
444.443877,-222.061783,-7105.977043,-1991.848295
444.444199,-444.123565,-9474.636058,-1915.238745
444.444521,-962.267725,-10436.903782,-1991.848295
444.444842,-1184.329507,-9696.697840,-2298.286494
444.445164,-1184.329507,-9400.615463,-2068.457845
444.445486,-888.247130,-9770.718434,-1762.019645
444.445808,-1850.514855,-9844.739029,-2145.067394
444.446130,-2146.597232,-10066.800811,-1991.848295
444.446451,-2220.617826,-11103.089130,-1149.143247
444.446773,-1924.535449,-12287.418637,0.000000
444.447095,-1036.288319,-11029.068536,-536.266849
444.447417,-296.082377,-8882.471304,229.828649
444.447739,1036.288319,-7402.059420,229.828649
444.448060,1702.473667,-5921.647536,-689.485948
444.448382,2294.638420,-4663.297435,-919.314598
444.448704,2738.761985,-6069.688724,-536.266849
444.449026,1554.432478,-8956.491898,-612.876398
444.449348,-148.041188,-9844.739029,-1532.190996
444.449670,-1702.473667,-10955.047942,-1455.581446
444.449991,-2442.679609,-12509.480420,-1302.362347
444.450313,-2738.761985,-12287.418637,-2221.676944
444.450635,-2886.803174,-11695.253884,-2834.553343
444.450957,-2146.597232,-11843.295072,-2374.896044
444.451279,-1332.370696,-11917.315666,-1532.190996
444.451600,-370.102971,-9770.718434,-919.314598
444.451922,296.082377,-7994.224174,-1072.533697
444.452244,1258.350101,-7994.224174,-306.438199
444.452566,962.267725,-7476.080014,-1608.800546
444.452888,888.247130,-6883.915261,-1378.971896
444.453210,1184.329507,-7254.018232,383.047749
444.453531,1628.453072,-8956.491898,306.438199
444.453853,1110.308913,-9474.636058,-306.438199
444.454175,148.041188,-9622.677246,-536.266849
444.454497,-666.185348,-10288.862594,0.000000
444.454819,-1628.453072,-10140.821405,-1302.362347
444.455140,-2072.576638,-9696.697840,-2221.676944
444.455462,-1554.432478,-9474.636058,-1225.752797
444.455784,-1036.288319,-10436.903782,-383.047749
444.456106,-666.185348,-10214.842000,-1149.143247
444.456427,148.041188,-9548.656652,-1532.190996
444.456749,370.102971,-9326.594869,-536.266849
444.457071,-222.061783,-8142.265362,306.438199
444.457393,-296.082377,-6069.688724,-612.876398
444.457714,888.247130,-5847.626942,-2221.676944
444.458036,962.267725,-7550.100608,-3524.039291
444.458358,-888.247130,-9918.759623,-1915.238745
444.458680,-3182.885551,-10881.027347,536.266849
444.459001,-4293.194464,-11325.150913,306.438199
444.459323,-4367.215058,-12509.480420,-2068.457845
444.459645,-3701.029710,-11473.192101,-2604.724693
444.459967,-2516.700203,-9548.656652,-2757.943793
444.460289,-1184.329507,-8808.450710,-2451.505594
444.460610,0.000000,-9252.574275,-1838.629195
444.460932,1036.288319,-9622.677246,-229.828649
444.461254,1850.514855,-9030.512492,-1072.533697
444.461576,1628.453072,-8586.388927,-1608.800546
444.461897,1776.494261,-8734.430116,-2604.724693
444.462219,1924.535449,-9178.553681,-2757.943793
444.462541,2072.576638,-9622.677246,-1762.019645
444.462863,1406.391290,-8956.491898,-1378.971896
444.463184,740.205942,-8586.388927,-1991.848295
444.463506,-592.164754,-8586.388927,-2757.943793
444.463828,-2812.782580,-9622.677246,-2834.553343
444.464150,-4071.132681,-9844.739029,-3524.039291
444.464471,-3701.029710,-10362.883188,-4290.134789
444.464793,-2516.700203,-11547.212695,-3600.648841
444.465115,-1406.391290,-11621.233289,-1838.629195
444.465437,-592.164754,-10288.862594,-383.047749
444.465758,148.041188,-8512.368333,-919.314598
444.466080,518.144159,-8438.347739,-2604.724693
444.466402,1258.350101,-7772.162391,-3294.210641
444.466724,2146.597232,-6809.894666,-3677.258390
444.467046,2590.720797,-7550.100608,-2451.505594
444.467367,2368.659014,-9400.615463,-842.705048
444.467689,1480.411884,-9770.718434,-919.314598
444.468011,222.061783,-9104.533087,-1455.581446
444.468333,-814.226536,-9474.636058,-2451.505594
444.468654,-2590.720797,-9844.739029,-3217.601092
444.468976,-3627.009116,-10066.800811,-3140.991542
444.469298,-3182.885551,-11473.192101,-2451.505594
444.469620,-2738.761985,-12065.356855,0.000000
444.469941,-1998.556043,-11325.150913,0.000000
444.470263,-1258.350101,-9104.533087,-459.657299
444.470585,-222.061783,-7698.141797,-919.314598
444.470907,148.041188,-6587.832884,-2374.896044
444.471228,222.061783,-5625.565159,-3064.381992
444.471550,444.123565,-6587.832884,-1915.238745
444.471872,518.144159,-9326.594869,-383.047749
444.472194,0.000000,-10807.006753,-612.876398
444.472515,-1184.329507,-11473.192101,-1455.581446
444.472837,-2072.576638,-11251.130318,-1225.752797
444.473159,-2738.761985,-9918.759623,-1149.143247
444.473481,-1998.556043,-7994.224174,-1838.629195
444.473802,-740.205942,-7550.100608,-2221.676944
444.474124,222.061783,-8512.368333,-1915.238745
444.474446,296.082377,-9548.656652,-842.705048
444.474768,740.205942,-10214.842000,153.219100
444.475090,444.123565,-10658.965565,459.657299
444.475411,222.061783,-10066.800811,-689.485948
444.475733,666.185348,-8438.347739,-1302.362347
444.476055,1998.556043,-7624.121203,-1225.752797
444.476377,3256.906145,-7179.997637,-919.314598
444.476698,2960.823768,-7698.141797,-1838.629195
444.477020,1776.494261,-8512.368333,-1608.800546
444.477342,74.020594,-10066.800811,-1378.971896
444.477664,-1850.514855,-12213.398043,-1762.019645
444.477985,-3552.988522,-12583.501014,-1991.848295
444.478307,-4367.215058,-12213.398043,-1915.238745
444.478629,-3478.967927,-11917.315666,-1532.190996
444.478951,-1554.432478,-10881.027347,-1378.971896
444.479272,-148.041188,-8882.471304,-1532.190996
444.479594,222.061783,-7179.997637,-842.705048
444.479916,148.041188,-8216.285956,-689.485948
444.480238,-1332.370696,-8068.244768,-995.924147
444.480559,-1406.391290,-7994.224174,-1455.581446
444.480881,-1332.370696,-8438.347739,-1225.752797
444.481203,-1036.288319,-9104.533087,-995.924147
444.481525,-1776.494261,-8956.491898,-612.876398
444.481847,-1924.535449,-9992.780217,-536.266849
444.482168,-2960.823768,-11251.130318,-1072.533697
444.482490,-3627.009116,-11621.233289,-1685.410096
444.482812,-3108.864956,-11103.089130,-1378.971896
444.483134,-1776.494261,-10584.944971,-1225.752797
444.483455,-444.123565,-8882.471304,-1378.971896
444.483777,1110.308913,-7846.182985,-1225.752797
444.484099,2738.761985,-6883.915261,0.000000
444.484421,3404.947333,-6513.812290,-229.828649
444.484742,3182.885551,-7328.038826,-1072.533697
444.485064,2368.659014,-8364.327145,-689.485948
444.485386,1924.535449,-10436.903782,459.657299
444.485708,1406.391290,-9992.780217,306.438199
444.486029,1480.411884,-8808.450710,-536.266849
444.486351,1628.453072,-7476.080014,-1838.629195
444.486673,296.082377,-7846.182985,-2451.505594
444.486995,-2072.576638,-8956.491898,-2145.067394
444.487316,-2886.803174,-9992.780217,-2451.505594
444.487638,-3182.885551,-11399.171507,-2757.943793
444.487960,-2812.782580,-13101.645173,-1149.143247
444.488282,-2072.576638,-11843.295072,-459.657299
444.488603,-1184.329507,-9030.512492,-2298.286494
444.488925,-370.102971,-7402.059420,-3217.601092
444.489247,0.000000,-7624.121203,-2681.334243
444.489569,0.000000,-7772.162391,-2298.286494
444.489891,0.000000,-8068.244768,-2528.115143
444.490212,0.000000,-9400.615463,-1762.019645
444.490534,518.144159,-10732.986159,-2145.067394
444.490856,148.041188,-10140.821405,-2834.553343
444.491178,-370.102971,-11029.068536,-2681.334243
444.491499,-2146.597232,-12139.377449,-1532.190996
444.491821,-3775.050304,-10584.944971,-995.924147
444.492143,-3330.926739,-9474.636058,-2451.505594
444.492465,-740.205942,-9474.636058,-2451.505594
444.492786,370.102971,-9548.656652,-2604.724693
444.493108,666.185348,-8364.327145,-1608.800546
444.493430,370.102971,-7402.059420,76.609550
444.493752,1258.350101,-8290.306550,383.047749
444.494073,1480.411884,-8956.491898,-2451.505594
444.494395,444.123565,-9326.594869,-2987.772442
444.494717,-518.144159,-9474.636058,-1378.971896
444.495039,-666.185348,-9178.553681,-306.438199
444.495360,444.123565,-8290.306550,-1838.629195
444.495682,962.267725,-7846.182985,-2757.943793
444.496004,-296.082377,-8882.471304,-2221.676944
444.496326,-2294.638420,-10066.800811,-1915.238745
444.496647,-2886.803174,-11473.192101,-2451.505594
444.496969,-2368.659014,-12583.501014,-1608.800546
444.497291,-1480.411884,-11325.150913,-536.266849
444.497613,-148.041188,-8660.409521,383.047749
444.497935,1554.432478,-5847.626942,-612.876398
444.498256,2516.700203,-5107.421000,-1991.848295
444.498578,2146.597232,-5921.647536,-2068.457845
444.498900,1480.411884,-7105.977043,-1532.190996
444.499222,1184.329507,-9030.512492,-459.657299
444.499543,0.000000,-11103.089130,0.000000
444.499865,-888.247130,-11473.192101,-383.047749
444.500187,-1406.391290,-10584.944971,-1608.800546
444.500509,-1332.370696,-9918.759623,-2145.067394
444.500830,-2368.659014,-10436.903782,-3370.820191
444.501152,-3552.988522,-10288.862594,-2757.943793
444.501474,-3478.967927,-10288.862594,-2145.067394
444.501796,-1998.556043,-11177.109724,-1225.752797
444.502117,0.000000,-10807.006753,-1302.362347
444.502439,1184.329507,-8438.347739,-1685.410096
444.502761,1628.453072,-7994.224174,-1915.238745
444.503083,1480.411884,-8808.450710,-1762.019645
444.503404,888.247130,-9400.615463,-1378.971896
444.503726,444.123565,-9918.759623,-1378.971896
444.504048,444.123565,-9992.780217,-1225.752797
444.504370,296.082377,-9696.697840,-1608.800546
444.504692,148.041188,-9622.677246,-2298.286494
444.505013,-1036.288319,-9918.759623,-1608.800546
444.505335,-2368.659014,-11029.068536,-842.705048
444.505657,-2960.823768,-11399.171507,-1302.362347
444.505979,-2960.823768,-11325.150913,-1991.848295
444.506300,-2738.761985,-11251.130318,-1378.971896
444.506622,-1332.370696,-10807.006753,383.047749
444.506944,148.041188,-8290.306550,306.438199
444.507266,1332.370696,-5847.626942,-689.485948
444.507587,1554.432478,-4737.318029,-1532.190996
444.507909,1850.514855,-5773.606348,-1685.410096
444.508231,1702.473667,-7476.080014,-1302.362347
444.508553,666.185348,-9474.636058,0.000000
444.508874,-370.102971,-10955.047942,0.000000
444.509196,-222.061783,-11399.171507,-1378.971896
444.509518,-740.205942,-11103.089130,-1302.362347
444.509840,-1850.514855,-10510.924376,-1302.362347
444.510161,-2738.761985,-9400.615463,-1149.143247
444.510483,-2590.720797,-7920.203579,-1991.848295
444.510805,-1036.288319,-7994.224174,-1762.019645
444.511127,0.000000,-8512.368333,-536.266849
444.511448,148.041188,-8216.285956,0.000000
444.511770,0.000000,-6883.915261,459.657299
444.512092,740.205942,-7105.977043,76.609550
444.512414,1628.453072,-7994.224174,-1532.190996
444.512736,1554.432478,-8290.306550,-2145.067394
444.513057,666.185348,-8586.388927,-1225.752797
444.513379,444.123565,-10362.883188,-842.705048
444.513701,888.247130,-11103.089130,-1455.581446
444.514023,0.000000,-11177.109724,-2221.676944
444.514344,-1924.535449,-11547.212695,-1685.410096
444.514666,-2886.803174,-10436.903782,-1762.019645
444.514988,-2294.638420,-9474.636058,-3140.991542
444.515310,-592.164754,-10732.986159,-4060.306139
444.515631,-592.164754,-11843.295072,-2681.334243
444.515953,-1702.473667,-11621.233289,-919.314598
444.516275,-1702.473667,-9844.739029,229.828649
444.516597,0.000000,-9030.512492,-1608.800546
444.516918,518.144159,-8290.306550,-2834.553343
444.517240,74.020594,-7105.977043,-3753.867940
444.517562,-148.041188,-5847.626942,-2834.553343
444.517884,222.061783,-7698.141797,-1608.800546
444.518205,296.082377,-10066.800811,-1991.848295
444.518527,-148.041188,-12731.542202,-2451.505594
444.518849,-3034.844362,-14211.954086,-2068.457845
444.519171,-5329.482782,-14582.057057,-306.438199
444.519493,-5033.400406,-12657.521608,-536.266849
444.519814,-2146.597232,-8808.450710,-2604.724693
444.520136,1332.370696,-5699.585753,-2834.553343
444.520458,3256.906145,-3849.070898,-2145.067394
444.520780,4293.194464,-3849.070898,-459.657299
444.521101,3552.988522,-6217.729913,306.438199
444.521423,1480.411884,-9474.636058,842.705048
444.521745,0.000000,-11177.109724,229.828649
444.522067,-518.144159,-11177.109724,-1532.190996
444.522388,0.000000,-9696.697840,-2757.943793
444.522710,1332.370696,-8068.244768,-2604.724693
444.523032,2886.803174,-6661.853478,-2681.334243
444.523354,2886.803174,-7105.977043,-2145.067394
444.523675,370.102971,-9696.697840,-459.657299
444.523997,-2960.823768,-12361.439231,0.000000
444.524319,-4663.297435,-13323.706956,-1685.410096
444.524641,-3997.112087,-12435.459826,-2681.334243
444.524962,-1628.453072,-10066.800811,-2145.067394
444.525284,0.000000,-7772.162391,-1149.143247
444.525606,1110.308913,-5551.544565,-306.438199
444.525928,1036.288319,-5625.565159,383.047749
444.526249,888.247130,-7105.977043,-153.219100
444.526571,888.247130,-7994.224174,-2221.676944
444.526893,740.205942,-8290.306550,-2987.772442
444.527215,444.123565,-9844.739029,-2834.553343
444.527537,0.000000,-10955.047942,-1915.238745
444.527858,-666.185348,-11621.233289,-1838.629195
444.528180,-1924.535449,-13323.706956,-1532.190996
444.528502,-3404.947333,-14804.118840,-919.314598
444.528824,-5181.441594,-14063.912898,-1685.410096
444.529145,-4737.318029,-12657.521608,-1991.848295
444.529467,-2368.659014,-10140.821405,-1378.971896
444.529789,518.144159,-7254.018232,76.609550
444.530111,2590.720797,-3034.844362,766.095498
444.530432,3404.947333,-2516.700203,0.000000
444.530754,2590.720797,-5033.400406,-612.876398
444.531076,1258.350101,-8438.347739,-995.924147
444.531398,-222.061783,-11103.089130,-689.485948
444.531719,0.000000,-12435.459826,-689.485948
444.532041,1110.308913,-11991.336260,-1149.143247
444.532363,1850.514855,-10658.965565,-2374.896044
444.532685,666.185348,-10510.924376,-1072.533697
444.533006,-1554.432478,-10881.027347,-306.438199
444.533328,-2960.823768,-10436.903782,-689.485948
444.533650,-2368.659014,-9622.677246,-2451.505594
444.533972,-1332.370696,-9548.656652,-1762.019645
444.534293,-222.061783,-8216.285956,0.000000
444.534615,444.123565,-6513.812290,1302.362347
444.534937,592.164754,-5477.523971,842.705048
444.535259,1110.308913,-6365.771101,0.000000
444.535581,814.226536,-7328.038826,-459.657299
444.535902,-296.082377,-8142.265362,-1072.533697
444.536224,-1110.308913,-8956.491898,-1302.362347
444.536546,0.000000,-9844.739029,-1915.238745
444.536868,1702.473667,-10140.821405,-2834.553343
444.537189,962.267725,-10510.924376,-3064.381992
444.537511,-1554.432478,-11843.295072,-2528.115143
444.537833,-3997.112087,-13249.686362,-1225.752797
444.538155,-4589.276840,-14063.912898,-1762.019645
444.538476,-3775.050304,-12953.603985,-2911.162892
444.538798,-1850.514855,-10881.027347,-3140.991542
444.539120,148.041188,-8586.388927,-1225.752797
444.539442,370.102971,-4959.379811,0.000000
444.539763,518.144159,-3552.988522,0.000000
444.540085,814.226536,-4737.318029,-766.095498
444.540407,1184.329507,-7624.121203,-2374.896044
444.540729,-518.144159,-9696.697840,-3064.381992
444.541050,-1406.391290,-11695.253884,-2298.286494
444.541372,-814.226536,-12583.501014,-1378.971896
444.541694,222.061783,-11695.253884,-2604.724693
444.542016,0.000000,-10288.862594,-3140.991542
444.542338,-1110.308913,-10214.842000,-2834.553343
444.542659,-1850.514855,-11177.109724,-2451.505594
444.542981,-1924.535449,-11917.315666,-3217.601092
444.543303,-1332.370696,-11621.233289,-1685.410096
444.543625,222.061783,-9548.656652,-612.876398
444.543946,1998.556043,-7179.997637,-766.095498
444.544268,2590.720797,-4737.318029,-1225.752797
444.544590,2738.761985,-4441.235652,-2221.676944
444.544912,2960.823768,-6143.709319,-2528.115143
444.545233,2220.617826,-8734.430116,-1532.190996
444.545555,444.123565,-10510.924376,-383.047749
444.545877,0.000000,-10955.047942,-842.705048
444.546199,666.185348,-9844.739029,-2451.505594
444.546520,1184.329507,-10732.986159,-4136.915689
444.546842,-370.102971,-11029.068536,-3294.210641
444.547164,-2812.782580,-11843.295072,-1378.971896
444.547486,-3478.967927,-12139.377449,-229.828649
444.547807,-1850.514855,-12065.356855,-689.485948
444.548129,-1036.288319,-9770.718434,-612.876398
444.548451,148.041188,-7179.997637,-1685.410096
444.548773,666.185348,-4737.318029,-1532.190996
444.549094,1110.308913,-4071.132681,-995.924147
444.549416,2072.576638,-5699.585753,-766.095498
444.549738,962.267725,-8216.285956,-536.266849
444.550060,-592.164754,-10436.903782,0.000000
444.550382,-2368.659014,-11473.192101,-919.314598
444.550703,-2146.597232,-11547.212695,-2528.115143
444.551025,-1184.329507,-10510.924376,-3447.429741
444.551347,-1258.350101,-10584.944971,-2757.943793
444.551669,-2590.720797,-11473.192101,-1532.190996
444.551990,-3627.009116,-12065.356855,0.000000
444.552312,-2886.803174,-12953.603985,459.657299
444.552634,-1332.370696,-11621.233289,-383.047749
444.552956,444.123565,-8956.491898,-689.485948
444.553277,1184.329507,-6291.750507,0.000000
444.553599,1998.556043,-4589.276840,306.438199
444.553921,2886.803174,-4293.194464,0.000000
444.554243,3478.967927,-5625.565159,0.000000
444.554564,2368.659014,-7846.182985,1072.533697
444.554886,888.247130,-9104.533087,536.266849
444.555208,518.144159,-10732.986159,-1532.190996
444.555530,444.123565,-10955.047942,-2604.724693
444.555851,-740.205942,-11547.212695,-2145.067394
444.556173,-1998.556043,-12953.603985,-1455.581446
444.556495,-2738.761985,-14211.954086,-1455.581446
444.556817,-3108.864956,-13989.892304,-1225.752797
444.557138,-3330.926739,-12139.377449,-1225.752797
444.557460,-1924.535449,-9622.677246,-842.705048
444.557782,0.000000,-6513.812290,-1915.238745
444.558104,814.226536,-3627.009116,-2451.505594
444.558426,1110.308913,-3478.967927,-536.266849
444.558747,2368.659014,-5551.544565,0.000000
444.559069,2072.576638,-8586.388927,-306.438199
444.559391,0.000000,-11251.130318,306.438199
444.559712,-1554.432478,-12805.562797,1302.362347
444.560034,-1258.350101,-11547.212695,153.219100
444.560356,-148.041188,-10288.862594,-3217.601092
444.560678,0.000000,-9474.636058,-3524.039291
444.560999,-1628.453072,-8808.450710,-995.924147
444.561321,-2368.659014,-9770.718434,842.705048
444.561643,-1924.535449,-11177.109724,0.000000
444.561965,-1036.288319,-11177.109724,-1762.019645
444.562286,-1110.308913,-9770.718434,-2681.334243
444.562608,-1258.350101,-8290.306550,-1225.752797
444.562930,-666.185348,-7920.203579,-689.485948
444.563252,74.020594,-7254.018232,-1762.019645
444.563573,-444.123565,-7254.018232,-1991.848295
444.563895,-1184.329507,-8734.430116,-1685.410096
444.564217,-1554.432478,-9400.615463,-2068.457845
444.564539,-1406.391290,-9770.718434,-3677.258390
444.564860,-1702.473667,-10066.800811,-3524.039291
444.565182,-1850.514855,-10584.944971,-2451.505594
444.565504,-1850.514855,-10436.903782,-1225.752797
444.565826,-1406.391290,-10140.821405,-1225.752797
444.566147,-888.247130,-10732.986159,-1225.752797
444.566469,74.020594,-10066.800811,-1991.848295
444.566791,1924.535449,-8956.491898,-2068.457845
444.567113,3256.906145,-8216.285956,-919.314598
444.567434,3552.988522,-7105.977043,153.219100
444.567756,3997.112087,-5921.647536,-229.828649
444.568078,4219.173869,-5033.400406,-919.314598
444.568400,4071.132681,-7031.956449,-1302.362347
444.568721,2368.659014,-8216.285956,-1838.629195
444.569043,888.247130,-9622.677246,-2757.943793
444.569365,-592.164754,-10584.944971,-2681.334243
444.569686,-2146.597232,-13027.624579,-2068.457845
444.570008,-3552.988522,-13027.624579,-1532.190996
444.570330,-4367.215058,-11695.253884,-2068.457845
444.570652,-3701.029710,-10658.965565,-3294.210641
444.570973,-2664.741391,-9548.656652,-3907.087040
444.571295,-2146.597232,-8290.306550,-3064.381992
444.571617,-2294.638420,-7328.038826,-2068.457845
444.571939,-2072.576638,-7920.203579,-1378.971896
444.572260,-1850.514855,-8660.409521,-3064.381992
444.572582,-1702.473667,-9918.759623,-3677.258390
444.572904,-1628.453072,-10732.986159,-2757.943793
444.573226,-814.226536,-10288.862594,-1532.190996
444.573547,444.123565,-9474.636058,-1455.581446
444.573869,1702.473667,-9178.553681,-1608.800546
444.574191,1258.350101,-9844.739029,-2298.286494
444.574513,74.020594,-11547.212695,-1302.362347
444.574834,-444.123565,-12583.501014,-229.828649
444.575156,-814.226536,-12953.603985,919.314598
444.575478,74.020594,-11621.233289,1838.629195
444.575800,3034.844362,-9548.656652,1455.581446
444.576121,4811.338623,-6217.729913,306.438199
444.576443,5329.482782,-4367.215058,229.828649
444.576765,4663.297435,-4737.318029,995.924147
444.577087,3330.926739,-6365.771101,612.876398
444.577408,1850.514855,-8364.327145,1149.143247
444.577730,-222.061783,-9844.739029,612.876398
444.578052,-1924.535449,-9770.718434,-1072.533697
444.578374,-2516.700203,-9474.636058,-2987.772442
444.578695,-3256.906145,-10140.821405,-2604.724693
444.579017,-4737.318029,-11621.233289,-2145.067394
444.579339,-5625.565159,-12287.418637,-1608.800546
444.579661,-6291.750507,-11843.295072,-383.047749
444.579982,-5699.585753,-10881.027347,-459.657299
444.580304,-4071.132681,-8586.388927,-1991.848295
444.580626,-2072.576638,-6069.688724,-2757.943793
444.580947,-814.226536,-5699.585753,-2298.286494
444.581269,148.041188,-7031.956449,-1455.581446
444.581591,962.267725,-9252.574275,-536.266849
444.581913,1036.288319,-10732.986159,459.657299
444.582234,888.247130,-11843.295072,536.266849
444.582556,2368.659014,-10955.047942,-1149.143247
444.582878,3627.009116,-9030.512492,-3370.820191
444.583200,4367.215058,-8216.285956,-2528.115143
444.583521,3701.029710,-9104.533087,-766.095498
444.583843,2072.576638,-10140.821405,-306.438199
444.584165,370.102971,-10362.883188,-459.657299
444.584487,-148.041188,-11695.253884,-1302.362347
444.584808,-296.082377,-13471.748144,-536.266849
444.585130,-148.041188,-11473.192101,-383.047749
444.585452,-370.102971,-8216.285956,-536.266849
444.585774,-370.102971,-6883.915261,76.609550
444.586095,-296.082377,-5477.523971,-766.095498
444.586417,-518.144159,-5181.441594,-2374.896044
444.586739,-2368.659014,-6809.894666,-2451.505594
444.587061,-3627.009116,-8956.491898,-1991.848295
444.587382,-4071.132681,-9844.739029,-2834.553343
444.587704,-3256.906145,-10510.924376,-3830.477490
444.588026,-3775.050304,-12287.418637,-3447.429741
444.588348,-4811.338623,-12879.583391,-2834.553343
444.588669,-5181.441594,-11843.295072,-3064.381992
444.588991,-3923.091493,-11029.068536,-2068.457845
444.589313,-1332.370696,-9770.718434,-2068.457845
444.589635,222.061783,-7476.080014,-2451.505594
444.589956,1480.411884,-5773.606348,-1685.410096
444.590278,2590.720797,-6069.688724,0.000000
444.590600,3775.050304,-6661.853478,0.000000
444.590922,4219.173869,-7105.977043,-459.657299
444.591243,3775.050304,-7920.203579,0.000000
444.591565,3108.864956,-8882.471304,0.000000
444.591887,2812.782580,-9030.512492,-1455.581446
444.592208,2368.659014,-9252.574275,-2681.334243
444.592530,1554.432478,-10955.047942,-2221.676944
444.592852,296.082377,-11843.295072,-1378.971896
444.593174,-370.102971,-12065.356855,-2451.505594
444.593495,-1554.432478,-11621.233289,-2451.505594
444.593817,-1258.350101,-10732.986159,-2374.896044
444.594139,518.144159,-9030.512492,-3064.381992
444.594461,1998.556043,-7624.121203,-3753.867940
444.594782,444.123565,-7624.121203,-2221.676944
444.595104,-1702.473667,-8216.285956,-229.828649
444.595426,-2738.761985,-9474.636058,76.609550
444.595748,-2590.720797,-10214.842000,-2068.457845
444.596069,-2368.659014,-10066.800811,-3064.381992
444.596391,-2590.720797,-8512.368333,-2834.553343
444.596713,-2442.679609,-7476.080014,-842.705048
444.597035,-2146.597232,-8068.244768,306.438199
444.597356,-1998.556043,-10510.924376,-995.924147
444.597678,-2664.741391,-11991.336260,-2757.943793
444.598000,-3404.947333,-12213.398043,-2528.115143
444.598322,-2812.782580,-13101.645173,-229.828649
444.598643,-740.205942,-12731.542202,0.000000
444.598965,1554.432478,-9770.718434,-1378.971896
444.599287,3256.906145,-7105.977043,-2451.505594
444.599609,4145.153275,-6661.853478,-1991.848295
444.599930,4145.153275,-8068.244768,-1608.800546
444.600252,2812.782580,-8882.471304,-1378.971896
444.600574,1258.350101,-10658.965565,-306.438199
444.600896,592.164754,-10732.986159,306.438199
444.601217,666.185348,-9400.615463,-1225.752797
444.601539,222.061783,-8290.306550,-2221.676944
444.601861,-1110.308913,-8216.285956,-1378.971896
444.602183,-2294.638420,-8956.491898,-1149.143247
444.602504,-2516.700203,-9252.574275,-995.924147
444.602826,-2146.597232,-10214.842000,0.000000
444.603148,-1332.370696,-10732.986159,153.219100
444.603469,-962.267725,-9326.594869,-229.828649
444.603791,-518.144159,-7254.018232,-383.047749
444.604113,222.061783,-7254.018232,-919.314598
444.604435,740.205942,-7105.977043,-1455.581446
444.604756,592.164754,-6735.874072,-1915.238745
444.605078,74.020594,-7920.203579,-766.095498
444.605400,0.000000,-9474.636058,-1225.752797
444.605722,-222.061783,-10732.986159,-1915.238745
444.606043,-1110.308913,-11029.068536,-2298.286494
444.606365,-2368.659014,-10807.006753,-612.876398
444.606687,-3182.885551,-10214.842000,-766.095498
444.607009,-3108.864956,-8660.409521,-2681.334243
444.607330,-3034.844362,-8734.430116,-2604.724693
444.607652,-2368.659014,-9622.677246,-1378.971896
444.607974,-1628.453072,-9474.636058,-459.657299
444.608296,-296.082377,-8956.491898,0.000000
444.608617,888.247130,-8882.471304,-229.828649
444.608939,1480.411884,-9326.594869,-919.314598
444.609261,962.267725,-8808.450710,-1762.019645
444.609583,666.185348,-8956.491898,-612.876398
444.609904,1702.473667,-9474.636058,-383.047749
444.610226,2220.617826,-9104.533087,-2068.457845
444.610548,1776.494261,-9178.553681,-2834.553343
444.610870,0.000000,-11473.192101,-919.314598
444.611191,-1480.411884,-12509.480420,-995.924147
444.611513,-1776.494261,-11695.253884,-2987.772442
444.611835,-740.205942,-11251.130318,-3600.648841
444.612157,-74.020594,-11029.068536,-1838.629195
444.612478,0.000000,-9992.780217,-1302.362347
444.612800,74.020594,-8660.409521,-536.266849
444.613122,148.041188,-7624.121203,-383.047749
444.613443,888.247130,-7328.038826,-1532.190996
444.613765,1036.288319,-6439.791695,-2604.724693
444.614087,888.247130,-6217.729913,-2834.553343
444.614409,0.000000,-7698.141797,-1149.143247
444.614730,-444.123565,-9104.533087,-229.828649
444.615052,-1332.370696,-9918.759623,-153.219100
444.615374,-2442.679609,-11029.068536,-919.314598
444.615696,-4219.173869,-11843.295072,-1378.971896
444.616017,-3997.112087,-10807.006753,-2221.676944
444.616339,-1998.556043,-8734.430116,-3294.210641
444.616661,-148.041188,-7698.141797,-2451.505594
444.616983,1332.370696,-7698.141797,-1608.800546
444.617304,1480.411884,-7772.162391,-1685.410096
444.617626,1036.288319,-8660.409521,-1991.848295
444.617948,592.164754,-10732.986159,-1838.629195
444.618270,148.041188,-11251.130318,-2451.505594
444.618591,296.082377,-9992.780217,-2987.772442
444.618913,740.205942,-8290.306550,-1915.238745
444.619235,814.226536,-8364.327145,-459.657299
444.619557,444.123565,-8438.347739,-1762.019645
444.619878,-962.267725,-8734.430116,-2221.676944
444.620200,-2738.761985,-10955.047942,-1838.629195
444.620522,-4219.173869,-12139.377449,-2145.067394
444.620844,-3849.070898,-12361.439231,-2451.505594
444.621165,-2442.679609,-12509.480420,-1532.190996
444.621487,-666.185348,-11547.212695,-536.266849
444.621809,1480.411884,-8808.450710,-229.828649
444.622131,2442.679609,-5921.647536,-1378.971896
444.622452,2738.761985,-5403.503377,-1685.410096
444.622774,2368.659014,-6439.791695,-2221.676944
444.623096,1036.288319,-7624.121203,-2681.334243
444.623418,0.000000,-9030.512492,-2145.067394
444.623739,-888.247130,-11029.068536,-842.705048
444.624061,-1258.350101,-11251.130318,-459.657299
444.624383,-1998.556043,-10881.027347,-1685.410096
444.624704,-3478.967927,-10732.986159,-1149.143247
444.625026,-4293.194464,-9696.697840,-1149.143247
444.625348,-3108.864956,-7624.121203,-2604.724693
444.625670,-1184.329507,-6069.688724,-2757.943793
444.625991,74.020594,-6661.853478,-1072.533697
444.626313,592.164754,-7920.203579,153.219100
444.626635,370.102971,-8956.491898,0.000000
444.626957,148.041188,-10066.800811,-536.266849
444.627278,296.082377,-10436.903782,-995.924147
444.627600,1184.329507,-9844.739029,-1762.019645
444.627922,2442.679609,-8142.265362,-2145.067394
444.628244,3034.844362,-8216.285956,-2068.457845
444.628565,3330.926739,-8734.430116,-1302.362347
444.628887,2812.782580,-9770.718434,-1991.848295
444.629209,1036.288319,-11325.150913,-2068.457845
444.629531,-1258.350101,-12139.377449,-2068.457845
444.629852,-2516.700203,-11843.295072,-1378.971896
444.630174,-2220.617826,-10584.944971,-1915.238745
444.630496,-444.123565,-10214.842000,-1149.143247
444.630818,814.226536,-9474.636058,-766.095498
444.631139,518.144159,-7772.162391,-766.095498
444.631461,-148.041188,-7328.038826,-306.438199
444.631783,-518.144159,-9474.636058,-536.266849
444.632105,-962.267725,-10362.883188,-1685.410096
444.632426,-1924.535449,-8882.471304,-2528.115143
444.632748,-2294.638420,-8068.244768,-1762.019645
444.633070,-962.267725,-8438.347739,-1991.848295
444.633392,-1036.288319,-9252.574275,-2298.286494
444.633713,-2442.679609,-10658.965565,-2757.943793
444.634035,-4737.318029,-12805.562797,-1838.629195
444.634357,-5921.647536,-13619.789333,-1225.752797
444.634679,-4811.338623,-13693.809927,-1532.190996
444.635000,-2368.659014,-11843.295072,-919.314598
444.635322,-370.102971,-8586.388927,-612.876398
444.635644,1628.453072,-4885.359217,-689.485948
444.635965,3182.885551,-3478.967927,-995.924147
444.636287,4219.173869,-4959.379811,-1072.533697
444.636609,3330.926739,-7031.956449,-1072.533697
444.636931,1554.432478,-9252.574275,-536.266849
444.637252,370.102971,-10807.006753,-229.828649
444.637574,962.267725,-12065.356855,-995.924147
444.637896,740.205942,-11251.130318,-2068.457845
444.638218,74.020594,-9548.656652,-2298.286494
444.638539,-1406.391290,-9326.594869,-1149.143247
444.638861,-2146.597232,-9252.574275,-1532.190996
444.639183,-2294.638420,-9252.574275,-2374.896044
444.639505,-1850.514855,-9770.718434,-1991.848295
444.639826,-888.247130,-9844.739029,-383.047749
444.640148,-518.144159,-8660.409521,-306.438199
444.640470,518.144159,-7179.997637,-1225.752797
444.640792,740.205942,-7179.997637,-995.924147
444.641113,888.247130,-7179.997637,-1149.143247
444.641435,518.144159,-6661.853478,-2757.943793
444.641757,296.082377,-7476.080014,-2298.286494
444.642079,222.061783,-9474.636058,-2374.896044
444.642400,296.082377,-10288.862594,-2451.505594
444.642722,-666.185348,-10584.944971,-2451.505594
444.643044,-2664.741391,-11473.192101,-1532.190996
444.643366,-4441.235652,-12139.377449,-2145.067394
444.643687,-5107.421000,-12139.377449,-4290.134789
444.644009,-4515.256246,-11695.253884,-4213.525239
444.644331,-3108.864956,-11621.233289,-2604.724693
444.644653,-1480.411884,-9992.780217,-995.924147
444.644974,666.185348,-7994.224174,-995.924147
444.645296,1554.432478,-5699.585753,-842.705048
444.645618,2738.761985,-5107.421000,-2451.505594
444.645940,3256.906145,-5329.482782,-3907.087040
444.646261,3775.050304,-6217.729913,-3907.087040
444.646583,3775.050304,-9178.553681,-3064.381992
444.646905,3182.885551,-10732.986159,-1608.800546
444.647226,1924.535449,-12287.418637,-2911.162892
444.647548,296.082377,-13175.665768,-2604.724693
444.647870,-1998.556043,-13027.624579,-2451.505594
444.648192,-3108.864956,-11103.089130,-4060.306139
444.648513,-2294.638420,-9252.574275,-6281.983084
444.648835,-1332.370696,-7624.121203,-4596.572988
444.649157,0.000000,-8216.285956,-2221.676944
444.649479,518.144159,-7624.121203,-995.924147
444.649800,888.247130,-7105.977043,-1072.533697
444.650122,444.123565,-7328.038826,-1072.533697
444.650444,444.123565,-7994.224174,-3294.210641
444.650766,296.082377,-7698.141797,-4673.182538
444.651087,444.123565,-7624.121203,-4366.744339
444.651409,666.185348,-8956.491898,-3294.210641
444.651731,370.102971,-8882.471304,-3370.820191
444.652053,592.164754,-9770.718434,-3294.210641
444.652374,-1036.288319,-11029.068536,-3830.477490
444.652696,-3775.050304,-12583.501014,-4060.306139
444.653018,-5403.503377,-11325.150913,-4903.011187
444.653340,-4885.359217,-10288.862594,-5209.449386
444.653661,-2738.761985,-10955.047942,-4826.401637
444.653983,-1702.473667,-11103.089130,-3064.381992
444.654305,-1406.391290,-8882.471304,-1915.238745
444.654627,74.020594,-6883.915261,-1532.190996
444.654948,1554.432478,-6365.771101,-2911.162892
444.655270,2368.659014,-5181.441594,-4903.011187
444.655592,2220.617826,-4589.276840,-5898.935335
444.655914,1554.432478,-6587.832884,-4979.620737
444.656236,666.185348,-10066.800811,-4290.134789
444.656557,296.082377,-12361.439231,-4443.353888
444.656879,-296.082377,-13027.624579,-4826.401637
444.657201,-740.205942,-13989.892304,-4826.401637
444.657523,-2368.659014,-13767.830521,-4903.011187
444.657845,-3034.844362,-11695.253884,-5056.230287
444.658166,-2220.617826,-8882.471304,-5515.887586
444.658488,-740.205942,-8438.347739,-5132.839837
444.658810,-148.041188,-8882.471304,-3907.087040
444.659132,-444.123565,-8808.450710,-2298.286494
444.659454,74.020594,-9474.636058,-995.924147
444.659775,1628.453072,-10214.842000,-766.095498
444.660097,3034.844362,-9326.594869,-1762.019645
444.660419,3627.009116,-6291.750507,-2451.505594
444.660741,3997.112087,-3404.947333,-2528.115143
444.661063,4071.132681,-3330.926739,-3677.258390
444.661384,3627.009116,-4885.359217,-4749.792088
444.661706,2368.659014,-7254.018232,-5592.497135
444.662028,0.000000,-10510.924376,-5745.716235
444.662350,-2442.679609,-14063.912898,-4060.306139
444.662672,-3775.050304,-16580.613101,-2834.553343
444.662993,-5181.441594,-13989.892304,-2757.943793
444.663315,-5329.482782,-10066.800811,-5286.058936
444.663637,-4737.318029,-7846.182985,-5898.935335
444.663959,-3849.070898,-6587.832884,-4519.963438
444.664281,-3330.926739,-4589.276840,-2834.553343
444.664602,-1258.350101,-4219.173869,-2604.724693
444.664924,1332.370696,-6291.750507,-1685.410096
444.665246,3849.070898,-8142.265362,-1455.581446
444.665568,4293.194464,-7698.141797,-2528.115143
444.665890,4589.276840,-7254.018232,-3524.039291
444.666211,5033.400406,-8290.306550,-3140.991542
444.666533,4367.215058,-9252.574275,-4060.306139
444.666855,1850.514855,-8068.244768,-5592.497135
444.667177,-666.185348,-7772.162391,-6741.640382
444.667499,-1332.370696,-9918.759623,-7890.783629
444.667820,-1332.370696,-13175.665768,-8886.707777
444.668142,-2516.700203,-14582.057057,-7277.907231
444.668464,-3701.029710,-14952.160028,-4903.011187
444.668786,-3997.112087,-15692.365970,-3830.477490
444.669108,-3997.112087,-14656.077652,-3524.039291
444.669429,-4145.153275,-11991.336260,-3140.991542
444.669751,-4515.256246,-8216.285956,-3294.210641
444.670073,-2590.720797,-5255.462188,-4136.915689
444.670395,0.000000,-3330.926739,-4596.572988
444.670717,2368.659014,-3627.009116,-4596.572988
444.671038,3997.112087,-5033.400406,-2528.115143
444.671360,4663.297435,-7920.203579,-1378.971896
444.671682,4737.318029,-10658.965565,-2068.457845
444.672004,3701.029710,-11399.171507,-4136.915689
444.672326,1850.514855,-10214.842000,-6205.373534
444.672647,0.000000,-8660.409521,-7814.174080
444.672969,-518.144159,-8364.327145,-8044.002729
444.673291,-2294.638420,-7994.224174,-7890.783629
444.673613,-3404.947333,-8290.306550,-7967.393179
444.673935,-3923.091493,-9770.718434,-7660.954980
444.674256,-4515.256246,-12731.542202,-6741.640382
444.674578,-4885.359217,-14952.160028,-3677.258390
444.674900,-5625.565159,-13101.645173,-2145.067394
444.675222,-4367.215058,-9474.636058,-1455.581446
444.675544,-1036.288319,-6661.853478,-2221.676944
444.675865,2294.638420,-3997.112087,-3064.381992
444.676187,3997.112087,-2072.576638,-2528.115143
444.676509,5107.421000,-2368.659014,-1608.800546
444.676831,5995.668130,-5551.544565,-919.314598
444.677153,6069.688724,-8290.306550,-1149.143247
