#time,accel_x,accel_y,accel_z
454.008806,-370.102971,-9326.594869,-1532.190996
454.009128,-518.144159,-9326.594869,-1455.581446
454.009450,-370.102971,-9252.574275,-1532.190996
454.009772,-222.061783,-9252.574275,-1378.971896
454.010094,-296.082377,-9326.594869,-1762.019645
454.010416,-518.144159,-9474.636058,-1532.190996
454.010738,-592.164754,-9474.636058,-1532.190996
454.011060,-518.144159,-9326.594869,-1225.752797
454.011382,-370.102971,-9178.553681,-919.314598
454.011704,0.000000,-9030.512492,-1532.190996
454.012025,-296.082377,-9104.533087,-1378.971896
454.012347,-370.102971,-9400.615463,-1302.362347
454.012669,-296.082377,-9474.636058,-1378.971896
454.012991,-518.144159,-9474.636058,-1149.143247
454.013313,-370.102971,-9548.656652,-1149.143247
454.013635,-666.185348,-9178.553681,-1149.143247
454.013957,-296.082377,-9178.553681,-1225.752797
454.014279,-148.041188,-9178.553681,-1532.190996
454.014601,74.020594,-9326.594869,-1378.971896
454.014923,74.020594,-9400.615463,-1225.752797
454.015245,222.061783,-9104.533087,-1225.752797
454.015567,-444.123565,-9326.594869,-995.924147
454.015889,-222.061783,-9474.636058,-1302.362347
454.016211,-222.061783,-9474.636058,-1302.362347
454.016533,-370.102971,-9178.553681,-1149.143247
454.016855,-592.164754,-8808.450710,-995.924147
454.017177,-148.041188,-9104.533087,-1225.752797
454.017499,-222.061783,-9326.594869,-1378.971896
454.017821,-296.082377,-9252.574275,-1302.362347
454.018143,-296.082377,-9178.553681,-1532.190996
454.018465,0.000000,-9400.615463,-1302.362347
454.018787,-370.102971,-8956.491898,-1532.190996
454.019109,-370.102971,-9474.636058,-1532.190996
454.019431,-370.102971,-9474.636058,-1532.190996
454.019753,-370.102971,-9474.636058,-1608.800546
454.020075,-148.041188,-9252.574275,-1302.362347
454.020397,-740.205942,-9474.636058,-1455.581446
454.020719,-370.102971,-9474.636058,-1532.190996
454.021040,-370.102971,-9474.636058,-1532.190996
454.021362,-518.144159,-9474.636058,-1685.410096
454.021684,-370.102971,-9400.615463,-1608.800546
454.022006,-444.123565,-9548.656652,-1685.410096
454.022328,-444.123565,-9178.553681,-1608.800546
454.022650,-518.144159,-9400.615463,-1685.410096
454.022972,-444.123565,-9326.594869,-1762.019645
454.023294,-592.164754,-9474.636058,-1378.971896
454.023616,-666.185348,-9474.636058,-995.924147
454.023938,-222.061783,-9548.656652,-1762.019645
454.024260,-592.164754,-9474.636058,-1685.410096
454.024582,-592.164754,-9474.636058,-1608.800546
454.024904,-518.144159,-9400.615463,-1838.629195
454.025226,-444.123565,-9474.636058,-1838.629195
454.025548,0.000000,-9326.594869,-1608.800546
454.025870,-370.102971,-9474.636058,-1378.971896
454.026192,-444.123565,-9474.636058,-1378.971896
454.026514,-444.123565,-9622.677246,-1455.581446
454.026836,-296.082377,-9326.594869,-1455.581446
454.027158,0.000000,-9178.553681,-1608.800546
454.027480,0.000000,-9178.553681,-1608.800546
454.027802,-222.061783,-9030.512492,-1685.410096
454.028124,0.000000,-9326.594869,-1608.800546
454.028446,666.185348,-9770.718434,-1455.581446
454.028768,1036.288319,-9992.780217,-919.314598
454.029090,1258.350101,-9696.697840,-612.876398
454.029412,444.123565,-9104.533087,-612.876398
454.029734,370.102971,-8734.430116,-1455.581446
454.030055,74.020594,-8882.471304,-1915.238745
454.030377,-740.205942,-8882.471304,-1685.410096
454.030699,-1110.308913,-8882.471304,-1455.581446
454.031021,-444.123565,-9252.574275,-1532.190996
454.031343,0.000000,-10140.821405,-1608.800546
454.031665,0.000000,-10584.944971,-689.485948
454.031987,0.000000,-9622.677246,-459.657299
454.032309,370.102971,-8808.450710,-1608.800546
454.032631,1628.453072,-9178.553681,-1378.971896
454.032953,2220.617826,-9770.718434,-1608.800546
454.033275,1406.391290,-9400.615463,-689.485948
454.033597,1702.473667,-8438.347739,-153.219100
454.033919,2886.803174,-9474.636058,-919.314598
454.034241,4367.215058,-10436.903782,-766.095498
454.034563,3034.844362,-9252.574275,0.000000
454.034885,2442.679609,-8512.368333,0.000000
454.035207,2886.803174,-8142.265362,-306.438199
454.035529,3478.967927,-8882.471304,-689.485948
454.035851,3034.844362,-8956.491898,-919.314598
454.036173,3108.864956,-8586.388927,-1149.143247
454.036495,3182.885551,-8586.388927,-2145.067394
454.036817,3627.009116,-9770.718434,-2221.676944
454.037139,3701.029710,-10658.965565,-1225.752797
454.037461,3849.070898,-10214.842000,-995.924147
454.037783,4145.153275,-10066.800811,-1378.971896
454.038105,4367.215058,-10658.965565,-1762.019645
454.038427,4589.276840,-9844.739029,-1915.238745
454.038749,3923.091493,-9474.636058,-2298.286494
454.039070,3701.029710,-9326.594869,-1685.410096
454.039392,4071.132681,-8956.491898,-1378.971896
454.039714,3997.112087,-8438.347739,-1455.581446
454.040036,4589.276840,-8734.430116,-1915.238745
454.040358,4959.379811,-9474.636058,-1225.752797
454.040680,5033.400406,-9622.677246,-1072.533697
454.041002,5255.462188,-8734.430116,-1302.362347
454.041324,5773.606348,-8586.388927,-1762.019645
454.041646,4811.338623,-8956.491898,-2298.286494
454.041968,3404.947333,-10214.842000,-2757.943793
454.042290,1554.432478,-10732.986159,-2451.505594
454.042612,74.020594,-11843.295072,-1608.800546
454.042934,0.000000,-13471.748144,-1685.410096
454.043256,-518.144159,-13767.830521,-383.047749
454.043578,-666.185348,-12435.459826,383.047749
454.043900,74.020594,-11177.109724,995.924147
454.044222,962.267725,-9622.677246,1072.533697
454.044544,1332.370696,-7772.162391,1608.800546
454.044866,222.061783,-6217.729913,1072.533697
454.045188,-740.205942,-5033.400406,459.657299
454.045510,-592.164754,-5255.462188,-919.314598
454.045832,222.061783,-5551.544565,-2451.505594
454.046154,1628.453072,-5847.626942,-3753.867940
454.046476,3478.967927,-6513.812290,-3294.210641
454.046798,5329.482782,-7105.977043,-4213.525239
454.047120,6957.935855,-9030.512492,-4519.963438
454.047442,7105.977043,-11991.336260,-4060.306139
454.047764,6143.709319,-13841.851115,-3524.039291
454.048085,5329.482782,-14878.139434,-3140.991542
454.048407,4959.379811,-14878.139434,-1455.581446
454.048729,3552.988522,-14063.912898,-153.219100
454.049051,2072.576638,-11843.295072,1532.190996
454.049373,1184.329507,-9622.677246,2757.943793
454.049695,1332.370696,-6661.853478,2681.334243
454.050017,1998.556043,-4737.318029,2911.162892
454.050339,1110.308913,-3923.091493,2757.943793
454.050661,518.144159,-3775.050304,2145.067394
454.050983,740.205942,-5255.462188,229.828649
454.051305,740.205942,-7328.038826,-689.485948
454.051627,-148.041188,-7846.182985,-1225.752797
454.051949,0.000000,-9104.533087,-3064.381992
454.052271,444.123565,-11917.315666,-6205.373534
454.052593,1480.411884,-14359.995275,-5975.544884
454.052915,1554.432478,-16136.489536,-5056.230287
454.053237,1036.288319,-16580.613101,-4366.744339
454.053559,666.185348,-14804.118840,-3294.210641
454.053881,1480.411884,-11843.295072,-3447.429741
454.054203,2516.700203,-9178.553681,-3830.477490
454.054525,4441.235652,-8438.347739,-2528.115143
454.054847,5329.482782,-8216.285956,919.314598
454.055169,5625.565159,-7550.100608,2681.334243
454.055491,6809.894666,-6883.915261,4213.525239
454.055813,8660.409521,-5255.462188,3294.210641
454.056135,9178.553681,-5033.400406,2068.457845
454.056457,6661.853478,-5329.482782,2834.553343
454.056779,4515.256246,-3849.070898,3140.991542
454.057100,3478.967927,-4885.359217,-383.047749
454.057422,2960.823768,-8216.285956,-3294.210641
454.057744,518.144159,-9844.739029,-2451.505594
454.058066,-1776.494261,-10807.006753,-2528.115143
454.058388,-2294.638420,-13989.892304,-4290.134789
454.058710,-1554.432478,-16876.695478,-5439.278036
454.059032,-2368.659014,-15470.304188,-5362.668486
454.059354,-2812.782580,-11695.253884,-4213.525239
454.059676,-1480.411884,-10140.821405,-2757.943793
454.059998,370.102971,-9474.636058,-4366.744339
454.060320,2442.679609,-8808.450710,-5209.449386
454.060642,4885.359217,-8882.471304,-2987.772442
454.060964,7031.956449,-9400.615463,-153.219100
454.061286,7698.141797,-9178.553681,1991.848295
454.061608,7920.203579,-8290.306550,2987.772442
454.061930,7105.977043,-7105.977043,2068.457845
454.062252,6439.791695,-7624.121203,-459.657299
454.062574,3849.070898,-8660.409521,76.609550
454.062896,1036.288319,-7846.182985,919.314598
454.063218,-1406.391290,-7179.997637,459.657299
454.063540,-1480.411884,-8290.306550,459.657299
454.063862,-592.164754,-10881.027347,-1149.143247
454.064184,74.020594,-11251.130318,-1838.629195
454.064506,74.020594,-10288.862594,-1685.410096
454.064828,1258.350101,-10436.903782,-995.924147
454.065150,3108.864956,-9918.759623,-2068.457845
454.065472,4811.338623,-8660.409521,-3370.820191
454.065794,4959.379811,-8364.327145,-3830.477490
454.066116,5255.462188,-9178.553681,-2528.115143
454.066437,4737.318029,-9030.512492,-1608.800546
454.066759,3775.050304,-8586.388927,-1762.019645
454.067081,2590.720797,-8808.450710,-1608.800546
454.067403,1628.453072,-8438.347739,-766.095498
454.067725,1406.391290,-8660.409521,-2451.505594
454.068047,1184.329507,-9770.718434,-3753.867940
454.068369,444.123565,-10288.862594,-1532.190996
454.068691,-370.102971,-7994.224174,2145.067394
454.069013,-962.267725,-6957.935855,1532.190996
454.069335,-222.061783,-9548.656652,-1455.581446
454.069657,2146.597232,-11917.315666,-2987.772442
454.069979,3404.947333,-13323.706956,-3294.210641
454.070301,3552.988522,-14730.098246,-919.314598
454.070623,4811.338623,-14063.912898,4136.915689
454.070945,6069.688724,-11325.150913,3064.381992
454.071267,6291.750507,-8512.368333,-612.876398
454.071589,7476.080014,-6735.874072,-1532.190996
454.071911,8364.327145,-8142.265362,-3140.991542
454.072233,9030.512492,-9474.636058,-3370.820191
454.072555,9696.697840,-9252.574275,536.266849
454.072877,9252.574275,-7550.100608,3140.991542
454.073199,7476.080014,-7105.977043,2528.115143
454.073521,4885.359217,-6513.812290,1149.143247
454.073843,962.267725,-3404.947333,-2068.457845
454.074165,-2812.782580,-3330.926739,-4673.182538
454.074487,-6069.688724,-6291.750507,-4366.744339
454.074809,-6661.853478,-11325.150913,-3294.210641
454.075131,-5995.668130,-12213.398043,-3447.429741
454.075452,-4071.132681,-12213.398043,-3524.039291
454.075774,-2220.617826,-13989.892304,-2145.067394
454.076096,-1776.494261,-13397.727550,-2298.286494
454.076418,-2294.638420,-12287.418637,-3140.991542
454.076739,-370.102971,-10510.924376,-5056.230287
454.077061,3108.864956,-11991.336260,-5132.839837
454.077382,4959.379811,-13619.789333,-3677.258390
454.077704,6365.771101,-12213.398043,0.000000
454.078025,8438.347739,-10436.903782,2451.505594
454.078347,10881.027347,-8068.244768,4596.572988
454.078669,12731.542202,-6069.688724,3983.696590
454.078990,12805.562797,-5255.462188,76.609550
454.079312,11399.171507,-7402.059420,-995.924147
454.079633,9474.636058,-5773.606348,1532.190996
454.079955,5181.441594,-4885.359217,2528.115143
454.080276,888.247130,-5181.441594,766.095498
454.080598,-962.267725,-7254.018232,-153.219100
454.080920,-2812.782580,-7920.203579,-3370.820191
454.081241,-4589.276840,-9474.636058,-5515.887586
454.081563,-6365.771101,-12731.542202,-4673.182538
454.081884,-7624.121203,-13545.768739,-2757.943793
454.082206,-8364.327145,-11399.171507,-3370.820191
454.082527,-7994.224174,-10955.047942,-4673.182538
454.082849,-6513.812290,-13545.768739,-5898.935335
454.083171,-5255.462188,-14137.933492,-5745.716235
454.083492,-4071.132681,-12435.459826,-2528.115143
454.083814,-740.205942,-10140.821405,766.095498
454.084135,4737.318029,-7550.100608,1225.752797
454.084457,9474.636058,-4663.297435,-229.828649
454.084778,11251.130318,-3997.112087,-536.266849
454.085100,11991.336260,-4293.194464,3140.991542
454.085422,10807.006753,-4145.153275,4136.915689
454.085743,9770.718434,-5699.585753,1991.848295
454.086065,9178.553681,-8290.306550,153.219100
454.086386,8808.450710,-9622.677246,-1378.971896
454.086708,7105.977043,-9844.739029,-2834.553343
454.087029,5773.606348,-11177.109724,-1838.629195
454.087351,4219.173869,-13249.686362,-689.485948
454.087673,2368.659014,-13397.727550,-995.924147
454.087994,518.144159,-13693.809927,-1915.238745
454.088316,-814.226536,-14656.077652,-3140.991542
454.088637,-888.247130,-13989.892304,-4213.525239
454.088959,-222.061783,-11843.295072,-3830.477490
454.089280,-518.144159,-9696.697840,-995.924147
454.089602,-888.247130,-8882.471304,1838.629195
454.089924,-1924.535449,-7328.038826,1762.019645
454.090245,-666.185348,-6143.709319,-995.924147
454.090567,1184.329507,-7031.956449,-3447.429741
454.090888,1406.391290,-6809.894666,-1072.533697
454.091210,-592.164754,-5403.503377,1149.143247
454.091531,-1480.411884,-5033.400406,306.438199
454.091853,-888.247130,-6957.935855,-2451.505594
454.092175,0.000000,-9252.574275,-4903.011187
454.092496,-814.226536,-10510.924376,-5056.230287
454.092818,0.000000,-12731.542202,-2681.334243
454.093139,1554.432478,-15248.242405,-612.876398
454.093461,2516.700203,-14285.974681,-306.438199
454.093782,3552.988522,-12287.418637,-383.047749
454.094104,5551.544565,-11473.192101,-766.095498
454.094426,6957.935855,-9474.636058,-1838.629195
454.094747,7624.121203,-9474.636058,-1302.362347
454.095069,7846.182985,-8660.409521,1762.019645
454.095390,6957.935855,-7846.182985,4903.011187
454.095712,3108.864956,-6883.915261,4596.572988
454.096033,-1036.288319,-5329.482782,1915.238745
454.096355,-3997.112087,-4219.173869,-1838.629195
454.096677,-5773.606348,-5329.482782,-4290.134789
454.096998,-7105.977043,-7846.182985,-3370.820191
454.097320,-8512.368333,-9252.574275,-459.657299
454.097641,-8586.388927,-10436.903782,-229.828649
454.097963,-7328.038826,-10584.944971,-2451.505594
454.098284,-6809.894666,-10140.821405,-4903.011187
454.098606,-6883.915261,-9548.656652,-5745.716235
454.098928,-6069.688724,-10214.842000,-4443.353888
454.099249,-4737.318029,-9474.636058,-4060.306139
454.099571,-2072.576638,-9548.656652,-4443.353888
454.099892,518.144159,-10658.965565,-3217.601092
454.100214,1850.514855,-10955.047942,-2451.505594
454.100535,1554.432478,-8808.450710,-2834.553343
454.100857,1480.411884,-8290.306550,-3064.381992
454.101179,1184.329507,-8586.388927,-2374.896044
454.101500,518.144159,-9622.677246,-612.876398
454.101822,0.000000,-9696.697840,0.000000
454.102143,1406.391290,-10288.862594,76.609550
454.102465,2516.700203,-11325.150913,153.219100
454.102786,2886.803174,-10436.903782,842.705048
454.103108,2664.741391,-8808.450710,383.047749
454.103430,3701.029710,-8586.388927,-766.095498
454.103751,4589.276840,-9918.759623,-995.924147
454.104073,4737.318029,-11325.150913,-536.266849
454.104394,2590.720797,-9696.697840,-766.095498
454.104716,1480.411884,-9474.636058,-1991.848295
454.105037,740.205942,-10362.883188,-3294.210641
454.105359,-1184.329507,-10436.903782,-3677.258390
454.105681,-4219.173869,-8586.388927,-2757.943793
454.106002,-5625.565159,-7846.182985,-2911.162892
454.106324,-4811.338623,-9474.636058,-3753.867940
454.106645,-4367.215058,-11029.068536,-3064.381992
454.106967,-5847.626942,-10436.903782,-919.314598
454.107288,-6809.894666,-8512.368333,306.438199
454.107610,-5181.441594,-6513.812290,-1532.190996
454.107932,-2442.679609,-6587.832884,-2987.772442
454.108253,74.020594,-7698.141797,-1838.629195
454.108575,1776.494261,-7772.162391,0.000000
454.108896,3182.885551,-7846.182985,1149.143247
454.109218,3849.070898,-9030.512492,1915.238745
454.109539,3923.091493,-9918.759623,1225.752797
454.109861,3627.009116,-9326.594869,-1225.752797
454.110183,3701.029710,-9178.553681,-2221.676944
454.110504,4515.256246,-9622.677246,-459.657299
454.110826,5551.544565,-10288.862594,995.924147
454.111147,5551.544565,-9918.759623,766.095498
454.111469,5551.544565,-9844.739029,536.266849
454.111790,4737.318029,-11029.068536,0.000000
454.112112,2960.823768,-10510.924376,-612.876398
454.112434,1332.370696,-8586.388927,-1302.362347
454.112755,888.247130,-8956.491898,-1838.629195
454.113077,0.000000,-10288.862594,-1072.533697
454.113398,-2368.659014,-9918.759623,-306.438199
454.113720,-4885.359217,-8586.388927,153.219100
454.114041,-6439.791695,-8364.327145,-1532.190996
454.114363,-7179.997637,-9104.533087,-4213.525239
454.114685,-7920.203579,-9622.677246,-3907.087040
454.115006,-7846.182985,-10584.944971,-2298.286494
454.115328,-6439.791695,-10510.924376,-1915.238745
454.115649,-4589.276840,-10066.800811,-2451.505594
454.115971,-3478.967927,-9770.718434,-1991.848295
454.116292,-2738.761985,-9252.574275,-1072.533697
454.116614,-1110.308913,-8364.327145,-2068.457845
454.116936,666.185348,-8586.388927,-2757.943793
454.117257,2664.741391,-9696.697840,-2528.115143
454.117579,3034.844362,-10362.883188,-1149.143247
454.117900,2368.659014,-9030.512492,-536.266849
454.118222,1924.535449,-10214.842000,383.047749
454.118543,1702.473667,-10955.047942,-919.314598
454.118865,74.020594,-9696.697840,-1762.019645
454.119187,-1702.473667,-7698.141797,-842.705048
454.119508,-1258.350101,-7772.162391,-919.314598
454.119830,-222.061783,-8586.388927,-1302.362347
454.120151,0.000000,-8586.388927,-2068.457845
454.120473,-1480.411884,-8290.306550,-689.485948
454.120794,-1628.453072,-8142.265362,-153.219100
454.121116,-296.082377,-9400.615463,-1378.971896
454.121438,962.267725,-9696.697840,-3524.039291
454.121759,1332.370696,-9622.677246,-3370.820191
454.122081,0.000000,-8734.430116,-1915.238745
454.122402,-444.123565,-9400.615463,-1378.971896
454.122724,-888.247130,-9548.656652,-2757.943793
454.123045,-814.226536,-8512.368333,-2911.162892
454.123367,-2368.659014,-7846.182985,-2834.553343
454.123689,-3330.926739,-8660.409521,-2451.505594
454.124010,-2516.700203,-8660.409521,-2528.115143
454.124332,-1850.514855,-9992.780217,-2451.505594
454.124653,-1184.329507,-10807.006753,-842.705048
454.124975,-1554.432478,-10436.903782,153.219100
454.125296,-1406.391290,-9326.594869,-689.485948
454.125618,-148.041188,-9622.677246,-2068.457845
454.125940,1406.391290,-10658.965565,-1915.238745
454.126261,2590.720797,-10362.883188,-1838.629195
454.126583,2664.741391,-9252.574275,-766.095498
454.126904,3182.885551,-9474.636058,1302.362347
454.127226,3478.967927,-9474.636058,153.219100
454.127547,3552.988522,-9918.759623,-2451.505594
454.127869,2368.659014,-9918.759623,-2145.067394
454.128191,1480.411884,-10510.924376,-1685.410096
454.128512,1554.432478,-10955.047942,-1762.019645
454.128834,1110.308913,-10584.944971,-1225.752797
454.129155,222.061783,-9548.656652,-229.828649
454.129477,-814.226536,-8882.471304,-612.876398
454.129798,-1184.329507,-8216.285956,-2145.067394
454.130120,-666.185348,-7031.956449,-2374.896044
454.130442,-592.164754,-7624.121203,-2298.286494
454.130763,-1184.329507,-8808.450710,-1378.971896
454.131085,-2294.638420,-9252.574275,-153.219100
454.131406,-3256.906145,-9400.615463,306.438199
454.131728,-3923.091493,-9770.718434,-1072.533697
454.132049,-4219.173869,-9770.718434,-1991.848295
454.132371,-4071.132681,-8216.285956,-2451.505594
454.132693,-2368.659014,-7994.224174,-1149.143247
454.133014,-888.247130,-8364.327145,-229.828649
454.133336,296.082377,-7994.224174,153.219100
454.133657,222.061783,-8290.306550,689.485948
454.133979,518.144159,-8660.409521,-229.828649
454.134300,1036.288319,-9030.512492,-1991.848295
454.134622,1776.494261,-9474.636058,-1991.848295
454.134944,1924.535449,-9992.780217,-1378.971896
454.135265,1702.473667,-10658.965565,0.000000
454.135587,1332.370696,-9844.739029,306.438199
454.135908,370.102971,-9622.677246,-383.047749
454.136230,-370.102971,-9992.780217,-1378.971896
454.136551,-1628.453072,-9770.718434,-2451.505594
454.136873,-2368.659014,-9326.594869,-2757.943793
454.137195,-2590.720797,-9992.780217,-995.924147
454.137516,-2664.741391,-11399.171507,-306.438199
454.137838,-2812.782580,-11029.068536,-995.924147
454.138159,-3478.967927,-9622.677246,-1532.190996
454.138481,-2960.823768,-9326.594869,-1685.410096
454.138802,-2368.659014,-8808.450710,-1685.410096
454.139124,-1036.288319,-8586.388927,-2987.772442
454.139446,74.020594,-8808.450710,-2374.896044
454.139767,148.041188,-10066.800811,0.000000
454.140089,-444.123565,-9178.553681,612.876398
454.140410,-1184.329507,-8660.409521,-1685.410096
454.140732,-2294.638420,-8956.491898,-3677.258390
454.141053,-2664.741391,-10066.800811,-3140.991542
454.141375,-2368.659014,-10288.862594,-1608.800546
454.141697,-1036.288319,-8956.491898,-1072.533697
454.142018,518.144159,-7994.224174,-919.314598
454.142340,1850.514855,-7920.203579,-766.095498
454.142661,1480.411884,-8660.409521,-1302.362347
454.142983,518.144159,-8364.327145,-1685.410096
454.143304,1406.391290,-7994.224174,-2451.505594
454.143626,2664.741391,-9252.574275,-2987.772442
454.143948,2590.720797,-10807.006753,-1608.800546
454.144269,1554.432478,-10436.903782,383.047749
454.144591,1332.370696,-9844.739029,-153.219100
454.144912,1998.556043,-9770.718434,-2528.115143
454.145234,2220.617826,-9178.553681,-3524.039291
454.145555,1258.350101,-8068.244768,-2374.896044
454.145877,1258.350101,-8882.471304,-1455.581446
454.146199,1628.453072,-9770.718434,-1915.238745
454.146520,1184.329507,-10436.903782,-766.095498
454.146842,-592.164754,-10288.862594,0.000000
454.147163,-2368.659014,-9104.533087,-1149.143247
454.147485,-1258.350101,-8734.430116,-2911.162892
454.147806,0.000000,-9918.759623,-3217.601092
454.148128,222.061783,-10214.842000,-1455.581446
454.148450,-592.164754,-9104.533087,459.657299
454.148771,-666.185348,-7846.182985,229.828649
454.149093,-888.247130,-9622.677246,-1838.629195
454.149414,-1258.350101,-9548.656652,-3217.601092
454.149736,-3256.906145,-9104.533087,-3217.601092
454.150057,-3404.947333,-8882.471304,-2298.286494
454.150379,-1036.288319,-10584.944971,-1455.581446
454.150701,592.164754,-11029.068536,-1991.848295
454.151022,0.000000,-9474.636058,153.219100
454.151344,-888.247130,-9030.512492,1762.019645
454.151665,-1036.288319,-8512.368333,-1225.752797
454.151987,-296.082377,-7772.162391,-4290.134789
454.152308,-740.205942,-8586.388927,-3600.648841
454.152630,-1628.453072,-9326.594869,-766.095498
454.152952,-1258.350101,-9992.780217,-689.485948
454.153273,-888.247130,-9992.780217,-1149.143247
454.153595,-962.267725,-11029.068536,-919.314598
454.153916,-1998.556043,-10288.862594,-612.876398
454.154238,-2664.741391,-8586.388927,-1838.629195
454.154559,-1850.514855,-8956.491898,-2374.896044
454.154881,-592.164754,-9548.656652,-1302.362347
454.155203,-666.185348,-8438.347739,-459.657299
454.155524,-962.267725,-7846.182985,0.000000
454.155846,-962.267725,-9104.533087,0.000000
454.156167,-666.185348,-10214.842000,-1149.143247
454.156489,-222.061783,-9474.636058,-2374.896044
454.156810,370.102971,-9770.718434,-1149.143247
454.157132,888.247130,-10140.821405,-612.876398
454.157454,370.102971,-9844.739029,-919.314598
454.157775,-592.164754,-8660.409521,0.000000
454.158097,-1924.535449,-7624.121203,-1072.533697
454.158418,-2220.617826,-8660.409521,-2604.724693
454.158740,-2664.741391,-8956.491898,-3064.381992
454.159061,-2516.700203,-9622.677246,-1302.362347
454.159383,-1702.473667,-10140.821405,536.266849
454.159705,-888.247130,-10436.903782,536.266849
454.160026,-370.102971,-10140.821405,-306.438199
454.160348,740.205942,-9252.574275,-1378.971896
454.160669,1258.350101,-7179.997637,-1608.800546
454.160991,1776.494261,-6957.935855,-2221.676944
454.161312,2368.659014,-8142.265362,-1608.800546
454.161634,1850.514855,-9548.656652,-995.924147
454.161956,666.185348,-10362.883188,-306.438199
454.162277,-592.164754,-10955.047942,-995.924147
454.162599,-962.267725,-9992.780217,-1991.848295
454.162920,-740.205942,-9474.636058,-2221.676944
454.163242,222.061783,-9622.677246,-2221.676944
454.163563,1850.514855,-9622.677246,-1225.752797
454.163885,1776.494261,-8438.347739,-306.438199
454.164207,1480.411884,-8142.265362,229.828649
454.164528,1036.288319,-8586.388927,-229.828649
454.164850,1258.350101,-8734.430116,-2298.286494
454.165171,962.267725,-8216.285956,-2911.162892
454.165493,740.205942,-9918.759623,-2145.067394
454.165814,518.144159,-10510.924376,-842.705048
454.166136,1110.308913,-9918.759623,-1072.533697
454.166458,1702.473667,-9474.636058,-2374.896044
454.166779,148.041188,-11029.068536,-2834.553343
454.167101,-2294.638420,-9326.594869,-2145.067394
454.167422,-2368.659014,-8068.244768,-2298.286494
454.167744,-888.247130,-10288.862594,-4519.963438
454.168065,148.041188,-11769.274478,-2528.115143
454.168387,-1332.370696,-10288.862594,-229.828649
454.168708,-2072.576638,-10066.800811,76.609550
454.169030,-444.123565,-9770.718434,-1608.800546
454.169352,814.226536,-11177.109724,-2834.553343
454.169673,-296.082377,-9474.636058,-1762.019645
454.169995,-1628.453072,-8068.244768,-1072.533697
454.170316,-444.123565,-7476.080014,-995.924147
454.170638,444.123565,-9104.533087,-2451.505594
454.170959,444.123565,-11103.089130,-2145.067394
454.171281,-1110.308913,-9474.636058,-919.314598
454.171603,-2368.659014,-8660.409521,-536.266849
454.171924,-1110.308913,-9326.594869,-1991.848295
454.172246,-148.041188,-9770.718434,-1915.238745
454.172567,-370.102971,-9474.636058,-2145.067394
454.172889,-1258.350101,-8438.347739,-842.705048
454.173210,-1406.391290,-8512.368333,0.000000
454.173532,-1850.514855,-7476.080014,-995.924147
454.173854,-2220.617826,-7402.059420,-1991.848295
454.174175,-1850.514855,-8068.244768,-2681.334243
454.174497,-1036.288319,-8808.450710,-2374.896044
454.174818,-1332.370696,-9474.636058,-1378.971896
454.175140,-1776.494261,-8882.471304,0.000000
454.175461,-2738.761985,-9548.656652,-842.705048
454.175783,-2960.823768,-9622.677246,-2528.115143
454.176105,-2960.823768,-10140.821405,-2604.724693
454.176427,-2516.700203,-9474.636058,-1378.971896
454.176749,-962.267725,-8734.430116,-1302.362347
454.177070,814.226536,-9474.636058,-1455.581446
454.177392,1776.494261,-10066.800811,-306.438199
454.177714,1554.432478,-10140.821405,306.438199
454.178036,1480.411884,-8512.368333,-459.657299
454.178357,2886.803174,-8882.471304,-1915.238745
454.178679,3701.029710,-9696.697840,-2298.286494
454.179001,3034.844362,-9918.759623,-766.095498
454.179323,666.185348,-9770.718434,1072.533697
454.179645,-592.164754,-9326.594869,306.438199
454.179966,-1628.453072,-9326.594869,-2451.505594
454.180288,-3034.844362,-9992.780217,-3217.601092
454.180610,-3627.009116,-9918.759623,-2834.553343
454.180932,-3404.947333,-9844.739029,-2451.505594
454.181253,-2072.576638,-9622.677246,-2221.676944
454.181575,-1406.391290,-10881.027347,-689.485948
454.181897,-962.267725,-10881.027347,-766.095498
454.182219,-888.247130,-8956.491898,-1762.019645
454.182541,0.000000,-8734.430116,-2834.553343
454.182862,1406.391290,-8956.491898,-2221.676944
454.183184,2738.761985,-8956.491898,-2298.286494
454.183506,3182.885551,-9252.574275,-1762.019645
454.183828,2812.782580,-9992.780217,0.000000
454.184149,1702.473667,-9696.697840,76.609550
454.184471,1110.308913,-8068.244768,-2374.896044
454.184793,444.123565,-8438.347739,-3370.820191
454.185115,-222.061783,-9474.636058,-1225.752797
454.185437,-740.205942,-9474.636058,612.876398
454.185758,-666.185348,-8216.285956,153.219100
454.186080,-148.041188,-9030.512492,-153.219100
454.186402,888.247130,-9178.553681,-995.924147
454.186724,888.247130,-8364.327145,-1991.848295
454.187045,592.164754,-8216.285956,-1762.019645
454.187367,814.226536,-9104.533087,-689.485948
454.187689,1480.411884,-9178.553681,-995.924147
454.188011,814.226536,-9844.739029,-2451.505594
454.188333,-814.226536,-9696.697840,-1991.848295
454.188654,-1998.556043,-10362.883188,-2298.286494
454.188976,-2738.761985,-9474.636058,-3600.648841
454.189298,-3108.864956,-9104.533087,-4060.306139
454.189620,-3108.864956,-9400.615463,-2221.676944
454.189941,-2368.659014,-10658.965565,-1762.019645
454.190263,-2146.597232,-10658.965565,-2374.896044
454.190585,-1702.473667,-9918.759623,-1532.190996
454.190907,-962.267725,-9548.656652,-689.485948
454.191229,-740.205942,-9326.594869,-1608.800546
454.191550,-222.061783,-7994.224174,-1302.362347
454.191872,148.041188,-7920.203579,-689.485948
454.192194,296.082377,-9178.553681,-229.828649
454.192516,296.082377,-9696.697840,-1302.362347
454.192837,-370.102971,-9474.636058,-2145.067394
454.193159,-1036.288319,-10732.986159,-1991.848295
454.193481,-1406.391290,-10288.862594,-995.924147
454.193803,-1184.329507,-8660.409521,-2221.676944
454.194125,592.164754,-8586.388927,-3524.039291
454.194446,1406.391290,-9474.636058,-2911.162892
454.194768,518.144159,-9622.677246,-1608.800546
454.195090,-296.082377,-9474.636058,-995.924147
454.195412,0.000000,-10140.821405,-1378.971896
454.195733,444.123565,-9622.677246,-1532.190996
454.196055,-222.061783,-8660.409521,-1532.190996
454.196377,-444.123565,-8068.244768,-995.924147
454.196699,-518.144159,-8290.306550,-1455.581446
454.197021,-1406.391290,-8142.265362,-2298.286494
454.197342,-2960.823768,-9178.553681,-2068.457845
454.197664,-3775.050304,-9400.615463,-766.095498
454.197986,-3923.091493,-8882.471304,-1072.533697
454.198308,-2886.803174,-8808.450710,-1991.848295
454.198629,-1554.432478,-9696.697840,-1915.238745
454.198951,74.020594,-9696.697840,-1302.362347
454.199273,1332.370696,-8660.409521,-536.266849
454.199595,1850.514855,-9178.553681,0.000000
454.199917,2664.741391,-9030.512492,-306.438199
454.200238,3108.864956,-8734.430116,-1915.238745
454.200560,3478.967927,-10288.862594,-2298.286494
454.200882,3034.844362,-11029.068536,-536.266849
454.201204,2368.659014,-10362.883188,-842.705048
454.201525,666.185348,-9326.594869,-689.485948
454.201847,-370.102971,-9918.759623,-689.485948
454.202169,-1776.494261,-9400.615463,-1915.238745
454.202491,-2516.700203,-8512.368333,-2374.896044
454.202813,-2442.679609,-9178.553681,-1608.800546
454.203134,-2368.659014,-9474.636058,-76.609550
454.203456,-2220.617826,-9548.656652,-766.095498
454.203778,-2072.576638,-9992.780217,-1149.143247
454.204100,-1110.308913,-10955.047942,-1302.362347
454.204421,148.041188,-10658.965565,-1608.800546
454.204743,1184.329507,-9030.512492,-1302.362347
454.205065,2072.576638,-8290.306550,-1608.800546
454.205387,2664.741391,-8586.388927,-1915.238745
454.205709,2294.638420,-10510.924376,-2145.067394
454.206030,370.102971,-9400.615463,-1378.971896
454.206352,-888.247130,-9400.615463,-1685.410096
454.206674,-666.185348,-8956.491898,-3294.210641
454.206996,-1554.432478,-8364.327145,-2604.724693
454.207317,-2664.741391,-9696.697840,-383.047749
454.207639,-3034.844362,-9400.615463,-842.705048
454.207961,-1850.514855,-8734.430116,-1838.629195
454.208283,-370.102971,-9548.656652,-1225.752797
454.208605,-370.102971,-10066.800811,-306.438199
454.208926,-740.205942,-8512.368333,76.609550
454.209248,444.123565,-6735.874072,-842.705048
454.209570,1628.453072,-8512.368333,-1838.629195
454.209892,2072.576638,-9474.636058,-1378.971896
454.210213,148.041188,-9178.553681,-1991.848295
454.210535,-1332.370696,-9030.512492,-1685.410096
454.210857,-1036.288319,-9844.739029,-1838.629195
454.211179,-888.247130,-10584.944971,-3064.381992
454.211501,-1554.432478,-10807.006753,-2681.334243
454.211822,-2368.659014,-9696.697840,-306.438199
454.212144,-1776.494261,-9622.677246,-1838.629195
454.212466,-666.185348,-9770.718434,-3370.820191
454.212788,0.000000,-10436.903782,-2451.505594
454.213109,-1110.308913,-9696.697840,-689.485948
454.213431,-1258.350101,-7920.203579,-612.876398
454.213753,592.164754,-8438.347739,-1532.190996
454.214075,1258.350101,-9992.780217,-1149.143247
454.214397,-370.102971,-10214.842000,-536.266849
454.214718,-1924.535449,-8956.491898,-1378.971896
454.215040,-2072.576638,-8586.388927,-2145.067394
454.215362,-1184.329507,-9178.553681,-1762.019645
454.215684,-1628.453072,-8734.430116,-1532.190996
454.216005,-2146.597232,-7772.162391,-1685.410096
454.216327,-666.185348,-8808.450710,-2451.505594
454.216649,592.164754,-10140.821405,-2221.676944
454.216971,1110.308913,-10510.924376,-2528.115143
454.217293,0.000000,-10066.800811,-1225.752797
454.217614,-888.247130,-9474.636058,-306.438199
454.217936,-1332.370696,-9474.636058,-1072.533697
454.218258,-962.267725,-10288.862594,-2604.724693
454.218580,-148.041188,-9474.636058,-3677.258390
454.218901,74.020594,-7994.224174,-1762.019645
454.219223,814.226536,-8364.327145,-1149.143247
454.219545,1332.370696,-8956.491898,-842.705048
454.219867,592.164754,-8586.388927,-842.705048
454.220189,-148.041188,-8438.347739,-919.314598
454.220510,-222.061783,-9770.718434,-995.924147
454.220832,0.000000,-10066.800811,-2298.286494
454.221154,-666.185348,-9326.594869,-2145.067394
454.221476,-666.185348,-9992.780217,-536.266849
454.221797,74.020594,-10066.800811,76.609550
454.222119,1110.308913,-8808.450710,-1685.410096
454.222441,2072.576638,-9178.553681,-2604.724693
454.222763,2368.659014,-9548.656652,-1608.800546
454.223085,962.267725,-9474.636058,-1532.190996
454.223406,-740.205942,-9844.739029,-919.314598
454.223728,-1776.494261,-10881.027347,-306.438199
454.224050,-2368.659014,-11029.068536,-2221.676944
454.224372,-3108.864956,-10066.800811,-2757.943793
454.224693,-3330.926739,-9918.759623,-842.705048
454.225015,-2294.638420,-9622.677246,0.000000
454.225337,-666.185348,-8438.347739,-689.485948
454.225659,370.102971,-8956.491898,-995.924147
454.225980,0.000000,-9622.677246,76.609550
454.226302,-962.267725,-9326.594869,76.609550
454.226624,-814.226536,-7624.121203,-1378.971896
454.226946,888.247130,-8068.244768,-2145.067394
454.227268,2220.617826,-9474.636058,-1225.752797
454.227589,1406.391290,-9918.759623,-1302.362347
454.227911,518.144159,-8956.491898,-612.876398
454.228233,1036.288319,-8956.491898,-536.266849
454.228555,1110.308913,-9178.553681,-1915.238745
454.228876,-444.123565,-9030.512492,-2068.457845
454.229198,-2368.659014,-9104.533087,-1455.581446
454.229520,-2886.803174,-9474.636058,-995.924147
454.229842,-2368.659014,-9622.677246,-1762.019645
454.230164,-1628.453072,-10214.842000,-1149.143247
454.230485,-1406.391290,-10066.800811,-689.485948
454.230807,-814.226536,-9252.574275,-612.876398
454.231129,0.000000,-8586.388927,-1225.752797
454.231451,1258.350101,-8956.491898,-1532.190996
454.231772,1628.453072,-8142.265362,-1455.581446
454.232094,444.123565,-7772.162391,-2298.286494
454.232416,-666.185348,-8290.306550,-2757.943793
454.232738,-1480.411884,-9622.677246,-2757.943793
454.233060,-2368.659014,-10955.047942,-2834.553343
454.233381,-2516.700203,-11177.109724,-2145.067394
454.233703,-1702.473667,-11621.233289,-2068.457845
454.234025,-740.205942,-11251.130318,-2298.286494
454.234347,-666.185348,-10436.903782,-1762.019645
454.234668,-518.144159,-10214.842000,-995.924147
454.234990,-518.144159,-9104.533087,-1455.581446
454.235312,-888.247130,-8216.285956,-1225.752797
454.235634,-1628.453072,-8216.285956,-536.266849
454.235956,-1406.391290,-7994.224174,-689.485948
454.236277,-1184.329507,-8438.347739,-1608.800546
454.236599,-592.164754,-10214.842000,-1072.533697
454.236921,-222.061783,-10881.027347,-612.876398
454.237243,-370.102971,-8290.306550,-842.705048
454.237564,-962.267725,-7698.141797,-383.047749
454.237886,-1184.329507,-8808.450710,-536.266849
454.238208,-1406.391290,-8734.430116,-2834.553343
454.238530,-1702.473667,-8290.306550,-4136.915689
454.238852,-1184.329507,-9770.718434,-1225.752797
454.239173,-592.164754,-10658.965565,76.609550
454.239495,-148.041188,-9252.574275,-1072.533697
454.239817,444.123565,-8956.491898,-1302.362347
454.240139,1332.370696,-10214.842000,-995.924147
454.240460,1702.473667,-9104.533087,-1991.848295
454.240782,1184.329507,-7772.162391,-2145.067394
454.241104,222.061783,-7698.141797,-536.266849
454.241426,592.164754,-8290.306550,-1225.752797
454.241748,296.082377,-7846.182985,-2374.896044
454.242069,222.061783,-8364.327145,-2451.505594
454.242391,592.164754,-9474.636058,-919.314598
454.242713,1480.411884,-9770.718434,-995.924147
454.243035,1628.453072,-9696.697840,-1532.190996
454.243356,1406.391290,-10658.965565,-842.705048
454.243678,518.144159,-10732.986159,-842.705048
454.244000,0.000000,-10140.821405,-1915.238745
454.244322,0.000000,-8956.491898,-2451.505594
454.244644,1184.329507,-8438.347739,-2451.505594
454.244965,1924.535449,-9326.594869,-3217.601092
454.245287,962.267725,-10807.006753,-2068.457845
454.245609,-296.082377,-11769.274478,-536.266849
454.245931,-1480.411884,-11177.109724,-842.705048
454.246252,-2294.638420,-10658.965565,-2451.505594
454.246574,-3256.906145,-10732.986159,-2298.286494
454.246896,-3552.988522,-10288.862594,-1302.362347
454.247218,-2590.720797,-9178.553681,-2068.457845
454.247540,-666.185348,-8660.409521,-2374.896044
454.247861,740.205942,-8808.450710,-995.924147
454.248183,666.185348,-8734.430116,-306.438199
454.248505,518.144159,-9030.512492,-689.485948
454.248827,1110.308913,-9252.574275,-1378.971896
454.249148,2072.576638,-9474.636058,-1915.238745
454.249470,1776.494261,-9622.677246,-1685.410096
454.249792,518.144159,-8956.491898,-536.266849
454.250114,-814.226536,-8364.327145,-1378.971896
454.250436,-888.247130,-8882.471304,-1991.848295
454.250757,-1258.350101,-9252.574275,-1915.238745
454.251079,-2146.597232,-9326.594869,-1225.752797
454.251401,-2442.679609,-9326.594869,-612.876398
454.251723,-1110.308913,-10066.800811,-919.314598
454.252044,-1184.329507,-9622.677246,153.219100
454.252366,-1998.556043,-8512.368333,612.876398
454.252688,-2368.659014,-7772.162391,-383.047749
454.253010,-1406.391290,-7105.977043,-2145.067394
454.253332,-222.061783,-7254.018232,-2834.553343
454.253653,740.205942,-8290.306550,-1072.533697
454.253975,444.123565,-9474.636058,76.609550
454.254297,222.061783,-9918.759623,-689.485948
454.254619,74.020594,-10732.986159,-2451.505594
454.254940,-592.164754,-11103.089130,-2604.724693
454.255262,-1554.432478,-11177.109724,-2221.676944
454.255584,-2442.679609,-10066.800811,-2068.457845
454.255906,-1776.494261,-10584.944971,-2374.896044
454.256228,-740.205942,-10955.047942,-1915.238745
454.256549,-592.164754,-11177.109724,-1455.581446
454.256871,-444.123565,-10066.800811,0.000000
454.257193,-666.185348,-8216.285956,-459.657299
454.257515,0.000000,-7105.977043,-1225.752797
454.257836,222.061783,-7772.162391,-2221.676944
454.258158,0.000000,-8808.450710,-1532.190996
454.258480,-444.123565,-9770.718434,-612.876398
454.258802,-1184.329507,-9696.697840,-1072.533697
454.259124,-1554.432478,-10362.883188,-1149.143247
454.259445,-1850.514855,-10288.862594,-2068.457845
454.259767,-1184.329507,-9992.780217,-2374.896044
454.260089,0.000000,-9622.677246,-2145.067394
454.260411,1036.288319,-9474.636058,-1915.238745
454.260732,1184.329507,-8364.327145,-1302.362347
454.261054,518.144159,-8364.327145,-766.095498
454.261376,-222.061783,-9326.594869,-1455.581446
454.261698,-666.185348,-9326.594869,-1915.238745
454.262020,-296.082377,-8956.491898,-2145.067394
454.262341,370.102971,-8438.347739,-1608.800546
454.262663,1332.370696,-8734.430116,-1378.971896
454.262985,2072.576638,-8586.388927,-689.485948
454.263307,2146.597232,-8882.471304,-689.485948
454.263628,1702.473667,-8068.244768,-919.314598
454.263950,-296.082377,-8216.285956,-1455.581446
454.264272,-222.061783,-8364.327145,-1762.019645
454.264594,-370.102971,-9696.697840,-2145.067394
454.264916,-148.041188,-10436.903782,-2145.067394
454.265237,370.102971,-10288.862594,-536.266849
454.265559,1258.350101,-8808.450710,0.000000
454.265881,1480.411884,-9622.677246,-1302.362347
454.266203,1184.329507,-8956.491898,-1915.238745
454.266524,962.267725,-8586.388927,-2757.943793
454.266846,592.164754,-9326.594869,-2987.772442
454.267168,-222.061783,-10807.006753,-2068.457845
454.267490,-1184.329507,-10955.047942,-1532.190996
454.267812,-2960.823768,-10807.006753,-2068.457845
454.268133,-2960.823768,-11621.233289,-2681.334243
454.268455,-2960.823768,-12509.480420,-2221.676944
454.268777,-2146.597232,-11695.253884,-1302.362347
454.269099,-962.267725,-8734.430116,-689.485948
454.269420,74.020594,-8290.306550,-383.047749
454.269742,1036.288319,-8216.285956,153.219100
454.270064,740.205942,-8586.388927,-1072.533697
454.270386,148.041188,-7698.141797,-1915.238745
454.270708,592.164754,-7698.141797,-1302.362347
454.271029,962.267725,-9104.533087,-995.924147
454.271351,1036.288319,-9696.697840,-919.314598
454.271673,0.000000,-9252.574275,-306.438199
454.271995,-740.205942,-9918.759623,-842.705048
454.272316,-888.247130,-10140.821405,-1608.800546
454.272638,-2220.617826,-9918.759623,-2604.724693
454.272960,-3701.029710,-7698.141797,-1685.410096
454.273282,-3330.926739,-7772.162391,-1915.238745
454.273604,-2590.720797,-8734.430116,-2451.505594
454.273925,-2664.741391,-9548.656652,-1608.800546
454.274247,-2664.741391,-9474.636058,-153.219100
454.274569,-1924.535449,-8438.347739,-383.047749
454.274891,-592.164754,-8660.409521,-1762.019645
454.275212,962.267725,-8882.471304,-1762.019645
454.275534,2146.597232,-8956.491898,-1149.143247
454.275856,2294.638420,-9326.594869,-1225.752797
454.276178,2146.597232,-8364.327145,-842.705048
454.276500,1628.453072,-8586.388927,-995.924147
454.276821,518.144159,-9548.656652,-2221.676944
454.277143,-296.082377,-10658.965565,-2221.676944
454.277465,-740.205942,-10510.924376,-842.705048
454.277787,-370.102971,-9992.780217,-1149.143247
454.278108,-740.205942,-10732.986159,-842.705048
454.278430,-370.102971,-9918.759623,0.000000
454.278752,-962.267725,-8660.409521,-919.314598
454.279073,-1406.391290,-7920.203579,-1991.848295
454.279395,-1628.453072,-8216.285956,-2068.457845
454.279717,-1332.370696,-8290.306550,-2604.724693
454.280038,-1184.329507,-9844.739029,-1915.238745
454.280360,-814.226536,-10807.006753,-1455.581446
454.280682,-888.247130,-10807.006753,-1455.581446
454.281004,-888.247130,-10584.944971,-1225.752797
454.281325,-1332.370696,-10658.965565,-1302.362347
454.281647,-814.226536,-9622.677246,-1915.238745
454.281969,0.000000,-8512.368333,-1915.238745
454.282290,962.267725,-8808.450710,-995.924147
454.282612,1850.514855,-8808.450710,229.828649
454.282934,2146.597232,-8438.347739,229.828649
454.283255,2220.617826,-8956.491898,-1225.752797
454.283577,2146.597232,-9326.594869,-995.924147
454.283899,1702.473667,-8438.347739,-306.438199
454.284220,1628.453072,-7402.059420,-689.485948
454.284542,2368.659014,-7105.977043,-2068.457845
454.284864,2368.659014,-8734.430116,-2068.457845
454.285185,888.247130,-10140.821405,-1915.238745
454.285507,-1924.535449,-10066.800811,-842.705048
454.285829,-3330.926739,-9178.553681,-842.705048
454.286150,-2886.803174,-9400.615463,-2757.943793
454.286472,-1850.514855,-10584.944971,-3524.039291
454.286794,-1184.329507,-10140.821405,-2221.676944
454.287115,-1776.494261,-8882.471304,-612.876398
454.287437,-296.082377,-9104.533087,-612.876398
454.287759,518.144159,-9474.636058,-1455.581446
454.288080,592.164754,-9252.574275,-1532.190996
454.288402,-296.082377,-8068.244768,-1608.800546
454.288724,74.020594,-8068.244768,-2451.505594
454.289045,962.267725,-9622.677246,-2987.772442
454.289367,0.000000,-10288.862594,-1685.410096
454.289689,-1998.556043,-11029.068536,-1149.143247
454.290010,-3034.844362,-10436.903782,-2604.724693
454.290332,-2960.823768,-11621.233289,-3064.381992
454.290654,-1998.556043,-11399.171507,-2451.505594
454.290975,-888.247130,-11325.150913,-2298.286494
454.291297,296.082377,-8808.450710,-1532.190996
454.291619,1036.288319,-8438.347739,459.657299
454.291940,666.185348,-9474.636058,459.657299
454.292262,-296.082377,-9400.615463,-842.705048
454.292584,-592.164754,-7550.100608,-1685.410096
454.292905,148.041188,-8956.491898,-1608.800546
454.293227,1850.514855,-9252.574275,-612.876398
454.293549,1406.391290,-8364.327145,-306.438199
454.293870,148.041188,-7772.162391,0.000000
454.294192,-1258.350101,-8068.244768,-689.485948
454.294514,-2368.659014,-8216.285956,-3140.991542
454.294835,-3701.029710,-8290.306550,-4596.572988
454.295157,-3923.091493,-9696.697840,-2911.162892
454.295479,-3478.967927,-9992.780217,-1225.752797
454.295800,-2664.741391,-9918.759623,-1378.971896
454.296122,-1258.350101,-10881.027347,0.000000
454.296444,-518.144159,-10214.842000,-612.876398
454.296765,-148.041188,-7994.224174,-2298.286494
454.297087,1258.350101,-7624.121203,-2221.676944
454.297409,2516.700203,-8364.327145,-1302.362347
454.297730,3034.844362,-8882.471304,-689.485948
454.298052,2368.659014,-8660.409521,-306.438199
454.298374,1702.473667,-9918.759623,0.000000
454.298695,1480.411884,-10510.924376,-689.485948
454.299017,0.000000,-9992.780217,-1915.238745
454.299339,-1036.288319,-9474.636058,-1991.848295
454.299660,-740.205942,-10436.903782,-1378.971896
454.299982,-370.102971,-11177.109724,-1762.019645
454.300304,-518.144159,-10881.027347,0.000000
454.300625,-518.144159,-10362.883188,153.219100
454.300947,0.000000,-9252.574275,-1608.800546
454.301269,740.205942,-8734.430116,-3217.601092
454.301590,1184.329507,-8734.430116,-2604.724693
454.301912,888.247130,-9622.677246,-1072.533697
454.302234,148.041188,-9326.594869,-919.314598
454.302555,-1110.308913,-9992.780217,-995.924147
454.302877,-1554.432478,-10807.006753,-2298.286494
454.303199,-2072.576638,-10510.924376,-2681.334243
454.303520,-2664.741391,-9252.574275,-1991.848295
454.303842,-1628.453072,-7402.059420,-1532.190996
454.304164,814.226536,-7624.121203,-2221.676944
454.304485,1776.494261,-7698.141797,-1762.019645
454.304807,962.267725,-8142.265362,0.000000
454.305129,-222.061783,-8586.388927,612.876398
454.305450,-518.144159,-7254.018232,-1378.971896
454.305772,-222.061783,-8660.409521,-2528.115143
454.306094,296.082377,-9548.656652,-1991.848295
454.306415,-444.123565,-9252.574275,-1149.143247
454.306737,444.123565,-8586.388927,-766.095498
454.307059,1406.391290,-8660.409521,-1685.410096
454.307380,888.247130,-9622.677246,-3524.039291
454.307702,-1332.370696,-9696.697840,-1991.848295
454.308024,-2664.741391,-9770.718434,-1455.581446
454.308345,-1554.432478,-10955.047942,-2757.943793
454.308667,518.144159,-11029.068536,-3600.648841
454.308989,1406.391290,-10658.965565,-1532.190996
454.309310,1332.370696,-9622.677246,689.485948
454.309632,1554.432478,-9400.615463,153.219100
454.309954,2146.597232,-8734.430116,-919.314598
454.310275,2368.659014,-9104.533087,-1532.190996
454.310597,1776.494261,-9400.615463,-306.438199
454.310919,518.144159,-7994.224174,-919.314598
454.311240,-592.164754,-8882.471304,-1149.143247
454.311562,-1406.391290,-9844.739029,-766.095498
454.311884,-3108.864956,-9696.697840,-2068.457845
454.312205,-5181.441594,-9548.656652,-2834.553343
454.312527,-6069.688724,-11029.068536,-2528.115143
454.312849,-4885.359217,-12139.377449,-2987.772442
454.313170,-4219.173869,-11325.150913,-3370.820191
454.313492,-3478.967927,-11103.089130,-1685.410096
454.313814,-2886.803174,-11029.068536,76.609550
454.314135,-2220.617826,-9252.574275,-536.266849
454.314457,-666.185348,-7624.121203,-1915.238745
454.314779,2072.576638,-7920.203579,-2604.724693
454.315100,3775.050304,-7846.182985,-1378.971896
454.315422,3701.029710,-7624.121203,0.000000
454.315744,2146.597232,-7920.203579,459.657299
454.316065,1924.535449,-8586.388927,76.609550
454.316387,0.000000,-9770.718434,-1225.752797
454.316709,-2220.617826,-9474.636058,-1685.410096
454.317030,-2664.741391,-8808.450710,-1455.581446
454.317352,-1258.350101,-8290.306550,-919.314598
454.317674,0.000000,-9030.512492,-459.657299
454.317995,0.000000,-9400.615463,1072.533697
454.318317,0.000000,-8216.285956,153.219100
454.318639,74.020594,-7476.080014,-1838.629195
454.318960,962.267725,-8660.409521,-2451.505594
454.319282,1406.391290,-9622.677246,-2451.505594
454.319604,1110.308913,-9400.615463,-1378.971896
454.319925,518.144159,-9844.739029,153.219100
454.320247,0.000000,-10066.800811,229.828649
454.320569,518.144159,-9326.594869,-1838.629195
454.320890,0.000000,-9252.574275,-3677.258390
454.321212,-962.267725,-8956.491898,-2911.162892
454.321534,-1258.350101,-8882.471304,-1685.410096
454.321855,-296.082377,-8290.306550,-1915.238745
454.322177,296.082377,-10584.944971,-1608.800546
454.322499,-740.205942,-12065.356855,-612.876398
454.322820,-2664.741391,-10807.006753,-1378.971896
454.323142,-2220.617826,-10436.903782,-2757.943793
454.323464,-296.082377,-10881.027347,-2298.286494
454.323785,1036.288319,-10288.862594,-1149.143247
454.324107,1480.411884,-8586.388927,-1072.533697
454.324429,1850.514855,-8068.244768,-383.047749
454.324750,1628.453072,-9992.780217,-459.657299
454.325072,0.000000,-10140.821405,-1225.752797
454.325394,-1924.535449,-9030.512492,-1838.629195
454.325715,-1776.494261,-8882.471304,-1762.019645
454.326037,0.000000,-10362.883188,-1225.752797
454.326359,1332.370696,-10140.821405,-612.876398
454.326680,814.226536,-8660.409521,-229.828649
454.327002,518.144159,-7846.182985,-153.219100
454.327324,814.226536,-7994.224174,-1072.533697
454.327645,592.164754,-7846.182985,-2681.334243
454.327967,-222.061783,-6809.894666,-2681.334243
454.328289,-518.144159,-7994.224174,-1991.848295
454.328610,-962.267725,-9918.759623,-1762.019645
454.328932,-2146.597232,-10807.006753,-1532.190996
454.329254,-3849.070898,-10436.903782,-1225.752797
454.329575,-4589.276840,-9992.780217,-2451.505594
454.329897,-4145.153275,-9548.656652,-3294.210641
454.330219,-3997.112087,-9104.533087,-2987.772442
454.330540,-2590.720797,-9030.512492,-1532.190996
454.330862,-1258.350101,-8512.368333,-612.876398
454.331184,0.000000,-8512.368333,-1225.752797
454.331505,1184.329507,-9252.574275,-842.705048
454.331827,2368.659014,-10362.883188,-766.095498
454.332149,2812.782580,-9770.718434,-1225.752797
454.332470,3552.988522,-9030.512492,-1149.143247
454.332792,3552.988522,-9326.594869,-689.485948
454.333114,2368.659014,-10362.883188,-306.438199
454.333435,740.205942,-9918.759623,-1149.143247
454.333757,-1258.350101,-8438.347739,-2298.286494
454.334079,-1998.556043,-9622.677246,-3983.696590
454.334400,-2664.741391,-11473.192101,-2911.162892
454.334722,-3923.091493,-11251.130318,-1225.752797
454.335044,-4737.318029,-10214.842000,-459.657299
454.335365,-4071.132681,-9770.718434,-1149.143247
454.335687,-2738.761985,-10584.944971,-2604.724693
454.336009,-2738.761985,-10214.842000,-3217.601092
454.336330,-2442.679609,-8660.409521,-2221.676944
454.336652,-1110.308913,-7031.956449,-689.485948
454.336974,1110.308913,-8068.244768,-536.266849
454.337295,2590.720797,-9400.615463,-1838.629195
454.337617,1628.453072,-9400.615463,-766.095498
454.337939,148.041188,-9104.533087,-383.047749
454.338260,-222.061783,-9400.615463,-306.438199
454.338582,-296.082377,-9400.615463,-919.314598
454.338904,-1332.370696,-7994.224174,-2528.115143
454.339225,-1850.514855,-8142.265362,-1762.019645
454.339547,-1184.329507,-8956.491898,-919.314598
454.339869,296.082377,-8956.491898,-995.924147
454.340190,1110.308913,-8142.265362,-1378.971896
454.340512,1258.350101,-7624.121203,-306.438199
454.340834,1036.288319,-8882.471304,-612.876398
454.341155,2072.576638,-9770.718434,-1455.581446
454.341477,2368.659014,-9548.656652,-1762.019645
454.341799,2368.659014,-9104.533087,-1532.190996
454.342120,1628.453072,-9104.533087,-1072.533697
454.342442,370.102971,-8438.347739,-689.485948
454.342764,-370.102971,-9548.656652,-2221.676944
454.343085,-666.185348,-9548.656652,-3217.601092
454.343407,-592.164754,-8882.471304,-1915.238745
454.343729,0.000000,-9104.533087,-995.924147
454.344050,0.000000,-10584.944971,-1991.848295
454.344372,-666.185348,-10881.027347,-689.485948
454.344694,-1776.494261,-10955.047942,-536.266849
454.345015,-2294.638420,-10881.027347,-1225.752797
454.345337,-1480.411884,-9770.718434,-2528.115143
454.345659,0.000000,-9030.512492,-2451.505594
454.345980,444.123565,-9770.718434,-1302.362347
454.346302,1258.350101,-9918.759623,229.828649
454.346624,888.247130,-9400.615463,-153.219100
454.346945,592.164754,-9252.574275,-995.924147
454.347267,-148.041188,-9844.739029,-842.705048
454.347589,-1480.411884,-8586.388927,-1915.238745
454.347910,-1406.391290,-9696.697840,-1608.800546
454.348232,-888.247130,-10955.047942,-919.314598
454.348554,-148.041188,-10066.800811,0.000000
454.348875,0.000000,-8438.347739,766.095498
454.349197,0.000000,-8068.244768,0.000000
454.349519,222.061783,-8068.244768,-2298.286494
454.349840,148.041188,-7105.977043,-2834.553343
454.350162,0.000000,-7920.203579,-2298.286494
454.350484,-888.247130,-8660.409521,-842.705048
454.350805,-1702.473667,-9400.615463,-1302.362347
454.351127,-3330.926739,-9474.636058,-2834.553343
454.351449,-3775.050304,-11251.130318,-2528.115143
454.351770,-4737.318029,-10955.047942,-1302.362347
454.352092,-4441.235652,-9104.533087,-1532.190996
454.352414,-2516.700203,-8290.306550,-1378.971896
454.352735,-148.041188,-7624.121203,-1149.143247
454.353057,370.102971,-7846.182985,-1225.752797
454.353379,74.020594,-8142.265362,-995.924147
454.353700,0.000000,-8364.327145,-919.314598
454.354022,296.082377,-8660.409521,-1455.581446
454.354344,888.247130,-9252.574275,-2221.676944
454.354665,1406.391290,-10362.883188,-1455.581446
454.354987,1554.432478,-10807.006753,-536.266849
454.355309,888.247130,-9844.739029,-612.876398
454.355630,518.144159,-9770.718434,-1915.238745
454.355952,0.000000,-10066.800811,-2681.334243
454.356274,-1480.411884,-9844.739029,-2451.505594
454.356595,-2442.679609,-10288.862594,-2068.457845
454.356917,-2516.700203,-10658.965565,-2298.286494
454.357239,-2368.659014,-11251.130318,-2298.286494
454.357560,-2590.720797,-11251.130318,-1838.629195
454.357882,-2812.782580,-9696.697840,0.000000
454.358204,-2960.823768,-7846.182985,-1302.362347
454.358525,-1702.473667,-6735.874072,-2911.162892
454.358847,0.000000,-7994.224174,-2911.162892
454.359169,148.041188,-9030.512492,-1762.019645
454.359490,-444.123565,-9252.574275,-919.314598
454.359812,-814.226536,-9992.780217,-229.828649
454.360134,-888.247130,-10288.862594,-842.705048
454.360455,-2220.617826,-10140.821405,-2374.896044
454.360777,-3552.988522,-9474.636058,-2681.334243
454.361099,-3478.967927,-9178.553681,-2757.943793
454.361420,-2220.617826,-9622.677246,-2451.505594
454.361742,-1184.329507,-9326.594869,-2145.067394
454.362064,-888.247130,-8438.347739,-612.876398
454.362385,-1258.350101,-7402.059420,-153.219100
454.362707,-1480.411884,-8068.244768,-1072.533697
454.363029,-2072.576638,-8290.306550,-1762.019645
454.363350,-1258.350101,-8512.368333,-2298.286494
454.363672,-666.185348,-8660.409521,-2451.505594
454.363994,-1036.288319,-8734.430116,-1608.800546
454.364315,-1776.494261,-9030.512492,0.000000
454.364637,-1850.514855,-9178.553681,-1608.800546
454.364959,-2960.823768,-9622.677246,-3217.601092
454.365280,-4145.153275,-9918.759623,-3294.210641
454.365602,-4811.338623,-10066.800811,-2068.457845
454.365924,-4737.318029,-9178.553681,-1915.238745
454.366245,-4071.132681,-9400.615463,-2068.457845
454.366567,-3849.070898,-10288.862594,-2451.505594
454.366889,-4737.318029,-11103.089130,-1685.410096
454.367210,-5625.565159,-9770.718434,-1685.410096
454.367532,-5847.626942,-9548.656652,-1915.238745
454.367854,-5107.421000,-9104.533087,-1762.019645
454.368175,-3997.112087,-9474.636058,-2298.286494
454.368497,-3256.906145,-9252.574275,-2451.505594
454.368819,-2516.700203,-9104.533087,-1225.752797
454.369140,-2294.638420,-8734.430116,-1149.143247
454.369462,-2960.823768,-9696.697840,-2068.457845
454.369784,-4663.297435,-10510.924376,-1915.238745
454.370105,-6291.750507,-10807.006753,-1072.533697
454.370427,-7328.038826,-10732.986159,-1532.190996
454.370749,-6587.832884,-10658.965565,-1915.238745
454.371070,-5107.421000,-9696.697840,-2068.457845
454.371392,-3849.070898,-8956.491898,-1532.190996
454.371714,-3775.050304,-7179.997637,-536.266849
454.372035,-3478.967927,-6587.832884,229.828649
454.372357,-2886.803174,-7031.956449,-1302.362347
454.372679,-2516.700203,-7476.080014,-2757.943793
454.373000,-3404.947333,-7624.121203,-3064.381992
454.373322,-3404.947333,-8808.450710,-2221.676944
454.373644,-2664.741391,-9844.739029,-1378.971896
454.373965,-1776.494261,-10362.883188,-1915.238745
454.374287,-2072.576638,-9844.739029,-1991.848295
454.374609,-2072.576638,-9918.759623,-1455.581446
454.374930,-1702.473667,-10362.883188,-2145.067394
454.375252,-2590.720797,-10807.006753,-2374.896044
454.375574,-3849.070898,-10955.047942,-536.266849
454.375895,-4515.256246,-9178.553681,383.047749
454.376217,-3256.906145,-7994.224174,0.000000
454.376539,-1036.288319,-8216.285956,-1378.971896
454.376860,0.000000,-8142.265362,-612.876398
454.377182,0.000000,-7105.977043,383.047749
454.377504,296.082377,-7105.977043,1149.143247
454.377825,888.247130,-8364.327145,842.705048
454.378147,-148.041188,-8734.430116,-1302.362347
454.378469,-2294.638420,-7698.141797,-2528.115143
454.378790,-4663.297435,-7105.977043,-3524.039291
454.379112,-5033.400406,-8512.368333,-4749.792088
454.379433,-5329.482782,-10066.800811,-5286.058936
454.379755,-6217.729913,-11399.171507,-4673.182538
454.380077,-6661.853478,-12287.418637,-3753.867940
454.380398,-6661.853478,-13767.830521,-3830.477490
454.380720,-5847.626942,-13841.851115,-4366.744339
454.381041,-6735.874072,-14285.974681,-4136.915689
454.381363,-7624.121203,-12435.459826,-1838.629195
454.381685,-7624.121203,-9992.780217,-383.047749
454.382006,-6069.688724,-7772.162391,536.266849
454.382328,-3182.885551,-6439.791695,-306.438199
454.382649,-592.164754,-5107.421000,-459.657299
454.382971,2072.576638,-5551.544565,76.609550
454.383293,3849.070898,-6661.853478,1685.410096
454.383614,4811.338623,-7772.162391,2221.676944
454.383936,4663.297435,-7254.018232,1149.143247
454.384257,3701.029710,-8660.409521,-536.266849
454.384579,518.144159,-9252.574275,-1991.848295
454.384900,-3330.926739,-8660.409521,-3677.258390
454.385222,-6439.791695,-9400.615463,-4290.134789
454.385544,-8142.265362,-10732.986159,-4443.353888
454.385865,-9474.636058,-11473.192101,-4596.572988
454.386187,-9622.677246,-11621.233289,-5056.230287
454.386508,-9400.615463,-11843.295072,-3907.087040
454.386830,-9104.533087,-11695.253884,-2221.676944
454.387152,-8290.306550,-10658.965565,-1455.581446
454.387473,-8068.244768,-8290.306550,-1685.410096
454.387795,-7402.059420,-7476.080014,-1915.238745
454.388116,-6069.688724,-7772.162391,-1302.362347
454.388438,-4811.338623,-8068.244768,-229.828649
454.388760,-4071.132681,-7698.141797,1302.362347
454.389081,-1924.535449,-7402.059420,1762.019645
454.389403,74.020594,-7031.956449,1072.533697
454.389724,1776.494261,-7254.018232,-153.219100
454.390046,2368.659014,-7624.121203,-536.266849
454.390368,2146.597232,-7550.100608,-1072.533697
454.390689,2072.576638,-7994.224174,-2604.724693
454.391011,2146.597232,-9178.553681,-3753.867940
454.391332,814.226536,-10584.944971,-4060.306139
454.391654,-740.205942,-11843.295072,-4060.306139
454.391976,-2294.638420,-12435.459826,-3830.477490
454.392297,-3330.926739,-13619.789333,-3600.648841
454.392619,-4441.235652,-13471.748144,-2451.505594
454.392940,-5995.668130,-11547.212695,-1762.019645
454.393262,-6809.894666,-9104.533087,-2451.505594
454.393584,-6291.750507,-8438.347739,-2911.162892
454.393905,-6143.709319,-8438.347739,-2374.896044
454.394227,-6291.750507,-7550.100608,-995.924147
454.394548,-6143.709319,-7920.203579,842.705048
454.394870,-4663.297435,-8882.471304,842.705048
454.395191,-2442.679609,-8882.471304,0.000000
454.395513,-444.123565,-7994.224174,-612.876398
454.395835,1702.473667,-7624.121203,-1149.143247
454.396156,3701.029710,-8290.306550,-1685.410096
454.396478,4071.132681,-9696.697840,-2374.896044
454.396799,2886.803174,-10288.862594,-1915.238745
454.397121,0.000000,-11621.233289,-1455.581446
454.397443,-3256.906145,-13249.686362,-1991.848295
454.397764,-6291.750507,-13989.892304,-2681.334243
454.398086,-8808.450710,-12139.377449,-3600.648841
454.398407,-10288.862594,-9844.739029,-3753.867940
454.398729,-10732.986159,-8438.347739,-2145.067394
454.399051,-10066.800811,-6439.791695,-1455.581446
454.399372,-8808.450710,-5107.421000,-2528.115143
454.399694,-6513.812290,-5699.585753,-2374.896044
454.400015,-5033.400406,-7846.182985,-1302.362347
454.400337,-3404.947333,-9326.594869,306.438199
454.400659,-2516.700203,-9326.594869,536.266849
454.400980,0.000000,-9178.553681,-612.876398
454.401302,2442.679609,-8808.450710,-766.095498
454.401623,2960.823768,-8734.430116,-1608.800546
454.401945,1850.514855,-7402.059420,-1685.410096
454.402267,222.061783,-7179.997637,-1608.800546
454.402588,-1850.514855,-8660.409521,-2068.457845
454.402910,-3849.070898,-10066.800811,-2757.943793
454.403231,-5847.626942,-11621.233289,-2528.115143
454.403553,-7179.997637,-12509.480420,-2374.896044
454.403875,-8808.450710,-12065.356855,-1225.752797
454.404196,-9770.718434,-10732.986159,76.609550
454.404518,-9326.594869,-8512.368333,-612.876398
454.404839,-7402.059420,-6513.812290,-2451.505594
454.405161,-5625.565159,-6365.771101,-4060.306139
454.405482,-3997.112087,-6143.709319,-2528.115143
454.405804,-2738.761985,-5625.565159,-995.924147
454.406126,-1406.391290,-6735.874072,-1991.848295
454.406447,296.082377,-10066.800811,-2604.724693
454.406769,888.247130,-13101.645173,-3447.429741
454.407090,0.000000,-13175.665768,-2757.943793
454.407412,-666.185348,-13101.645173,-1915.238745
454.407734,-740.205942,-13397.727550,-995.924147
454.408055,-1184.329507,-12361.439231,-1072.533697
454.408377,-3034.844362,-10510.924376,-612.876398
454.408698,-4441.235652,-9252.574275,-1225.752797
454.409020,-5255.462188,-8290.306550,-1532.190996
454.409342,-5625.565159,-7105.977043,-1838.629195
454.409663,-5699.585753,-6291.750507,-1608.800546
454.409985,-4589.276840,-6439.791695,-1762.019645
454.410306,-2886.803174,-7920.203579,-2834.553343
454.410628,-2146.597232,-9474.636058,-3447.429741
454.410950,-2590.720797,-9770.718434,-2298.286494
454.411271,-3627.009116,-9474.636058,-1762.019645
454.411593,-4071.132681,-10214.842000,-3677.258390
454.411914,-4071.132681,-11843.295072,-3983.696590
454.412236,-4367.215058,-13693.809927,-3370.820191
454.412558,-3997.112087,-14804.118840,-1608.800546
454.412879,-3034.844362,-14211.954086,1072.533697
454.413201,-1184.329507,-11621.233289,3217.601092
454.413522,1258.350101,-9844.739029,3753.867940
454.413844,2368.659014,-8290.306550,2757.943793
454.414166,2368.659014,-7624.121203,2911.162892
454.414487,1184.329507,-6217.729913,3907.087040
454.414809,-814.226536,-4367.215058,4826.401637
454.415130,-3478.967927,-3256.906145,5132.839837
454.415452,-5847.626942,-2516.700203,3370.820191
454.415774,-7179.997637,-3182.885551,-1225.752797
454.416095,-7254.018232,-4737.318029,-4903.011187
454.416417,-7105.977043,-5921.647536,-4979.620737
454.416738,-6661.853478,-8734.430116,-4443.353888
454.417060,-6069.688724,-13323.706956,-3524.039291
454.417381,-6365.771101,-16210.510130,-3140.991542
454.417703,-6439.791695,-16432.571912,-3830.477490
454.418025,-5477.523971,-16358.551318,-4443.353888
454.418346,-3627.009116,-14952.160028,-3217.601092
454.418668,-2294.638420,-11621.233289,-306.438199
454.418989,-2590.720797,-7994.224174,1991.848295
454.419311,-1998.556043,-5181.441594,4749.792088
454.419633,-1258.350101,-3849.070898,4060.306139
454.419954,-592.164754,-3330.926739,1455.581446
454.420276,-1110.308913,-4885.359217,1149.143247
454.420597,-1776.494261,-7550.100608,3753.867940
454.420919,-2590.720797,-9696.697840,3677.258390
454.421241,-1332.370696,-11843.295072,1072.533697
454.421562,1110.308913,-10807.006753,-1149.143247
454.421884,1998.556043,-8512.368333,-2604.724693
454.422205,1628.453072,-10436.903782,-3447.429741
454.422527,666.185348,-15100.201217,-2604.724693
454.422849,148.041188,-16950.716072,-2528.115143
454.423170,0.000000,-16284.530724,-3830.477490
454.423492,1258.350101,-16654.633695,-1991.848295
454.423813,2590.720797,-15100.201217,536.266849
454.424135,1554.432478,-10881.027347,689.485948
454.424457,222.061783,-6883.915261,2068.457845
454.424778,0.000000,-5181.441594,4903.011187
454.425100,444.123565,-3478.967927,3830.477490
454.425421,444.123565,-962.267725,1302.362347
454.425743,1036.288319,-666.185348,306.438199
454.426065,1850.514855,-4219.173869,2374.896044
454.426386,1258.350101,-7179.997637,3830.477490
454.426708,518.144159,-8216.285956,2604.724693
454.427029,1036.288319,-10288.862594,-1915.238745
454.427351,2072.576638,-12657.521608,-5286.058936
454.427672,370.102971,-12583.501014,-4519.963438
454.427994,-1554.432478,-14063.912898,-2451.505594
454.428316,-2368.659014,-16284.530724,-612.876398
454.428637,-2664.741391,-15988.448347,-229.828649
454.428959,-3108.864956,-13767.830521,0.000000
454.429280,-2812.782580,-12435.459826,1838.629195
454.429602,-2664.741391,-11769.274478,3907.087040
454.429924,-3478.967927,-9622.677246,5362.668486
454.430245,-3997.112087,-7328.038826,7201.297681
454.430567,-2812.782580,-5921.647536,7584.345430
454.430888,-2368.659014,-6069.688724,5439.278036
454.431210,-2960.823768,-7031.956449,4443.353888
454.431532,-3182.885551,-7105.977043,5975.544884
454.431853,592.164754,-7031.956449,4290.134789
454.432175,4589.276840,-6365.771101,1149.143247
454.432496,5847.626942,-4737.318029,76.609550
454.432818,3997.112087,-3627.009116,919.314598
454.433140,2146.597232,-7624.121203,-1072.533697
454.433461,296.082377,-11843.295072,-3677.258390
454.433783,-2812.782580,-15100.201217,-5822.325785
454.434104,-7105.977043,-17616.901420,-3830.477490
454.434426,-10436.903782,-19467.416275,1225.752797
454.434748,-12287.418637,-17542.880825,3907.087040
454.435069,-11251.130318,-13693.809927,3064.381992
454.435391,-8660.409521,-10510.924376,2757.943793
454.435712,-6439.791695,-9474.636058,4136.915689
454.436034,-5699.585753,-8068.244768,6894.859482
454.436356,-4293.194464,-5551.544565,10725.336972
454.436677,-1036.288319,-962.267725,12487.356617
454.436999,3997.112087,1776.494261,7967.393179
454.437320,8586.388927,-518.144159,2451.505594
454.437642,10881.027347,-2812.782580,766.095498
454.437963,8734.430116,-5033.400406,2528.115143
454.438285,5921.647536,-10436.903782,5132.839837
454.438607,3923.091493,-17542.880825,4596.572988
454.438928,888.247130,-20651.745782,-612.876398
454.439250,-2886.803174,-19245.354492,-4136.915689
454.439571,-5329.482782,-17690.922014,-2681.334243
454.439893,-4441.235652,-15544.324782,-459.657299
454.440215,-3404.947333,-8956.491898,0.000000
454.440536,-2812.782580,-3108.864956,0.000000
454.440858,-1850.514855,-4071.132681,2068.457845
454.441179,-1924.535449,-6809.894666,3830.477490
454.441501,-4071.132681,-7031.956449,2451.505594
454.441823,-4145.153275,-7105.977043,2757.943793
454.442144,-444.123565,-9400.615463,4290.134789
454.442466,2220.617826,-10658.965565,6665.030833
454.442787,2442.679609,-7846.182985,8656.879127
454.443109,5403.503377,-2220.617826,5286.058936
454.443431,10658.965565,-3182.885551,-2987.772442
454.443752,12065.356855,-4885.359217,-6205.373534
454.444074,6365.771101,-5625.565159,-2298.286494
454.444395,0.000000,-9992.780217,612.876398
454.444717,-3256.906145,-18875.251521,-612.876398
454.445039,-4959.379811,-22798.343014,-4290.134789
454.445360,-6883.915261,-21614.013506,-7277.907231
454.445682,-5625.565159,-16950.716072,-5822.325785
454.446003,-2368.659014,-13323.706956,-1838.629195
454.446325,-296.082377,-9030.512492,1072.533697
454.446647,1184.329507,-4515.256246,2528.115143
454.446968,3182.885551,-3330.926739,2451.505594
454.447290,3256.906145,-6587.832884,-229.828649
454.447611,888.247130,-9918.759623,919.314598
454.447933,148.041188,-8586.388927,4443.353888
454.448255,2072.576638,-7254.018232,1838.629195
454.448576,4663.297435,-9178.553681,0.000000
454.448898,5329.482782,-11547.212695,1608.800546
454.449219,518.144159,-9992.780217,2604.724693
454.449541,-5699.585753,-8290.306550,2221.676944
454.449862,-8364.327145,-8438.347739,612.876398
454.450184,-9178.553681,-8660.409521,-5362.668486
454.450506,-10288.862594,-9326.594869,-9806.022374
454.450827,-11843.295072,-12287.418637,-7201.297681
454.451149,-10510.924376,-16876.695478,-1072.533697
454.451470,-7031.956449,-16506.592507,1225.752797
454.451792,-3849.070898,-14137.933492,1378.971896
454.452114,-1480.411884,-12361.439231,2068.457845
454.452435,1258.350101,-8808.450710,2528.115143
454.452757,3997.112087,-3552.988522,1149.143247
454.453078,6735.874072,0.000000,689.485948
454.453400,8660.409521,0.000000,3907.087040
454.453722,8882.471304,-3182.885551,7967.393179
454.454043,4885.359217,-6735.874072,8350.440928
454.454365,962.267725,-9770.718434,7431.126331
454.454686,-1332.370696,-12657.521608,5286.058936
454.455008,-2516.700203,-13841.851115,1915.238745
454.455330,-3552.988522,-12287.418637,1302.362347
454.455651,-3256.906145,-9104.533087,2221.676944
454.455973,-2664.741391,-7179.997637,2451.505594
454.456294,-1998.556043,-7254.018232,1915.238745
454.456616,-3108.864956,-8660.409521,1149.143247
454.456938,-4515.256246,-9548.656652,-1225.752797
454.457259,-5699.585753,-12805.562797,-1532.190996
454.457581,-5329.482782,-14952.160028,1225.752797
454.457902,-3849.070898,-13323.706956,3294.210641
454.458224,-962.267725,-10732.986159,2911.162892
454.458546,2664.741391,-9178.553681,2834.553343
454.458867,4811.338623,-8290.306550,3907.087040
454.459189,5551.544565,-7254.018232,4596.572988
454.459510,6513.812290,-6735.874072,4213.525239
454.459832,7476.080014,-7402.059420,3524.039291
454.460153,7105.977043,-8660.409521,3830.477490
454.460475,5033.400406,-9400.615463,4979.620737
454.460797,2146.597232,-9548.656652,3907.087040
454.461118,-592.164754,-10214.842000,1378.971896
454.461440,-2664.741391,-12213.398043,-612.876398
454.461761,-3997.112087,-14656.077652,-536.266849
454.462083,-4441.235652,-15396.283594,766.095498
454.462405,-4145.153275,-14582.057057,1149.143247
454.462726,-2294.638420,-13175.665768,1685.410096
454.463048,-148.041188,-11399.171507,2528.115143
454.463369,296.082377,-9474.636058,2298.286494
454.463691,-740.205942,-7772.162391,1532.190996
454.464013,-2368.659014,-7105.977043,1991.848295
454.464334,-3034.844362,-7254.018232,3064.381992
454.464656,-2664.741391,-7624.121203,2681.334243
454.464977,-666.185348,-8438.347739,2528.115143
454.465299,1702.473667,-7550.100608,2757.943793
454.465621,3701.029710,-6587.832884,3064.381992
454.465942,3923.091493,-5699.585753,2604.724693
454.466264,2590.720797,-6365.771101,2374.896044
454.466585,0.000000,-6735.874072,612.876398
454.466907,-3256.906145,-8216.285956,-1991.848295
454.467229,-5477.523971,-11177.109724,-2451.505594
454.467550,-7031.956449,-13323.706956,-2221.676944
454.467872,-6661.853478,-13471.748144,-1685.410096
454.468193,-4515.256246,-13175.665768,-459.657299
454.468515,-1628.453072,-13545.768739,1378.971896
454.468837,-666.185348,-11843.295072,2911.162892
454.469158,-1332.370696,-8956.491898,3600.648841
454.469480,-2146.597232,-5995.668130,3600.648841
454.469801,-1332.370696,-4515.256246,1838.629195
454.470123,370.102971,-5625.565159,536.266849
454.470444,1924.535449,-7179.997637,1915.238745
454.470766,3627.009116,-7328.038826,4290.134789
454.471088,4663.297435,-7772.162391,4519.963438
454.471409,5181.441594,-8956.491898,3217.601092
454.471731,3997.112087,-9548.656652,1149.143247
454.472052,1628.453072,-7772.162391,-1608.800546
454.472374,0.000000,-6735.874072,-4366.744339
454.472696,-1554.432478,-8586.388927,-5975.544884
454.473017,-3330.926739,-11769.274478,-4979.620737
454.473339,-5699.585753,-14804.118840,-3370.820191
454.473660,-7254.018232,-16506.592507,-1455.581446
454.473982,-7994.224174,-18209.066173,-536.266849
454.474304,-7179.997637,-16136.489536,-1378.971896
454.474625,-5551.544565,-12805.562797,-1378.971896
454.474947,-2664.741391,-8882.471304,0.000000
454.475268,444.123565,-6661.853478,612.876398
454.475590,3108.864956,-4589.276840,2451.505594
454.475912,5255.462188,-4737.318029,3830.477490
454.476233,5995.668130,-5477.523971,4673.182538
454.476555,6291.750507,-6957.935855,2911.162892
454.476876,5921.647536,-7476.080014,842.705048
454.477198,5773.606348,-9474.636058,0.000000
454.477520,5181.441594,-11325.150913,-536.266849
454.477841,3478.967927,-12731.542202,-229.828649
454.478163,222.061783,-13323.706956,-383.047749
454.478485,-3034.844362,-14211.954086,-995.924147
454.478806,-5551.544565,-14211.954086,-2757.943793
454.479128,-7031.956449,-12731.542202,-4366.744339
454.479450,-6513.812290,-10140.821405,-4290.134789
454.479772,-4811.338623,-9844.739029,-1608.800546
454.480093,-3552.988522,-9770.718434,1608.800546
454.480415,-2442.679609,-8808.450710,3907.087040
454.480737,-1258.350101,-7328.038826,3600.648841
454.481059,-592.164754,-6217.729913,2451.505594
454.481380,444.123565,-4219.173869,2451.505594
454.481702,1406.391290,-1480.411884,1838.629195
454.482024,3701.029710,-1628.453072,153.219100
454.482345,5699.585753,-3997.112087,689.485948
454.482667,5033.400406,-6735.874072,1685.410096
454.482989,2590.720797,-9844.739029,1378.971896
454.483311,74.020594,-13545.768739,-459.657299
454.483632,-2442.679609,-14878.139434,-2068.457845
454.483954,-4589.276840,-14434.015869,-3753.867940
454.484276,-5033.400406,-13323.706956,-4290.134789
454.484598,-2960.823768,-12139.377449,-2911.162892
454.484919,-1850.514855,-11029.068536,-1532.190996
454.485241,-1258.350101,-9400.615463,0.000000
454.485563,-740.205942,-7772.162391,1302.362347
454.485885,-592.164754,-7031.956449,612.876398
454.486206,74.020594,-7476.080014,-459.657299
454.486528,1184.329507,-6439.791695,0.000000
454.486850,2442.679609,-5477.523971,612.876398
454.487172,3034.844362,-6661.853478,1991.848295
454.487493,2516.700203,-8734.430116,1455.581446
454.487815,1184.329507,-10807.006753,-383.047749
454.488137,-1110.308913,-11547.212695,-1685.410096
454.488458,-2442.679609,-10658.965565,-1608.800546
454.488780,-2886.803174,-11843.295072,-2681.334243
454.489102,-2516.700203,-13915.871710,-3677.258390
454.489424,-2664.741391,-14063.912898,-2528.115143
454.489745,-2960.823768,-12509.480420,-2528.115143
454.490067,-2146.597232,-11547.212695,-2145.067394
454.490389,-1554.432478,-10955.047942,-1915.238745
454.490711,-1776.494261,-9030.512492,-2834.553343
454.491032,-1554.432478,-7550.100608,-2604.724693
454.491354,-74.020594,-6883.915261,-1072.533697
454.491676,1850.514855,-6587.832884,-229.828649
454.491998,1998.556043,-8956.491898,-383.047749
454.492319,666.185348,-11251.130318,76.609550
454.492641,-1702.473667,-11991.336260,536.266849
454.492963,-1776.494261,-11473.192101,0.000000
454.493285,1110.308913,-10140.821405,-2145.067394
454.493606,3034.844362,-8956.491898,-3064.381992
454.493928,3256.906145,-6735.874072,-1838.629195
454.494250,2368.659014,-5921.647536,229.828649
454.494572,1110.308913,-7550.100608,-306.438199
454.494893,-296.082377,-9770.718434,-2451.505594
454.495215,-2072.576638,-10881.027347,-2604.724693
454.495537,-3256.906145,-10362.883188,-1762.019645
454.495858,-2220.617826,-8586.388927,-1149.143247
454.496180,-666.185348,-6217.729913,-1378.971896
454.496502,888.247130,-4959.379811,-2221.676944
454.496824,148.041188,-6587.832884,-3140.991542
454.497145,-1850.514855,-9474.636058,-2604.724693
454.497467,-3404.947333,-11103.089130,-1762.019645
454.497789,-2812.782580,-12287.418637,-995.924147
454.498111,-740.205942,-11103.089130,-536.266849
454.498432,1776.494261,-8364.327145,-842.705048
454.498754,4145.153275,-5773.606348,-1225.752797
454.499076,5181.441594,-5255.462188,-3064.381992
454.499398,4219.173869,-7550.100608,-2757.943793
454.499719,1480.411884,-10066.800811,-1378.971896
454.500041,-740.205942,-11917.315666,-612.876398
454.500363,-2146.597232,-12953.603985,-1915.238745
454.500685,-2294.638420,-12435.459826,-2221.676944
454.501006,-1480.411884,-10510.924376,-2604.724693
454.501328,-1554.432478,-9548.656652,-3830.477490
454.501650,-1998.556043,-10066.800811,-3294.210641
454.501971,-2664.741391,-11769.274478,-1302.362347
454.502293,-3330.926739,-12287.418637,76.609550
454.502615,-2220.617826,-11917.315666,-229.828649
454.502937,-370.102971,-9992.780217,-1302.362347
454.503258,1776.494261,-7624.121203,-2374.896044
454.503580,2812.782580,-6069.688724,-2681.334243
454.503902,3256.906145,-5921.647536,-1532.190996
454.504224,2220.617826,-8512.368333,0.000000
454.504545,888.247130,-10807.006753,-306.438199
454.504867,-1332.370696,-12287.418637,-612.876398
454.505189,-2886.803174,-11991.336260,-689.485948
454.505511,-2812.782580,-9622.677246,-1378.971896
454.505832,-2294.638420,-9178.553681,-2298.286494
454.506154,-2220.617826,-8586.388927,-1455.581446
454.506476,-1924.535449,-8216.285956,459.657299
454.506798,-2072.576638,-8364.327145,1072.533697
454.507119,-2072.576638,-8808.450710,1072.533697
454.507441,-1480.411884,-7772.162391,919.314598
454.507763,-518.144159,-6365.771101,-689.485948
454.508084,444.123565,-5329.482782,-1149.143247
454.508406,1702.473667,-6217.729913,-153.219100
454.508728,2294.638420,-7476.080014,153.219100
454.509050,1406.391290,-8734.430116,1225.752797
454.509371,74.020594,-9696.697840,1225.752797
454.509693,-148.041188,-10066.800811,0.000000
454.510015,148.041188,-9252.574275,-2145.067394
454.510337,592.164754,-9030.512492,-2068.457845
454.510658,666.185348,-9770.718434,-1149.143247
454.510980,370.102971,-9918.759623,-229.828649
454.511302,0.000000,-10807.006753,0.000000
454.511624,-518.144159,-11473.192101,306.438199
454.511945,-1258.350101,-9992.780217,-459.657299
454.512267,-592.164754,-7550.100608,-2374.896044
454.512589,1258.350101,-6735.874072,-3370.820191
454.512911,2664.741391,-7994.224174,-2911.162892
454.513232,2516.700203,-9844.739029,-995.924147
454.513554,296.082377,-11621.233289,153.219100
454.513876,-1776.494261,-12583.501014,-229.828649
454.514197,-2664.741391,-12583.501014,-1302.362347
454.514519,-2516.700203,-11843.295072,-4519.963438
454.514841,-2368.659014,-10362.883188,-5286.058936
454.515163,-1702.473667,-10066.800811,-3294.210641
454.515484,-666.185348,-10288.862594,-1302.362347
454.515806,296.082377,-10066.800811,-459.657299
454.516128,370.102971,-10436.903782,-1608.800546
454.516450,-444.123565,-9844.739029,-2834.553343
454.516771,-1776.494261,-9622.677246,-4443.353888
454.517093,-2368.659014,-8586.388927,-3370.820191
454.517415,-1184.329507,-8290.306550,-1762.019645
454.517737,74.020594,-7994.224174,-1991.848295
454.518058,666.185348,-8438.347739,-3064.381992
454.518380,0.000000,-9474.636058,-2374.896044
454.518702,-1110.308913,-11029.068536,-1378.971896
454.519024,-2146.597232,-11399.171507,-2298.286494
454.519345,-1406.391290,-10140.821405,-2221.676944
454.519667,444.123565,-9548.656652,-1072.533697
454.519989,2590.720797,-8364.327145,-229.828649
454.520311,3034.844362,-6217.729913,-689.485948
454.520632,2886.803174,-5403.503377,-459.657299
454.520954,2886.803174,-5995.668130,-459.657299
454.521276,2368.659014,-6661.853478,-1762.019645
454.521597,1184.329507,-7105.977043,-2145.067394
454.521919,444.123565,-9104.533087,-1302.362347
454.522241,-370.102971,-10436.903782,-1532.190996
454.522563,-1702.473667,-10881.027347,-2374.896044
454.522884,-2960.823768,-10658.965565,-2374.896044
454.523206,-3923.091493,-9770.718434,-2298.286494
454.523528,-4367.215058,-9992.780217,-4519.963438
454.523850,-4219.173869,-11029.068536,-4749.792088
454.524171,-3849.070898,-11917.315666,-1302.362347
454.524493,-2664.741391,-11621.233289,1378.971896
454.524815,-1332.370696,-8512.368333,919.314598
454.525137,740.205942,-7254.018232,-995.924147
454.525458,1258.350101,-6513.812290,-1762.019645
454.525780,740.205942,-5921.647536,-1302.362347
454.526102,1184.329507,-6439.791695,-459.657299
454.526424,2442.679609,-7179.997637,689.485948
454.526745,3552.988522,-9104.533087,306.438199
454.527067,2886.803174,-9622.677246,-1149.143247
454.527389,1406.391290,-10362.883188,-1915.238745
454.527710,0.000000,-11769.274478,-1838.629195
454.528032,-1332.370696,-13175.665768,-1685.410096
454.528354,-2590.720797,-12657.521608,-1072.533697
454.528676,-2220.617826,-11029.068536,-459.657299
454.528997,-592.164754,-9548.656652,-459.657299
454.529319,814.226536,-8882.471304,-1455.581446
454.529641,444.123565,-6883.915261,-1532.190996
454.529963,222.061783,-5699.585753,-766.095498
454.530284,666.185348,-6439.791695,-689.485948
454.530606,1184.329507,-7920.203579,-1072.533697
454.530928,518.144159,-9326.594869,-536.266849
454.531250,0.000000,-10362.883188,383.047749
454.531571,-518.144159,-10584.944971,-229.828649
454.531893,-148.041188,-10066.800811,-1225.752797
454.532215,-148.041188,-10362.883188,-2451.505594
454.532537,-888.247130,-10732.986159,-2757.943793
454.532858,-1628.453072,-11029.068536,-1838.629195
454.533180,-1036.288319,-12287.418637,-1149.143247
454.533502,-296.082377,-13249.686362,0.000000
454.533823,-296.082377,-11399.171507,0.000000
454.534145,-444.123565,-7846.182985,-1225.752797
454.534467,740.205942,-5847.626942,-1838.629195
454.534789,1702.473667,-4959.379811,-2145.067394
454.535110,1776.494261,-5773.606348,-2145.067394
454.535432,222.061783,-7994.224174,-1378.971896
454.535754,-1924.535449,-11177.109724,0.000000
454.536076,-4293.194464,-13397.727550,459.657299
454.536397,-5625.565159,-12953.603985,-1149.143247
454.536719,-5181.441594,-11029.068536,-3294.210641
454.537041,-3552.988522,-9178.553681,-4903.011187
454.537363,-1702.473667,-7994.224174,-3983.696590
454.537684,-740.205942,-8364.327145,-1685.410096
454.538006,74.020594,-8808.450710,-459.657299
454.538328,0.000000,-9252.574275,-842.705048
454.538650,0.000000,-9326.594869,-1532.190996
454.538971,740.205942,-8512.368333,-2451.505594
454.539293,1628.453072,-7476.080014,-4136.915689
454.539615,3034.844362,-7328.038826,-3753.867940
454.539937,3404.947333,-8586.388927,-1378.971896
454.540258,3108.864956,-8882.471304,1225.752797
454.540580,1776.494261,-9474.636058,-536.266849
454.540902,296.082377,-10732.986159,-2298.286494
454.541223,-370.102971,-11547.212695,-2451.505594
454.541545,-370.102971,-11103.089130,-2068.457845
454.541867,518.144159,-9770.718434,-459.657299
454.542189,1628.453072,-8808.450710,0.000000
454.542510,2072.576638,-7550.100608,536.266849
454.542832,1480.411884,-6291.750507,0.000000
454.543154,666.185348,-6291.750507,-1072.533697
454.543476,296.082377,-6217.729913,-3217.601092
454.543797,74.020594,-7994.224174,-4060.306139
454.544119,-1480.411884,-9622.677246,-2068.457845
454.544441,-3034.844362,-10807.006753,-536.266849
454.544763,-4145.153275,-11843.295072,-1149.143247
454.545084,-5551.544565,-12213.398043,-2911.162892
454.545406,-6661.853478,-12139.377449,-3217.601092
454.545728,-6217.729913,-11325.150913,-4366.744339
454.546050,-4219.173869,-10807.006753,-4136.915689
454.546371,-2294.638420,-10214.842000,-2145.067394
454.546693,-370.102971,-9474.636058,0.000000
454.547015,814.226536,-7772.162391,153.219100
454.547336,1924.535449,-7105.977043,-1072.533697
454.547658,2368.659014,-7105.977043,-2451.505594
454.547980,2960.823768,-8068.244768,-2604.724693
454.548302,3478.967927,-9104.533087,-1608.800546
454.548623,3404.947333,-10510.924376,0.000000
454.548945,2960.823768,-10362.883188,919.314598
454.549267,2812.782580,-10362.883188,153.219100
454.549589,1628.453072,-9474.636058,-1915.238745
454.549910,296.082377,-9474.636058,-2757.943793
454.550232,0.000000,-10066.800811,-2987.772442
454.550554,0.000000,-11177.109724,-3294.210641
454.550876,-222.061783,-11917.315666,-1838.629195
454.551197,-296.082377,-11843.295072,1378.971896
454.551519,222.061783,-10436.903782,1302.362347
454.551841,592.164754,-8142.265362,-1532.190996
454.552163,296.082377,-6291.750507,-3064.381992
454.552484,370.102971,-6143.709319,-2374.896044
454.552806,148.041188,-6217.729913,-1149.143247
454.553128,-1110.308913,-7698.141797,-536.266849
454.553449,-2442.679609,-8956.491898,1225.752797
454.553771,-3552.988522,-9104.533087,459.657299
454.554093,-4071.132681,-8512.368333,-2451.505594
454.554415,-4219.173869,-9104.533087,-3524.039291
454.554736,-3997.112087,-10140.821405,-2757.943793
454.555058,-4441.235652,-10881.027347,-1225.752797
454.555380,-3997.112087,-11177.109724,76.609550
454.555702,-3108.864956,-11103.089130,229.828649
454.556023,-2664.741391,-9992.780217,-1608.800546
454.556345,-2738.761985,-8364.327145,-2528.115143
454.556667,-1184.329507,-6957.935855,-2221.676944
454.556989,1406.391290,-6661.853478,-2528.115143
454.557310,3182.885551,-6883.915261,-2298.286494
454.557632,3552.988522,-7846.182985,-459.657299
454.557954,2960.823768,-10955.047942,0.000000
454.558276,1480.411884,-12139.377449,-766.095498
454.558597,74.020594,-12583.501014,-1915.238745
454.558919,222.061783,-11769.274478,-2528.115143
454.559241,2146.597232,-10510.924376,-2911.162892
454.559562,3404.947333,-9622.677246,-1685.410096
454.559884,3404.947333,-8586.388927,0.000000
454.560206,3108.864956,-7920.203579,459.657299
454.560528,2590.720797,-8808.450710,-1072.533697
454.560849,1332.370696,-9918.759623,-2374.896044
454.561171,-666.185348,-9918.759623,-2451.505594
454.561493,-1406.391290,-9326.594869,-2451.505594
454.561815,-1110.308913,-9326.594869,-1991.848295
454.562136,-1184.329507,-9474.636058,-1608.800546
454.562458,-2368.659014,-9770.718434,-1915.238745
454.562780,-3997.112087,-9770.718434,-2987.772442
454.563102,-4959.379811,-10658.965565,-2987.772442
454.563423,-5107.421000,-11621.233289,-2451.505594
454.563745,-4441.235652,-11029.068536,-1072.533697
454.564067,-3330.926739,-9474.636058,-995.924147
454.564389,-1184.329507,-7328.038826,-1072.533697
454.564710,148.041188,-6513.812290,-306.438199
454.565032,962.267725,-7031.956449,-1378.971896
454.565354,74.020594,-7550.100608,-1302.362347
454.565676,-148.041188,-8586.388927,-1149.143247
454.565997,-222.061783,-9252.574275,-995.924147
454.566319,0.000000,-8808.450710,-383.047749
454.566641,518.144159,-7624.121203,383.047749
454.566962,296.082377,-7031.956449,-1072.533697
454.567284,-1036.288319,-7920.203579,-2528.115143
454.567606,-2368.659014,-9770.718434,-1455.581446
454.567928,-3108.864956,-12139.377449,-612.876398
454.568249,-1702.473667,-13101.645173,-995.924147
454.568571,0.000000,-12805.562797,-995.924147
454.568893,1332.370696,-10510.924376,0.000000
454.569215,2368.659014,-7179.997637,-459.657299
454.569536,3404.947333,-4515.256246,-2451.505594
454.569858,4811.338623,-4145.153275,-3677.258390
454.570180,4367.215058,-6439.791695,-3983.696590
454.570502,1702.473667,-9326.594869,-2145.067394
454.570823,-814.226536,-11843.295072,0.000000
454.571145,-2442.679609,-13619.789333,-383.047749
454.571467,-3923.091493,-13767.830521,-2298.286494
454.571789,-4515.256246,-12139.377449,-3447.429741
454.572110,-3775.050304,-9474.636058,-4060.306139
454.572432,-1776.494261,-8142.265362,-3600.648841
454.572754,-518.144159,-8734.430116,-2528.115143
454.573075,-518.144159,-9030.512492,-919.314598
454.573397,-888.247130,-9474.636058,-383.047749
454.573719,-1110.308913,-8660.409521,-1302.362347
454.574041,-814.226536,-8956.491898,-3064.381992
454.574362,0.000000,-9400.615463,-3907.087040
454.574684,666.185348,-9918.759623,-2681.334243
454.575006,1258.350101,-10955.047942,0.000000
454.575328,592.164754,-10807.006753,229.828649
454.575649,-148.041188,-10066.800811,-536.266849
454.575971,-592.164754,-9622.677246,-1532.190996
454.576293,-1258.350101,-8956.491898,-2911.162892
454.576615,-1628.453072,-7920.203579,-3447.429741
454.576936,-1332.370696,-9326.594869,-2451.505594
454.577258,-888.247130,-11103.089130,-383.047749
454.577580,-1850.514855,-11769.274478,306.438199
454.577902,-2738.761985,-10732.986159,689.485948
454.578223,-2368.659014,-9252.574275,-306.438199
454.578545,-444.123565,-7772.162391,-3600.648841
454.578867,962.267725,-6291.750507,-3524.039291
454.579188,1628.453072,-5551.544565,-1762.019645
454.579510,2072.576638,-6365.771101,306.438199
454.579832,2146.597232,-8438.347739,76.609550
454.580154,1258.350101,-10362.883188,-229.828649
454.580475,-814.226536,-11843.295072,-1455.581446
454.580797,-1924.535449,-11473.192101,-1608.800546
454.581119,-962.267725,-10807.006753,-1762.019645
454.581441,1110.308913,-10066.800811,-919.314598
454.581762,2368.659014,-8808.450710,383.047749
454.582084,2368.659014,-7179.997637,689.485948
454.582406,1924.535449,-5921.647536,-229.828649
454.582727,1184.329507,-6291.750507,-1991.848295
454.583049,74.020594,-7105.977043,-2834.553343
454.583371,-1332.370696,-8438.347739,-3217.601092
454.583692,-2072.576638,-10066.800811,-2068.457845
454.584014,-2368.659014,-11843.295072,-2068.457845
454.584336,-2960.823768,-13323.706956,-2068.457845
454.584657,-4589.276840,-13027.624579,-2528.115143
454.584979,-5329.482782,-11473.192101,-3140.991542
454.585301,-4515.256246,-10066.800811,-4366.744339
454.585622,-2220.617826,-9178.553681,-4519.963438
454.585944,-518.144159,-8956.491898,-2987.772442
454.586266,888.247130,-8956.491898,-689.485948
454.586587,1406.391290,-8660.409521,-536.266849
454.586909,1406.391290,-9326.594869,-1225.752797
454.587231,666.185348,-9696.697840,-842.705048
454.587552,148.041188,-9474.636058,-1991.848295
454.587874,370.102971,-9178.553681,-1991.848295
454.588196,1036.288319,-9992.780217,-459.657299
454.588517,962.267725,-9474.636058,76.609550
454.588839,-370.102971,-8882.471304,229.828649
454.589161,-1332.370696,-8512.368333,-229.828649
454.589482,-2146.597232,-9326.594869,-1838.629195
454.589804,-2146.597232,-9844.739029,-3677.258390
454.590126,-1554.432478,-10436.903782,-3140.991542
454.590447,-814.226536,-11695.253884,-459.657299
454.590769,0.000000,-11695.253884,995.924147
454.591091,-222.061783,-9548.656652,536.266849
454.591412,0.000000,-7846.182985,-459.657299
454.591734,592.164754,-6587.832884,-1838.629195
454.592056,444.123565,-5255.462188,-2987.772442
454.592377,296.082377,-5847.626942,-1762.019645
454.592699,-296.082377,-7402.059420,306.438199
454.593021,-1184.329507,-9326.594869,1915.238745
454.593342,-2516.700203,-9696.697840,1149.143247
454.593664,-3552.988522,-10436.903782,-1302.362347
454.593986,-3552.988522,-9918.759623,-2528.115143
454.594308,-2590.720797,-8882.471304,-2298.286494
454.594629,-592.164754,-8956.491898,-1685.410096
454.594951,1036.288319,-8586.388927,-842.705048
454.595273,2220.617826,-8586.388927,-766.095498
454.595594,2220.617826,-9178.553681,-995.924147
454.595916,1406.391290,-9770.718434,-1762.019645
454.596238,592.164754,-10732.986159,-3753.867940
454.596559,888.247130,-10881.027347,-3677.258390
454.596881,1332.370696,-10955.047942,-2221.676944
454.597203,1628.453072,-10436.903782,0.000000
454.597524,2146.597232,-9770.718434,-229.828649
454.597846,740.205942,-9326.594869,-2298.286494
454.598168,-1702.473667,-10288.862594,-2757.943793
454.598489,-3034.844362,-9992.780217,-2374.896044
454.598811,-2590.720797,-9622.677246,-2145.067394
454.599133,-740.205942,-9918.759623,-2298.286494
454.599454,0.000000,-9918.759623,-1225.752797
454.599776,-592.164754,-9622.677246,383.047749
454.600098,-666.185348,-8734.430116,76.609550
454.600419,-666.185348,-9326.594869,-2068.457845
454.600741,-592.164754,-10140.821405,-4213.525239
454.601063,-1036.288319,-9474.636058,-2681.334243
454.601384,-1332.370696,-8660.409521,-1532.190996
454.601706,-592.164754,-8882.471304,-1378.971896
454.602028,-148.041188,-9918.759623,-3064.381992
454.602349,-2072.576638,-11325.150913,-3600.648841
454.602671,-4515.256246,-11399.171507,-1762.019645
454.602993,-4663.297435,-11547.212695,-1685.410096
454.603314,-2368.659014,-10955.047942,-2145.067394
454.603636,0.000000,-9548.656652,-1302.362347
454.603958,1184.329507,-7254.018232,0.000000
454.604279,2220.617826,-5403.503377,0.000000
454.604601,3404.947333,-5255.462188,-1072.533697
454.604923,3034.844362,-6069.688724,-1608.800546
454.605244,2220.617826,-7328.038826,-1455.581446
454.605566,1110.308913,-8068.244768,-536.266849
454.605888,888.247130,-9178.553681,76.609550
454.606210,1184.329507,-9992.780217,-612.876398
454.606531,444.123565,-10362.883188,-1225.752797
454.606853,-1554.432478,-10140.821405,-995.924147
454.607175,-2442.679609,-9770.718434,-536.266849
454.607496,-1702.473667,-10288.862594,-1838.629195
454.607818,-888.247130,-10214.842000,-2451.505594
454.608140,-1110.308913,-8808.450710,-536.266849
454.608461,0.000000,-7328.038826,0.000000
454.608783,1036.288319,-6513.812290,-1225.752797
454.609105,1258.350101,-7105.977043,-3600.648841
454.609426,222.061783,-8586.388927,-3447.429741
454.609748,-962.267725,-10436.903782,-2145.067394
454.610070,-2516.700203,-11177.109724,-1685.410096
454.610391,-2516.700203,-12287.418637,-1378.971896
454.610713,-2886.803174,-12361.439231,-1378.971896
454.611035,-4219.173869,-11177.109724,-1378.971896
454.611356,-4885.359217,-9622.677246,-2451.505594
454.611678,-3552.988522,-8586.388927,-3217.601092
454.612000,-1554.432478,-8882.471304,-3217.601092
454.612321,-518.144159,-9844.739029,-2451.505594
454.612643,-148.041188,-10436.903782,-306.438199
454.612965,592.164754,-11325.150913,612.876398
454.613286,1554.432478,-10066.800811,0.000000
454.613608,2220.617826,-9326.594869,-1455.581446
454.613930,2960.823768,-7772.162391,-2145.067394
454.614251,3775.050304,-7105.977043,-2451.505594
454.614573,3330.926739,-7698.141797,-1915.238745
454.614895,2294.638420,-8808.450710,-612.876398
454.615216,888.247130,-10436.903782,-229.828649
454.615538,-148.041188,-11991.336260,-1608.800546
454.615860,-2442.679609,-12435.459826,-2757.943793
454.616181,-3775.050304,-12139.377449,-2145.067394
454.616503,-3034.844362,-10436.903782,-1149.143247
454.616825,-814.226536,-8808.450710,-1455.581446
454.617146,740.205942,-7031.956449,-689.485948
454.617468,444.123565,-5181.441594,-383.047749
454.617790,-296.082377,-4737.318029,-1225.752797
454.618111,-1110.308913,-6513.812290,-1302.362347
454.618433,-1406.391290,-8586.388927,-1762.019645
454.618755,-1258.350101,-9918.759623,-2604.724693
454.619077,-1776.494261,-10510.924376,-2374.896044
454.619398,-1776.494261,-11769.274478,-459.657299
454.619720,-1258.350101,-12583.501014,-536.266849
454.620042,-1702.473667,-11769.274478,-2298.286494
454.620363,-1850.514855,-10066.800811,-2068.457845
454.620685,-1332.370696,-9474.636058,-1072.533697
454.621007,0.000000,-8216.285956,-1072.533697
454.621328,740.205942,-7105.977043,-1455.581446
454.621650,1258.350101,-6661.853478,-1532.190996
454.621972,1184.329507,-7328.038826,-1532.190996
454.622293,444.123565,-8142.265362,-919.314598
454.622615,-518.144159,-9474.636058,-995.924147
454.622937,-666.185348,-10140.821405,-612.876398
454.623258,-592.164754,-10436.903782,-1378.971896
454.623580,0.000000,-9696.697840,-2145.067394
454.623902,444.123565,-9400.615463,-1991.848295
454.624223,-814.226536,-9770.718434,-1378.971896
454.624545,-2146.597232,-10658.965565,-2145.067394
454.624867,-2664.741391,-11029.068536,-2374.896044
454.625188,-1480.411884,-11029.068536,-1762.019645
454.625510,222.061783,-10436.903782,-1915.238745
454.625832,888.247130,-9326.594869,-842.705048
454.626153,1480.411884,-7772.162391,0.000000
454.626475,1628.453072,-7031.956449,-536.266849
454.626797,1702.473667,-6735.874072,-1685.410096
454.627118,1776.494261,-7179.997637,-2681.334243
454.627440,1110.308913,-8290.306550,-1915.238745
454.627762,0.000000,-10214.842000,-842.705048
454.628083,-592.164754,-10881.027347,-459.657299
454.628405,-518.144159,-10732.986159,-1302.362347
454.628727,-370.102971,-10362.883188,-1915.238745
454.629048,-1110.308913,-9252.574275,-2451.505594
454.629370,-2368.659014,-10066.800811,-2528.115143
454.629692,-2442.679609,-10214.842000,-1608.800546
454.630013,-1554.432478,-10214.842000,-689.485948
454.630335,-888.247130,-9992.780217,-383.047749
454.630657,-666.185348,-8512.368333,-229.828649
454.630978,-222.061783,-6957.935855,-1225.752797
454.631300,0.000000,-6217.729913,-2834.553343
454.631622,444.123565,-7476.080014,-3830.477490
454.631944,444.123565,-9474.636058,-2451.505594
454.632265,-222.061783,-11991.336260,-1378.971896
454.632587,-1850.514855,-12361.439231,-1378.971896
454.632909,-3330.926739,-12509.480420,-1225.752797
454.633230,-3849.070898,-11843.295072,-1838.629195
454.633552,-3034.844362,-9622.677246,-3217.601092
454.633874,-1332.370696,-8734.430116,-3600.648841
454.634195,592.164754,-8512.368333,-1838.629195
454.634517,1184.329507,-9548.656652,229.828649
454.634839,1628.453072,-9622.677246,1225.752797
454.635160,2146.597232,-9104.533087,1378.971896
454.635482,2812.782580,-7920.203579,-766.095498
454.635804,3404.947333,-6513.812290,-2374.896044
454.636125,3552.988522,-6883.915261,-3370.820191
454.636447,3108.864956,-9548.656652,-1608.800546
454.636769,2072.576638,-11473.192101,995.924147
454.637090,296.082377,-11399.171507,1072.533697
454.637412,-1702.473667,-10881.027347,-612.876398
454.637734,-2146.597232,-10510.924376,-2604.724693
454.638055,-2738.761985,-9844.739029,-3294.210641
454.638377,-2886.803174,-9252.574275,-3294.210641
454.638699,-2812.782580,-8364.327145,-1838.629195
454.639020,-2368.659014,-8290.306550,306.438199
454.639342,-1776.494261,-7846.182985,1225.752797
454.639664,-1554.432478,-6661.853478,-1302.362347
454.639985,-1480.411884,-5995.668130,-3370.820191
454.640307,-296.082377,-6809.894666,-3983.696590
454.640629,592.164754,-8364.327145,-1685.410096
454.640950,888.247130,-10140.821405,0.000000
454.641272,222.061783,-11473.192101,153.219100
454.641594,-518.144159,-11917.315666,153.219100
454.641915,-1406.391290,-11325.150913,-995.924147
454.642237,-1776.494261,-10066.800811,-1915.238745
454.642559,-962.267725,-8734.430116,-2068.457845
454.642880,222.061783,-7624.121203,-1225.752797
454.643202,1184.329507,-7994.224174,229.828649
454.643524,1776.494261,-7846.182985,842.705048
454.643846,1110.308913,-7476.080014,-153.219100
454.644167,-148.041188,-8438.347739,-3140.991542
454.644489,-1628.453072,-10288.862594,-4596.572988
454.644811,-2442.679609,-11695.253884,-3140.991542
454.645132,-2368.659014,-12731.542202,-2451.505594
454.645454,-1702.473667,-13027.624579,-2911.162892
454.645776,-1554.432478,-12065.356855,-2834.553343
454.646097,-1924.535449,-10584.944971,-1915.238745
454.646419,-2294.638420,-9252.574275,-4366.744339
454.646741,-2146.597232,-8586.388927,-5132.839837
454.647062,-1184.329507,-9252.574275,-3524.039291
454.647384,-296.082377,-10066.800811,-1225.752797
454.647706,0.000000,-10362.883188,536.266849
454.648027,814.226536,-9844.739029,919.314598
454.648349,1776.494261,-8438.347739,306.438199
454.648671,2220.617826,-7105.977043,-842.705048
454.648992,2738.761985,-5477.523971,-1455.581446
454.649314,3478.967927,-5403.503377,-1532.190996
454.649636,3552.988522,-6809.894666,-612.876398
454.649957,2886.803174,-9474.636058,0.000000
454.650279,1184.329507,-10510.924376,-612.876398
454.650601,-888.247130,-11769.274478,-1455.581446
454.650922,-3108.864956,-13175.665768,-1915.238745
454.651244,-4145.153275,-13027.624579,-2451.505594
454.651566,-3182.885551,-10658.965565,-1838.629195
454.651887,-1406.391290,-9178.553681,-766.095498
454.652209,-666.185348,-7624.121203,383.047749
454.652531,-518.144159,-5107.421000,536.266849
454.652852,-222.061783,-3923.091493,-766.095498
454.653174,148.041188,-4737.318029,-3370.820191
454.653496,-370.102971,-6809.894666,-3140.991542
454.653817,-1184.329507,-9104.533087,-1149.143247
454.654139,-1184.329507,-11103.089130,153.219100
454.654461,-740.205942,-12805.562797,-153.219100
454.654782,-370.102971,-12435.459826,-1762.019645
454.655104,-740.205942,-11547.212695,-1991.848295
454.655426,-1184.329507,-10140.821405,-2604.724693
454.655747,-370.102971,-10214.842000,-2145.067394
454.656069,666.185348,-9918.759623,-1149.143247
454.656391,1480.411884,-10066.800811,-153.219100
454.656713,1776.494261,-10140.821405,842.705048
454.657034,2294.638420,-9918.759623,766.095498
454.657356,1406.391290,-8512.368333,-306.438199
454.657678,1332.370696,-7105.977043,-1072.533697
454.657999,2590.720797,-6957.935855,-1838.629195
454.658321,3108.864956,-7031.956449,-2681.334243
454.658643,1998.556043,-8512.368333,-995.924147
454.658964,370.102971,-10658.965565,0.000000
454.659286,-1110.308913,-11029.068536,-1685.410096
454.659608,-2664.741391,-11621.233289,-3907.087040
454.659929,-3997.112087,-12731.542202,-3370.820191
454.660251,-4219.173869,-13397.727550,-1838.629195
454.660573,-3997.112087,-12213.398043,-2834.553343
454.660894,-2664.741391,-11325.150913,-2145.067394
454.661216,-1258.350101,-10584.944971,-919.314598
454.661538,-814.226536,-8512.368333,-689.485948
454.661859,-296.082377,-5403.503377,-1378.971896
454.662181,740.205942,-4959.379811,-1991.848295
454.662503,2072.576638,-6291.750507,-2528.115143
454.662824,2368.659014,-8364.327145,-2145.067394
454.663146,1332.370696,-10140.821405,536.266849
454.663468,0.000000,-10807.006753,2145.067394
454.663789,-518.144159,-10807.006753,229.828649
454.664111,-1480.411884,-9992.780217,-1685.410096
454.664433,-962.267725,-9622.677246,-2757.943793
454.664754,-296.082377,-9104.533087,-2298.286494
454.665076,0.000000,-9548.656652,-919.314598
454.665398,0.000000,-10362.883188,1838.629195
454.665719,-592.164754,-9844.739029,2374.896044
454.666041,-1036.288319,-7402.059420,229.828649
454.666363,-1184.329507,-6291.750507,-1991.848295
454.666684,-592.164754,-5403.503377,-2681.334243
454.667006,-666.185348,-4811.338623,-2374.896044
454.667328,-1036.288319,-7105.977043,-1838.629195
454.667649,-1480.411884,-10288.862594,153.219100
454.667971,-2812.782580,-11399.171507,383.047749
454.668293,-3923.091493,-11843.295072,-1532.190996
454.668614,-3923.091493,-11621.233289,-2911.162892
454.668936,-3108.864956,-9844.739029,-3524.039291
454.669258,-666.185348,-8438.347739,-2911.162892
454.669580,1332.370696,-7402.059420,-2451.505594
454.669901,2886.803174,-7698.141797,-1072.533697
454.670223,3182.885551,-9252.574275,-842.705048
454.670545,2442.679609,-10881.027347,-1455.581446
454.670866,1036.288319,-11325.150913,-1838.629195
454.671188,1036.288319,-10881.027347,-1762.019645
454.671510,2220.617826,-9992.780217,-1532.190996
454.671831,2664.741391,-8808.450710,-1225.752797
454.672153,2664.741391,-7179.997637,-689.485948
454.672475,1776.494261,-7476.080014,-1915.238745
454.672796,222.061783,-9770.718434,-2987.772442
454.673118,-1554.432478,-12213.398043,-2604.724693
454.673440,-3034.844362,-13323.706956,-1455.581446
454.673761,-3330.926739,-13619.789333,-1149.143247
454.674083,-2072.576638,-12213.398043,-995.924147
454.674405,-518.144159,-9030.512492,-536.266849
454.674726,444.123565,-5625.565159,-2145.067394
454.675048,370.102971,-3923.091493,-3753.867940
454.675370,148.041188,-5995.668130,-3064.381992
454.675691,-592.164754,-9474.636058,-1991.848295
454.676013,-2220.617826,-11843.295072,-1455.581446
454.676335,-2664.741391,-12731.542202,536.266849
454.676656,-2516.700203,-12139.377449,536.266849
454.676978,-2072.576638,-10214.842000,-1378.971896
454.677300,-1850.514855,-9252.574275,-2451.505594
454.677621,-1702.473667,-8586.388927,-229.828649
454.677943,-888.247130,-7698.141797,612.876398
454.678265,74.020594,-8068.244768,919.314598
454.678586,888.247130,-8808.450710,1378.971896
454.678908,1184.329507,-8512.368333,1225.752797
454.679230,1480.411884,-7328.038826,-229.828649
454.679551,2294.638420,-7105.977043,-1762.019645
454.679873,2886.803174,-7624.121203,-2221.676944
454.680195,2590.720797,-8290.306550,-1302.362347
454.680516,1406.391290,-9548.656652,-766.095498
454.680838,296.082377,-10658.965565,-766.095498
454.681160,0.000000,-11029.068536,-2528.115143
454.681482,-1702.473667,-11991.336260,-3447.429741
454.681803,-3034.844362,-11547.212695,-2834.553343
454.682125,-2738.761985,-10658.965565,-2221.676944
454.682447,-1702.473667,-9622.677246,-2145.067394
454.682769,-518.144159,-9770.718434,-1302.362347
454.683090,-296.082377,-9844.739029,383.047749
454.683412,-518.144159,-8216.285956,0.000000
454.683734,0.000000,-7698.141797,-1685.410096
454.684056,1258.350101,-8068.244768,-2145.067394
454.684377,1702.473667,-7624.121203,-1378.971896
454.684699,1850.514855,-6661.853478,-383.047749
454.685021,1332.370696,-7402.059420,-229.828649
454.685343,1554.432478,-8956.491898,-1072.533697
454.685664,666.185348,-10881.027347,-2451.505594
454.685986,-1332.370696,-11991.336260,-3140.991542
454.686308,-2590.720797,-12287.418637,-1608.800546
454.686629,-2442.679609,-11991.336260,-1532.190996
454.686951,-1332.370696,-11991.336260,-2145.067394
454.687273,-740.205942,-10584.944971,-1608.800546
454.687595,-148.041188,-8956.491898,-995.924147
454.687916,-444.123565,-7179.997637,-306.438199
454.688238,-592.164754,-6735.874072,-1685.410096
454.688560,-1184.329507,-6883.915261,-1991.848295
454.688882,-1184.329507,-7772.162391,-1072.533697
454.689203,-740.205942,-8882.471304,-689.485948
454.689525,-962.267725,-9548.656652,-1378.971896
454.689847,-1258.350101,-9622.677246,-1225.752797
454.690169,-1850.514855,-9474.636058,-766.095498
454.690490,-1554.432478,-9770.718434,-2451.505594
454.690812,-1110.308913,-9104.533087,-3677.258390
454.691134,-592.164754,-9770.718434,-2374.896044
454.691456,0.000000,-11029.068536,-459.657299
454.691777,-222.061783,-10066.800811,153.219100
454.692099,148.041188,-8808.450710,76.609550
454.692421,592.164754,-6957.935855,-612.876398
454.692743,1258.350101,-6217.729913,-1608.800546
454.693064,1924.535449,-6365.771101,-1991.848295
454.693386,2442.679609,-6439.791695,-3140.991542
454.693708,1110.308913,-9178.553681,-1915.238745
454.694029,-148.041188,-11029.068536,76.609550
454.694351,-1332.370696,-11695.253884,0.000000
454.694673,-1554.432478,-12139.377449,-2451.505594
454.694995,-1184.329507,-12731.542202,-4443.353888
454.695316,-1702.473667,-12435.459826,-4366.744339
454.695638,-666.185348,-12213.398043,-1915.238745
454.695960,444.123565,-11029.068536,-383.047749
454.696282,1332.370696,-9326.594869,-842.705048
454.696603,1702.473667,-8142.265362,-1762.019645
454.696925,1258.350101,-7031.956449,-2298.286494
454.697247,296.082377,-7031.956449,-3217.601092
454.697569,-296.082377,-8364.327145,-3524.039291
454.697890,-740.205942,-10362.883188,-1608.800546
454.698212,-1480.411884,-11695.253884,766.095498
454.698534,-2738.761985,-11251.130318,1149.143247
454.698856,-3775.050304,-10436.903782,-383.047749
454.699177,-3775.050304,-10214.842000,-2604.724693
454.699499,-3404.947333,-9548.656652,-3907.087040
454.699821,-2442.679609,-9178.553681,-2834.553343
454.700142,-1480.411884,-9474.636058,153.219100
454.700464,-814.226536,-9252.574275,1225.752797
454.700786,0.000000,-8734.430116,536.266849
454.701108,666.185348,-7994.224174,-995.924147
454.701429,1258.350101,-7624.121203,-2604.724693
454.701751,1702.473667,-7624.121203,-3064.381992
454.702073,1406.391290,-8142.265362,-383.047749
454.702395,1998.556043,-9252.574275,1302.362347
454.702716,1998.556043,-9030.512492,1838.629195
454.703038,1998.556043,-8290.306550,229.828649
454.703360,962.267725,-7550.100608,-1685.410096
454.703682,666.185348,-7772.162391,-2221.676944
454.704003,0.000000,-8290.306550,-1072.533697
454.704325,222.061783,-8882.471304,-229.828649
454.704647,148.041188,-9696.697840,612.876398
454.704969,370.102971,-9252.574275,1072.533697
454.705290,370.102971,-8512.368333,-459.657299
454.705612,1036.288319,-8142.265362,-2298.286494
454.705934,444.123565,-8068.244768,-3370.820191
454.706255,0.000000,-8660.409521,-1991.848295
454.706577,148.041188,-9696.697840,0.000000
454.706899,296.082377,-10658.965565,-766.095498
454.707221,74.020594,-10732.986159,-1762.019645
454.707542,-888.247130,-11473.192101,-2145.067394
454.707864,-2368.659014,-10807.006753,-2834.553343
454.708186,-2738.761985,-10436.903782,-3217.601092
454.708508,-1850.514855,-10955.047942,-3447.429741
454.708829,-962.267725,-12139.377449,-3370.820191
454.709151,-1258.350101,-12583.501014,-612.876398
454.709473,-1480.411884,-11769.274478,536.266849
454.709795,-1480.411884,-9474.636058,0.000000
454.710116,-1036.288319,-7772.162391,-2068.457845
454.710438,-296.082377,-7105.977043,-3217.601092
454.710760,0.000000,-7550.100608,-2604.724693
454.711082,-666.185348,-9104.533087,-689.485948
454.711403,-1480.411884,-11399.171507,153.219100
454.711725,-1702.473667,-12657.521608,919.314598
454.712047,-2220.617826,-11769.274478,0.000000
454.712368,-2590.720797,-9252.574275,-1991.848295
454.712690,-1702.473667,-7328.038826,-3524.039291
454.713012,444.123565,-6513.812290,-3524.039291
454.713334,1924.535449,-7254.018232,-2834.553343
454.713655,2146.597232,-9104.533087,-306.438199
454.713977,888.247130,-9918.759623,919.314598
454.714299,-592.164754,-10658.965565,-306.438199
454.714621,-962.267725,-10732.986159,-1225.752797
454.714942,-444.123565,-8586.388927,-2528.115143
454.715264,740.205942,-6143.709319,-3600.648841
454.715586,1776.494261,-5773.606348,-2757.943793
454.715908,1332.370696,-6143.709319,-306.438199
454.716229,-666.185348,-7772.162391,689.485948
454.716551,-2368.659014,-8808.450710,-612.876398
454.716873,-3034.844362,-10510.924376,-2451.505594
454.717195,-2812.782580,-10807.006753,-2757.943793
454.717516,-1776.494261,-9474.636058,-1455.581446
454.717838,-518.144159,-7698.141797,229.828649
454.718160,1702.473667,-7550.100608,0.000000
454.718481,3182.885551,-7624.121203,-1838.629195
454.718803,2812.782580,-8290.306550,-2987.772442
454.719125,1480.411884,-9770.718434,-2681.334243
454.719447,888.247130,-10066.800811,-2451.505594
454.719768,814.226536,-10807.006753,-2911.162892
454.720090,1036.288319,-12139.377449,-2528.115143
454.720412,518.144159,-12065.356855,-1532.190996
454.720734,-1702.473667,-11399.171507,-1378.971896
454.721055,-3997.112087,-11547.212695,-1532.190996
454.721377,-5255.462188,-11473.192101,-766.095498
454.721699,-4515.256246,-9918.759623,-1608.800546
454.722021,-2886.803174,-7994.224174,-1762.019645
454.722342,-444.123565,-7994.224174,-766.095498
454.722664,888.247130,-7254.018232,-536.266849
454.722986,518.144159,-6735.874072,-1685.410096
454.723308,-740.205942,-9252.574275,-2374.896044
454.723629,-1406.391290,-12065.356855,-1455.581446
454.723951,-1332.370696,-13175.665768,-2451.505594
454.724273,-1480.411884,-12213.398043,-2911.162892
454.724595,-888.247130,-10658.965565,-1838.629195
454.724916,1110.308913,-9918.759623,-612.876398
454.725238,2368.659014,-8290.306550,-1302.362347
454.725560,1924.535449,-8142.265362,-2221.676944
454.725881,592.164754,-8882.471304,-1378.971896
454.726203,-444.123565,-10658.965565,0.000000
454.726525,-222.061783,-11325.150913,1685.410096
454.726847,1110.308913,-9548.656652,3524.039291
454.727168,2220.617826,-6439.791695,2451.505594
454.727490,2590.720797,-3034.844362,842.705048
454.727812,2812.782580,-1554.432478,0.000000
454.728134,3034.844362,-2368.659014,-536.266849
454.728455,1702.473667,-5699.585753,-1608.800546
454.728777,-740.205942,-9474.636058,-1149.143247
454.729099,-2960.823768,-12805.562797,536.266849
454.729421,-4293.194464,-13989.892304,153.219100
454.729742,-5477.523971,-12731.542202,-1991.848295
454.730064,-5477.523971,-12139.377449,-4673.182538
454.730386,-4367.215058,-9696.697840,-4826.401637
454.730708,-2146.597232,-7846.182985,-4443.353888
454.731029,-296.082377,-8290.306550,-3294.210641
454.731351,-296.082377,-9474.636058,0.000000
454.731673,-1110.308913,-9770.718434,306.438199
454.731994,-1776.494261,-8512.368333,-1838.629195
454.732316,0.000000,-8808.450710,-4213.525239
454.732638,814.226536,-8882.471304,-4519.963438
454.732960,1110.308913,-8956.491898,-2911.162892
454.733281,1184.329507,-9548.656652,-536.266849
454.733603,1850.514855,-11843.295072,76.609550
454.733925,1258.350101,-12361.439231,-1149.143247
454.734247,0.000000,-12139.377449,-3140.991542
454.734568,-962.267725,-12213.398043,-4060.306139
454.734890,0.000000,-12361.439231,-3677.258390
454.735212,888.247130,-10584.944971,-2068.457845
454.735534,2072.576638,-9622.677246,-842.705048
454.735855,3108.864956,-7994.224174,459.657299
454.736177,3701.029710,-7105.977043,-842.705048
454.736499,2812.782580,-7772.162391,-2681.334243
454.736821,814.226536,-8734.430116,-3140.991542
454.737142,-740.205942,-8734.430116,-1302.362347
454.737464,-740.205942,-8734.430116,-1225.752797
454.737786,-1184.329507,-8438.347739,-1608.800546
454.738107,-2220.617826,-8142.265362,-1455.581446
454.738429,-3627.009116,-7994.224174,-2145.067394
454.738751,-4811.338623,-8956.491898,-4213.525239
454.739073,-5107.421000,-11029.068536,-4519.963438
454.739394,-4885.359217,-12805.562797,-2068.457845
454.739716,-4293.194464,-11991.336260,383.047749
454.740038,-2812.782580,-8956.491898,306.438199
454.740360,-444.123565,-6809.894666,-1149.143247
454.740681,1332.370696,-5181.441594,-3064.381992
454.741003,2072.576638,-3478.967927,-3677.258390
454.741325,2590.720797,-3330.926739,-3217.601092
454.741647,3552.988522,-6587.832884,-2068.457845
454.741968,3478.967927,-11251.130318,-1149.143247
454.742290,1998.556043,-13027.624579,-612.876398
454.742612,0.000000,-12879.583391,-612.876398
454.742934,-1258.350101,-12435.459826,-1149.143247
454.743255,-1850.514855,-10807.006753,-2528.115143
454.743577,-1480.411884,-8734.430116,-4136.915689
454.743899,-666.185348,-7550.100608,-2834.553343
454.744220,-296.082377,-7994.224174,-1072.533697
454.744542,444.123565,-8586.388927,153.219100
454.744864,1036.288319,-8290.306550,-995.924147
454.745186,592.164754,-7846.182985,-3524.039291
454.745507,-74.020594,-8956.491898,-4213.525239
454.745829,-962.267725,-9548.656652,-3677.258390
454.746151,-1332.370696,-9770.718434,-3677.258390
454.746473,-1332.370696,-11029.068536,-3600.648841
454.746794,-1332.370696,-11917.315666,-3370.820191
454.747116,-1702.473667,-11103.089130,-4443.353888
454.747438,-2664.741391,-9696.697840,-5056.230287
454.747760,-3552.988522,-10658.965565,-5439.278036
454.748081,-3701.029710,-11325.150913,-5286.058936
454.748403,-3182.885551,-11251.130318,-5056.230287
454.748725,-2146.597232,-11547.212695,-3600.648841
454.749047,-740.205942,-11399.171507,-1915.238745
454.749368,444.123565,-10955.047942,-1072.533697
454.749690,1480.411884,-8364.327145,-1455.581446
454.750012,2442.679609,-5625.565159,-2757.943793
454.750334,4737.318029,-4293.194464,-3907.087040
454.750655,6513.812290,-4219.173869,-3677.258390
454.750977,6587.832884,-5921.647536,-2374.896044
454.751299,5181.441594,-7624.121203,-1378.971896
454.751620,3552.988522,-9992.780217,-2068.457845
454.751942,1480.411884,-12287.418637,-2681.334243
454.752264,-1258.350101,-13693.809927,-2681.334243
454.752586,-4441.235652,-10807.006753,-3447.429741
454.752907,-4219.173869,-9104.533087,-4366.744339
454.753229,-1480.411884,-8438.347739,-4596.572988
454.753551,-444.123565,-7624.121203,-3753.867940
454.753873,-1110.308913,-5625.565159,-2374.896044
454.754194,-1850.514855,-6365.771101,-1762.019645
454.754516,-1998.556043,-8216.285956,-1991.848295
454.754838,-2664.741391,-8586.388927,-4519.963438
454.755160,-3330.926739,-7328.038826,-6281.983084
454.755481,-2590.720797,-7476.080014,-5286.058936
454.755803,-1184.329507,-9030.512492,-5209.449386
454.756125,-888.247130,-9474.636058,-4903.011187
454.756447,-296.082377,-9178.553681,-5209.449386
454.756768,-296.082377,-9844.739029,-5822.325785
454.757090,-1258.350101,-11991.336260,-6665.030833
454.757412,-2516.700203,-13027.624579,-5286.058936
454.757733,-3182.885551,-12583.501014,-4903.011187
454.758055,-2442.679609,-11769.274478,-5056.230287
454.758377,0.000000,-11621.233289,-5669.106685
454.758699,2220.617826,-10510.924376,-4366.744339
454.759020,3701.029710,-8586.388927,-2911.162892
454.759342,5699.585753,-7624.121203,-2374.896044
454.759664,6735.874072,-7920.203579,-3294.210641
454.759986,6957.935855,-6439.791695,-3753.867940
454.760307,5255.462188,-4959.379811,-3907.087040
454.760629,3330.926739,-5107.421000,-4213.525239
454.760951,2294.638420,-7105.977043,-5209.449386
454.761273,962.267725,-8364.327145,-6435.202183
454.761594,-222.061783,-10288.862594,-6588.421283
454.761916,-1702.473667,-13027.624579,-4903.011187
454.762238,-3552.988522,-15766.386565,-2911.162892
454.762560,-5403.503377,-14730.098246,-2451.505594
454.762881,-6661.853478,-11917.315666,-4519.963438
454.763203,-6439.791695,-8216.285956,-6665.030833
454.763525,-5255.462188,-5699.585753,-6818.249932
454.763846,-3997.112087,-3849.070898,-5209.449386
454.764168,-2664.741391,-4663.297435,-3294.210641
454.764490,-962.267725,-7994.224174,-1302.362347
454.764812,1110.308913,-10214.842000,-612.876398
454.765133,1702.473667,-9918.759623,-1685.410096
454.765455,1480.411884,-7920.203579,-3677.258390
454.765777,1924.535449,-6661.853478,-4749.792088
454.766099,1924.535449,-5921.647536,-5592.497135
454.766420,888.247130,-4367.215058,-6435.202183
454.766742,0.000000,-5551.544565,-7048.078582
454.767064,-888.247130,-9474.636058,-7431.126331
454.767386,-1850.514855,-13915.871710,-6894.859482
454.767707,-3182.885551,-16432.571912,-5515.887586
454.768029,-3108.864956,-16506.592507,-4596.572988
454.768351,-1628.453072,-14285.974681,-5286.058936
454.768673,74.020594,-11621.233289,-5286.058936
454.768994,370.102971,-8142.265362,-3983.696590
454.769316,518.144159,-5551.544565,-2987.772442
454.769638,1406.391290,-4293.194464,-3830.477490
454.769959,2368.659014,-5403.503377,-3753.867940
454.770281,3552.988522,-7179.997637,-3447.429741
454.770603,4515.256246,-8438.347739,-2911.162892
454.770925,5403.503377,-9770.718434,-2374.896044
454.771246,6217.729913,-10584.944971,-2298.286494
454.771568,4811.338623,-9844.739029,-2987.772442
454.771890,2516.700203,-8216.285956,-4903.011187
454.772212,-370.102971,-7550.100608,-7431.126331
454.772533,-2664.741391,-8586.388927,-8273.831378
454.772855,-5255.462188,-8882.471304,-8580.269578
454.773177,-6217.729913,-9622.677246,-8427.050478
454.773499,-6513.812290,-11473.192101,-7201.297681
454.773820,-6587.832884,-14063.912898,-5286.058936
454.774142,-7624.121203,-14656.077652,-3370.820191
454.774464,-8290.306550,-12953.603985,-2604.724693
454.774786,-6513.812290,-9844.739029,-2757.943793
454.775107,-3256.906145,-8438.347739,-3370.820191
454.775429,-666.185348,-5107.421000,-2987.772442
454.775751,1776.494261,-2368.659014,-2145.067394
454.776073,4367.215058,-2368.659014,-842.705048
454.776394,6661.853478,-4515.256246,-229.828649
454.776716,7402.059420,-6291.750507,-1455.581446
454.777038,6587.832884,-8438.347739,-3447.429741
454.777359,5255.462188,-10436.903782,-4673.182538
454.777681,3849.070898,-11547.212695,-4596.572988
454.778003,1924.535449,-11843.295072,-4290.134789
454.778325,962.267725,-11843.295072,-4366.744339
454.778646,1332.370696,-10584.944971,-4826.401637
454.778968,1332.370696,-9696.697840,-6281.983084
454.779290,1480.411884,-8734.430116,-5822.325785
454.779612,1554.432478,-7550.100608,-4213.525239
454.779933,1480.411884,-6809.894666,-3064.381992
454.780255,1332.370696,-7105.977043,-3600.648841
454.780585,148.041188,-8438.347739,-3983.696590
454.780907,-1776.494261,-9474.636058,-3600.648841
454.781229,-3404.947333,-10066.800811,-3064.381992
454.781550,-3923.091493,-9474.636058,-3447.429741
454.781872,-3034.844362,-8364.327145,-4673.182538
454.782194,-2368.659014,-8512.368333,-5209.449386
454.782515,-1776.494261,-9474.636058,-5822.325785
454.782837,-2220.617826,-11029.068536,-6205.373534
454.783159,-2664.741391,-12435.459826,-5822.325785
454.783480,-2368.659014,-13989.892304,-3907.087040
454.783802,-1110.308913,-12879.583391,-4060.306139
454.784124,1110.308913,-10140.821405,-6818.249932
454.784445,3849.070898,-9252.574275,-8350.440928
454.784767,5255.462188,-8734.430116,-6588.421283
454.785089,3034.844362,-7105.977043,-2911.162892
454.785410,-888.247130,-7328.038826,-1991.848295
454.785732,-3775.050304,-8808.450710,-1991.848295
454.786054,-6439.791695,-10066.800811,-4213.525239
454.786375,-8216.285956,-10288.862594,-5822.325785
454.786697,-7920.203579,-8586.388927,-4903.011187
454.787019,-4737.318029,-6069.688724,-3753.867940
454.787340,-148.041188,-4737.318029,-5515.887586
454.787662,2368.659014,-5847.626942,-5362.668486
454.787984,2812.782580,-8586.388927,-4290.134789
454.788305,1406.391290,-10584.944971,-4060.306139
454.788627,74.020594,-12287.418637,-4749.792088
454.788949,-222.061783,-14211.954086,-5439.278036
454.789270,1554.432478,-13841.851115,-5362.668486
454.789592,3997.112087,-11103.089130,-3370.820191
454.789914,6069.688724,-7031.956449,-2068.457845
454.790235,7772.162391,-2960.823768,-1991.848295
454.790557,8734.430116,-666.185348,-2451.505594
454.790879,7550.100608,-592.164754,-3907.087040
454.791200,4441.235652,-2960.823768,-4749.792088
454.791522,1036.288319,-5181.441594,-4979.620737
454.791844,-1406.391290,-9030.512492,-5898.935335
454.792166,-3997.112087,-14211.954086,-5209.449386
454.792487,-8216.285956,-16358.551318,-3600.648841
454.792809,-12509.480420,-16210.510130,-3140.991542
454.793131,-13841.851115,-14434.015869,-4060.306139
454.793452,-11177.109724,-11991.336260,-5669.106685
454.793774,-7105.977043,-8660.409521,-7814.174080
454.794096,-2442.679609,-5329.482782,-9499.584175
454.794417,2368.659014,-4589.276840,-7201.297681
454.794739,5181.441594,-5033.400406,-2681.334243
454.795061,7179.997637,-3923.091493,-459.657299
454.795382,8142.265362,-5995.668130,-4673.182538
454.795704,9326.594869,-12139.377449,-9039.926876
454.796026,8956.491898,-15322.262999,-7660.954980
454.796347,3997.112087,-14582.057057,-3753.867940
454.796669,-1554.432478,-14063.912898,612.876398
454.796991,-3108.864956,-12287.418637,1838.629195
454.797312,-4589.276840,-7994.224174,-4673.182538
454.797634,-7105.977043,-7698.141797,-9806.022374
454.797956,-8660.409521,-11177.109724,-6741.640382
