#time,accel_x,accel_y,accel_z
582.744534,-444.123565,-9474.636058,-1685.410096
582.744856,-518.144159,-9474.636058,-1838.629195
582.745178,0.000000,-9104.533087,-1455.581446
582.745501,-370.102971,-9622.677246,-1608.800546
582.745823,-148.041188,-9622.677246,-1762.019645
582.746146,-370.102971,-9844.739029,-1685.410096
582.746468,-370.102971,-9696.697840,-1685.410096
582.746791,-740.205942,-9548.656652,-919.314598
582.747113,0.000000,-9400.615463,-1608.800546
582.747436,-370.102971,-9326.594869,-1378.971896
582.747758,-518.144159,-9400.615463,-1225.752797
582.748080,-370.102971,-9400.615463,-1302.362347
582.748403,-444.123565,-9400.615463,-1149.143247
582.748725,-148.041188,-9474.636058,-1225.752797
582.749048,-222.061783,-9326.594869,-1225.752797
582.749370,-370.102971,-9474.636058,-995.924147
582.749693,-370.102971,-9326.594869,-919.314598
582.750015,-592.164754,-9474.636058,-995.924147
582.750337,-518.144159,-9474.636058,-1685.410096
582.750660,-296.082377,-9104.533087,-995.924147
582.750982,-444.123565,-9178.553681,-1225.752797
582.751305,-296.082377,-9326.594869,-995.924147
582.751627,-518.144159,-9104.533087,-842.705048
582.751950,-740.205942,-9030.512492,-1149.143247
582.752272,0.000000,-9252.574275,-1608.800546
582.752594,-296.082377,-9030.512492,-1455.581446
582.752917,-518.144159,-9178.553681,-1072.533697
582.753239,-370.102971,-8956.491898,-1302.362347
582.753562,-518.144159,-9252.574275,-1225.752797
582.753884,-296.082377,-9104.533087,-1608.800546
582.754207,-518.144159,-8956.491898,-1532.190996
582.754529,-444.123565,-9104.533087,-1455.581446
582.754851,-444.123565,-9178.553681,-1532.190996
582.755174,-444.123565,-9178.553681,-1532.190996
582.755496,-592.164754,-9030.512492,-1685.410096
582.755819,-518.144159,-9326.594869,-1532.190996
582.756141,-370.102971,-9474.636058,-1762.019645
582.756464,-444.123565,-9474.636058,-1838.629195
582.756786,-444.123565,-9400.615463,-1838.629195
582.757109,-370.102971,-9400.615463,-1762.019645
582.757431,-222.061783,-9326.594869,-2298.286494
582.757753,0.000000,-9400.615463,-2145.067394
582.758076,-444.123565,-9326.594869,-1915.238745
582.758398,-592.164754,-9400.615463,-2068.457845
582.758721,-592.164754,-9474.636058,-1991.848295
582.759043,-148.041188,-9400.615463,-2374.896044
582.759366,-148.041188,-9252.574275,-2145.067394
582.759688,-518.144159,-9696.697840,-2221.676944
582.760010,-592.164754,-9474.636058,-2068.457845
582.760333,-592.164754,-9548.656652,-1991.848295
582.760655,-370.102971,-9178.553681,-2298.286494
582.760978,0.000000,-9696.697840,-2145.067394
582.761300,-370.102971,-9474.636058,-2451.505594
582.761623,-518.144159,-9622.677246,-1991.848295
582.761945,-740.205942,-9474.636058,-1838.629195
582.762267,-222.061783,-9400.615463,-1915.238745
582.762590,1184.329507,-9400.615463,-2374.896044
582.762912,2294.638420,-9622.677246,-2221.676944
582.763235,2590.720797,-9326.594869,-1072.533697
582.763557,1702.473667,-8660.409521,-153.219100
582.763880,962.267725,-8734.430116,-1302.362347
582.764202,74.020594,-8808.450710,-2374.896044
582.764525,-1628.453072,-9030.512492,-2068.457845
582.764847,-3552.988522,-9400.615463,-1991.848295
582.765169,-4219.173869,-9770.718434,-2145.067394
582.765492,-3108.864956,-9326.594869,-2834.553343
582.765814,-592.164754,-9918.759623,-2451.505594
582.766137,1702.473667,-10881.027347,-1608.800546
582.766459,2960.823768,-10214.842000,0.000000
582.766782,2220.617826,-8882.471304,459.657299
582.767104,1702.473667,-8660.409521,-383.047749
582.767426,2294.638420,-9770.718434,-2068.457845
582.767749,2146.597232,-9696.697840,-2374.896044
582.768071,962.267725,-8956.491898,-766.095498
582.768394,-222.061783,-7624.121203,153.219100
582.768716,296.082377,-7328.038826,-536.266849
582.769039,2146.597232,-9178.553681,-2374.896044
582.769361,2072.576638,-10214.842000,-1532.190996
582.769683,74.020594,-9474.636058,459.657299
582.770006,-962.267725,-9030.512492,-536.266849
582.770328,-296.082377,-9252.574275,-2911.162892
582.770651,444.123565,-9474.636058,-3294.210641
582.770973,518.144159,-10436.903782,-1225.752797
582.771296,1184.329507,-10584.944971,-919.314598
582.771618,2220.617826,-9474.636058,-1762.019645
582.771940,3478.967927,-9474.636058,-1685.410096
582.772263,4515.256246,-10955.047942,-229.828649
582.772585,4515.256246,-11473.192101,0.000000
582.772908,2886.803174,-9178.553681,-536.266849
582.773230,2368.659014,-8364.327145,-689.485948
582.773553,2368.659014,-8364.327145,-842.705048
582.773875,2516.700203,-8438.347739,-1302.362347
582.774198,1924.535449,-7476.080014,-1149.143247
582.774520,1480.411884,-7698.141797,-766.095498
582.774842,2442.679609,-9622.677246,-1149.143247
582.775165,3182.885551,-10584.944971,-689.485948
582.775487,2812.782580,-9474.636058,-1532.190996
582.775810,1850.514855,-9474.636058,-2068.457845
582.776132,2516.700203,-10288.862594,-1302.362347
582.776455,3034.844362,-9104.533087,-1225.752797
582.776777,3034.844362,-8882.471304,-3064.381992
582.777099,2516.700203,-9252.574275,-2374.896044
582.777422,2960.823768,-10140.821405,-1378.971896
582.777744,3404.947333,-9622.677246,-1149.143247
582.778067,2960.823768,-9252.574275,-1685.410096
582.778389,2368.659014,-9474.636058,-1378.971896
582.778712,2072.576638,-9030.512492,-995.924147
582.779034,1480.411884,-7550.100608,-1072.533697
582.779356,592.164754,-7624.121203,-1685.410096
582.779679,0.000000,-7920.203579,-2145.067394
582.780001,-444.123565,-9030.512492,-2145.067394
582.780324,-296.082377,-9918.759623,-1225.752797
582.780646,-296.082377,-11103.089130,-1378.971896
582.780969,222.061783,-11991.336260,-1685.410096
582.781291,740.205942,-11695.253884,-1149.143247
582.781614,1406.391290,-10510.924376,-1149.143247
582.781936,1702.473667,-9252.574275,-1532.190996
582.782258,1998.556043,-8512.368333,-2221.676944
582.782581,1702.473667,-8068.244768,-1838.629195
582.782903,1110.308913,-8142.265362,-1302.362347
582.783226,1036.288319,-8660.409521,-1608.800546
582.783548,888.247130,-9548.656652,-1608.800546
582.783871,1036.288319,-9548.656652,-1685.410096
582.784193,962.267725,-9178.553681,-1378.971896
582.784515,1554.432478,-8364.327145,-2068.457845
582.784838,1702.473667,-7920.203579,-2604.724693
582.785160,2368.659014,-8956.491898,-1915.238745
582.785483,1554.432478,-9178.553681,-1685.410096
582.785805,1110.308913,-9548.656652,-1838.629195
582.786128,1258.350101,-10881.027347,-2604.724693
582.786450,1332.370696,-11843.295072,-2221.676944
582.786772,1036.288319,-11843.295072,-1072.533697
582.787095,888.247130,-11251.130318,-153.219100
582.787417,1036.288319,-10362.883188,-612.876398
582.787740,1332.370696,-9770.718434,-766.095498
582.788062,1554.432478,-8882.471304,-383.047749
582.788385,2368.659014,-8216.285956,-842.705048
582.788707,2220.617826,-7105.977043,-919.314598
582.789029,3849.070898,-7624.121203,-1532.190996
582.789352,5033.400406,-8290.306550,-1608.800546
582.789674,5403.503377,-8808.450710,-919.314598
582.789997,5033.400406,-9030.512492,-766.095498
582.790319,4293.194464,-9400.615463,-2068.457845
582.790642,3478.967927,-10658.965565,-2604.724693
582.790964,2516.700203,-11251.130318,-2987.772442
582.791287,1406.391290,-11917.315666,-2298.286494
582.791609,814.226536,-11695.253884,-612.876398
582.791931,666.185348,-10436.903782,229.828649
582.792254,888.247130,-8956.491898,76.609550
582.792576,814.226536,-8068.244768,153.219100
582.792899,592.164754,-6883.915261,76.609550
582.793221,592.164754,-6069.688724,-229.828649
582.793544,1110.308913,-5551.544565,-536.266849
582.793866,2072.576638,-6069.688724,-306.438199
582.794188,1850.514855,-7550.100608,-842.705048
582.794511,1036.288319,-8882.471304,-689.485948
582.794833,592.164754,-9918.759623,-842.705048
582.795156,814.226536,-10732.986159,-2374.896044
582.795478,1184.329507,-11399.171507,-4213.525239
582.795801,592.164754,-11029.068536,-3217.601092
582.796123,0.000000,-10955.047942,-2681.334243
582.796445,-1036.288319,-11547.212695,-2451.505594
582.796768,-2072.576638,-12213.398043,-2145.067394
582.797090,-2738.761985,-12139.377449,-2298.286494
582.797413,-3108.864956,-11547.212695,-2451.505594
582.797735,-2886.803174,-10955.047942,-1991.848295
582.798058,-1406.391290,-10214.842000,-689.485948
582.798380,0.000000,-8660.409521,0.000000
582.798703,1184.329507,-7402.059420,383.047749
582.799025,2664.741391,-6513.812290,689.485948
582.799347,4293.194464,-6365.771101,-612.876398
582.799670,5329.482782,-6809.894666,-1532.190996
582.799992,6069.688724,-6957.935855,-1149.143247
582.800315,6883.915261,-6587.832884,-1149.143247
582.800637,7031.956449,-7920.203579,-2757.943793
582.800960,7846.182985,-10658.965565,-3753.867940
582.801282,7031.956449,-12435.459826,-2451.505594
582.801604,4293.194464,-11843.295072,-1685.410096
582.801927,370.102971,-11843.295072,-1608.800546
582.802249,-1776.494261,-11769.274478,-689.485948
582.802572,-3849.070898,-11029.068536,-3217.601092
582.802894,-5403.503377,-10584.944971,-3677.258390
582.803217,-6661.853478,-7994.224174,-306.438199
582.803539,-7105.977043,-5995.668130,-1608.800546
582.803861,-5033.400406,-7254.018232,-2374.896044
582.804184,-1036.288319,-8068.244768,-1991.848295
582.804506,2368.659014,-8512.368333,-2604.724693
582.804829,5181.441594,-10362.883188,-3677.258390
582.805151,8882.471304,-11621.233289,-1225.752797
582.805474,11843.295072,-11177.109724,153.219100
582.805796,13767.830521,-9548.656652,-1455.581446
582.806118,13619.789333,-7846.182985,-459.657299
582.806441,12509.480420,-7772.162391,-689.485948
582.806763,9696.697840,-9400.615463,-2145.067394
582.807086,5921.647536,-10658.965565,-1455.581446
582.807408,1258.350101,-12361.439231,-229.828649
582.807731,-2812.782580,-11695.253884,76.609550
582.808053,-5033.400406,-11325.150913,0.000000
582.808376,-7920.203579,-11177.109724,-536.266849
582.808698,-8956.491898,-9918.759623,612.876398
582.809020,-9178.553681,-4737.318029,1455.581446
582.809343,-8438.347739,-2516.700203,-1532.190996
582.809665,-5107.421000,-5033.400406,-1838.629195
582.809988,148.041188,-7994.224174,-2834.553343
582.810310,4219.173869,-9326.594869,-3983.696590
582.810633,7624.121203,-11177.109724,-3064.381992
582.810955,9770.718434,-13101.645173,-1762.019645
582.811277,10881.027347,-13767.830521,-1225.752797
582.811599,9918.759623,-10955.047942,-2834.553343
582.811922,6365.771101,-8438.347739,-4443.353888
582.812244,2960.823768,-8364.327145,-6128.763984
582.812566,1406.391290,-10436.903782,-5975.544884
582.812889,-1332.370696,-10658.965565,-2221.676944
582.813211,-4663.297435,-10510.924376,1149.143247
582.813533,-6883.915261,-12509.480420,2451.505594
582.813856,-5699.585753,-11917.315666,3753.867940
582.814178,-4071.132681,-7846.182985,1455.581446
582.814500,-3404.947333,-4441.235652,-1225.752797
582.814822,-444.123565,-7031.956449,612.876398
582.815145,5699.585753,-6661.853478,1455.581446
582.815467,10584.944971,-4219.173869,-1225.752797
582.815789,12509.480420,-8216.285956,-3217.601092
582.816112,11103.089130,-12657.521608,0.000000
582.816434,9178.553681,-12213.398043,1225.752797
582.816756,5181.441594,-11473.192101,-3064.381992
582.817079,-518.144159,-12435.459826,-7354.516781
582.817401,-4811.338623,-14285.974681,-6435.202183
582.817723,-7402.059420,-11843.295072,-3294.210641
582.818046,-9326.594869,-6661.853478,-1915.238745
582.818368,-7994.224174,-7031.956449,-3064.381992
582.818690,-4071.132681,-6439.791695,-2451.505594
582.819012,0.000000,-7920.203579,-1302.362347
582.819335,0.000000,-8216.285956,2298.286494
582.819657,-962.267725,-7698.141797,5515.887586
582.819979,814.226536,-6957.935855,919.314598
582.820302,4219.173869,-7105.977043,-2451.505594
582.820624,5477.523971,-7254.018232,-2145.067394
582.820946,3701.029710,-7105.977043,-2681.334243
582.821269,3627.009116,-10732.986159,-3064.381992
582.821591,6217.729913,-12287.418637,-1378.971896
582.821913,7920.203579,-10807.006753,-2221.676944
582.822235,7698.141797,-11177.109724,-5745.716235
582.822558,5773.606348,-12509.480420,-4596.572988
582.822880,1702.473667,-12287.418637,-612.876398
582.823202,-814.226536,-11029.068536,383.047749
582.823525,-2294.638420,-10214.842000,-2987.772442
582.823847,-2738.761985,-10510.924376,-4213.525239
582.824169,-2664.741391,-10362.883188,-1149.143247
582.824492,-2146.597232,-9918.759623,2681.334243
582.824814,148.041188,-9178.553681,2834.553343
582.825136,3923.091493,-8512.368333,459.657299
582.825458,7105.977043,-6587.832884,153.219100
582.825781,7624.121203,-5181.441594,1455.581446
582.826103,6809.894666,-4885.359217,229.828649
582.826425,5995.668130,-5255.462188,-2604.724693
582.826748,5181.441594,-6513.812290,-3677.258390
582.827070,3552.988522,-8290.306550,-2987.772442
582.827392,222.061783,-11103.089130,-5209.449386
582.827715,-3256.906145,-13767.830521,-5515.887586
582.828037,-4441.235652,-14063.912898,-2681.334243
582.828359,-2664.741391,-13693.809927,-2834.553343
582.828681,-740.205942,-13915.871710,-4673.182538
582.829004,-814.226536,-12435.459826,-4443.353888
582.829326,0.000000,-9918.759623,-1072.533697
582.829648,2072.576638,-9178.553681,1685.410096
582.829971,5625.565159,-10510.924376,2145.067394
582.830293,7031.956449,-10066.800811,0.000000
582.830615,5995.668130,-9252.574275,612.876398
582.830938,4515.256246,-8142.265362,5286.058936
582.831260,5329.482782,-6587.832884,6741.640382
582.831582,6957.935855,-4663.297435,1225.752797
582.831905,7698.141797,-2442.679609,-3830.477490
582.832227,7698.141797,-4367.215058,-1608.800546
582.832549,5773.606348,-6439.791695,1685.410096
582.832871,2664.741391,-7920.203579,1991.848295
582.833194,-518.144159,-10510.924376,-1455.581446
582.833516,-2368.659014,-11695.253884,-4903.011187
582.833838,-5107.421000,-11769.274478,-7124.688131
582.834161,-8586.388927,-11325.150913,-6818.249932
582.834483,-9474.636058,-12435.459826,-4979.620737
582.834805,-6513.812290,-14063.912898,-4366.744339
582.835128,-4367.215058,-11621.233289,-3830.477490
582.835450,-3923.091493,-8364.327145,-1302.362347
582.835772,-2812.782580,-9474.636058,-383.047749
582.836094,-222.061783,-12435.459826,-2604.724693
582.836417,1036.288319,-11843.295072,-2681.334243
582.836739,1036.288319,-8068.244768,76.609550
582.837061,3701.029710,-5551.544565,2145.067394
582.837384,7476.080014,-5551.544565,459.657299
582.837706,9030.512492,-6439.791695,-459.657299
582.838028,7920.203579,-6069.688724,995.924147
582.838351,7328.038826,-6809.894666,1455.581446
582.838673,8216.285956,-9844.739029,0.000000
582.838995,7698.141797,-11325.150913,-2451.505594
582.839317,3404.947333,-10584.944971,-3983.696590
582.839640,-296.082377,-10658.965565,-1762.019645
582.839962,-888.247130,-11029.068536,-153.219100
582.840284,-444.123565,-11547.212695,-3983.696590
582.840607,-2220.617826,-10510.924376,-6818.249932
582.840929,-4071.132681,-10658.965565,-4213.525239
582.841251,-4367.215058,-11843.295072,-306.438199
582.841574,-3775.050304,-14211.954086,-1838.629195
582.841896,-3775.050304,-13693.809927,-2911.162892
582.842218,-5181.441594,-7920.203579,-383.047749
582.842540,-3923.091493,-2664.741391,306.438199
582.842863,592.164754,-4441.235652,-2451.505594
582.843185,4811.338623,-6439.791695,-4596.572988
582.843507,5995.668130,-6735.874072,-2604.724693
582.843830,7031.956449,-7328.038826,1685.410096
582.844152,9252.574275,-9696.697840,2528.115143
582.844474,9252.574275,-11399.171507,-766.095498
582.844797,6365.771101,-10288.862594,-2145.067394
582.845119,4145.153275,-9178.553681,-383.047749
582.845441,3256.906145,-9400.615463,-1225.752797
582.845764,1924.535449,-9918.759623,-3294.210641
582.846086,0.000000,-9474.636058,-2528.115143
582.846408,-1924.535449,-11103.089130,-383.047749
582.846730,-592.164754,-13471.748144,459.657299
582.847053,444.123565,-14211.954086,-383.047749
582.847375,1406.391290,-13323.706956,-383.047749
582.847697,2812.782580,-11177.109724,766.095498
582.848020,6957.935855,-7846.182985,842.705048
582.848342,9104.533087,-4959.379811,-536.266849
582.848664,8512.368333,-4293.194464,76.609550
582.848987,6587.832884,-4219.173869,1378.971896
582.849309,4293.194464,-5107.421000,-229.828649
582.849631,1850.514855,-8438.347739,-3294.210641
582.849953,-1406.391290,-11621.233289,-3830.477490
582.850276,-3627.009116,-12805.562797,-2604.724693
582.850598,-4367.215058,-11843.295072,-3447.429741
582.850920,-5181.441594,-8586.388927,-4673.182538
582.851243,-4663.297435,-9770.718434,-4213.525239
582.851565,-5921.647536,-10807.006753,-2298.286494
582.851887,-6365.771101,-12435.459826,229.828649
582.852210,-6069.688724,-12139.377449,-383.047749
582.852532,-1924.535449,-13249.686362,-2681.334243
582.852854,3108.864956,-11621.233289,-1302.362347
582.853176,7179.997637,-8068.244768,1762.019645
582.853499,9030.512492,-5847.626942,3294.210641
582.853821,10510.924376,-5181.441594,2911.162892
582.854143,11325.150913,-4663.297435,1455.581446
582.854466,8438.347739,-4811.338623,76.609550
582.854788,3552.988522,-6291.750507,-1302.362347
582.855110,-814.226536,-8956.491898,-2221.676944
582.855433,-3182.885551,-8660.409521,-3217.601092
582.855755,-3627.009116,-8364.327145,-5592.497135
582.856077,-4145.153275,-11399.171507,-6665.030833
582.856399,-4367.215058,-13471.748144,-3677.258390
582.856722,-4589.276840,-13989.892304,-842.705048
582.857044,-4441.235652,-13323.706956,-3447.429741
582.857366,-2368.659014,-14285.974681,-5132.839837
582.857689,740.205942,-14211.954086,-3370.820191
582.858011,3775.050304,-11473.192101,-1302.362347
582.858333,5329.482782,-8660.409521,76.609550
582.858656,6365.771101,-7550.100608,2145.067394
582.858978,8364.327145,-5699.585753,3524.039291
582.859300,8734.430116,-3997.112087,383.047749
582.859622,6587.832884,-4663.297435,-1532.190996
582.859945,2072.576638,-5033.400406,-612.876398
582.860267,-1850.514855,-5255.462188,-536.266849
582.860589,-2960.823768,-7698.141797,-3370.820191
582.860912,-2368.659014,-9474.636058,-4519.963438
582.861234,-2072.576638,-10658.965565,-5439.278036
582.861556,-2072.576638,-12435.459826,-3983.696590
582.861879,-1554.432478,-13915.871710,-1455.581446
582.862201,-444.123565,-13175.665768,-1455.581446
582.862523,1406.391290,-13471.748144,-3907.087040
582.862846,3330.926739,-13101.645173,-2757.943793
582.863168,4441.235652,-10584.944971,-229.828649
582.863490,4589.276840,-8142.265362,-842.705048
582.863812,4071.132681,-7476.080014,-306.438199
582.864135,2072.576638,-8734.430116,1915.238745
582.864457,-740.205942,-7698.141797,3294.210641
582.864779,-2812.782580,-4737.318029,0.000000
582.865102,-3849.070898,-3775.050304,-3217.601092
582.865424,-2516.700203,-5921.647536,-3294.210641
582.865746,-1628.453072,-6883.915261,-842.705048
582.866069,-1554.432478,-6291.750507,-995.924147
582.866391,-888.247130,-8364.327145,-2145.067394
582.866713,0.000000,-12065.356855,-3064.381992
582.867035,-296.082377,-14211.954086,-3524.039291
582.867358,-666.185348,-14434.015869,-4060.306139
582.867680,-1036.288319,-14730.098246,-4443.353888
582.868002,-814.226536,-15322.262999,-2604.724693
582.868325,-592.164754,-13989.892304,-536.266849
582.868647,0.000000,-10362.883188,-383.047749
582.868969,1184.329507,-8290.306550,-2221.676944
582.869292,2368.659014,-7328.038826,-995.924147
582.869614,3108.864956,-6439.791695,919.314598
582.869936,1702.473667,-4885.359217,2221.676944
582.870258,-444.123565,-4959.379811,1685.410096
582.870581,-1850.514855,-6365.771101,1455.581446
582.870903,-2294.638420,-6587.832884,-536.266849
582.871225,-1924.535449,-7698.141797,-3524.039291
582.871548,-1406.391290,-9548.656652,-4749.792088
582.871870,-1480.411884,-10066.800811,-2298.286494
582.872192,-2146.597232,-11103.089130,76.609550
582.872515,-2590.720797,-13175.665768,-1225.752797
582.872837,-2812.782580,-13767.830521,-4290.134789
582.873159,-3256.906145,-13545.768739,-4826.401637
582.873481,-2516.700203,-12657.521608,-3447.429741
582.873804,-1332.370696,-11399.171507,-2528.115143
582.874126,296.082377,-9178.553681,-1762.019645
582.874448,1110.308913,-7105.977043,229.828649
582.874771,1332.370696,-5921.647536,2528.115143
582.875093,814.226536,-5329.482782,1532.190996
582.875415,740.205942,-5847.626942,-1378.971896
582.875738,-962.267725,-5329.482782,-1762.019645
582.876060,-3404.947333,-7105.977043,0.000000
582.876382,-5551.544565,-8586.388927,766.095498
582.876705,-5847.626942,-8808.450710,-1608.800546
582.877027,-3404.947333,-8882.471304,-4136.915689
582.877349,-222.061783,-9992.780217,-3907.087040
582.877671,2516.700203,-11547.212695,-2911.162892
582.877994,3701.029710,-11843.295072,-2451.505594
582.878316,3997.112087,-13175.665768,-842.705048
582.878638,4441.235652,-14211.954086,153.219100
582.878961,3478.967927,-11917.315666,-1149.143247
582.879283,1850.514855,-9104.533087,-3370.820191
582.879605,0.000000,-6291.750507,-3370.820191
582.879928,-962.267725,-6883.915261,-2068.457845
582.880250,-1628.453072,-7846.182985,306.438199
582.880572,-3108.864956,-7105.977043,0.000000
582.880894,-4367.215058,-6957.935855,-1762.019645
582.881217,-4145.153275,-7846.182985,-2528.115143
582.881539,-2146.597232,-10362.883188,-2451.505594
582.881861,-1924.535449,-10584.944971,-2911.162892
582.882184,-2146.597232,-9326.594869,-2451.505594
582.882506,-888.247130,-9622.677246,-1225.752797
582.882828,2072.576638,-11029.068536,-2145.067394
582.883151,4293.194464,-11399.171507,-3294.210641
582.883473,4367.215058,-10584.944971,-4366.744339
582.883795,4071.132681,-10955.047942,-3370.820191
582.884117,3182.885551,-11547.212695,-459.657299
582.884440,444.123565,-10955.047942,842.705048
582.884762,-2442.679609,-9992.780217,-766.095498
582.885084,-3701.029710,-7994.224174,-3064.381992
582.885407,-2812.782580,-7105.977043,-3600.648841
582.885729,-1480.411884,-7105.977043,-2374.896044
582.886051,-1110.308913,-7179.997637,-536.266849
582.886374,-296.082377,-7476.080014,766.095498
582.886696,962.267725,-7846.182985,766.095498
582.887018,2220.617826,-8586.388927,-229.828649
582.887340,1998.556043,-9178.553681,-1991.848295
582.887663,1036.288319,-9252.574275,-3524.039291
582.887985,-962.267725,-9178.553681,-2911.162892
582.888307,-2516.700203,-10214.842000,-1302.362347
582.888630,-3330.926739,-11325.150913,-1455.581446
582.888952,-3330.926739,-11843.295072,-3294.210641
582.889274,-1850.514855,-11029.068536,-2911.162892
582.889597,1184.329507,-10288.862594,-2221.676944
582.889919,2960.823768,-10584.944971,-1532.190996
582.890241,2442.679609,-8808.450710,919.314598
582.890564,296.082377,-7920.203579,2681.334243
582.890886,-518.144159,-7550.100608,0.000000
582.891208,-814.226536,-7031.956449,-1915.238745
582.891530,-1924.535449,-6587.832884,-2911.162892
582.891853,-3034.844362,-6661.853478,-2221.676944
582.892175,-3701.029710,-8142.265362,0.000000
582.892497,-3627.009116,-9696.697840,1072.533697
582.892820,-2886.803174,-11399.171507,-995.924147
582.893142,-2442.679609,-10955.047942,-2681.334243
582.893464,-1850.514855,-10362.883188,-2987.772442
582.893787,-888.247130,-9844.739029,-3217.601092
582.894109,-370.102971,-10140.821405,-2451.505594
582.894431,-888.247130,-9844.739029,-1532.190996
582.894753,-444.123565,-10436.903782,-1762.019645
582.895076,518.144159,-9474.636058,-2451.505594
582.895398,1776.494261,-8882.471304,-3524.039291
582.895720,2516.700203,-9400.615463,-3294.210641
582.896043,1184.329507,-9992.780217,-842.705048
582.896365,-444.123565,-9992.780217,2911.162892
582.896687,-3330.926739,-9104.533087,919.314598
582.897010,-3256.906145,-8364.327145,-2451.505594
582.897332,-1998.556043,-8068.244768,-3753.867940
582.897654,-296.082377,-7920.203579,-2757.943793
582.897976,592.164754,-8734.430116,0.000000
582.898299,1406.391290,-8956.491898,2221.676944
582.898621,2590.720797,-9474.636058,1455.581446
582.898943,3775.050304,-9992.780217,-1455.581446
582.899266,3330.926739,-9474.636058,-2681.334243
582.899588,592.164754,-8586.388927,-2987.772442
582.899910,-814.226536,-8956.491898,-3064.381992
582.900233,-1628.453072,-9622.677246,-2374.896044
582.900555,-2664.741391,-9844.739029,-1685.410096
582.900877,-3701.029710,-10584.944971,-2757.943793
582.901199,-3552.988522,-10140.821405,-2528.115143
582.901522,-1554.432478,-9992.780217,-2451.505594
582.901844,-296.082377,-11177.109724,-3217.601092
582.902166,592.164754,-10362.883188,-612.876398
582.902489,1480.411884,-9178.553681,1532.190996
582.902811,3330.926739,-7402.059420,229.828649
582.903133,4071.132681,-7105.977043,-2068.457845
582.903456,4515.256246,-7031.956449,-1608.800546
582.903778,3775.050304,-7550.100608,-919.314598
582.904100,3108.864956,-8734.430116,-459.657299
582.904422,962.267725,-10436.903782,995.924147
582.904745,-2442.679609,-9918.759623,995.924147
582.905067,-5107.421000,-9326.594869,-1532.190996
582.905389,-4737.318029,-8586.388927,-4213.525239
582.905712,-2886.803174,-9548.656652,-4443.353888
582.906034,-1850.514855,-10066.800811,-3830.477490
582.906356,-1850.514855,-9104.533087,-1532.190996
582.906679,-1924.535449,-8438.347739,306.438199
582.907001,-888.247130,-10214.842000,-1608.800546
582.907323,666.185348,-12583.501014,-4290.134789
582.907646,962.267725,-11621.233289,-4826.401637
582.907968,0.000000,-9918.759623,-2681.334243
582.908290,-370.102971,-8364.327145,-153.219100
582.908612,-666.185348,-9104.533087,0.000000
582.908935,-1184.329507,-9770.718434,-1225.752797
582.909257,-2072.576638,-8734.430116,-2298.286494
582.909579,-1036.288319,-7698.141797,-2528.115143
582.909902,666.185348,-9030.512492,-2681.334243
582.910224,296.082377,-8956.491898,-153.219100
582.910546,-814.226536,-8142.265362,1685.410096
582.910858,-740.205942,-8808.450710,919.314598
582.911180,0.000000,-9400.615463,-1838.629195
582.911503,518.144159,-8364.327145,-3830.477490
582.911825,-148.041188,-7772.162391,-3753.867940
582.912147,-1776.494261,-9622.677246,-1915.238745
582.912470,-2442.679609,-11695.253884,153.219100
582.912792,-3108.864956,-12435.459826,-1072.533697
582.913114,-3997.112087,-12139.377449,-3217.601092
582.913437,-4293.194464,-11399.171507,-3294.210641
582.913759,-2590.720797,-8882.471304,-2834.553343
582.914081,-666.185348,-7920.203579,-2528.115143
582.914404,-1184.329507,-6809.894666,-459.657299
582.914726,-1110.308913,-7772.162391,995.924147
582.915049,0.000000,-7624.121203,-842.705048
582.915371,1480.411884,-7105.977043,-3524.039291
582.915693,1924.535449,-8216.285956,-2681.334243
582.916016,2368.659014,-9770.718434,-766.095498
582.916338,888.247130,-8956.491898,995.924147
582.916660,-740.205942,-9326.594869,0.000000
582.916983,-1924.535449,-10584.944971,-612.876398
582.917305,-1998.556043,-11399.171507,-2298.286494
582.917627,-814.226536,-9548.656652,-3447.429741
582.917950,296.082377,-9548.656652,-3524.039291
582.918272,1924.535449,-9992.780217,-1378.971896
582.918594,2590.720797,-8882.471304,1455.581446
582.918917,3997.112087,-9400.615463,459.657299
582.919239,5107.421000,-9030.512492,-1915.238745
582.919561,4663.297435,-8068.244768,-3217.601092
582.919884,2220.617826,-8364.327145,-2528.115143
582.920206,-888.247130,-9622.677246,229.828649
582.920529,-3108.864956,-10658.965565,306.438199
582.920851,-4367.215058,-9918.759623,-2681.334243
582.921173,-5255.462188,-9844.739029,-4060.306139
582.921496,-3478.967927,-9918.759623,-2757.943793
582.921818,-1036.288319,-9844.739029,-2757.943793
582.922140,0.000000,-9992.780217,-3140.991542
582.922463,-814.226536,-9104.533087,766.095498
582.922785,74.020594,-8660.409521,1532.190996
582.923107,1480.411884,-8438.347739,-2451.505594
582.923430,1998.556043,-8364.327145,-4443.353888
582.923752,1850.514855,-8290.306550,-2911.162892
582.924074,1702.473667,-9030.512492,-383.047749
582.924397,2072.576638,-9992.780217,1072.533697
582.924719,74.020594,-10436.903782,536.266849
582.925041,-2664.741391,-10881.027347,-1608.800546
582.925364,-4071.132681,-10288.862594,-1608.800546
582.925686,-3330.926739,-9400.615463,-1225.752797
582.926008,-3404.947333,-8808.450710,-3370.820191
582.926331,-2220.617826,-8290.306550,-2298.286494
582.926653,-1776.494261,-7105.977043,153.219100
582.926976,-370.102971,-8364.327145,766.095498
582.927298,1702.473667,-9474.636058,-2451.505594
582.927620,3478.967927,-10436.903782,-4749.792088
582.927943,4367.215058,-11251.130318,-2451.505594
582.928265,3182.885551,-11251.130318,766.095498
582.928587,296.082377,-10955.047942,2374.896044
582.928910,-2738.761985,-10881.027347,-306.438199
582.929232,-4145.153275,-9622.677246,-2604.724693
582.929554,-3775.050304,-8068.244768,-3983.696590
582.929877,-2294.638420,-7698.141797,-3294.210641
582.930199,-2072.576638,-6439.791695,-1991.848295
582.930521,-2146.597232,-6291.750507,612.876398
582.930844,-2146.597232,-9104.533087,2068.457845
582.931166,-2294.638420,-10362.883188,153.219100
582.931488,-1924.535449,-8882.471304,-4366.744339
582.931811,-2146.597232,-7328.038826,-6511.811733
582.932133,-1628.453072,-8216.285956,-4749.792088
582.932455,-1110.308913,-9918.759623,-1149.143247
582.932778,-2072.576638,-11177.109724,-229.828649
582.933100,-3627.009116,-11695.253884,-1762.019645
582.933423,-3627.009116,-12361.439231,-3370.820191
582.933745,-2368.659014,-11917.315666,-4596.572988
582.934067,-444.123565,-10658.965565,-4826.401637
582.934390,1480.411884,-9548.656652,-2681.334243
582.934712,2516.700203,-7846.182985,1455.581446
582.935034,3627.009116,-6513.812290,1532.190996
582.935357,4589.276840,-6143.709319,-689.485948
582.935679,4293.194464,-5773.606348,-2221.676944
582.936001,3404.947333,-6957.935855,-2451.505594
582.936324,1628.453072,-9474.636058,-1225.752797
582.936646,-296.082377,-11843.295072,689.485948
582.936968,-2590.720797,-12065.356855,919.314598
582.937291,-2886.803174,-11621.233289,-1225.752797
582.937613,-1184.329507,-9992.780217,-3524.039291
582.937935,148.041188,-8364.327145,-4213.525239
582.938258,3182.885551,-9030.512492,-2987.772442
582.938580,3404.947333,-9474.636058,-1455.581446
582.938902,3108.864956,-10955.047942,536.266849
582.939225,2590.720797,-11325.150913,536.266849
582.939547,2368.659014,-9622.677246,-2374.896044
582.939870,962.267725,-9030.512492,-3830.477490
582.940192,-962.267725,-7624.121203,-3140.991542
582.940514,-2812.782580,-7179.997637,-1608.800546
582.940837,-3775.050304,-8586.388927,-689.485948
582.941159,-3923.091493,-9548.656652,-612.876398
582.941481,-4219.173869,-9178.553681,-2221.676944
582.941804,-3552.988522,-9622.677246,-2834.553343
582.942126,-1924.535449,-11103.089130,-1991.848295
582.942448,-814.226536,-9770.718434,-1149.143247
582.942771,-1554.432478,-8142.265362,-842.705048
582.943093,-296.082377,-7772.162391,-229.828649
582.943415,1110.308913,-7772.162391,-1991.848295
582.943738,2590.720797,-7550.100608,-4136.915689
582.944060,2516.700203,-8512.368333,-3370.820191
582.944382,1850.514855,-10955.047942,0.000000
582.944705,1406.391290,-12213.398043,1608.800546
582.945027,-1110.308913,-12509.480420,383.047749
582.945350,-3182.885551,-11547.212695,-1225.752797
582.945672,-4441.235652,-9104.533087,-1991.848295
582.945994,-2886.803174,-8512.368333,-2757.943793
582.946317,-296.082377,-8142.265362,-3064.381992
582.946639,2220.617826,-7328.038826,-1532.190996
582.946961,1998.556043,-7550.100608,0.000000
582.947284,2220.617826,-9252.574275,2068.457845
582.947606,2294.638420,-9622.677246,1378.971896
582.947928,2442.679609,-9844.739029,-1915.238745
582.948251,1480.411884,-9178.553681,-3600.648841
582.948573,-296.082377,-8364.327145,-995.924147
582.948895,-2960.823768,-9030.512492,459.657299
582.949218,-4441.235652,-10658.965565,-383.047749
582.949540,-4663.297435,-10807.006753,-2374.896044
582.949862,-3997.112087,-9400.615463,-3753.867940
582.950185,-3627.009116,-9104.533087,-3677.258390
582.950507,-1998.556043,-10066.800811,-1685.410096
582.950829,-2886.803174,-9770.718434,-689.485948
582.951152,-3701.029710,-8364.327145,-689.485948
582.951474,-2738.761985,-9178.553681,-1762.019645
582.951797,-888.247130,-8438.347739,-4136.915689
582.952119,0.000000,-7772.162391,-4903.011187
582.952441,666.185348,-8660.409521,-3140.991542
582.952764,1406.391290,-11399.171507,-153.219100
582.953086,1702.473667,-12139.377449,1455.581446
582.953408,1110.308913,-11843.295072,0.000000
582.953731,592.164754,-9622.677246,-1685.410096
582.954053,2294.638420,-9400.615463,-3217.601092
582.954375,3849.070898,-8142.265362,-2451.505594
582.954698,3256.906145,-6439.791695,-76.609550
582.955020,1850.514855,-6143.709319,1072.533697
582.955342,1480.411884,-8068.244768,689.485948
582.955665,2516.700203,-10510.924376,-1072.533697
582.955987,2516.700203,-9400.615463,-2298.286494
582.956309,1628.453072,-8068.244768,-2604.724693
582.956632,0.000000,-8438.347739,-2145.067394
582.956954,-1258.350101,-8956.491898,-919.314598
582.957276,-3552.988522,-9844.739029,0.000000
582.957599,-5625.565159,-10881.027347,-2451.505594
582.957921,-5107.421000,-9178.553681,-4443.353888
582.958244,-3552.988522,-8734.430116,-6971.469032
582.958566,-1628.453072,-11103.089130,-5439.278036
582.958888,-370.102971,-12139.377449,-1532.190996
582.959211,370.102971,-11473.192101,612.876398
582.959533,1924.535449,-9474.636058,-1225.752797
582.959855,3404.947333,-7179.997637,-2604.724693
582.960178,2960.823768,-7402.059420,-4060.306139
582.960500,666.185348,-8068.244768,-2911.162892
582.960822,-2072.576638,-8364.327145,76.609550
582.961145,-3330.926739,-9030.512492,919.314598
582.961467,-2812.782580,-10807.006753,-536.266849
582.961789,-2220.617826,-9770.718434,-1455.581446
582.962112,-1332.370696,-7254.018232,-1915.238745
582.962434,0.000000,-8586.388927,-1455.581446
582.962756,444.123565,-10658.965565,995.924147
582.963079,148.041188,-9474.636058,1225.752797
582.963401,-814.226536,-8068.244768,-1225.752797
582.963723,-1036.288319,-8734.430116,-3064.381992
582.964046,0.000000,-10140.821405,-3600.648841
582.964368,1036.288319,-11103.089130,-4443.353888
582.964691,592.164754,-10955.047942,-3140.991542
582.965013,-1110.308913,-10584.944971,-689.485948
582.965335,-2516.700203,-11177.109724,612.876398
582.965658,-4293.194464,-10732.986159,-1225.752797
582.965980,-5551.544565,-9030.512492,-3370.820191
582.966302,-5699.585753,-9030.512492,-4979.620737
582.966625,-3108.864956,-8660.409521,-3907.087040
582.966947,-1258.350101,-8068.244768,-612.876398
582.967269,74.020594,-8512.368333,1532.190996
582.967592,1702.473667,-9104.533087,2451.505594
582.967914,2590.720797,-8660.409521,612.876398
582.968236,2590.720797,-8068.244768,-1225.752797
582.968559,1628.453072,-8808.450710,-1302.362347
582.968881,518.144159,-8438.347739,-612.876398
582.969203,0.000000,-7772.162391,-153.219100
582.969526,148.041188,-9104.533087,-1149.143247
582.969848,296.082377,-9622.677246,-1302.362347
582.970171,888.247130,-9474.636058,-2374.896044
582.970493,1406.391290,-10140.821405,-2374.896044
582.970815,2220.617826,-11325.150913,-536.266849
582.971138,1628.453072,-10140.821405,-153.219100
582.971460,-1036.288319,-10140.821405,-1072.533697
582.971782,-2146.597232,-9918.759623,-919.314598
582.972105,-1554.432478,-8290.306550,-1608.800546
582.972427,-814.226536,-6439.791695,-4290.134789
582.972749,-148.041188,-7031.956449,-3907.087040
582.973072,296.082377,-8882.471304,-229.828649
582.973394,-1184.329507,-9622.677246,1072.533697
582.973716,-1998.556043,-10807.006753,612.876398
582.974039,-1850.514855,-10881.027347,-383.047749
582.974361,-296.082377,-9474.636058,-3294.210641
582.974683,1924.535449,-8808.450710,-4366.744339
582.975006,2294.638420,-8216.285956,-1685.410096
582.975328,2072.576638,-7476.080014,1072.533697
582.975650,1998.556043,-8438.347739,229.828649
582.975973,2368.659014,-8808.450710,-536.266849
582.976295,2442.679609,-9030.512492,-3217.601092
582.976618,1850.514855,-10732.986159,-5745.716235
582.976940,-444.123565,-11991.336260,-3370.820191
582.977262,-2220.617826,-11843.295072,0.000000
582.977585,-2368.659014,-10658.965565,-383.047749
582.977907,-1702.473667,-8734.430116,-2834.553343
582.978229,-296.082377,-8364.327145,-3524.039291
582.978552,444.123565,-9770.718434,-3140.991542
582.978874,222.061783,-11029.068536,-2145.067394
582.979196,-222.061783,-10658.965565,-536.266849
582.979519,0.000000,-10510.924376,0.000000
582.979841,518.144159,-9474.636058,-995.924147
582.980163,0.000000,-8438.347739,-2528.115143
582.980486,-740.205942,-6957.935855,-2834.553343
582.980808,-1924.535449,-7105.977043,-2451.505594
582.981130,-3034.844362,-7624.121203,-536.266849
582.981453,-4737.318029,-8438.347739,-612.876398
582.981775,-4959.379811,-9992.780217,-2681.334243
582.982097,-4737.318029,-9770.718434,-2834.553343
582.982420,-3627.009116,-10510.924376,-2528.115143
582.982742,-2516.700203,-11325.150913,-1991.848295
582.983065,-2960.823768,-8882.471304,-1149.143247
582.983387,-2368.659014,-8068.244768,-689.485948
582.983709,-148.041188,-9474.636058,-1685.410096
582.984032,1850.514855,-9622.677246,-1532.190996
582.984354,2442.679609,-8438.347739,-2374.896044
582.984676,2146.597232,-7105.977043,-1838.629195
582.984999,1628.453072,-7846.182985,-919.314598
582.985321,370.102971,-10362.883188,536.266849
582.985643,-2146.597232,-10955.047942,-536.266849
582.985966,-3849.070898,-8808.450710,-1838.629195
582.986288,-3701.029710,-8290.306550,-2911.162892
582.986610,-888.247130,-9326.594869,-2451.505594
582.986933,1110.308913,-9548.656652,-1838.629195
582.987255,1406.391290,-9178.553681,-229.828649
582.987577,1554.432478,-10362.883188,842.705048
582.987900,2220.617826,-10807.006753,0.000000
582.988222,2590.720797,-9252.574275,-2834.553343
582.988544,1776.494261,-8808.450710,-4519.963438
582.988867,1036.288319,-8808.450710,-2604.724693
582.989189,74.020594,-8512.368333,-459.657299
582.989512,-1036.288319,-9474.636058,-766.095498
582.989834,-1776.494261,-11029.068536,-1302.362347
582.990156,-1924.535449,-10140.821405,-1225.752797
582.990479,-1110.308913,-9918.759623,-2145.067394
582.990801,-518.144159,-10214.842000,-2374.896044
582.991123,-1258.350101,-9844.739029,-1072.533697
582.991446,-1628.453072,-8512.368333,-229.828649
582.991768,-1628.453072,-7772.162391,-842.705048
582.992090,-518.144159,-8142.265362,-1991.848295
582.992413,-370.102971,-8290.306550,-3064.381992
582.992735,74.020594,-8216.285956,-2834.553343
582.993057,1184.329507,-9400.615463,-1072.533697
582.993380,1554.432478,-11399.171507,229.828649
582.993702,740.205942,-11325.150913,76.609550
582.994024,-222.061783,-10288.862594,0.000000
582.994347,-296.082377,-9326.594869,-1685.410096
582.994669,296.082377,-9474.636058,-3064.381992
582.994992,0.000000,-9696.697840,-1762.019645
582.995314,-518.144159,-8290.306550,1072.533697
582.995636,0.000000,-7772.162391,536.266849
582.995959,962.267725,-7920.203579,-612.876398
582.996281,1850.514855,-8364.327145,-1915.238745
582.996603,1628.453072,-8660.409521,-2298.286494
582.996926,-296.082377,-7920.203579,-1302.362347
582.997248,-2442.679609,-7698.141797,229.828649
582.997570,-3552.988522,-8512.368333,-1532.190996
582.997893,-4071.132681,-10288.862594,-4903.011187
582.998215,-3478.967927,-11325.150913,-3677.258390
582.998537,-1924.535449,-11177.109724,-1915.238745
582.998860,0.000000,-10658.965565,-1685.410096
582.999182,1554.432478,-10955.047942,-2221.676944
582.999504,1850.514855,-9326.594869,76.609550
582.999827,1702.473667,-9252.574275,306.438199
583.000149,666.185348,-8808.450710,-919.314598
583.000471,-962.267725,-6883.915261,-1991.848295
583.000794,-1480.411884,-5921.647536,-4060.306139
583.001116,-1702.473667,-7476.080014,-3140.991542
583.001439,-2294.638420,-9770.718434,-229.828649
583.001761,-3552.988522,-11029.068536,0.000000
583.002083,-4515.256246,-10881.027347,-1915.238745
583.002406,-2368.659014,-10807.006753,-2757.943793
583.002728,-1184.329507,-11769.274478,-2911.162892
583.003050,-1036.288319,-10584.944971,-2681.334243
583.003373,-1110.308913,-8586.388927,-1838.629195
583.003695,888.247130,-9252.574275,-2068.457845
583.004017,3256.906145,-9178.553681,-2681.334243
583.004340,3997.112087,-9400.615463,-3524.039291
583.004662,3034.844362,-10140.821405,-2068.457845
583.004984,2516.700203,-10584.944971,-1532.190996
583.005307,1628.453072,-10288.862594,-1762.019645
583.005629,-740.205942,-10214.842000,-1302.362347
583.005951,-3997.112087,-10955.047942,-459.657299
583.006274,-5403.503377,-9252.574275,-229.828649
583.006596,-4441.235652,-6217.729913,-1302.362347
583.006918,-2146.597232,-6809.894666,-3064.381992
583.007241,148.041188,-7550.100608,-3524.039291
583.007563,2072.576638,-8660.409521,-1455.581446
583.007886,3034.844362,-9474.636058,1685.410096
583.008208,3923.091493,-10436.903782,1762.019645
583.008530,3330.926739,-9400.615463,-1532.190996
583.008853,1628.453072,-7846.182985,-3217.601092
583.009175,-888.247130,-7550.100608,-1608.800546
583.009497,-2590.720797,-9178.553681,-2681.334243
583.009820,-2664.741391,-10658.965565,-3370.820191
583.010142,-2886.803174,-11399.171507,-3064.381992
583.010464,-2590.720797,-9844.739029,-1378.971896
583.010787,-222.061783,-10436.903782,76.609550
583.011109,444.123565,-9400.615463,-1149.143247
583.011431,518.144159,-8882.471304,-2451.505594
583.011753,-148.041188,-8512.368333,-1608.800546
583.012075,-148.041188,-8438.347739,-766.095498
583.012397,74.020594,-7254.018232,-1915.238745
583.012719,1480.411884,-7105.977043,-2528.115143
583.013042,1702.473667,-8438.347739,-2374.896044
583.013364,1406.391290,-9178.553681,0.000000
583.013686,-148.041188,-10288.862594,1608.800546
583.014008,-2368.659014,-11251.130318,0.000000
583.014330,-2664.741391,-12065.356855,-1991.848295
583.014652,-1184.329507,-10807.006753,-2374.896044
583.014975,0.000000,-8586.388927,-2451.505594
583.015297,-592.164754,-7698.141797,-2451.505594
583.015619,814.226536,-8808.450710,-919.314598
583.015941,1628.453072,-9178.553681,153.219100
583.016263,666.185348,-8956.491898,-689.485948
583.016585,-1036.288319,-9178.553681,-2451.505594
583.016908,-2368.659014,-10732.986159,-2911.162892
583.017230,-3108.864956,-11177.109724,-3447.429741
583.017552,-4071.132681,-11029.068536,-2451.505594
583.017874,-5033.400406,-9992.780217,-612.876398
583.018196,-4885.359217,-9474.636058,-612.876398
583.018518,-2368.659014,-8364.327145,-1762.019645
583.018841,518.144159,-8660.409521,-3064.381992
583.019163,2960.823768,-9622.677246,-2681.334243
583.019485,3849.070898,-10140.821405,-306.438199
583.019807,2664.741391,-9104.533087,1915.238745
583.020129,2072.576638,-9030.512492,1378.971896
583.020451,1924.535449,-8216.285956,-1455.581446
583.020774,814.226536,-7846.182985,-3753.867940
583.021096,-370.102971,-7846.182985,-2681.334243
583.021418,-1702.473667,-7994.224174,-689.485948
583.021740,-3256.906145,-8586.388927,-153.219100
583.022062,-3849.070898,-10584.944971,-1608.800546
583.022384,-3404.947333,-11399.171507,-1532.190996
583.022707,-3108.864956,-11547.212695,-2068.457845
583.023029,-1850.514855,-10362.883188,-2757.943793
583.023351,-1110.308913,-8512.368333,-2451.505594
583.023673,-962.267725,-7328.038826,-1149.143247
583.023995,518.144159,-7698.141797,-919.314598
583.024317,2294.638420,-8586.388927,-1991.848295
583.024640,2960.823768,-8364.327145,-2451.505594
583.024962,2960.823768,-8808.450710,-2681.334243
583.025284,2220.617826,-9030.512492,-1762.019645
583.025606,518.144159,-9622.677246,-995.924147
583.025928,-2516.700203,-11399.171507,0.000000
583.026250,-5403.503377,-11177.109724,-153.219100
583.026573,-5329.482782,-9252.574275,-2604.724693
583.026895,-3997.112087,-6513.812290,-5592.497135
583.027217,-1184.329507,-8438.347739,-5209.449386
583.027539,222.061783,-9622.677246,-1302.362347
583.027861,1184.329507,-10807.006753,919.314598
583.028183,2886.803174,-10362.883188,229.828649
583.028506,5625.565159,-9474.636058,-2528.115143
583.028828,6143.709319,-9992.780217,-3983.696590
583.029150,4293.194464,-9178.553681,-2451.505594
583.029472,1998.556043,-8216.285956,-842.705048
583.029794,-518.144159,-10066.800811,-1149.143247
583.030116,-2368.659014,-12287.418637,-1225.752797
583.030438,-3034.844362,-12213.398043,-919.314598
583.030761,-2812.782580,-9770.718434,-2221.676944
583.031083,-1554.432478,-7846.182985,-3830.477490
583.031405,222.061783,-8364.327145,-2298.286494
583.031727,740.205942,-8142.265362,-612.876398
583.032049,222.061783,-8068.244768,995.924147
583.032371,370.102971,-7402.059420,-383.047749
583.032694,888.247130,-7105.977043,-3370.820191
583.033016,962.267725,-8512.368333,-4903.011187
583.033338,592.164754,-10732.986159,-3217.601092
583.033660,-518.144159,-12065.356855,-612.876398
583.033982,-2442.679609,-11695.253884,1762.019645
583.034304,-3701.029710,-10362.883188,842.705048
583.034627,-3627.009116,-9178.553681,-2987.772442
583.034949,-2442.679609,-7846.182985,-5286.058936
583.035271,-740.205942,-8660.409521,-2987.772442
583.035593,-444.123565,-7402.059420,689.485948
583.035915,-1406.391290,-6735.874072,1685.410096
583.036237,-444.123565,-7328.038826,-383.047749
583.036560,370.102971,-7698.141797,-2145.067394
583.036882,74.020594,-8956.491898,-2451.505594
583.037204,0.000000,-9622.677246,-2681.334243
583.037526,-1036.288319,-10362.883188,-1915.238745
583.037848,-1924.535449,-9844.739029,-536.266849
583.038170,-2368.659014,-11177.109724,0.000000
583.038493,-2220.617826,-11325.150913,-1072.533697
583.038815,-444.123565,-9696.697840,-3677.258390
583.039137,1332.370696,-8734.430116,-4673.182538
583.039459,2220.617826,-9770.718434,-919.314598
583.039781,2072.576638,-9696.697840,1915.238745
583.040103,1036.288319,-9178.553681,1532.190996
583.040426,1480.411884,-8660.409521,-1149.143247
583.040748,2294.638420,-9030.512492,-2987.772442
583.041070,2368.659014,-9030.512492,-3217.601092
583.041392,0.000000,-7402.059420,-612.876398
583.041714,-2146.597232,-7994.224174,536.266849
583.042036,-3182.885551,-10807.006753,0.000000
583.042359,-4071.132681,-12065.356855,-612.876398
583.042681,-4885.359217,-11251.130318,-2911.162892
583.043003,-4663.297435,-10510.924376,-5362.668486
583.043325,-2664.741391,-10658.965565,-4903.011187
583.043647,-1702.473667,-9400.615463,-536.266849
583.043969,-1110.308913,-6809.894666,689.485948
583.044292,74.020594,-7550.100608,-1532.190996
583.044614,1924.535449,-9104.533087,-3447.429741
583.044936,3034.844362,-9252.574275,-4213.525239
583.045258,2886.803174,-8808.450710,-2604.724693
583.045580,1776.494261,-10066.800811,-229.828649
583.045902,666.185348,-10362.883188,1302.362347
583.046225,-1480.411884,-9918.759623,76.609550
583.046547,-2886.803174,-9770.718434,-1838.629195
583.046869,-2516.700203,-9622.677246,-2528.115143
583.047191,-888.247130,-8438.347739,-3294.210641
583.047513,814.226536,-7179.997637,-2145.067394
583.047835,1850.514855,-8956.491898,383.047749
583.048157,2368.659014,-9326.594869,919.314598
583.048480,2368.659014,-9252.574275,-153.219100
583.048802,3034.844362,-8290.306550,-1608.800546
583.049124,3552.988522,-8586.388927,-3753.867940
583.049446,3330.926739,-9178.553681,-4060.306139
583.049768,518.144159,-9178.553681,-536.266849
583.050090,-2368.659014,-9770.718434,1455.581446
583.050413,-3108.864956,-11843.295072,-919.314598
583.050735,-1776.494261,-11473.192101,-4290.134789
583.051057,-148.041188,-9548.656652,-4443.353888
583.051379,-1184.329507,-9252.574275,-3370.820191
583.051701,-2294.638420,-9992.780217,1302.362347
583.052023,-3404.947333,-8142.265362,2068.457845
583.052346,-2960.823768,-7772.162391,-2528.115143
583.052668,-1850.514855,-7994.224174,-4596.572988
583.052990,-814.226536,-7476.080014,-3907.087040
583.053312,-370.102971,-7402.059420,-3294.210641
583.053634,0.000000,-8660.409521,-1455.581446
583.053956,-148.041188,-11029.068536,1455.581446
583.054279,-1258.350101,-12065.356855,1378.971896
583.054601,-2294.638420,-10955.047942,-1149.143247
583.054923,-2294.638420,-9992.780217,-3753.867940
583.055245,-592.164754,-9400.615463,-4673.182538
583.055567,1184.329507,-9400.615463,-2528.115143
583.055889,1332.370696,-8660.409521,1072.533697
583.056212,740.205942,-8290.306550,2834.553343
583.056534,1924.535449,-8068.244768,306.438199
583.056856,2442.679609,-8438.347739,-3447.429741
583.057178,222.061783,-7698.141797,-3600.648841
583.057500,-1406.391290,-9104.533087,-2451.505594
583.057822,-2590.720797,-10288.862594,-1532.190996
583.058145,-2886.803174,-10658.965565,-383.047749
583.058467,-3256.906145,-10807.006753,0.000000
583.058789,-3404.947333,-9918.759623,-2911.162892
583.059111,-1258.350101,-9400.615463,-4519.963438
583.059433,0.000000,-9992.780217,-2298.286494
583.059755,962.267725,-10214.842000,-1072.533697
583.060078,888.247130,-9622.677246,0.000000
583.060400,740.205942,-9474.636058,383.047749
583.060722,740.205942,-7550.100608,-1149.143247
583.061044,1110.308913,-7254.018232,-3447.429741
583.061366,888.247130,-6661.853478,-4136.915689
583.061688,74.020594,-8660.409521,-2298.286494
583.062011,-1406.391290,-8660.409521,0.000000
583.062333,-3182.885551,-10362.883188,-842.705048
583.062655,-3701.029710,-12139.377449,-1455.581446
583.062977,-2664.741391,-11695.253884,-3217.601092
583.063299,-740.205942,-10807.006753,-5209.449386
583.063621,0.000000,-10362.883188,-2451.505594
583.063944,296.082377,-9474.636058,1532.190996
583.064266,592.164754,-8364.327145,383.047749
583.064588,2516.700203,-8586.388927,-1915.238745
583.064910,3923.091493,-8142.265362,-2221.676944
583.065232,4441.235652,-8512.368333,-3217.601092
583.065554,3923.091493,-8956.491898,-2834.553343
583.065876,1998.556043,-8734.430116,306.438199
583.066199,-370.102971,-8882.471304,1915.238745
583.066521,-2960.823768,-10362.883188,689.485948
583.066843,-4737.318029,-10288.862594,-2681.334243
583.067165,-4737.318029,-9178.553681,-4213.525239
583.067487,-3330.926739,-9178.553681,-3753.867940
583.067809,-3404.947333,-9770.718434,-459.657299
583.068132,-3552.988522,-9252.574275,2221.676944
583.068454,-3108.864956,-9696.697840,-383.047749
583.068776,-2664.741391,-8512.368333,-2911.162892
583.069098,-2146.597232,-8956.491898,-4596.572988
583.069420,-1776.494261,-8290.306550,-3907.087040
583.069742,-2368.659014,-7254.018232,-2681.334243
583.070065,-3256.906145,-7476.080014,-1455.581446
583.070387,-3701.029710,-10288.862594,-842.705048
583.070709,-4293.194464,-11917.315666,-1455.581446
583.071031,-4367.215058,-11325.150913,-3524.039291
583.071353,-3775.050304,-9918.759623,-3830.477490
583.071675,-2368.659014,-10288.862594,-1915.238745
583.071998,-1480.411884,-10436.903782,0.000000
583.072320,-2664.741391,-9474.636058,1149.143247
583.072642,-2886.803174,-9104.533087,-766.095498
583.072964,-1850.514855,-8734.430116,-2987.772442
583.073286,-518.144159,-7476.080014,-2911.162892
583.073608,-888.247130,-6661.853478,-2451.505594
583.073931,-888.247130,-7772.162391,-306.438199
583.074253,-1184.329507,-9770.718434,1608.800546
583.074575,-2368.659014,-10510.924376,995.924147
583.074897,-3108.864956,-10436.903782,-1991.848295
583.075219,-4071.132681,-9400.615463,-3447.429741
583.075541,-3478.967927,-9252.574275,-4136.915689
583.075864,-2368.659014,-9770.718434,-1991.848295
583.076186,-1850.514855,-9474.636058,-689.485948
583.076508,-1776.494261,-9918.759623,-1072.533697
583.076830,-1406.391290,-10288.862594,-919.314598
583.077152,-1850.514855,-9548.656652,-919.314598
583.077474,-3256.906145,-8068.244768,-2528.115143
583.077797,-4811.338623,-6735.874072,-3217.601092
583.078119,-5033.400406,-7920.203579,-2757.943793
583.078441,-4885.359217,-8660.409521,-1838.629195
583.078763,-5921.647536,-8586.388927,0.000000
583.079085,-6957.935855,-8586.388927,-536.266849
583.079407,-6143.709319,-9548.656652,-3600.648841
583.079730,-4663.297435,-11547.212695,-3983.696590
583.080052,-3478.967927,-11029.068536,-1302.362347
583.080374,-2368.659014,-9474.636058,-153.219100
583.080696,1184.329507,-8956.491898,-1302.362347
583.081018,3701.029710,-8290.306550,-1225.752797
583.081340,4071.132681,-7920.203579,-536.266849
583.081662,2812.782580,-8734.430116,-919.314598
583.081985,148.041188,-9992.780217,-1302.362347
583.082307,-1258.350101,-9548.656652,-1991.848295
583.082629,-2146.597232,-9104.533087,-2221.676944
583.082951,-2146.597232,-10140.821405,-3370.820191
583.083273,-2960.823768,-10732.986159,-2374.896044
583.083595,-3997.112087,-9770.718434,-229.828649
583.083918,-5773.606348,-8364.327145,-1072.533697
583.084240,-7031.956449,-9844.739029,-2298.286494
583.084562,-6883.915261,-11325.150913,-2604.724693
583.084884,-5551.544565,-10955.047942,-2528.115143
583.085206,-3701.029710,-9474.636058,-2834.553343
583.085528,-814.226536,-9252.574275,-2298.286494
583.085851,1554.432478,-9548.656652,-536.266849
583.086173,2886.803174,-8216.285956,-536.266849
583.086495,3034.844362,-7550.100608,-1685.410096
583.086817,1998.556043,-9030.512492,-2451.505594
583.087139,0.000000,-9696.697840,-2221.676944
583.087461,-1258.350101,-8956.491898,-1915.238745
583.087784,-1554.432478,-9474.636058,-3447.429741
583.088106,-2368.659014,-10140.821405,-2911.162892
583.088428,-4293.194464,-9252.574275,-1072.533697
583.088750,-6809.894666,-8808.450710,-1302.362347
583.089072,-7772.162391,-10214.842000,-2374.896044
583.089394,-8290.306550,-11177.109724,-2451.505594
583.089717,-7772.162391,-10584.944971,-1915.238745
583.090039,-5551.544565,-8216.285956,-1455.581446
583.090361,-1480.411884,-8364.327145,-1225.752797
583.090683,2294.638420,-8364.327145,-689.485948
583.091005,3627.009116,-6883.915261,1149.143247
583.091327,5033.400406,-6735.874072,1838.629195
583.091650,5551.544565,-7772.162391,-459.657299
583.091972,3701.029710,-9622.677246,-1991.848295
583.092294,-814.226536,-9696.697840,-306.438199
583.092616,-4293.194464,-7402.059420,-459.657299
583.092938,-3108.864956,-9474.636058,-4443.353888
583.093260,-3923.091493,-10510.924376,-5286.058936
583.093583,-5477.523971,-8364.327145,-2528.115143
583.093905,-8882.471304,-7624.121203,-2604.724693
583.094227,-9696.697840,-11843.295072,-2681.334243
583.094549,-9622.677246,-14804.118840,-1532.190996
583.094871,-9770.718434,-14804.118840,-2451.505594
583.095193,-7846.182985,-10881.027347,-2681.334243
583.095516,-2886.803174,-8808.450710,-2298.286494
583.095838,2368.659014,-6513.812290,-1838.629195
583.096160,6143.709319,-5477.523971,0.000000
583.096482,7105.977043,-5403.503377,2145.067394
583.096804,7698.141797,-6809.894666,919.314598
583.097126,6365.771101,-8438.347739,-612.876398
583.097449,1850.514855,-9548.656652,-1608.800546
583.097771,-4663.297435,-9548.656652,-1302.362347
583.098093,-7994.224174,-9104.533087,-2145.067394
583.098415,-7994.224174,-9474.636058,-4903.011187
583.098737,-7254.018232,-9696.697840,-7431.126331
583.099059,-8142.265362,-10881.027347,-5362.668486
583.099381,-9252.574275,-9548.656652,-1455.581446
583.099704,-7994.224174,-12139.377449,-919.314598
583.100026,-5847.626942,-15322.262999,-2528.115143
583.100348,-5699.585753,-14508.036463,-2757.943793
583.100670,-5921.647536,-10288.862594,-1838.629195
583.100992,-3182.885551,-6439.791695,-919.314598
583.101314,1924.535449,-4959.379811,-229.828649
583.101637,5995.668130,-4293.194464,0.000000
583.101959,7550.100608,-4219.173869,0.000000
583.102281,7550.100608,-5921.647536,1378.971896
583.102603,6365.771101,-7328.038826,2298.286494
583.102925,3034.844362,-8364.327145,0.000000
583.103247,-2368.659014,-10362.883188,-2451.505594
583.103570,-7179.997637,-10955.047942,-3447.429741
583.103892,-9548.656652,-9918.759623,-4290.134789
583.104214,-9622.677246,-10066.800811,-6205.373534
583.104536,-8586.388927,-12287.418637,-6665.030833
583.104858,-7105.977043,-13397.727550,-3294.210641
583.105180,-5255.462188,-13027.624579,-1149.143247
583.105503,-3182.885551,-12435.459826,-383.047749
583.105825,-1480.411884,-12731.542202,-612.876398
583.106147,-1184.329507,-11547.212695,-1532.190996
583.106469,-2664.741391,-7994.224174,-689.485948
583.106791,-3849.070898,-4737.318029,995.924147
583.107113,-1998.556043,-3701.029710,1302.362347
583.107436,740.205942,-3849.070898,-919.314598
583.107758,2886.803174,-5625.565159,-1991.848295
583.108080,3775.050304,-8216.285956,-536.266849
583.108402,3034.844362,-9992.780217,612.876398
583.108724,1184.329507,-11177.109724,919.314598
583.109046,-962.267725,-10214.842000,-1455.581446
583.109369,-3108.864956,-9770.718434,-5515.887586
583.109691,-5625.565159,-10362.883188,-7431.126331
583.110013,-8586.388927,-11769.274478,-5592.497135
583.110335,-9252.574275,-13545.768739,-2451.505594
583.110657,-6809.894666,-13397.727550,-2145.067394
583.110980,-3330.926739,-11917.315666,-2757.943793
583.111302,-814.226536,-11399.171507,-1915.238745
583.111624,-222.061783,-9918.759623,842.705048
583.111947,-444.123565,-7031.956449,2145.067394
583.112269,-222.061783,-3923.091493,1608.800546
583.112591,0.000000,-2368.659014,-1149.143247
583.112914,-1924.535449,-3552.988522,-2451.505594
583.113236,-4959.379811,-7402.059420,-383.047749
583.113558,-7254.018232,-10658.965565,2145.067394
583.113881,-7698.141797,-11695.253884,383.047749
583.114203,-4737.318029,-11843.295072,-2987.772442
583.114525,-444.123565,-11843.295072,-4366.744339
583.114848,1406.391290,-10807.006753,-3677.258390
583.115170,1406.391290,-9696.697840,-995.924147
583.115492,592.164754,-8586.388927,383.047749
583.115815,740.205942,-8956.491898,-2145.067394
583.116137,0.000000,-9992.780217,-4673.182538
583.116459,-2442.679609,-10510.924376,-4443.353888
583.116782,-4737.318029,-10288.862594,-2604.724693
583.117104,-6809.894666,-10214.842000,-459.657299
583.117426,-6809.894666,-10066.800811,229.828649
583.117749,-6291.750507,-7772.162391,-306.438199
583.118071,-6143.709319,-5033.400406,-3064.381992
583.118393,-5699.585753,-5995.668130,-5056.230287
583.118716,-5033.400406,-6957.935855,-2528.115143
583.119038,-4811.338623,-8068.244768,-995.924147
583.119360,-4145.153275,-8216.285956,-2068.457845
583.119683,-1998.556043,-10881.027347,-3217.601092
583.120005,740.205942,-13249.686362,-3677.258390
583.120327,1776.494261,-12583.501014,-2987.772442
583.120650,296.082377,-11547.212695,-1762.019645
583.120972,1406.391290,-11399.171507,842.705048
583.121294,3182.885551,-11251.130318,-995.924147
583.121617,3552.988522,-10955.047942,-2451.505594
583.121939,1258.350101,-9844.739029,459.657299
583.122262,-2294.638420,-7476.080014,1991.848295
583.122584,-4293.194464,-6957.935855,306.438199
583.122906,-3552.988522,-6661.853478,-919.314598
583.123229,-3108.864956,-5329.482782,-1532.190996
583.123551,-3478.967927,-3923.091493,-3753.867940
583.123873,-2960.823768,-5477.523971,-3830.477490
583.124196,-1554.432478,-9104.533087,-1838.629195
583.124518,-592.164754,-11695.253884,-2451.505594
583.124840,-888.247130,-12213.398043,-3447.429741
583.125163,-1702.473667,-12657.521608,-4673.182538
583.125485,-2146.597232,-13175.665768,-5975.544884
583.125807,-2738.761985,-13175.665768,-4749.792088
583.126130,-4441.235652,-12509.480420,-3217.601092
583.126452,-5921.647536,-11399.171507,-1762.019645
583.126774,-6513.812290,-9252.574275,-1608.800546
583.127097,-6143.709319,-7920.203579,-1302.362347
583.127419,-4811.338623,-6735.874072,-612.876398
583.127741,-3478.967927,-6587.832884,-306.438199
583.128064,-1702.473667,-5847.626942,0.000000
583.128386,0.000000,-5847.626942,842.705048
583.128708,2590.720797,-5847.626942,1378.971896
583.129031,4145.153275,-6883.915261,0.000000
583.129353,5107.421000,-9252.574275,-1455.581446
583.129675,4145.153275,-11695.253884,-995.924147
583.129998,1554.432478,-12065.356855,-919.314598
583.130320,-1554.432478,-12139.377449,-1762.019645
583.130642,-4441.235652,-13397.727550,-2298.286494
583.130965,-7105.977043,-13397.727550,-2604.724693
583.131287,-8364.327145,-11769.274478,-3140.991542
583.131609,-11769.274478,-9252.574275,-3753.867940
583.131932,-12139.377449,-8364.327145,-2451.505594
583.132254,-11251.130318,-8364.327145,-1991.848295
583.132576,-8808.450710,-7772.162391,-1532.190996
583.132899,-6291.750507,-5477.523971,-1991.848295
583.133221,-3108.864956,-5181.441594,-1991.848295
583.133543,-222.061783,-5995.668130,-1532.190996
583.133866,1998.556043,-6587.832884,-1149.143247
583.134188,2886.803174,-7994.224174,-2068.457845
583.134510,3034.844362,-9252.574275,-2451.505594
583.134833,2960.823768,-11917.315666,-2451.505594
583.135155,1332.370696,-12657.521608,-2451.505594
583.135477,-1184.329507,-12731.542202,-1991.848295
583.135800,-3701.029710,-12139.377449,-1225.752797
583.136122,-5255.462188,-10584.944971,-229.828649
583.136444,-6217.729913,-9030.512492,-1455.581446
583.136767,-7179.997637,-7772.162391,-2298.286494
583.137089,-7254.018232,-7402.059420,-2451.505594
583.137411,-5329.482782,-8808.450710,-1072.533697
583.137734,-2886.803174,-10140.821405,76.609550
583.138056,-1406.391290,-9178.553681,1762.019645
583.138378,-296.082377,-7920.203579,2298.286494
583.138701,1110.308913,-7179.997637,1072.533697
583.139023,2738.761985,-7328.038826,-842.705048
583.139345,3478.967927,-6957.935855,-2528.115143
583.139668,3256.906145,-6587.832884,-2911.162892
583.139990,2368.659014,-6809.894666,-2911.162892
583.140312,1554.432478,-9400.615463,-2987.772442
583.140635,222.061783,-12213.398043,-3064.381992
583.140957,-1480.411884,-14508.036463,-3140.991542
583.141279,-3478.967927,-15692.365970,-2987.772442
583.141602,-5477.523971,-15322.262999,-1991.848295
583.141924,-6735.874072,-13323.706956,-1455.581446
583.142246,-6735.874072,-9918.759623,-995.924147
583.142569,-6439.791695,-5995.668130,-1685.410096
583.142891,-5033.400406,-4071.132681,-1608.800546
583.143213,-3701.029710,-4071.132681,-1378.971896
583.143536,-2516.700203,-4663.297435,-1302.362347
583.143858,-1850.514855,-6513.812290,-842.705048
583.144180,-1924.535449,-9474.636058,-919.314598
583.144503,-2072.576638,-10955.047942,-1225.752797
583.144825,-1702.473667,-11473.192101,-2528.115143
583.145147,-2220.617826,-11843.295072,-3753.867940
583.145470,-2368.659014,-11325.150913,-3217.601092
583.145792,-2442.679609,-9992.780217,-3064.381992
583.146114,-1850.514855,-9622.677246,-2911.162892
583.146437,-1406.391290,-11103.089130,-2757.943793
583.146759,-2146.597232,-11621.233289,-689.485948
583.147081,-2294.638420,-10881.027347,-153.219100
583.147404,-2738.761985,-9252.574275,-459.657299
583.147726,-2368.659014,-7550.100608,-919.314598
583.148048,-1776.494261,-5921.647536,-995.924147
583.148371,-1628.453072,-4145.153275,-1149.143247
583.148693,-1850.514855,-3997.112087,-1915.238745
583.149015,-2072.576638,-5329.482782,-2451.505594
583.149338,-1998.556043,-8068.244768,-3294.210641
583.149660,-2812.782580,-10436.903782,-3600.648841
583.149982,-3923.091493,-12879.583391,-3294.210641
583.150305,-4885.359217,-14804.118840,-3600.648841
583.150627,-5329.482782,-15026.180623,-3983.696590
583.150949,-5107.421000,-13693.809927,-3983.696590
583.151272,-4589.276840,-11769.274478,-4443.353888
583.151594,-3552.988522,-10362.883188,-3983.696590
583.151916,-2442.679609,-9770.718434,-2451.505594
583.152239,-2146.597232,-8290.306550,-995.924147
583.152561,-1776.494261,-7846.182985,-229.828649
583.152883,-962.267725,-7402.059420,-229.828649
583.153206,0.000000,-7254.018232,-612.876398
583.153528,592.164754,-7550.100608,-766.095498
583.153850,518.144159,-7105.977043,-689.485948
583.154173,666.185348,-7254.018232,-229.828649
583.154495,1110.308913,-7920.203579,-612.876398
583.154817,1110.308913,-9252.574275,-1149.143247
583.155140,1258.350101,-10066.800811,-1378.971896
583.155462,0.000000,-10955.047942,-1378.971896
583.155784,-740.205942,-11621.233289,-1378.971896
583.156107,-1332.370696,-11473.192101,-1378.971896
583.156429,-1628.453072,-11103.089130,-1302.362347
583.156751,-1998.556043,-10066.800811,-766.095498
583.157074,-2516.700203,-9326.594869,-459.657299
583.157396,-3404.947333,-8364.327145,0.000000
583.157718,-3775.050304,-7550.100608,0.000000
583.158041,-3849.070898,-7328.038826,-459.657299
583.158363,-4219.173869,-7402.059420,-766.095498
583.158685,-4811.338623,-5995.668130,-995.924147
583.159008,-4589.276840,-6143.709319,-2145.067394
583.159330,-4441.235652,-7624.121203,-2834.553343
583.159653,-4663.297435,-8512.368333,-2451.505594
583.159975,-5477.523971,-9030.512492,-2451.505594
583.160297,-5921.647536,-10658.965565,-3524.039291
583.160620,-5773.606348,-13101.645173,-4060.306139
583.160942,-5033.400406,-13915.871710,-2757.943793
583.161264,-4515.256246,-12361.439231,-1685.410096
583.161587,-2738.761985,-10807.006753,-842.705048
583.161909,-888.247130,-9622.677246,-1532.190996
583.162231,666.185348,-8290.306550,0.000000
583.162554,74.020594,-8216.285956,689.485948
583.162876,-666.185348,-8364.327145,1608.800546
583.163198,-1332.370696,-8290.306550,766.095498
583.163521,-1776.494261,-7772.162391,-383.047749
583.163843,-2442.679609,-7402.059420,-766.095498
583.164165,-2220.617826,-8586.388927,-306.438199
583.164488,-2516.700203,-8882.471304,-536.266849
583.164810,-2072.576638,-8142.265362,-1149.143247
583.165132,-1480.411884,-8734.430116,-2298.286494
583.165455,-444.123565,-10807.006753,-3064.381992
583.165777,-370.102971,-12287.418637,-3447.429741
583.166099,-1628.453072,-13101.645173,-2987.772442
583.166422,-2072.576638,-13841.851115,-2374.896044
583.166744,-1850.514855,-13471.748144,-2298.286494
583.167066,-2146.597232,-12879.583391,-1915.238745
583.167389,-1776.494261,-10807.006753,-842.705048
583.167711,-1480.411884,-8734.430116,0.000000
583.168033,-370.102971,-7254.018232,-995.924147
583.168356,888.247130,-6587.832884,-153.219100
583.168678,1850.514855,-6735.874072,1302.362347
583.169000,2886.803174,-8068.244768,1685.410096
583.169323,3108.864956,-8438.347739,1915.238745
583.169645,3330.926739,-9178.553681,1915.238745
583.169967,2886.803174,-9992.780217,842.705048
583.170290,2664.741391,-10881.027347,689.485948
583.170612,2368.659014,-10732.986159,842.705048
583.170934,2516.700203,-10436.903782,1455.581446
583.171257,3182.885551,-10658.965565,1225.752797
583.171579,3034.844362,-10658.965565,1378.971896
583.171901,2368.659014,-10362.883188,2374.896044
583.172224,1110.308913,-9252.574275,2528.115143
583.172546,0.000000,-8734.430116,2298.286494
583.172868,-740.205942,-8438.347739,1915.238745
583.173191,-1850.514855,-7550.100608,1685.410096
583.173513,-2664.741391,-7550.100608,1915.238745
583.173835,-3182.885551,-8068.244768,2451.505594
583.174158,-2960.823768,-8364.327145,2528.115143
583.174480,-2812.782580,-8660.409521,1838.629195
583.174802,-3404.947333,-8882.471304,2145.067394
583.175125,-2960.823768,-9474.636058,2068.457845
583.175447,-2960.823768,-9400.615463,1455.581446
583.175769,-3701.029710,-9992.780217,1455.581446
583.176092,-3997.112087,-10288.862594,2068.457845
583.176414,-4293.194464,-10955.047942,2528.115143
583.176736,-4293.194464,-11029.068536,2298.286494
583.177059,-3997.112087,-11029.068536,2604.724693
583.177381,-2960.823768,-10732.986159,2987.772442
583.177703,-1480.411884,-9474.636058,3370.820191
583.178026,-148.041188,-8734.430116,3447.429741
583.178348,814.226536,-7846.182985,3753.867940
583.178670,1258.350101,-7772.162391,3370.820191
583.178993,1184.329507,-8068.244768,2987.772442
583.179315,888.247130,-8734.430116,2528.115143
583.179637,0.000000,-9696.697840,1685.410096
583.179960,-888.247130,-10807.006753,919.314598
583.180282,-1850.514855,-10510.924376,1225.752797
583.180604,-2738.761985,-9992.780217,612.876398
583.180927,-2368.659014,-9918.759623,-536.266849
583.181249,-814.226536,-10140.821405,-1762.019645
583.181571,-1258.350101,-10140.821405,-995.924147
583.181894,-2590.720797,-9474.636058,0.000000
583.182216,-3330.926739,-9770.718434,-766.095498
583.182538,-2516.700203,-10807.006753,-1302.362347
583.182861,-740.205942,-11103.089130,-1225.752797
583.183183,1110.308913,-10436.903782,-995.924147
583.183505,2960.823768,-8660.409521,0.000000
583.183828,4737.318029,-6735.874072,459.657299
583.184150,5847.626942,-5625.565159,76.609550
583.184472,6069.688724,-5773.606348,-1225.752797
583.184795,4811.338623,-7328.038826,-2604.724693
583.185117,1702.473667,-8660.409521,-2374.896044
583.185439,-1554.432478,-9030.512492,-2604.724693
583.185762,-3997.112087,-10436.903782,-4136.915689
583.186084,-4811.338623,-12583.501014,-4366.744339
583.186406,-4737.318029,-13249.686362,-3753.867940
583.186729,-3627.009116,-12435.459826,-4903.011187
583.187051,-666.185348,-12953.603985,-4060.306139
583.187373,2368.659014,-13989.892304,-2221.676944
583.187696,4219.173869,-12805.562797,76.609550
583.188018,5255.462188,-10584.944971,766.095498
583.188340,6513.812290,-9104.533087,0.000000
583.188663,7031.956449,-7328.038826,1149.143247
583.188985,6809.894666,-5551.544565,1608.800546
583.189307,4885.359217,-4071.132681,153.219100
583.189630,2664.741391,-5107.421000,459.657299
583.189952,-370.102971,-6513.812290,2068.457845
583.190274,-3775.050304,-6809.894666,153.219100
583.190597,-6735.874072,-9030.512492,-2757.943793
583.190919,-8068.244768,-11843.295072,-3370.820191
583.191241,-9252.574275,-11547.212695,-4060.306139
583.191564,-8364.327145,-12805.562797,-5362.668486
583.191886,-7328.038826,-14211.954086,-4979.620737
583.192208,-4811.338623,-16136.489536,-2604.724693
583.192531,-3330.926739,-14730.098246,-1532.190996
583.192853,-2738.761985,-10807.006753,-1762.019645
583.193175,-2368.659014,-9104.533087,-2604.724693
583.193498,-1628.453072,-9474.636058,-2221.676944
583.193820,-1998.556043,-9178.553681,0.000000
583.194142,-3478.967927,-8364.327145,1991.848295
583.194465,-3775.050304,-8142.265362,3217.601092
583.194787,-2960.823768,-8586.388927,3907.087040
583.195109,-2146.597232,-8586.388927,3370.820191
583.195432,-1480.411884,-7994.224174,4443.353888
583.195754,-1776.494261,-7772.162391,4826.401637
583.196077,-814.226536,-7179.997637,3907.087040
583.196399,296.082377,-6587.832884,2451.505594
583.196721,1258.350101,-6143.709319,842.705048
583.197044,2442.679609,-7476.080014,0.000000
583.197366,3775.050304,-9400.615463,1149.143247
583.197688,5255.462188,-10658.965565,2911.162892
583.198011,6439.791695,-10732.986159,3677.258390
583.198333,6217.729913,-10955.047942,3140.991542
583.198655,5551.544565,-11473.192101,2681.334243
583.198978,4071.132681,-10510.924376,3217.601092
583.199300,1480.411884,-9992.780217,2451.505594
583.199622,-1998.556043,-9178.553681,3677.258390
583.199945,-4811.338623,-7179.997637,5592.497135
583.200267,-6291.750507,-5773.606348,4519.963438
583.200589,-6735.874072,-8364.327145,2681.334243
583.200912,-4219.173869,-10436.903782,2451.505594
583.201234,-2072.576638,-10881.027347,2298.286494
583.201556,518.144159,-11325.150913,2834.553343
583.201879,3108.864956,-10584.944971,4903.011187
583.202201,6291.750507,-9178.553681,3294.210641
583.202523,6809.894666,-8216.285956,842.705048
583.202846,5551.544565,-9104.533087,1455.581446
583.203168,4515.256246,-9252.574275,4060.306139
583.203490,3552.988522,-7698.141797,1838.629195
583.203813,3182.885551,-9474.636058,-2911.162892
583.204135,2368.659014,-14730.098246,-1838.629195
583.204457,666.185348,-13915.871710,1225.752797
583.204780,-3701.029710,-9770.718434,2451.505594
583.205102,-7179.997637,-10584.944971,2298.286494
583.205424,-8586.388927,-12657.521608,1378.971896
583.205747,-11399.171507,-11399.171507,-2681.334243
583.206069,-15396.283594,-9622.677246,-2451.505594
583.206391,-16654.633695,-9252.574275,2528.115143
583.206714,-11991.336260,-7402.059420,153.219100
583.207036,-3849.070898,-6883.915261,-3983.696590
583.207358,4441.235652,-7105.977043,-1532.190996
583.207681,8734.430116,-7254.018232,-306.438199
583.208003,10658.965565,-7179.997637,612.876398
583.208325,12657.521608,-7476.080014,3370.820191
583.208648,11325.150913,-6661.853478,153.219100
583.208970,8956.491898,-7624.121203,-6358.592633
583.209292,5329.482782,-12065.356855,-6128.763984
583.209615,592.164754,-14359.995275,-1225.752797
583.209937,-5847.626942,-14730.098246,919.314598
583.210259,-10881.027347,-15692.365970,2757.943793
583.210582,-12953.603985,-11843.295072,1455.581446
583.210904,-11325.150913,-9770.718434,-4673.182538
583.211226,-9474.636058,-7105.977043,-7814.174080
583.211549,-7994.224174,-8068.244768,-2528.115143
583.211871,-5329.482782,-5625.565159,2604.724693
583.212193,-518.144159,-2886.803174,1072.533697
583.212516,3478.967927,-4367.215058,-1455.581446
583.212838,5847.626942,-7328.038826,-2681.334243
583.213160,6735.874072,-9030.512492,-3983.696590
583.213483,5329.482782,-10362.883188,-3294.210641
583.213805,3330.926739,-13249.686362,-995.924147
583.214127,2368.659014,-14582.057057,0.000000
583.214449,1184.329507,-12731.542202,-3294.210641
583.214772,-296.082377,-11843.295072,-3064.381992
583.215094,-2442.679609,-12805.562797,-3600.648841
583.215416,-2442.679609,-12509.480420,-2451.505594
583.215738,-1850.514855,-10658.965565,766.095498
583.216061,-1110.308913,-6069.688724,1608.800546
583.216383,-296.082377,-6069.688724,383.047749
583.216705,2590.720797,-7476.080014,229.828649
583.217027,4737.318029,-6291.750507,-306.438199
583.217350,4145.153275,-4885.359217,-689.485948
583.217672,2220.617826,-6513.812290,2068.457845
583.217994,518.144159,-9252.574275,3830.477490
583.218317,-1332.370696,-10362.883188,2374.896044
583.218639,-1924.535449,-11251.130318,-536.266849
583.218961,148.041188,-12805.562797,-2068.457845
583.219283,592.164754,-12213.398043,-2604.724693
583.219606,592.164754,-10584.944971,229.828649
583.219928,-888.247130,-10436.903782,3830.477490
583.220250,-1998.556043,-10955.047942,3524.039291
583.220572,-1850.514855,-10955.047942,689.485948
583.220895,-2886.803174,-11029.068536,-612.876398
583.221217,-4589.276840,-11325.150913,1532.190996
583.221539,-7402.059420,-10362.883188,4213.525239
583.221861,-6143.709319,-9844.739029,5362.668486
583.222184,-2960.823768,-9400.615463,5132.839837
583.222506,814.226536,-8142.265362,3983.696590
583.222828,2220.617826,-5921.647536,3140.991542
583.223150,2368.659014,-3478.967927,3370.820191
583.223473,2368.659014,-4367.215058,3370.820191
583.223795,2516.700203,-6291.750507,2221.676944
583.224117,2368.659014,-9252.574275,1302.362347
583.224439,592.164754,-10732.986159,1302.362347
583.224762,-2442.679609,-11621.233289,1838.629195
583.225084,-5625.565159,-14063.912898,1838.629195
583.225406,-7105.977043,-16284.530724,2604.724693
583.225728,-7476.080014,-15174.221811,3064.381992
583.226051,-5625.565159,-12139.377449,2451.505594
583.226373,-3404.947333,-6883.915261,2068.457845
583.226695,592.164754,-4737.318029,1378.971896
583.227017,3478.967927,-3923.091493,612.876398
583.227340,3849.070898,-6809.894666,3140.991542
583.227662,1480.411884,-9918.759623,6894.859482
583.227984,-592.164754,-10066.800811,6511.811733
583.228306,-740.205942,-8216.285956,2221.676944
583.228629,2368.659014,-8438.347739,-1532.190996
583.228951,5477.523971,-9474.636058,-995.924147
583.229273,7031.956449,-8660.409521,1915.238745
583.229595,6735.874072,-6587.832884,2451.505594
583.229918,6809.894666,-7179.997637,1302.362347
583.230240,3627.009116,-11621.233289,-1608.800546
583.230562,-1480.411884,-15100.201217,-1149.143247
583.230885,-7994.224174,-14730.098246,-1608.800546
583.231207,-10807.006753,-12435.459826,-3064.381992
583.231529,-8068.244768,-12657.521608,-4826.401637
583.231851,-4367.215058,-12361.439231,-2987.772442
583.232174,-2220.617826,-11251.130318,1149.143247
583.232496,-2368.659014,-8438.347739,4673.182538
583.232818,-740.205942,-6365.771101,2528.115143
583.233140,814.226536,-6291.750507,-2298.286494
583.233463,0.000000,-6883.915261,-3064.381992
583.233785,-2220.617826,-7550.100608,-536.266849
583.234107,-1776.494261,-7476.080014,0.000000
583.234429,1480.411884,-8290.306550,-536.266849
583.234752,4145.153275,-8438.347739,-995.924147
583.235074,4959.379811,-8734.430116,-1225.752797
583.235396,5625.565159,-9770.718434,-2528.115143
583.235718,5921.647536,-10955.047942,-2221.676944
583.236041,3997.112087,-11769.274478,-1991.848295
583.236363,296.082377,-12509.480420,-766.095498
583.236685,-2738.761985,-11843.295072,-689.485948
583.237007,-4145.153275,-10362.883188,-2911.162892
583.237330,-4367.215058,-8956.491898,-3677.258390
583.237652,-3849.070898,-9696.697840,-1532.190996
583.237974,-3627.009116,-9770.718434,229.828649
583.238296,-2664.741391,-10066.800811,1685.410096
583.238619,-2368.659014,-9104.533087,3064.381992
583.238941,-2072.576638,-8586.388927,2221.676944
583.239263,-1924.535449,-6439.791695,-459.657299
583.239585,-518.144159,-3923.091493,-2911.162892
583.239908,-296.082377,-2664.741391,-2757.943793
583.240230,-592.164754,-4293.194464,-1455.581446
583.240552,-888.247130,-8660.409521,-842.705048
583.240874,-888.247130,-12657.521608,-2145.067394
583.241197,-3108.864956,-15026.180623,-2604.724693
583.241519,-5995.668130,-16876.695478,-2145.067394
583.241841,-6217.729913,-16580.613101,-2068.457845
583.242163,-5255.462188,-13101.645173,-4290.134789
583.242486,-3552.988522,-9696.697840,-2757.943793
583.242808,-2294.638420,-6883.915261,919.314598
583.243130,-1110.308913,-6069.688724,2451.505594
583.243452,74.020594,-6883.915261,2068.457845
583.243775,-148.041188,-8216.285956,3600.648841
583.244097,-962.267725,-10584.944971,3983.696590
583.244419,1184.329507,-12139.377449,3677.258390
583.244742,5181.441594,-11177.109724,3600.648841
583.245064,7994.224174,-7105.977043,4213.525239
583.245386,8956.491898,-3330.926739,3600.648841
583.245708,8734.430116,-3923.091493,1302.362347
583.246031,7402.059420,-7179.997637,536.266849
583.246353,3552.988522,-9326.594869,766.095498
583.246675,-814.226536,-12139.377449,-1378.971896
583.246997,-3404.947333,-16506.592507,-3140.991542
583.247320,-4219.173869,-17690.922014,-1532.190996
583.247642,-5033.400406,-15618.345376,842.705048
583.247964,-5995.668130,-13323.706956,2604.724693
583.248286,-6439.791695,-11473.192101,3064.381992
583.248609,-6365.771101,-8142.265362,2528.115143
583.248931,-5107.421000,-5181.441594,1225.752797
583.249253,-2738.761985,-7476.080014,383.047749
583.249575,222.061783,-9696.697840,3370.820191
583.249898,3108.864956,-6365.771101,6435.202183
583.250220,4441.235652,-3627.009116,6205.373534
583.250542,4663.297435,-5477.523971,4903.011187
583.250864,3478.967927,-6365.771101,4749.792088
583.251187,888.247130,-5699.585753,3064.381992
583.251509,-1110.308913,-7179.997637,-1149.143247
583.251831,-1628.453072,-11251.130318,-2604.724693
583.252153,-1924.535449,-11843.295072,0.000000
583.252476,-2590.720797,-11621.233289,1838.629195
583.252798,-3701.029710,-13101.645173,842.705048
583.253120,-4515.256246,-13471.748144,229.828649
583.253442,-5033.400406,-10807.006753,-1378.971896
583.253765,-4071.132681,-11621.233289,-2451.505594
583.254087,-2664.741391,-13027.624579,0.000000
583.254409,-222.061783,-10140.821405,3217.601092
583.254731,2442.679609,-6587.832884,3524.039291
583.255054,4959.379811,-4441.235652,2834.553343
583.255376,6439.791695,-3478.967927,2604.724693
583.255698,6439.791695,-3256.906145,1225.752797
583.256020,4959.379811,-4589.276840,-306.438199
583.256343,2738.761985,-8438.347739,-1072.533697
583.256665,592.164754,-10658.965565,-1685.410096
583.256987,-1776.494261,-12583.501014,-2145.067394
583.257310,-3552.988522,-15174.221811,-2604.724693
583.257632,-4293.194464,-15914.427753,-2911.162892
583.257954,-4737.318029,-14804.118840,-4903.011187
583.258276,-4219.173869,-13989.892304,-4136.915689
583.258599,-3552.988522,-12731.542202,-1685.410096
583.258921,-1924.535449,-10066.800811,-1608.800546
583.259243,-444.123565,-6661.853478,-4596.572988
583.259565,148.041188,-5699.585753,-4903.011187
583.259888,370.102971,-6439.791695,-2604.724693
583.260210,962.267725,-7698.141797,-1532.190996
583.260532,-296.082377,-8290.306550,-229.828649
583.260854,-2516.700203,-8438.347739,0.000000
583.261177,-4441.235652,-8734.430116,-2221.676944
583.261499,-5181.441594,-8734.430116,-2911.162892
583.261821,-4885.359217,-8734.430116,-3600.648841
583.262143,-2442.679609,-9104.533087,-4213.525239
583.262466,-962.267725,-8142.265362,-2451.505594
583.262788,0.000000,-7772.162391,-1225.752797
583.263110,814.226536,-9770.718434,-2221.676944
583.263432,740.205942,-11399.171507,-2911.162892
583.263755,1628.453072,-11473.192101,-3983.696590
583.264077,2590.720797,-9326.594869,-4443.353888
583.264399,3775.050304,-8956.491898,-3753.867940
583.264721,4145.153275,-9548.656652,0.000000
583.265044,3404.947333,-10140.821405,1915.238745
583.265366,2368.659014,-9030.512492,1685.410096
583.265688,666.185348,-7772.162391,-229.828649
583.266010,296.082377,-8142.265362,-1762.019645
583.266333,0.000000,-9252.574275,-1608.800546
583.266655,74.020594,-9918.759623,0.000000
583.266977,296.082377,-7846.182985,1608.800546
583.267299,1258.350101,-6957.935855,-1532.190996
583.267622,1406.391290,-7254.018232,-4290.134789
583.267944,-518.144159,-8290.306550,-3753.867940
583.268266,-4071.132681,-10436.903782,-3140.991542
583.268588,-6143.709319,-12287.418637,-2681.334243
583.268911,-6217.729913,-12731.542202,-2757.943793
583.269233,-5403.503377,-12287.418637,-4366.744339
583.269555,-4589.276840,-11325.150913,-3983.696590
583.269878,-3552.988522,-11547.212695,-2451.505594
583.270200,-2368.659014,-11103.089130,-1302.362347
583.270522,-1628.453072,-11399.171507,-153.219100
583.270844,-74.020594,-10658.965565,1225.752797
583.271167,1406.391290,-8068.244768,0.000000
583.271489,2368.659014,-4811.338623,-1608.800546
583.271811,4145.153275,-5921.647536,-153.219100
583.272133,5033.400406,-7698.141797,536.266849
583.272456,4811.338623,-8512.368333,-229.828649
583.272778,2368.659014,-8956.491898,1455.581446
583.273100,-148.041188,-10362.883188,2451.505594
583.273422,-1776.494261,-11251.130318,1378.971896
583.273745,-2294.638420,-12287.418637,-995.924147
583.274067,-666.185348,-11843.295072,-1915.238745
583.274389,1776.494261,-10362.883188,-3524.039291
583.274711,3923.091493,-9326.594869,-1685.410096
583.275034,3478.967927,-8216.285956,919.314598
583.275356,1628.453072,-8734.430116,229.828649
583.275678,-1258.350101,-9548.656652,-1378.971896
583.276000,-3182.885551,-10140.821405,-1991.848295
583.276323,-3627.009116,-9326.594869,-3370.820191
583.276645,-3330.926739,-7772.162391,-2604.724693
583.276967,-3330.926739,-6735.874072,76.609550
583.277289,-4441.235652,-7328.038826,1762.019645
583.277612,-5625.565159,-7772.162391,229.828649
583.277934,-6809.894666,-8808.450710,-536.266849
583.278256,-5773.606348,-9992.780217,-1991.848295
583.278578,-3404.947333,-9474.636058,-3447.429741
583.278901,-1554.432478,-9400.615463,-2604.724693
583.279223,222.061783,-10214.842000,689.485948
583.279545,2590.720797,-10362.883188,1532.190996
583.279867,3478.967927,-8586.388927,-306.438199
583.280190,3256.906145,-7105.977043,-1455.581446
583.280512,3775.050304,-6957.935855,-2451.505594
583.280834,3627.009116,-6883.915261,-2528.115143
583.281156,2738.761985,-7476.080014,-1838.629195
583.281479,888.247130,-10140.821405,-612.876398
583.281801,-962.267725,-11843.295072,1378.971896
583.282123,-1702.473667,-11473.192101,536.266849
583.282445,-1406.391290,-10732.986159,-2374.896044
583.282768,-592.164754,-9474.636058,-3830.477490
583.283090,518.144159,-7772.162391,-2221.676944
583.283412,1924.535449,-7105.977043,-1302.362347
583.283735,2886.803174,-7476.080014,-1915.238745
583.284057,1776.494261,-8290.306550,-2528.115143
583.284379,518.144159,-9770.718434,-3600.648841
583.284701,-222.061783,-10955.047942,-4826.401637
583.285024,-814.226536,-10807.006753,-4903.011187
583.285346,-1184.329507,-10732.986159,-4903.011187
583.285668,-2146.597232,-12657.521608,-4596.572988
583.285990,-1702.473667,-13693.809927,-2068.457845
583.286313,-1702.473667,-12583.501014,-1762.019645
583.286635,-1776.494261,-11251.130318,-2987.772442
583.286957,-1554.432478,-8882.471304,-2374.896044
583.287279,222.061783,-7105.977043,-2374.896044
583.287602,814.226536,-5625.565159,-3983.696590
583.287924,1184.329507,-5477.523971,-3140.991542
583.288246,1332.370696,-6513.812290,-919.314598
583.288568,962.267725,-8142.265362,-1225.752797
583.288891,370.102971,-9252.574275,-1991.848295
583.289213,-1184.329507,-9770.718434,-3370.820191
583.289535,-2886.803174,-11843.295072,-3753.867940
583.289857,-3478.967927,-12657.521608,-2681.334243
583.290180,-3034.844362,-10510.924376,-2528.115143
583.290502,-666.185348,-10066.800811,-3677.258390
583.290824,740.205942,-8734.430116,-2757.943793
583.291146,1110.308913,-7920.203579,-1378.971896
583.291469,148.041188,-8068.244768,-2221.676944
583.291791,-592.164754,-9918.759623,-2681.334243
583.292113,-962.267725,-10140.821405,-2681.334243
583.292435,-1036.288319,-9548.656652,-3447.429741
583.292758,-592.164754,-8882.471304,-1302.362347
583.293080,-444.123565,-7476.080014,-383.047749
583.293402,-740.205942,-7179.997637,-1532.190996
583.293724,-1554.432478,-7920.203579,-1685.410096
583.294047,-3256.906145,-8734.430116,-536.266849
583.294369,-2960.823768,-10881.027347,-842.705048
583.294691,-1776.494261,-12583.501014,-1608.800546
583.295013,-296.082377,-12065.356855,76.609550
583.295336,1406.391290,-10140.821405,612.876398
583.295658,3182.885551,-7550.100608,-1072.533697
583.295980,3478.967927,-6069.688724,-2221.676944
583.296303,2220.617826,-6661.853478,-1532.190996
583.296625,740.205942,-8216.285956,-1378.971896
583.296947,-592.164754,-9326.594869,-919.314598
583.297269,-2738.761985,-9918.759623,-229.828649
583.297592,-3775.050304,-11103.089130,-842.705048
583.297914,-4811.338623,-11769.274478,-536.266849
583.298236,-4737.318029,-11399.171507,153.219100
583.298558,-3108.864956,-10807.006753,0.000000
583.298881,-1184.329507,-9178.553681,-383.047749
583.299203,0.000000,-6957.935855,1455.581446
583.299525,962.267725,-6439.791695,306.438199
583.299847,1184.329507,-6143.709319,-1838.629195
583.300170,2072.576638,-6439.791695,-2068.457845
583.300492,3478.967927,-8808.450710,-1455.581446
583.300814,3849.070898,-9992.780217,-1149.143247
583.301136,2442.679609,-10658.965565,306.438199
583.301459,666.185348,-11547.212695,689.485948
583.301781,-1036.288319,-13767.830521,-919.314598
583.302103,-1998.556043,-13915.871710,-1225.752797
583.302425,-2294.638420,-12287.418637,-1685.410096
583.302748,-518.144159,-9548.656652,-2528.115143
583.303070,1110.308913,-6291.750507,-306.438199
583.303392,2368.659014,-5699.585753,1149.143247
583.303714,2368.659014,-6513.812290,689.485948
583.304037,814.226536,-7179.997637,0.000000
583.304359,-148.041188,-7476.080014,-1225.752797
583.304681,-518.144159,-8660.409521,-2911.162892
583.305003,-962.267725,-9918.759623,-3217.601092
583.305326,-2072.576638,-9474.636058,-459.657299
583.305648,-2368.659014,-8734.430116,-383.047749
583.305970,-2072.576638,-9844.739029,-2451.505594
583.306292,-1184.329507,-12805.562797,-2451.505594
583.306615,-2220.617826,-12213.398043,-2374.896044
583.306937,-2886.803174,-10510.924376,-2451.505594
583.307259,-1776.494261,-9178.553681,-995.924147
583.307581,1628.453072,-8216.285956,-2221.676944
583.307904,2960.823768,-6439.791695,-4213.525239
583.308226,2072.576638,-5329.482782,-2604.724693
583.308548,962.267725,-8290.306550,-1225.752797
583.308871,222.061783,-10807.006753,-2451.505594
583.309193,-1184.329507,-11399.171507,-2681.334243
583.309515,-2886.803174,-11103.089130,-1838.629195
583.309837,-3552.988522,-9474.636058,-3140.991542
583.310160,-2886.803174,-8438.347739,-3447.429741
583.310482,-1110.308913,-9178.553681,-3064.381992
583.310804,-962.267725,-9178.553681,-2374.896044
583.311126,-1998.556043,-9178.553681,-2145.067394
583.311449,-1998.556043,-9252.574275,-2451.505594
583.311771,-592.164754,-10436.903782,-4213.525239
583.312093,0.000000,-10362.883188,-5209.449386
583.312415,592.164754,-8808.450710,-3140.991542
583.312738,1702.473667,-8142.265362,-2681.334243
583.313060,1776.494261,-7994.224174,-2911.162892
583.313382,1110.308913,-8808.450710,-689.485948
583.313704,-666.185348,-9474.636058,-1762.019645
583.314027,-2664.741391,-10066.800811,-3753.867940
583.314349,-3478.967927,-11843.295072,-3217.601092
583.314671,-1850.514855,-13471.748144,-2451.505594
583.314993,-518.144159,-11843.295072,-1532.190996
583.315315,74.020594,-9178.553681,995.924147
583.315638,1110.308913,-7031.956449,995.924147
583.315960,1702.473667,-5477.523971,-1915.238745
583.316282,1628.453072,-4515.256246,-2987.772442
583.316604,1480.411884,-6069.688724,-2911.162892
583.316927,1110.308913,-8512.368333,-2374.896044
583.317249,-148.041188,-9104.533087,-1302.362347
583.317571,-1036.288319,-10955.047942,229.828649
583.317893,-1924.535449,-12509.480420,-383.047749
583.318216,-2738.761985,-13175.665768,-2451.505594
583.318538,-2960.823768,-13249.686362,-3217.601092
583.318860,-3404.947333,-12139.377449,-3217.601092
583.319182,-1850.514855,-9178.553681,-842.705048
583.319504,0.000000,-6439.791695,-1378.971896
583.319827,1258.350101,-5995.668130,-3064.381992
583.320149,1628.453072,-6661.853478,-2451.505594
583.320471,1332.370696,-7994.224174,-919.314598
583.320793,888.247130,-10288.862594,-995.924147
583.321116,0.000000,-11843.295072,-1378.971896
583.321438,-1776.494261,-10436.903782,536.266849
583.321760,-2368.659014,-9474.636058,1455.581446
583.322082,-2442.679609,-9326.594869,-229.828649
583.322405,-2516.700203,-7624.121203,-306.438199
583.322727,-814.226536,-7105.977043,-383.047749
583.323049,1184.329507,-7402.059420,-919.314598
583.323371,1110.308913,-8290.306550,-459.657299
583.323693,592.164754,-9474.636058,1149.143247
583.324016,74.020594,-10584.944971,76.609550
583.324338,740.205942,-9918.759623,-766.095498
583.324660,1850.514855,-9030.512492,-2451.505594
583.324982,1628.453072,-9400.615463,-2757.943793
583.325305,666.185348,-8216.285956,-76.609550
583.325627,0.000000,-7328.038826,1302.362347
583.325949,-592.164754,-9474.636058,-1762.019645
583.326271,-1628.453072,-10510.924376,-3064.381992
583.326594,-2664.741391,-11695.253884,-2221.676944
583.326916,-3404.947333,-12657.521608,0.000000
583.327238,-2368.659014,-11843.295072,1302.362347
583.327560,-962.267725,-8586.388927,842.705048
583.327882,666.185348,-6365.771101,-766.095498
583.328205,2146.597232,-5329.482782,-612.876398
583.328527,2220.617826,-5033.400406,-1302.362347
583.328849,1332.370696,-7179.997637,-1455.581446
583.329171,962.267725,-9474.636058,-153.219100
583.329494,0.000000,-10362.883188,-306.438199
583.329816,-1554.432478,-10288.862594,-2604.724693
583.330138,-2516.700203,-11843.295072,-2451.505594
583.330460,-2368.659014,-11917.315666,-1991.848295
583.330782,-2442.679609,-10288.862594,-4443.353888
583.331105,-2368.659014,-11251.130318,-4213.525239
583.331427,-2738.761985,-11621.233289,-1225.752797
583.331749,-2442.679609,-10807.006753,-689.485948
583.332071,-2886.803174,-9104.533087,-2987.772442
583.332394,-2368.659014,-8660.409521,-3217.601092
583.332716,-592.164754,-7105.977043,-2834.553343
583.333038,2294.638420,-7328.038826,-4213.525239
583.333360,2294.638420,-8142.265362,-3064.381992
583.333683,592.164754,-9622.677246,0.000000
583.334005,-888.247130,-11325.150913,153.219100
583.334327,-444.123565,-12213.398043,-2298.286494
583.334649,888.247130,-11991.336260,-4136.915689
583.334971,2220.617826,-10362.883188,-4443.353888
583.335294,3923.091493,-9474.636058,-1991.848295
583.335616,4367.215058,-7550.100608,842.705048
583.335938,3997.112087,-7031.956449,-153.219100
583.336260,2516.700203,-9104.533087,-2221.676944
583.336583,444.123565,-10510.924376,-2528.115143
583.336905,-1628.453072,-10436.903782,-3370.820191
583.337227,-2664.741391,-9400.615463,-4213.525239
583.337549,-2146.597232,-8956.491898,-3294.210641
583.337872,-1258.350101,-7624.121203,-1838.629195
583.338194,-1702.473667,-7179.997637,-1455.581446
583.338516,-2442.679609,-8068.244768,-2068.457845
583.338838,-4219.173869,-9030.512492,-3753.867940
583.339160,-4663.297435,-11325.150913,-4060.306139
583.339483,-4737.318029,-11103.089130,-1915.238745
583.339805,-2812.782580,-10140.821405,-2451.505594
583.340127,-1924.535449,-9252.574275,-3140.991542
583.340449,-222.061783,-7254.018232,-612.876398
583.340772,888.247130,-5699.585753,-842.705048
583.341094,1406.391290,-5403.503377,-3447.429741
583.341416,518.144159,-7105.977043,-2604.724693
583.341738,-740.205942,-9252.574275,-1378.971896
583.342061,-1850.514855,-10658.965565,-1838.629195
583.342383,-2294.638420,-13027.624579,-1149.143247
583.342705,-1258.350101,-13101.645173,689.485948
583.343027,740.205942,-12287.418637,536.266849
583.343349,2368.659014,-10140.821405,383.047749
583.343672,3108.864956,-8660.409521,1225.752797
583.343994,2886.803174,-7698.141797,842.705048
583.344316,2664.741391,-6439.791695,229.828649
583.344638,2442.679609,-6587.832884,766.095498
583.344961,1850.514855,-7920.203579,-995.924147
583.345283,1702.473667,-9992.780217,-689.485948
583.345605,0.000000,-10510.924376,536.266849
583.345927,-1554.432478,-10288.862594,306.438199
583.346250,-2146.597232,-10955.047942,-1532.190996
583.346572,-2442.679609,-10658.965565,-1915.238745
583.346894,-2812.782580,-10732.986159,-2298.286494
583.347216,-3256.906145,-11103.089130,-1685.410096
583.347538,-3849.070898,-10362.883188,0.000000
583.347861,-3330.926739,-9474.636058,1072.533697
583.348183,-2072.576638,-9178.553681,-536.266849
583.348505,-2146.597232,-7550.100608,-3524.039291
583.348827,-2072.576638,-7772.162391,-3064.381992
583.349150,-666.185348,-10510.924376,-689.485948
583.349472,666.185348,-10214.842000,689.485948
583.349794,296.082377,-7772.162391,612.876398
583.350116,148.041188,-8660.409521,-229.828649
583.350439,740.205942,-9696.697840,-842.705048
583.350761,1776.494261,-9104.533087,-1225.752797
583.351083,3108.864956,-9104.533087,-1532.190996
583.351405,3478.967927,-9992.780217,-689.485948
583.351727,4071.132681,-10214.842000,1608.800546
583.352050,3849.070898,-9844.739029,1225.752797
583.352372,3404.947333,-10066.800811,-1072.533697
583.352694,2072.576638,-10436.903782,-2834.553343
583.353016,592.164754,-9326.594869,-3140.991542
583.353339,0.000000,-7476.080014,-2068.457845
583.353661,-1184.329507,-6069.688724,-1991.848295
583.353983,-3182.885551,-7179.997637,-1455.581446
583.354305,-5773.606348,-9030.512492,-1685.410096
583.354627,-7550.100608,-9474.636058,-2604.724693
583.354950,-7328.038826,-8660.409521,-3983.696590
583.355272,-4367.215058,-9474.636058,-5209.449386
583.355594,-1998.556043,-9400.615463,-4366.744339
583.355916,-1406.391290,-7698.141797,-2068.457845
583.356239,-1480.411884,-9474.636058,-383.047749
583.356561,-296.082377,-11621.233289,-1072.533697
583.356883,74.020594,-9770.718434,-3064.381992
583.357205,370.102971,-8438.347739,-5515.887586
583.357528,1036.288319,-7772.162391,-5209.449386
583.357850,2220.617826,-6587.832884,-2298.286494
583.358172,3256.906145,-8660.409521,-459.657299
583.358494,3034.844362,-12065.356855,995.924147
583.358816,1702.473667,-15100.201217,76.609550
583.359139,-296.082377,-14952.160028,-1685.410096
583.359461,-888.247130,-12879.583391,-3370.820191
583.359783,592.164754,-9104.533087,-3370.820191
583.360105,3404.947333,-6069.688724,-2834.553343
583.360428,4737.318029,-3330.926739,-1225.752797
583.360750,3701.029710,-3108.864956,-459.657299
583.361072,444.123565,-7105.977043,-1072.533697
583.361394,-2960.823768,-12805.562797,-2221.676944
583.361717,-6365.771101,-14359.995275,-3217.601092
583.362039,-8882.471304,-13397.727550,-4519.963438
583.362361,-8068.244768,-11843.295072,-5515.887586
583.362683,-5255.462188,-9178.553681,-3677.258390
583.363005,-1036.288319,-8290.306550,-2681.334243
583.363328,518.144159,-8364.327145,-1225.752797
583.363650,-1406.391290,-8882.471304,-1225.752797
583.363972,-3552.988522,-10214.842000,-306.438199
583.364294,-2960.823768,-11251.130318,-1378.971896
583.364617,-1554.432478,-10214.842000,-3447.429741
583.364939,-518.144159,-7328.038826,-2374.896044
583.365261,1628.453072,-6143.709319,2451.505594
583.365583,4515.256246,-4959.379811,4519.963438
583.365906,4515.256246,-4367.215058,2145.067394
583.366228,2146.597232,-6883.915261,153.219100
583.366550,-518.144159,-9474.636058,229.828649
583.366872,-296.082377,-9252.574275,-919.314598
583.367194,1998.556043,-10066.800811,-2528.115143
583.367517,4219.173869,-13397.727550,-1302.362347
583.367839,4219.173869,-11399.171507,2451.505594
583.368161,3404.947333,-7994.224174,3140.991542
583.368483,2590.720797,-7772.162391,229.828649
583.368806,1184.329507,-8364.327145,-2451.505594
583.369128,222.061783,-9696.697840,-6128.763984
583.369450,-1184.329507,-12065.356855,-4366.744339
583.369772,-2220.617826,-12435.459826,-459.657299
583.370095,-3256.906145,-10732.986159,612.876398
583.370417,-2886.803174,-9030.512492,612.876398
583.370739,-2664.741391,-7105.977043,-1225.752797
583.371061,-2664.741391,-6883.915261,-4673.182538
583.371383,-3256.906145,-9918.759623,-4979.620737
583.371706,-3923.091493,-13101.645173,-153.219100
583.372028,-3034.844362,-13249.686362,2528.115143
583.372350,-1184.329507,-11029.068536,0.000000
583.372672,-740.205942,-8660.409521,-1532.190996
583.372995,-518.144159,-6439.791695,-1762.019645
583.373317,518.144159,-4885.359217,-3217.601092
583.373639,740.205942,-6735.874072,-4366.744339
583.373961,-222.061783,-10140.821405,-1915.238745
583.374284,-2960.823768,-12435.459826,0.000000
583.374606,-4515.256246,-15174.221811,-459.657299
583.374928,-3701.029710,-15840.407159,-689.485948
583.375250,-1702.473667,-11695.253884,-2681.334243
583.375572,1628.453072,-7179.997637,-2987.772442
583.375895,4293.194464,-5181.441594,-842.705048
583.376217,5477.523971,-4293.194464,1455.581446
583.376539,3627.009116,-4811.338623,1149.143247
583.376861,444.123565,-6587.832884,919.314598
583.377184,-814.226536,-8734.430116,-383.047749
583.377506,-814.226536,-9104.533087,-3064.381992
583.377828,-888.247130,-9918.759623,-2374.896044
583.378150,-444.123565,-10214.842000,1072.533697
583.378472,148.041188,-8586.388927,1762.019645
583.378795,444.123565,-7402.059420,153.219100
583.379117,592.164754,-7920.203579,-2528.115143
583.379439,-592.164754,-8808.450710,-4826.401637
583.379761,-1554.432478,-9770.718434,-4366.744339
583.380084,-962.267725,-9622.677246,-1838.629195
583.380406,666.185348,-9474.636058,-1991.848295
583.380728,1184.329507,-9400.615463,-2451.505594
583.381050,592.164754,-9844.739029,-1532.190996
583.381373,-1332.370696,-10140.821405,-2451.505594
583.381695,-2738.761985,-11473.192101,-3830.477490
583.382017,-3182.885551,-11769.274478,-3370.820191
583.382339,-3552.988522,-9770.718434,-3830.477490
583.382661,-3627.009116,-7772.162391,-3753.867940
583.382984,-2738.761985,-8808.450710,-1455.581446
583.383306,-1184.329507,-9696.697840,-536.266849
583.383628,-296.082377,-10066.800811,-2757.943793
583.383950,-444.123565,-10658.965565,-1455.581446
583.384273,-222.061783,-10214.842000,-689.485948
583.384595,518.144159,-8216.285956,-4136.915689
583.384917,888.247130,-6365.771101,-5056.230287
583.385239,2368.659014,-8068.244768,-3753.867940
583.385562,3108.864956,-9770.718434,-3370.820191
583.385884,1554.432478,-8882.471304,-1915.238745
583.386206,0.000000,-9844.739029,-612.876398
583.386528,-1702.473667,-12287.418637,-2221.676944
583.386850,-1924.535449,-12805.562797,-4443.353888
583.387173,-1480.411884,-11399.171507,-4060.306139
583.387495,518.144159,-9178.553681,-2681.334243
583.387817,2738.761985,-7772.162391,-1532.190996
583.388139,3256.906145,-7920.203579,229.828649
583.388462,2220.617826,-8512.368333,1225.752797
583.388784,74.020594,-8142.265362,306.438199
583.389106,-888.247130,-6957.935855,-2298.286494
583.389428,1184.329507,-6217.729913,-3983.696590
583.389751,3552.988522,-6587.832884,-4136.915689
583.390073,2220.617826,-6069.688724,-1685.410096
583.390395,-814.226536,-8660.409521,1838.629195
583.390717,-4145.153275,-12509.480420,2451.505594
583.391039,-6291.750507,-13545.768739,-1608.800546
583.391362,-6439.791695,-13767.830521,-6894.859482
583.391684,-4959.379811,-12509.480420,-6971.469032
583.392006,-1924.535449,-10214.842000,-2987.772442
583.392328,1036.288319,-7254.018232,0.000000
583.392651,2590.720797,-7402.059420,689.485948
583.392973,1850.514855,-9918.759623,919.314598
583.393295,-1036.288319,-9252.574275,-1838.629195
583.393617,-4367.215058,-9548.656652,-4826.401637
583.393940,-4663.297435,-9844.739029,-3294.210641
583.394262,-2812.782580,-9030.512492,-1915.238745
583.394584,-740.205942,-9400.615463,-919.314598
583.394906,-444.123565,-10807.006753,2681.334243
583.395228,-1184.329507,-12213.398043,4903.011187
583.395551,-888.247130,-9474.636058,2145.067394
583.395873,1036.288319,-7402.059420,-2757.943793
583.396195,2368.659014,-6143.709319,-3983.696590
583.396517,3701.029710,-5255.462188,-1762.019645
583.396840,3775.050304,-6217.729913,612.876398
583.397162,4589.276840,-8734.430116,3447.429741
583.397484,4737.318029,-11769.274478,1915.238745
583.397806,2442.679609,-11695.253884,-2221.676944
583.398128,-962.267725,-11473.192101,-3140.991542
583.398451,-3034.844362,-10510.924376,-1762.019645
583.398773,-3182.885551,-10584.944971,-1455.581446
583.399095,-1924.535449,-10807.006753,-459.657299
583.399417,-1184.329507,-10214.842000,1072.533697
583.399740,-1258.350101,-8290.306550,842.705048
583.400062,-1406.391290,-6587.832884,-383.047749
583.400384,-518.144159,-7105.977043,-919.314598
583.400706,0.000000,-8956.491898,-1991.848295
583.401029,0.000000,-8142.265362,-2221.676944
583.401351,-814.226536,-7402.059420,-1302.362347
583.401673,-740.205942,-9918.759623,536.266849
583.401995,-592.164754,-10881.027347,766.095498
583.402317,-2146.597232,-9548.656652,-1838.629195
583.402640,-4367.215058,-9622.677246,-4290.134789
583.402962,-5995.668130,-11621.233289,-3140.991542
583.403284,-4811.338623,-11769.274478,-1072.533697
583.403606,-2146.597232,-11621.233289,-1608.800546
583.403929,0.000000,-9474.636058,-1302.362347
583.404251,1850.514855,-7920.203579,-766.095498
583.404573,2442.679609,-6661.853478,-1838.629195
583.404895,1702.473667,-6809.894666,-2221.676944
583.405218,1110.308913,-8808.450710,-1991.848295
583.405540,666.185348,-9030.512492,-1608.800546
583.405862,740.205942,-8290.306550,-2298.286494
583.406184,1184.329507,-6661.853478,-1532.190996
583.406506,1702.473667,-6735.874072,-1302.362347
583.406829,2072.576638,-8438.347739,-1915.238745
583.407151,148.041188,-10658.965565,-3140.991542
583.407473,-962.267725,-12805.562797,-2757.943793
583.407795,-2368.659014,-14211.954086,-2451.505594
583.408118,-1776.494261,-12213.398043,-2221.676944
583.408440,222.061783,-8290.306550,-3140.991542
583.408762,1998.556043,-5403.503377,-4596.572988
583.409084,3034.844362,-4811.338623,-4213.525239
583.409407,3182.885551,-7105.977043,-2757.943793
583.409729,1480.411884,-9622.677246,-2298.286494
583.410051,-1554.432478,-11399.171507,-2604.724693
583.410373,-3923.091493,-11769.274478,-3830.477490
583.410695,-4663.297435,-11843.295072,-4290.134789
583.411018,-4219.173869,-10955.047942,-5669.106685
583.411340,-2960.823768,-9696.697840,-4136.915689
583.411662,-2220.617826,-9622.677246,-1991.848295
583.411984,-222.061783,-10510.924376,-919.314598
583.412307,-666.185348,-9622.677246,-1149.143247
583.412629,-740.205942,-10362.883188,-2451.505594
583.412951,-1110.308913,-11177.109724,-3217.601092
583.413273,-370.102971,-9252.574275,-3753.867940
583.413596,962.267725,-7846.182985,-3830.477490
583.413918,2812.782580,-7328.038826,-2221.676944
583.414240,3404.947333,-6661.853478,-766.095498
583.414563,1850.514855,-7698.141797,-612.876398
583.414885,-888.247130,-10584.944971,-1608.800546
583.415208,-3552.988522,-13397.727550,-2145.067394
583.415530,-4441.235652,-14582.057057,-1838.629195
583.415852,-2294.638420,-12879.583391,-229.828649
583.416175,444.123565,-8364.327145,76.609550
583.416497,3108.864956,-3552.988522,842.705048
583.416819,4071.132681,-2590.720797,1225.752797
583.417142,2886.803174,-4441.235652,689.485948
583.417464,814.226536,-7550.100608,-536.266849
583.417786,-1850.514855,-10362.883188,-1762.019645
583.418109,-3256.906145,-11103.089130,-1302.362347
583.418431,-3182.885551,-9622.677246,-459.657299
583.418754,-1480.411884,-8956.491898,-766.095498
583.419076,222.061783,-10214.842000,153.219100
583.419398,-888.247130,-10066.800811,612.876398
583.419721,-2072.576638,-11547.212695,1225.752797
583.420043,-3256.906145,-11991.336260,383.047749
583.420365,-2294.638420,-10066.800811,-536.266849
583.420688,0.000000,-7402.059420,-1991.848295
583.421010,2590.720797,-5699.585753,-2911.162892
583.421333,3627.009116,-5107.421000,-306.438199
583.421655,4145.153275,-6143.709319,1532.190996
583.421977,2886.803174,-9770.718434,842.705048
583.422300,0.000000,-12139.377449,-153.219100
583.422622,-3478.967927,-12879.583391,0.000000
583.422944,-5181.441594,-14508.036463,-1225.752797
583.423267,-5033.400406,-12731.542202,-1915.238745
583.423589,-3256.906145,-8512.368333,-1838.629195
583.423911,74.020594,-6735.874072,-1685.410096
583.424234,2072.576638,-7105.977043,-1149.143247
583.424556,1184.329507,-8808.450710,0.000000
583.424879,-1480.411884,-10510.924376,-1149.143247
583.425201,-4441.235652,-11399.171507,-3600.648841
583.425523,-3775.050304,-11843.295072,-4290.134789
583.425846,-222.061783,-10807.006753,-4979.620737
583.426168,2442.679609,-7698.141797,-2757.943793
583.426490,2516.700203,-6217.729913,153.219100
583.426813,2146.597232,-8068.244768,1225.752797
583.427135,-370.102971,-10214.842000,-1608.800546
583.427458,-3256.906145,-12435.459826,-2604.724693
583.427780,-3775.050304,-13397.727550,-2451.505594
583.428102,-1924.535449,-10066.800811,-3064.381992
583.428425,1998.556043,-5921.647536,-1378.971896
583.428747,5403.503377,-3627.009116,-383.047749
583.429069,5477.523971,-3775.050304,0.000000
583.429392,2960.823768,-6217.729913,612.876398
583.429714,74.020594,-8808.450710,-1915.238745
583.430036,-1998.556043,-11325.150913,-4826.401637
583.430359,-2812.782580,-11621.233289,-5515.887586
583.430681,-2368.659014,-10510.924376,-4673.182538
583.431004,-1184.329507,-9622.677246,-3294.210641
583.431326,74.020594,-9696.697840,-1225.752797
583.431648,-592.164754,-9992.780217,-1302.362347
583.431971,-1480.411884,-11843.295072,-3064.381992
583.432293,-3256.906145,-11325.150913,-4060.306139
583.432615,-3404.947333,-9474.636058,-4596.572988
583.432938,-1258.350101,-8808.450710,-5515.887586
583.433260,1628.453072,-7254.018232,-3753.867940
583.433583,3256.906145,-6661.853478,-1149.143247
583.433905,2886.803174,-7846.182985,229.828649
583.434227,74.020594,-9770.718434,766.095498
583.434550,-2664.741391,-11399.171507,-459.657299
583.434872,-3923.091493,-11843.295072,-3064.381992
583.435194,-3108.864956,-10288.862594,-4826.401637
583.435517,-296.082377,-8142.265362,-3600.648841
583.435839,2664.741391,-7105.977043,-1915.238745
583.436162,4367.215058,-8142.265362,919.314598
583.436484,3182.885551,-9030.512492,1072.533697
583.436806,148.041188,-10881.027347,-919.314598
583.437129,-1924.535449,-12805.562797,-3983.696590
583.437451,-2738.761985,-12139.377449,-5592.497135
583.437773,-1776.494261,-10807.006753,-4596.572988
583.438096,222.061783,-9104.533087,-1991.848295
583.438418,1406.391290,-6809.894666,0.000000
583.438740,592.164754,-6291.750507,842.705048
583.439063,-2664.741391,-7994.224174,-306.438199
583.439385,-5699.585753,-10214.842000,-2451.505594
583.439708,-6735.874072,-12361.439231,-3830.477490
583.440030,-4219.173869,-12657.521608,-3753.867940
583.440352,-1628.453072,-10955.047942,-1149.143247
583.440675,888.247130,-8216.285956,2145.067394
583.440997,2886.803174,-6143.709319,3600.648841
583.441319,3330.926739,-5181.441594,1149.143247
583.441642,1702.473667,-5847.626942,-2298.286494
583.441964,444.123565,-8438.347739,-3294.210641
583.442287,0.000000,-9918.759623,-3447.429741
583.442609,0.000000,-10288.862594,-1225.752797
583.442931,1332.370696,-11991.336260,1532.190996
583.443254,1036.288319,-12583.501014,1685.410096
583.443576,-148.041188,-11621.233289,1532.190996
583.443898,-1258.350101,-10658.965565,-612.876398
583.444221,-1998.556043,-10436.903782,-2528.115143
583.444543,-2368.659014,-8734.430116,-995.924147
583.444865,-1258.350101,-6143.709319,919.314598
583.445188,222.061783,-4441.235652,0.000000
583.445510,1332.370696,-3997.112087,-995.924147
583.445833,1184.329507,-6883.915261,383.047749
583.446155,-296.082377,-9400.615463,-612.876398
583.446477,-2590.720797,-10436.903782,-1762.019645
583.446800,-3997.112087,-11843.295072,-2374.896044
583.447122,-2812.782580,-13249.686362,-3753.867940
583.447444,-1924.535449,-13027.624579,-3447.429741
583.447767,-1332.370696,-11769.274478,-1608.800546
583.448089,296.082377,-10658.965565,-689.485948
583.448412,1850.514855,-10140.821405,-1762.019645
583.448734,2220.617826,-9326.594869,-1915.238745
583.449056,1628.453072,-9252.574275,-1532.190996
583.449379,888.247130,-9622.677246,-2068.457845
583.449701,1110.308913,-9548.656652,-1302.362347
583.450023,1702.473667,-9918.759623,-153.219100
583.450346,2442.679609,-9474.636058,1149.143247
583.450668,2294.638420,-6439.791695,1302.362347
583.450990,666.185348,-5181.441594,-919.314598
583.451313,-888.247130,-5403.503377,-2221.676944
583.451635,-2220.617826,-6365.771101,-2145.067394
583.451958,-2368.659014,-8586.388927,-2834.553343
583.452280,-2664.741391,-11177.109724,-2604.724693
583.452602,-3034.844362,-12805.562797,-1302.362347
583.452925,-3256.906145,-11769.274478,-229.828649
583.453247,-2886.803174,-10807.006753,-2451.505594
583.453569,-2072.576638,-8660.409521,-4443.353888
583.453892,-1036.288319,-7402.059420,-4060.306139
583.454214,0.000000,-7624.121203,-3217.601092
583.454537,0.000000,-7402.059420,-2298.286494
583.454859,-1702.473667,-8586.388927,-1838.629195
583.455181,-2960.823768,-11103.089130,-1149.143247
583.455504,-2960.823768,-11991.336260,-1991.848295
583.455826,-2220.617826,-10807.006753,-2987.772442
583.456148,148.041188,-9992.780217,-3370.820191
583.456471,2294.638420,-8068.244768,-1991.848295
583.456793,3849.070898,-6957.935855,-383.047749
583.457115,4293.194464,-7698.141797,0.000000
583.457438,3404.947333,-9252.574275,-536.266849
583.457760,1110.308913,-9474.636058,-2451.505594
583.458083,296.082377,-10510.924376,-3524.039291
583.458405,592.164754,-10066.800811,-3983.696590
583.458727,296.082377,-9696.697840,-4366.744339
583.459050,-296.082377,-10288.862594,-2451.505594
583.459372,-1554.432478,-11325.150913,383.047749
583.459694,-3034.844362,-11695.253884,-842.705048
583.460017,-3923.091493,-11843.295072,-4136.915689
583.460339,-3923.091493,-12361.439231,-4673.182538
583.460662,-3627.009116,-9844.739029,-1915.238745
583.460984,-2368.659014,-6513.812290,-1608.800546
583.461306,-370.102971,-4811.338623,-3217.601092
583.461629,666.185348,-5329.482782,-2757.943793
583.461951,1406.391290,-6661.853478,-1685.410096
583.462273,592.164754,-8142.265362,-2987.772442
583.462596,-1628.453072,-10288.862594,-3447.429741
583.462918,-2146.597232,-11991.336260,-2145.067394
583.463241,-1554.432478,-11547.212695,-1915.238745
583.463563,-444.123565,-10288.862594,-2681.334243
583.463885,0.000000,-9474.636058,-1991.848295
583.464208,1554.432478,-9030.512492,-612.876398
583.464530,2294.638420,-8068.244768,0.000000
583.464852,2368.659014,-7994.224174,-995.924147
583.465175,2590.720797,-8956.491898,-1225.752797
583.465497,2368.659014,-8586.388927,-2298.286494
583.465819,2146.597232,-7328.038826,-2145.067394
583.466142,2960.823768,-7105.977043,-1838.629195
583.466464,2812.782580,-7624.121203,-1991.848295
583.466787,1184.329507,-7994.224174,-2298.286494
583.467109,-1184.329507,-9326.594869,-1532.190996
583.467431,-4071.132681,-10140.821405,-2451.505594
583.467754,-5403.503377,-11917.315666,-4443.353888
583.468076,-5255.462188,-11991.336260,-3830.477490
583.468398,-3256.906145,-11843.295072,-3294.210641
583.468721,-1184.329507,-10510.924376,-3064.381992
583.469043,0.000000,-8660.409521,-1455.581446
583.469366,0.000000,-7105.977043,-612.876398
583.469688,-148.041188,-7254.018232,-2604.724693
583.470010,-888.247130,-8290.306550,-4136.915689
583.470333,-1554.432478,-9252.574275,-3753.867940
583.470655,-1628.453072,-9622.677246,-3064.381992
583.470977,-1110.308913,-9844.739029,-2221.676944
583.471300,-222.061783,-9770.718434,-612.876398
583.471622,-814.226536,-9252.574275,-1302.362347
583.471944,-1184.329507,-8808.450710,-2221.676944
583.472267,-1184.329507,-8660.409521,-3983.696590
583.472589,-518.144159,-8808.450710,-5515.887586
583.472912,370.102971,-10288.862594,-4826.401637
583.473234,666.185348,-11251.130318,-1225.752797
583.473556,1628.453072,-9548.656652,-1685.410096
583.473879,2960.823768,-8364.327145,-4290.134789
583.474201,3330.926739,-9030.512492,-4826.401637
583.474523,2368.659014,-8438.347739,-3600.648841
583.474846,592.164754,-7179.997637,-3677.258390
583.475168,-1110.308913,-8142.265362,-3907.087040
583.475491,-1480.411884,-9918.759623,-3830.477490
583.475813,-1850.514855,-9992.780217,-3907.087040
583.476135,-2294.638420,-9400.615463,-3600.648841
583.476458,-2590.720797,-8364.327145,-3830.477490
583.476780,-1924.535449,-8068.244768,-4673.182538
583.477102,-592.164754,-8956.491898,-4673.182538
583.477425,666.185348,-9474.636058,-4290.134789
583.477747,1332.370696,-10066.800811,-4136.915689
583.478069,2294.638420,-8808.450710,-3600.648841
583.478392,3108.864956,-7994.224174,-4366.744339
583.478714,2516.700203,-8734.430116,-5286.058936
583.479037,1036.288319,-9030.512492,-4060.306139
583.479359,-962.267725,-8808.450710,-4060.306139
583.479681,-1776.494261,-10214.842000,-5898.935335
583.480004,-2072.576638,-12065.356855,-5745.716235
583.480326,-2886.803174,-10955.047942,-4290.134789
583.480648,-4219.173869,-9030.512492,-4749.792088
583.480971,-3701.029710,-8290.306550,-5515.887586
583.481293,-2590.720797,-8216.285956,-5056.230287
583.481616,-2516.700203,-8216.285956,-4136.915689
583.481938,-2294.638420,-9548.656652,-3983.696590
583.482260,-1036.288319,-12361.439231,-3907.087040
583.482583,888.247130,-11399.171507,-3140.991542
583.482905,4145.153275,-8142.265362,-3600.648841
583.483227,7105.977043,-7402.059420,-5056.230287
583.483550,8216.285956,-6661.853478,-3830.477490
583.483872,5329.482782,-5477.523971,-1532.190996
583.484195,1702.473667,-6439.791695,-1225.752797
583.484517,-888.247130,-9474.636058,-4673.182538
583.484839,-2442.679609,-11473.192101,-7354.516781
583.485162,-4071.132681,-11473.192101,-6741.640382
583.485484,-5477.523971,-10732.986159,-2987.772442
583.485806,-4885.359217,-10732.986159,-2451.505594
583.486129,-3552.988522,-10214.842000,-2528.115143
583.486451,-3330.926739,-10510.924376,-1915.238745
583.486773,-4441.235652,-10955.047942,-1608.800546
583.487096,-3256.906145,-9844.739029,-2604.724693
583.487418,-148.041188,-6883.915261,-4060.306139
583.487741,3478.967927,-4293.194464,-4213.525239
583.488063,6883.915261,-5403.503377,-2757.943793
583.488385,8660.409521,-7105.977043,-766.095498
583.488708,6439.791695,-7846.182985,1532.190996
583.489030,1184.329507,-9474.636058,2145.067394
583.489352,-3330.926739,-11547.212695,-536.266849
583.489675,-5699.585753,-11695.253884,-5822.325785
583.489997,-5033.400406,-9770.718434,-7354.516781
583.490320,-3997.112087,-7772.162391,-4136.915689
583.490642,-1702.473667,-7105.977043,-1149.143247
583.490964,222.061783,-9104.533087,-766.095498
583.491287,-444.123565,-11917.315666,0.000000
583.491609,-3404.947333,-13397.727550,229.828649
583.491931,-5403.503377,-13323.706956,-1991.848295
583.492254,-3775.050304,-11547.212695,-5286.058936
583.492576,148.041188,-7698.141797,-6128.763984
583.492898,4811.338623,-3923.091493,-2451.505594
583.493221,8586.388927,-3552.988522,536.266849
583.493543,10288.862594,-6513.812290,1072.533697
583.493866,9030.512492,-8216.285956,-1302.362347
583.494188,4663.297435,-8734.430116,-1991.848295
583.494510,-592.164754,-11251.130318,-3600.648841
583.494833,-4367.215058,-13693.809927,-4903.011187
583.495155,-5847.626942,-12879.583391,-5056.230287
583.495477,-5403.503377,-10288.862594,-4826.401637
583.495800,-3997.112087,-8586.388927,-2757.943793
583.496122,-1924.535449,-8142.265362,-2451.505594
583.496445,-1480.411884,-7920.203579,-3140.991542
583.496767,-1110.308913,-8216.285956,-3677.258390
583.497089,0.000000,-8734.430116,-3447.429741
583.497412,0.000000,-10807.006753,-3830.477490
583.497734,-148.041188,-11547.212695,-2604.724693
583.498056,148.041188,-8216.285956,-2221.676944
583.498379,1332.370696,-5699.585753,-4060.306139
583.498701,3330.926739,-6587.832884,-5286.058936
583.499023,3849.070898,-7105.977043,-4519.963438
583.499346,1406.391290,-5329.482782,-3753.867940
583.499668,-444.123565,-7179.997637,-4903.011187
583.499991,-1702.473667,-9844.739029,-4903.011187
583.500313,-3182.885551,-10584.944971,-5515.887586
583.500635,-6365.771101,-9696.697840,-7277.907231
583.500958,-8438.347739,-8956.491898,-7890.783629
583.501280,-7994.224174,-10510.924376,-8503.660028
583.501602,-5699.585753,-13693.809927,-7354.516781
583.501925,-3627.009116,-14137.933492,-3907.087040
583.502247,-2664.741391,-11251.130318,-766.095498
583.502570,518.144159,-7624.121203,-1225.752797
583.502892,5995.668130,-5107.421000,-4903.011187
583.503214,9844.739029,-5181.441594,-8733.488677
583.503537,9992.780217,-6661.853478,-6358.592633
583.503859,6587.832884,-7105.977043,-919.314598
583.504181,3108.864956,-7624.121203,76.609550
583.504504,962.267725,-10436.903782,-3447.429741
583.504826,0.000000,-13693.809927,-6665.030833
583.505149,-1110.308913,-13175.665768,-7124.688131
583.505471,-592.164754,-8956.491898,-5745.716235
583.505793,0.000000,-4515.256246,-5515.887586
583.506116,814.226536,-5107.421000,-5286.058936
583.506438,74.020594,-7920.203579,-5745.716235
583.506760,-2738.761985,-11695.253884,-5132.839837
583.507083,-5477.523971,-14508.036463,-5975.544884
583.507405,-6735.874072,-15840.407159,-7431.126331
583.507727,-5033.400406,-14434.015869,-6511.811733
583.508050,-2368.659014,-12287.418637,-4136.915689
583.508372,518.144159,-9696.697840,-842.705048
583.508695,3701.029710,-7105.977043,1149.143247
583.509017,5773.606348,-4071.132681,306.438199
583.509339,5551.544565,-1702.473667,-1991.848295
583.509662,4219.173869,-3108.864956,-3524.039291
583.509984,3182.885551,-7402.059420,-2987.772442
583.510306,2516.700203,-10066.800811,-995.924147
583.510629,666.185348,-11251.130318,0.000000
583.510951,-2220.617826,-11843.295072,0.000000
583.511274,-5181.441594,-11917.315666,-306.438199
583.511596,-7402.059420,-11399.171507,-1991.848295
583.511918,-7179.997637,-9548.656652,-3524.039291
583.512241,-5625.565159,-7105.977043,-5132.839837
583.512563,-2072.576638,-3923.091493,-5209.449386
583.512885,962.267725,-2664.741391,-3753.867940
583.513208,3034.844362,-5847.626942,-1378.971896
583.513530,888.247130,-9252.574275,-383.047749
583.513852,-1036.288319,-11843.295072,-2145.067394
583.514175,-2664.741391,-12805.562797,-4596.572988
583.514497,-2886.803174,-12657.521608,-5745.716235
583.514820,-2146.597232,-11843.295072,-3830.477490
583.515142,74.020594,-9548.656652,-1302.362347
583.515464,1850.514855,-7105.977043,383.047749
583.515787,3923.091493,-5477.523971,536.266849
583.516109,4071.132681,-6291.750507,0.000000
583.516431,2812.782580,-8142.265362,-995.924147
583.516754,2960.823768,-10955.047942,-3370.820191
583.517076,2368.659014,-11991.336260,-3370.820191
583.517399,2812.782580,-11769.274478,-2604.724693
583.517721,3997.112087,-9696.697840,-2221.676944
583.518043,3923.091493,-8290.306550,-2298.286494
583.518366,2146.597232,-8216.285956,-3447.429741
583.518688,-1406.391290,-9474.636058,-4749.792088
583.519010,-5551.544565,-10955.047942,-5898.935335
583.519333,-9474.636058,-12139.377449,-6358.592633
583.519655,-10955.047942,-12361.439231,-6281.983084
583.519977,-9548.656652,-11473.192101,-6818.249932
583.520300,-6957.935855,-10362.883188,-6894.859482
583.520622,-3627.009116,-9696.697840,-6052.154434
583.520945,-888.247130,-8882.471304,-4060.306139
583.521267,592.164754,-7994.224174,-3140.991542
583.521589,1998.556043,-7920.203579,-2987.772442
583.521912,2516.700203,-7105.977043,-3677.258390
583.522234,3701.029710,-5847.626942,-4519.963438
583.522556,5033.400406,-6291.750507,-5286.058936
583.522879,6809.894666,-8068.244768,-4290.134789
583.523201,6957.935855,-9622.677246,-1532.190996
583.523524,5625.565159,-10288.862594,1149.143247
583.523846,2220.617826,-11029.068536,995.924147
583.524168,-592.164754,-11769.274478,-536.266849
583.524491,-2516.700203,-10436.903782,-3600.648841
583.524813,-2072.576638,-7476.080014,-5975.544884
583.525135,-814.226536,-4293.194464,-5515.887586
583.525458,2368.659014,-3182.885551,-4596.572988
583.525780,5107.421000,-4219.173869,-3447.429741
583.526102,5995.668130,-6587.832884,-2528.115143
583.526425,4071.132681,-9104.533087,-2911.162892
583.526747,370.102971,-10807.006753,-4903.011187
583.527070,-2220.617826,-12953.603985,-7048.078582
583.527392,-4441.235652,-12435.459826,-7431.126331
583.527714,-5625.565159,-10436.903782,-7431.126331
583.528037,-5625.565159,-8586.388927,-6741.640382
583.528359,-6069.688724,-7994.224174,-5898.935335
583.528681,-6957.935855,-8512.368333,-4749.792088
583.529004,-7772.162391,-11325.150913,-4060.306139
583.529326,-8956.491898,-13027.624579,-4290.134789
583.529649,-7772.162391,-13027.624579,-5132.839837
583.529971,-4737.318029,-11177.109724,-5056.230287
583.530293,0.000000,-7994.224174,-4903.011187
583.530616,5033.400406,-5477.523971,-4673.182538
583.530938,9030.512492,-5477.523971,-3447.429741
583.531260,10658.965565,-6809.894666,-2911.162892
583.531583,10066.800811,-9400.615463,-2604.724693
583.531905,8512.368333,-11991.336260,-3140.991542
583.532227,6439.791695,-12731.542202,-3447.429741
583.532550,2960.823768,-11991.336260,-4749.792088
583.532872,-296.082377,-10436.903782,-4366.744339
