#time,accel_x,accel_y,accel_z
433.698628,-518.144159,-9696.697840,-1685.410096
433.698950,-666.185348,-9548.656652,-1455.581446
433.699272,-296.082377,-9030.512492,-1302.362347
433.699594,-444.123565,-9030.512492,-1532.190996
433.699915,-296.082377,-9252.574275,-1532.190996
433.700237,-222.061783,-9474.636058,-1532.190996
433.700559,-592.164754,-9474.636058,-1532.190996
433.700881,-592.164754,-9622.677246,-1532.190996
433.701203,-518.144159,-9400.615463,-1532.190996
433.701525,-296.082377,-9474.636058,-1608.800546
433.701846,-296.082377,-9548.656652,-1608.800546
433.702168,-370.102971,-9474.636058,-1532.190996
433.702490,-370.102971,-9326.594869,-1378.971896
433.702812,0.000000,-8882.471304,-1762.019645
433.703134,0.000000,-9696.697840,-1455.581446
433.703456,-222.061783,-9474.636058,-1762.019645
433.703777,-370.102971,-9474.636058,-1762.019645
433.704099,-370.102971,-9474.636058,-1685.410096
433.704421,-296.082377,-9474.636058,-1608.800546
433.704743,-222.061783,-9400.615463,-1685.410096
433.705065,-444.123565,-9474.636058,-1378.971896
433.705387,-222.061783,-9622.677246,-1532.190996
433.705708,-222.061783,-9400.615463,-1762.019645
433.706030,-222.061783,-9326.594869,-1838.629195
433.706352,222.061783,-9178.553681,-1762.019645
433.706674,-148.041188,-8882.471304,-1991.848295
433.706996,-222.061783,-9252.574275,-1685.410096
433.707318,0.000000,-9548.656652,-1532.190996
433.707639,-148.041188,-9474.636058,-1378.971896
433.707961,-296.082377,-9474.636058,-1149.143247
433.708283,0.000000,-9178.553681,-1302.362347
433.708605,-222.061783,-9326.594869,-1149.143247
433.708927,0.000000,-9326.594869,-1608.800546
433.709249,0.000000,-9178.553681,-1762.019645
433.709570,-148.041188,-9474.636058,-1608.800546
433.709892,0.000000,-9474.636058,-1302.362347
433.710214,-222.061783,-9548.656652,-1378.971896
433.710536,-370.102971,-9696.697840,-1302.362347
433.710858,-296.082377,-9474.636058,-1302.362347
433.711180,-444.123565,-9252.574275,-1378.971896
433.711501,-444.123565,-9030.512492,-1378.971896
433.711823,-296.082377,-8882.471304,-919.314598
433.712145,-370.102971,-9252.574275,-1455.581446
433.712467,-592.164754,-9252.574275,-1378.971896
433.712789,-518.144159,-9548.656652,-1302.362347
433.713111,-666.185348,-9474.636058,-1149.143247
433.713432,-740.205942,-9696.697840,-919.314598
433.713754,-888.247130,-9474.636058,-1378.971896
433.714076,-740.205942,-9400.615463,-1455.581446
433.714398,-444.123565,-9030.512492,-1532.190996
433.714720,444.123565,-9252.574275,-1685.410096
433.715042,1332.370696,-9474.636058,-1225.752797
433.715364,1036.288319,-9844.739029,-1149.143247
433.715685,444.123565,-9622.677246,-153.219100
433.716007,0.000000,-9178.553681,-536.266849
433.716329,-296.082377,-8734.430116,-1532.190996
433.716651,-814.226536,-9104.533087,-1838.629195
433.716973,-1332.370696,-8216.285956,-1378.971896
433.717295,-1110.308913,-8586.388927,-1915.238745
433.717616,0.000000,-9622.677246,-1915.238745
433.717938,148.041188,-10510.924376,-1149.143247
433.718260,-296.082377,-10140.821405,-536.266849
433.718582,0.000000,-9252.574275,-766.095498
433.718904,1776.494261,-9474.636058,-1991.848295
433.719226,2146.597232,-9992.780217,-2145.067394
433.719547,1702.473667,-9770.718434,-1149.143247
433.719869,1184.329507,-8808.450710,-383.047749
433.720191,2368.659014,-8956.491898,-995.924147
433.720513,3478.967927,-9844.739029,-1378.971896
433.720835,3404.947333,-9548.656652,-459.657299
433.721157,2664.741391,-8660.409521,-153.219100
433.721478,2886.803174,-8068.244768,-612.876398
433.721800,3775.050304,-8512.368333,-1302.362347
433.722122,3182.885551,-8808.450710,-995.924147
433.722444,2812.782580,-8216.285956,-766.095498
433.722766,3256.906145,-8586.388927,-2068.457845
433.723088,3997.112087,-9548.656652,-2757.943793
433.723409,4071.132681,-10881.027347,-1608.800546
433.723731,4071.132681,-10732.986159,-1608.800546
433.724053,3923.091493,-9992.780217,-1378.971896
433.724375,4441.235652,-10584.944971,-2298.286494
433.724697,4885.359217,-10584.944971,-1991.848295
433.725019,4219.173869,-9844.739029,-2528.115143
433.725340,3552.988522,-9400.615463,-1608.800546
433.725662,3997.112087,-9252.574275,-1455.581446
433.725984,4071.132681,-8956.491898,-1762.019645
433.726306,4885.359217,-8882.471304,-2451.505594
433.726628,5107.421000,-9178.553681,-1532.190996
433.726950,5699.585753,-9326.594869,-1072.533697
433.727271,6217.729913,-8882.471304,-1302.362347
433.727593,6143.709319,-8586.388927,-1302.362347
433.727915,5773.606348,-8660.409521,-1608.800546
433.728237,4145.153275,-9622.677246,-2068.457845
433.728559,2294.638420,-10436.903782,-2374.896044
433.728881,592.164754,-11621.233289,-2451.505594
433.729202,0.000000,-12509.480420,-1225.752797
433.729524,-592.164754,-12805.562797,-536.266849
433.729846,0.000000,-12509.480420,0.000000
433.730168,222.061783,-11843.295072,536.266849
433.730490,814.226536,-10658.965565,1225.752797
433.730812,592.164754,-9252.574275,1915.238745
433.731133,0.000000,-7254.018232,1838.629195
433.731455,-888.247130,-5847.626942,842.705048
433.731777,-962.267725,-4885.359217,-995.924147
433.732099,-222.061783,-5107.421000,-2145.067394
433.732421,888.247130,-4959.379811,-2298.286494
433.732743,3182.885551,-5847.626942,-2834.553343
433.733064,5033.400406,-7031.956449,-3524.039291
433.733386,6513.812290,-9104.533087,-3983.696590
433.733708,6661.853478,-11547.212695,-3217.601092
433.734030,5773.606348,-12731.542202,-2911.162892
433.734352,4737.318029,-13693.809927,-3294.210641
433.734674,4885.359217,-14434.015869,-2757.943793
433.734995,3997.112087,-13767.830521,-1149.143247
433.735317,2368.659014,-12361.439231,919.314598
433.735639,814.226536,-10807.006753,3140.991542
433.735961,592.164754,-8142.265362,3370.820191
433.736283,1036.288319,-6217.729913,2451.505594
433.736605,518.144159,-4737.318029,2604.724693
433.736926,-222.061783,-3775.050304,2451.505594
433.737248,-148.041188,-3923.091493,766.095498
433.737570,296.082377,-5847.626942,-383.047749
433.737892,1480.411884,-8216.285956,-842.705048
433.738214,1036.288319,-9326.594869,-2374.896044
433.738536,444.123565,-11029.068536,-3983.696590
433.738857,740.205942,-13767.830521,-4596.572988
433.739179,1110.308913,-14952.160028,-4903.011187
433.739501,1110.308913,-15766.386565,-5132.839837
433.739823,814.226536,-14804.118840,-4673.182538
433.740145,1184.329507,-12213.398043,-3447.429741
433.740467,2294.638420,-9918.759623,-2987.772442
433.740788,3775.050304,-8956.491898,-2221.676944
433.741110,5255.462188,-8216.285956,0.000000
433.741432,6439.791695,-7846.182985,1225.752797
433.741754,6735.874072,-7105.977043,2604.724693
433.742076,8142.265362,-5847.626942,3294.210641
433.742398,9400.615463,-4811.338623,2374.896044
433.742719,7994.224174,-5329.482782,2681.334243
433.743041,5699.585753,-3997.112087,3447.429741
433.743363,4071.132681,-4293.194464,766.095498
433.743685,3478.967927,-7994.224174,-3294.210641
433.744007,2220.617826,-10510.924376,-4366.744339
433.744329,370.102971,-11103.089130,-2604.724693
433.744650,-888.247130,-13767.830521,-3677.258390
433.744972,-1776.494261,-16358.551318,-3524.039291
433.745294,-2738.761985,-15174.221811,-4136.915689
433.745616,-4071.132681,-11251.130318,-5515.887586
433.745938,-2368.659014,-9622.677246,-6052.154434
433.746260,740.205942,-10140.821405,-5822.325785
433.746581,2738.761985,-10214.842000,-4903.011187
433.746903,4959.379811,-9548.656652,-1991.848295
433.747225,7328.038826,-9992.780217,536.266849
433.747547,9178.553681,-9918.759623,1225.752797
433.747869,8882.471304,-8734.430116,1149.143247
433.748191,7105.977043,-6661.853478,536.266849
433.748512,5477.523971,-7031.956449,0.000000
433.748834,4071.132681,-8364.327145,0.000000
433.749156,1702.473667,-9178.553681,153.219100
433.749478,-592.164754,-9252.574275,689.485948
433.749800,-2220.617826,-9178.553681,1991.848295
433.750122,-1554.432478,-10807.006753,689.485948
433.750443,-1480.411884,-10214.842000,-1608.800546
433.750765,-1258.350101,-9178.553681,-2681.334243
433.751087,0.000000,-9474.636058,-1991.848295
433.751409,1480.411884,-9326.594869,-1838.629195
433.751731,3182.885551,-9252.574275,-2987.772442
433.752053,4737.318029,-9696.697840,-3753.867940
433.752374,5181.441594,-9992.780217,-2911.162892
433.752696,5033.400406,-10214.842000,-1378.971896
433.753018,4293.194464,-9252.574275,-1149.143247
433.753340,3256.906145,-8438.347739,-1608.800546
433.753662,2368.659014,-8364.327145,-1225.752797
433.753984,1258.350101,-7179.997637,-1149.143247
433.754305,1184.329507,-7402.059420,-2374.896044
433.754627,592.164754,-9178.553681,-2451.505594
433.754949,0.000000,-9474.636058,612.876398
433.755271,-296.082377,-7994.224174,2451.505594
433.755593,0.000000,-8808.450710,1072.533697
433.755915,1480.411884,-10362.883188,-1149.143247
433.756236,2960.823768,-11695.253884,-2221.676944
433.756558,2516.700203,-12213.398043,-1915.238745
433.756880,2738.761985,-13249.686362,536.266849
433.757202,4219.173869,-12953.603985,2068.457845
433.757524,4885.359217,-10510.924376,689.485948
433.757846,5995.668130,-8142.265362,-689.485948
433.758167,7402.059420,-7994.224174,-1072.533697
433.758489,8512.368333,-9474.636058,-3217.601092
433.758811,9622.677246,-10288.862594,-2068.457845
433.759133,9622.677246,-8142.265362,1225.752797
433.759455,8290.306550,-5773.606348,2451.505594
433.759777,6365.771101,-5477.523971,1455.581446
433.760098,3034.844362,-4737.318029,0.000000
433.760420,-1776.494261,-3404.947333,-2604.724693
433.760742,-4071.132681,-5403.503377,-4443.353888
433.761064,-4293.194464,-10955.047942,-4366.744339
433.761386,-2442.679609,-13101.645173,-3753.867940
433.761708,-1184.329507,-11991.336260,-3294.210641
433.762030,-370.102971,-12361.439231,-1915.238745
433.762351,0.000000,-12583.501014,-383.047749
433.762673,-1184.329507,-11843.295072,-2374.896044
433.762995,-1924.535449,-10955.047942,-5515.887586
433.763317,370.102971,-11029.068536,-5515.887586
433.763639,3182.885551,-13545.768739,-4366.744339
433.763961,4663.297435,-14211.954086,-1072.533697
433.764282,7328.038826,-12583.501014,2681.334243
433.764604,10362.883188,-9548.656652,3447.429741
433.764926,11843.295072,-7772.162391,2757.943793
433.765247,11251.130318,-6069.688724,2374.896044
433.765569,9474.636058,-4515.256246,-766.095498
433.765891,8290.306550,-5773.606348,-2145.067394
433.766212,7105.977043,-5847.626942,-306.438199
433.766534,3330.926739,-5699.585753,612.876398
433.766856,0.000000,-7254.018232,766.095498
433.767177,-1850.514855,-8142.265362,229.828649
433.767499,-3034.844362,-8882.471304,-2987.772442
433.767821,-3923.091493,-10807.006753,-5439.278036
433.768142,-5995.668130,-12435.459826,-4749.792088
433.768464,-7772.162391,-12953.603985,-2911.162892
433.768786,-9104.533087,-11251.130318,-2911.162892
433.769107,-7772.162391,-11991.336260,-3983.696590
433.769429,-6735.874072,-13323.706956,-4979.620737
433.769751,-4885.359217,-13767.830521,-4366.744339
433.770072,-2738.761985,-12213.398043,-1838.629195
433.770394,1332.370696,-9770.718434,919.314598
433.770716,6069.688724,-6291.750507,1915.238745
433.771037,9622.677246,-3627.009116,1302.362347
433.771359,9696.697840,-2886.803174,766.095498
433.771681,8216.285956,-2664.741391,919.314598
433.772002,6735.874072,-4811.338623,919.314598
433.772324,6365.771101,-8142.265362,459.657299
433.772645,5773.606348,-10214.842000,-536.266849
433.772967,5551.544565,-10732.986159,-1608.800546
433.773289,4293.194464,-11695.253884,-1991.848295
433.773610,2294.638420,-12731.542202,-995.924147
433.773932,74.020594,-12287.418637,-1149.143247
433.774254,-1776.494261,-10658.965565,-3217.601092
433.774575,-3330.926739,-10584.944971,-4213.525239
433.774897,-4145.153275,-12435.459826,-3294.210641
433.775219,-4145.153275,-12361.439231,-2221.676944
433.775540,-3330.926739,-9844.739029,-995.924147
433.775862,-1998.556043,-9178.553681,459.657299
433.776184,-1036.288319,-9252.574275,1762.019645
433.776505,-592.164754,-7254.018232,0.000000
433.776827,370.102971,-5551.544565,-2221.676944
433.777149,1850.514855,-6069.688724,-2374.896044
433.777470,2368.659014,-6439.791695,-383.047749
433.777792,1850.514855,-5625.565159,-536.266849
433.778114,0.000000,-6439.791695,-2528.115143
433.778435,-444.123565,-8438.347739,-3753.867940
433.778757,-1110.308913,-11177.109724,-4366.744339
433.779079,-1998.556043,-13545.768739,-3524.039291
433.779400,-1702.473667,-14137.933492,-1915.238745
433.779722,-296.082377,-13989.892304,-2298.286494
433.780044,2368.659014,-13545.768739,-2298.286494
433.780365,4219.173869,-12065.356855,-842.705048
433.780687,4145.153275,-10362.883188,229.828649
433.781009,2738.761985,-9474.636058,842.705048
433.781330,1776.494261,-8364.327145,1532.190996
433.781652,1924.535449,-7254.018232,1915.238745
433.781974,3034.844362,-6735.874072,-153.219100
433.782295,2886.803174,-5329.482782,-536.266849
433.782617,1258.350101,-4737.318029,919.314598
433.782939,-1850.514855,-4219.173869,1685.410096
433.783260,-5847.626942,-5329.482782,0.000000
433.783582,-8660.409521,-8882.471304,-3447.429741
433.783904,-9992.780217,-11843.295072,-5975.544884
433.784225,-10362.883188,-10955.047942,-7048.078582
433.784547,-9474.636058,-10510.924376,-6205.373534
433.784869,-6735.874072,-13175.665768,-3983.696590
433.785190,-3701.029710,-13619.789333,-2451.505594
433.785512,-1850.514855,-10955.047942,-2911.162892
433.785833,74.020594,-10214.842000,-2987.772442
433.786155,2590.720797,-11473.192101,-2145.067394
433.786477,3923.091493,-9918.759623,-2757.943793
433.786798,5181.441594,-7698.141797,-1838.629195
433.787120,7254.018232,-7179.997637,1072.533697
433.787442,8734.430116,-7031.956449,1915.238745
433.787763,7105.977043,-5329.482782,1838.629195
433.788085,3775.050304,-5477.523971,2145.067394
433.788407,962.267725,-6291.750507,1532.190996
433.788728,-666.185348,-8956.491898,-919.314598
433.789050,-1850.514855,-10955.047942,-2298.286494
433.789372,-2072.576638,-11843.295072,-1685.410096
433.789693,-1406.391290,-11325.150913,-766.095498
433.790015,-518.144159,-10584.944971,-2221.676944
433.790337,-814.226536,-11991.336260,-2298.286494
433.790658,-1628.453072,-11917.315666,-2221.676944
433.790980,-2146.597232,-10658.965565,-3524.039291
433.791302,-2072.576638,-9622.677246,-4903.011187
433.791623,-592.164754,-10214.842000,-4366.744339
433.791945,-222.061783,-10288.862594,-2987.772442
433.792267,-1332.370696,-9326.594869,-1838.629195
433.792588,-2368.659014,-8660.409521,-995.924147
433.792910,-2664.741391,-8882.471304,-1072.533697
433.793232,-3404.947333,-8586.388927,-1685.410096
433.793553,-4293.194464,-7994.224174,-1225.752797
433.793875,-4885.359217,-7031.956449,0.000000
433.794197,-3627.009116,-7772.162391,153.219100
433.794518,-1998.556043,-8512.368333,0.000000
433.794840,0.000000,-8660.409521,76.609550
433.795162,1184.329507,-8660.409521,153.219100
433.795483,2220.617826,-9548.656652,0.000000
433.795805,2738.761985,-10288.862594,0.000000
433.796127,4293.194464,-10214.842000,-306.438199
433.796448,5773.606348,-10362.883188,-1149.143247
433.796770,6513.812290,-11325.150913,-1455.581446
433.797092,5699.585753,-10807.006753,-153.219100
433.797413,3701.029710,-9326.594869,0.000000
433.797735,2072.576638,-7994.224174,-689.485948
433.798057,592.164754,-8290.306550,-1685.410096
433.798378,-1628.453072,-8142.265362,-2451.505594
433.798700,-4071.132681,-6957.935855,-1532.190996
433.799022,-4885.359217,-7772.162391,-1072.533697
433.799343,-4589.276840,-9252.574275,-1225.752797
433.799665,-4515.256246,-9252.574275,-1149.143247
433.799986,-4293.194464,-8808.450710,-536.266849
433.800308,-3775.050304,-8808.450710,-919.314598
433.800630,-1998.556043,-8882.471304,-1532.190996
433.800951,-1184.329507,-8364.327145,-2451.505594
433.801273,148.041188,-9252.574275,-2298.286494
433.801595,1924.535449,-10584.944971,-2145.067394
433.801916,3034.844362,-10732.986159,-2451.505594
433.802238,2442.679609,-10214.842000,-1838.629195
433.802560,1184.329507,-9992.780217,-1762.019645
433.802881,222.061783,-10584.944971,-2604.724693
433.803203,-814.226536,-11177.109724,-3140.991542
433.803525,-2220.617826,-11103.089130,-2681.334243
433.803846,-2368.659014,-10436.903782,-2221.676944
433.804168,-1480.411884,-10732.986159,-1302.362347
433.804490,-222.061783,-10066.800811,-842.705048
433.804811,296.082377,-9178.553681,-766.095498
433.805133,518.144159,-8216.285956,0.000000
433.805455,666.185348,-8142.265362,919.314598
433.805776,740.205942,-7476.080014,306.438199
433.806098,592.164754,-7772.162391,-2374.896044
433.806420,222.061783,-8882.471304,-2987.772442
433.806741,-962.267725,-10140.821405,-1608.800546
433.807063,-2294.638420,-9770.718434,-1302.362347
433.807385,-2516.700203,-10362.883188,-2604.724693
433.807706,-3256.906145,-10288.862594,-2757.943793
433.808028,-4663.297435,-10066.800811,-1991.848295
433.808350,-5255.462188,-9252.574275,-2528.115143
433.808671,-4367.215058,-9178.553681,-3830.477490
433.808993,-1924.535449,-9548.656652,-2757.943793
433.809315,-1702.473667,-9104.533087,-842.705048
433.809636,-666.185348,-8586.388927,-229.828649
433.809958,222.061783,-8364.327145,-383.047749
433.810280,1554.432478,-8364.327145,0.000000
433.810601,2516.700203,-8068.244768,-383.047749
433.810923,3552.988522,-7846.182985,-842.705048
433.811245,4737.318029,-7698.141797,-919.314598
433.811566,4293.194464,-8586.388927,306.438199
433.811888,2442.679609,-7846.182985,919.314598
433.812210,592.164754,-7179.997637,-919.314598
433.812531,74.020594,-8882.471304,-4596.572988
433.812853,-1258.350101,-10807.006753,-3830.477490
433.813174,-3256.906145,-11769.274478,-1838.629195
433.813496,-3404.947333,-11769.274478,-1455.581446
433.813818,-1776.494261,-12731.542202,-2145.067394
433.814139,444.123565,-14211.954086,-2221.676944
433.814461,0.000000,-11843.295072,-536.266849
433.814783,0.000000,-9326.594869,-459.657299
433.815104,370.102971,-8364.327145,-1455.581446
433.815426,1406.391290,-9326.594869,-1915.238745
433.815748,1332.370696,-9400.615463,-1685.410096
433.816069,1332.370696,-8364.327145,-306.438199
433.816391,1406.391290,-8142.265362,383.047749
433.816713,1480.411884,-8290.306550,-229.828649
433.817034,0.000000,-8216.285956,-1072.533697
433.817356,-2072.576638,-8512.368333,-306.438199
433.817678,-4219.173869,-8586.388927,-383.047749
433.817999,-5329.482782,-8364.327145,-1915.238745
433.818321,-5107.421000,-9252.574275,-2604.724693
433.818643,-3775.050304,-9844.739029,-2068.457845
433.818964,-2368.659014,-9992.780217,-1915.238745
433.819286,-962.267725,-9992.780217,-919.314598
433.819608,74.020594,-10140.821405,383.047749
433.819929,1036.288319,-9474.636058,0.000000
433.820251,1776.494261,-7994.224174,-2298.286494
433.820573,3108.864956,-8290.306550,-2987.772442
433.820894,3997.112087,-9844.739029,-2221.676944
433.821216,3701.029710,-9400.615463,-766.095498
433.821538,2072.576638,-8586.388927,995.924147
433.821859,592.164754,-8882.471304,689.485948
433.822181,-962.267725,-9104.533087,-306.438199
433.822503,-2516.700203,-8512.368333,-1608.800546
433.822824,-3182.885551,-7698.141797,-2451.505594
433.823146,-2738.761985,-7402.059420,-1991.848295
433.823468,-2220.617826,-8290.306550,-1149.143247
433.823789,-2368.659014,-8660.409521,0.000000
433.824111,-2146.597232,-9400.615463,306.438199
433.824433,-2072.576638,-9844.739029,-1532.190996
433.824754,-1702.473667,-10732.986159,-3370.820191
433.825076,-1554.432478,-11325.150913,-3524.039291
433.825398,-592.164754,-10362.883188,-2681.334243
433.825719,814.226536,-9918.759623,-2145.067394
433.826041,1702.473667,-9844.739029,-1762.019645
433.826363,1110.308913,-9178.553681,-2528.115143
433.826684,-444.123565,-9326.594869,-3677.258390
433.827006,-1924.535449,-10510.924376,-3064.381992
433.827327,-2812.782580,-11547.212695,-2374.896044
433.827649,-2960.823768,-11843.295072,-2451.505594
433.827971,-2812.782580,-11325.150913,-1685.410096
433.828292,-2664.741391,-10066.800811,-229.828649
433.828614,-1036.288319,-9326.594869,-383.047749
433.828936,444.123565,-8586.388927,-1838.629195
433.829257,1554.432478,-7846.182985,-1455.581446
433.829579,1850.514855,-7624.121203,-459.657299
433.829901,2368.659014,-8068.244768,0.000000
433.830222,3627.009116,-9770.718434,-1225.752797
433.830544,3701.029710,-11251.130318,-1685.410096
433.830866,2516.700203,-11029.068536,-1378.971896
433.831187,1480.411884,-9918.759623,-1225.752797
433.831509,444.123565,-9030.512492,-1608.800546
433.831831,-740.205942,-9918.759623,-2528.115143
433.832152,-3256.906145,-9622.677246,-1532.190996
433.832474,-4219.173869,-8512.368333,-689.485948
433.832796,-2960.823768,-8438.347739,-1762.019645
433.833117,-1702.473667,-8956.491898,-2221.676944
433.833439,-1776.494261,-7698.141797,-1149.143247
433.833761,-2294.638420,-6957.935855,1302.362347
433.834082,-1554.432478,-7105.977043,536.266849
433.834404,-370.102971,-7624.121203,-1378.971896
433.834726,444.123565,-7698.141797,-1915.238745
433.835047,1110.308913,-8438.347739,-229.828649
433.835369,1776.494261,-9030.512492,-306.438199
433.835691,3182.885551,-9252.574275,-459.657299
433.836012,3552.988522,-9474.636058,-919.314598
433.836334,2812.782580,-9992.780217,-766.095498
433.836656,962.267725,-9918.759623,-1455.581446
433.836977,-962.267725,-9918.759623,-2681.334243
433.837299,-2220.617826,-10584.944971,-2451.505594
433.837621,-2146.597232,-11103.089130,-2374.896044
433.837942,-1110.308913,-12731.542202,-1838.629195
433.838264,0.000000,-11917.315666,-536.266849
433.838586,296.082377,-9696.697840,1149.143247
433.838907,296.082377,-9326.594869,689.485948
433.839229,518.144159,-8216.285956,-306.438199
433.839551,666.185348,-7550.100608,-1608.800546
433.839872,518.144159,-7476.080014,-2528.115143
433.840194,444.123565,-8216.285956,-2298.286494
433.840515,666.185348,-9030.512492,-1378.971896
433.840837,0.000000,-9474.636058,-1072.533697
433.841159,-1258.350101,-10584.944971,-1378.971896
433.841480,-3182.885551,-11029.068536,-1532.190996
433.841802,-4589.276840,-10584.944971,-2298.286494
433.842124,-5329.482782,-9992.780217,-2451.505594
433.842445,-5625.565159,-8290.306550,-3140.991542
433.842767,-3701.029710,-8734.430116,-4060.306139
433.843089,-1850.514855,-9622.677246,-3294.210641
433.843410,-1702.473667,-9474.636058,-306.438199
433.843732,-1924.535449,-8068.244768,383.047749
433.844054,-962.267725,-7624.121203,-1072.533697
433.844375,814.226536,-8364.327145,-2757.943793
433.844697,1036.288319,-9474.636058,-3140.991542
433.845019,592.164754,-8660.409521,-1838.629195
433.845340,1184.329507,-7698.141797,-842.705048
433.845662,1998.556043,-7698.141797,-1455.581446
433.845984,2072.576638,-9992.780217,-2145.067394
433.846305,444.123565,-11325.150913,-1149.143247
433.846627,-1850.514855,-10436.903782,-383.047749
433.846949,-1776.494261,-10066.800811,-1072.533697
433.847270,0.000000,-9918.759623,-2834.553343
433.847592,444.123565,-9326.594869,-2604.724693
433.847914,0.000000,-8364.327145,-536.266849
433.848235,-592.164754,-8364.327145,76.609550
433.848557,-592.164754,-9030.512492,-919.314598
433.848879,-148.041188,-10214.842000,-1225.752797
433.849200,-666.185348,-10066.800811,-1608.800546
433.849522,0.000000,-9252.574275,-2298.286494
433.849844,1554.432478,-8882.471304,-2528.115143
433.850165,2442.679609,-9474.636058,-2451.505594
433.850487,1332.370696,-9104.533087,-1378.971896
433.850809,-370.102971,-8734.430116,-2145.067394
433.851130,-1776.494261,-9992.780217,-3600.648841
433.851452,-2664.741391,-11991.336260,-2987.772442
433.851774,-3627.009116,-12213.398043,-2374.896044
433.852095,-3256.906145,-11177.109724,-1685.410096
433.852417,-1184.329507,-10732.986159,-1149.143247
433.852739,1332.370696,-10066.800811,-153.219100
433.853060,2442.679609,-8586.388927,-306.438199
433.853382,2516.700203,-6809.894666,76.609550
433.853704,2368.659014,-5847.626942,-306.438199
433.854025,2516.700203,-5847.626942,-1762.019645
433.854347,2960.823768,-7846.182985,-2451.505594
433.854668,1628.453072,-9104.533087,-1378.971896
433.854990,518.144159,-10140.821405,-459.657299
433.855312,-296.082377,-10288.862594,-766.095498
433.855633,-1480.411884,-10584.944971,-2221.676944
433.855955,-2960.823768,-10881.027347,-2604.724693
433.856277,-4367.215058,-10658.965565,-1991.848295
433.856598,-3923.091493,-9622.677246,-2221.676944
433.856920,-1776.494261,-9252.574275,-3447.429741
433.857242,0.000000,-9400.615463,-2451.505594
433.857563,666.185348,-8808.450710,536.266849
433.857885,0.000000,-7624.121203,2298.286494
433.858207,1036.288319,-8586.388927,-153.219100
433.858528,2516.700203,-9326.594869,-1991.848295
433.858850,2294.638420,-8734.430116,-2145.067394
433.859172,1184.329507,-7698.141797,-766.095498
433.859493,814.226536,-7402.059420,842.705048
433.859815,1702.473667,-7772.162391,-766.095498
433.860137,1850.514855,-8660.409521,-2451.505594
433.860458,222.061783,-10214.842000,-2757.943793
433.860780,-2294.638420,-11399.171507,-1532.190996
433.861102,-3330.926739,-11473.192101,-1378.971896
433.861423,-3182.885551,-11695.253884,-2451.505594
433.861745,-2072.576638,-11769.274478,-3217.601092
433.862067,-1850.514855,-10955.047942,-2451.505594
433.862388,-2590.720797,-9918.759623,-1455.581446
433.862710,-2368.659014,-8956.491898,-919.314598
433.863032,-1184.329507,-9252.574275,-306.438199
433.863353,0.000000,-9622.677246,-612.876398
433.863675,74.020594,-8882.471304,-995.924147
433.863997,74.020594,-7550.100608,-995.924147
433.864318,1110.308913,-7402.059420,-1685.410096
433.864640,1036.288319,-7550.100608,-2298.286494
433.864962,-296.082377,-8660.409521,-1915.238745
433.865284,-1554.432478,-9696.697840,-1532.190996
433.865605,-2664.741391,-10881.027347,-995.924147
433.865927,-3108.864956,-11769.274478,-1378.971896
433.866249,-2664.741391,-11621.233289,-1762.019645
433.866571,-1036.288319,-9844.739029,-2298.286494
433.866892,296.082377,-8586.388927,-2757.943793
433.867214,518.144159,-7624.121203,-1532.190996
433.867536,222.061783,-7624.121203,153.219100
433.867858,-444.123565,-7846.182985,-383.047749
433.868179,-666.185348,-8364.327145,-1532.190996
433.868501,-518.144159,-8438.347739,-2298.286494
433.868823,666.185348,-9030.512492,-2374.896044
433.869145,1628.453072,-9178.553681,-2145.067394
433.869466,2072.576638,-8290.306550,-1225.752797
433.869788,1924.535449,-8142.265362,-689.485948
433.870110,888.247130,-9474.636058,-1608.800546
433.870432,-962.267725,-10362.883188,-2145.067394
433.870753,-2590.720797,-10584.944971,-2298.286494
433.871075,-2664.741391,-11325.150913,-2451.505594
433.871397,-1850.514855,-11325.150913,-2221.676944
433.871718,-888.247130,-10436.903782,-995.924147
433.872040,296.082377,-9326.594869,-536.266849
433.872362,1628.453072,-8586.388927,-536.266849
433.872684,2146.597232,-8808.450710,-995.924147
433.873005,1554.432478,-8882.471304,-1072.533697
433.873327,1036.288319,-8216.285956,-919.314598
433.873649,1554.432478,-8808.450710,-2145.067394
433.873971,1776.494261,-9474.636058,-2451.505594
433.874292,1184.329507,-9622.677246,-1302.362347
433.874614,-370.102971,-8734.430116,-1685.410096
433.874936,-1258.350101,-9252.574275,-2911.162892
433.875258,-2368.659014,-11251.130318,-3524.039291
433.875579,-3552.988522,-12361.439231,-1991.848295
433.875901,-3775.050304,-11547.212695,-2221.676944
433.876223,-2664.741391,-10140.821405,-2681.334243
433.876545,-814.226536,-10510.924376,-1915.238745
433.876866,148.041188,-9474.636058,-153.219100
433.877188,666.185348,-8290.306550,0.000000
433.877510,518.144159,-7402.059420,-383.047749
433.877832,1332.370696,-7624.121203,-459.657299
433.878153,1628.453072,-7624.121203,-995.924147
433.878475,2146.597232,-7254.018232,-1149.143247
433.878797,2516.700203,-7994.224174,-1302.362347
433.879119,1554.432478,-8438.347739,-612.876398
433.879440,0.000000,-8734.430116,-842.705048
433.879762,-1850.514855,-9474.636058,-1762.019645
433.880084,-3478.967927,-10584.944971,-1685.410096
433.880406,-4737.318029,-10584.944971,-1225.752797
433.880727,-4737.318029,-10807.006753,-1838.629195
433.881049,-3182.885551,-9770.718434,-2145.067394
433.881371,-1406.391290,-9252.574275,-1608.800546
433.881693,-444.123565,-8438.347739,0.000000
433.882014,0.000000,-7698.141797,612.876398
433.882336,1258.350101,-8438.347739,-1225.752797
433.882658,1998.556043,-8586.388927,-2451.505594
433.882980,2220.617826,-9104.533087,-1762.019645
433.883301,1776.494261,-8808.450710,-1072.533697
433.883623,1998.556043,-8882.471304,-1072.533697
433.883945,1776.494261,-9178.553681,-1762.019645
433.884267,666.185348,-9474.636058,-2757.943793
433.884588,-1036.288319,-9844.739029,-3064.381992
433.884910,-2738.761985,-10584.944971,-2757.943793
433.885232,-4145.153275,-11029.068536,-1915.238745
433.885554,-4293.194464,-11029.068536,-1991.848295
433.885875,-3330.926739,-10955.047942,-3064.381992
433.886197,-1924.535449,-10732.986159,-2068.457845
433.886519,-962.267725,-9844.739029,-1072.533697
433.886841,-148.041188,-9474.636058,-766.095498
433.887162,740.205942,-9104.533087,-383.047749
433.887484,1406.391290,-9030.512492,-689.485948
433.887806,1480.411884,-8586.388927,-229.828649
433.888128,1702.473667,-8216.285956,-1149.143247
433.888449,1628.453072,-8142.265362,-1915.238745
433.888771,1184.329507,-8586.388927,-1685.410096
433.889093,518.144159,-9104.533087,-1532.190996
433.889415,-666.185348,-10214.842000,-2374.896044
433.889736,-1850.514855,-10584.944971,-2145.067394
433.890058,-2886.803174,-10881.027347,-1762.019645
433.890380,-3182.885551,-10436.903782,-2451.505594
433.890701,-2590.720797,-9918.759623,-3677.258390
433.891023,-1332.370696,-9326.594869,-2987.772442
433.891345,-888.247130,-9178.553681,-1225.752797
433.891667,-296.082377,-9178.553681,-229.828649
433.891988,0.000000,-8808.450710,0.000000
433.892310,666.185348,-8808.450710,-306.438199
433.892632,1406.391290,-8068.244768,-1225.752797
433.892954,2368.659014,-8364.327145,-2221.676944
433.893275,2738.761985,-8734.430116,-1455.581446
433.893597,2294.638420,-8512.368333,0.000000
433.893919,1036.288319,-8512.368333,153.219100
433.894241,-370.102971,-9770.718434,-1225.752797
433.894562,-2072.576638,-10214.842000,-1608.800546
433.894884,-3404.947333,-10436.903782,-1762.019645
433.895206,-4145.153275,-9252.574275,-1762.019645
433.895528,-1850.514855,-9326.594869,-1838.629195
433.895849,222.061783,-9252.574275,-1762.019645
433.896171,1258.350101,-9252.574275,0.000000
433.896493,1480.411884,-9178.553681,612.876398
433.896815,2220.617826,-8808.450710,-306.438199
433.897136,2590.720797,-9400.615463,-1838.629195
433.897458,1776.494261,-9548.656652,-2145.067394
433.897780,814.226536,-8882.471304,-766.095498
433.898102,592.164754,-8512.368333,-919.314598
433.898423,518.144159,-9104.533087,-1608.800546
433.898745,-1258.350101,-9844.739029,-1762.019645
433.899067,-3627.009116,-9104.533087,-1685.410096
433.899389,-5033.400406,-9252.574275,-1915.238745
433.899710,-4441.235652,-10362.883188,-2528.115143
433.900032,-3108.864956,-10732.986159,-2681.334243
433.900354,-2738.761985,-10436.903782,-1838.629195
433.900676,-2516.700203,-9992.780217,-306.438199
433.900997,-2072.576638,-9474.636058,153.219100
433.901319,-666.185348,-9696.697840,-2145.067394
433.901641,518.144159,-9622.677246,-1991.848295
433.901963,1702.473667,-8882.471304,-1378.971896
433.902284,2664.741391,-8068.244768,-383.047749
433.902606,3552.988522,-7772.162391,-1072.533697
433.902928,4515.256246,-8216.285956,-919.314598
433.903250,4589.276840,-8364.327145,-1762.019645
433.903571,2294.638420,-8808.450710,-1608.800546
433.903893,-666.185348,-9252.574275,-1149.143247
433.904215,-3034.844362,-9770.718434,-1608.800546
433.904537,-4219.173869,-10955.047942,-2528.115143
433.904858,-4737.318029,-10881.027347,-1838.629195
433.905180,-4367.215058,-10584.944971,-1532.190996
433.905502,-3849.070898,-9548.656652,-2145.067394
433.905824,-2590.720797,-8734.430116,-1608.800546
433.906145,-1776.494261,-8586.388927,-995.924147
433.906467,-814.226536,-9104.533087,-766.095498
433.906789,0.000000,-8882.471304,-1838.629195
433.907111,1036.288319,-8364.327145,-2451.505594
433.907432,2442.679609,-9030.512492,-2451.505594
433.907754,2812.782580,-8660.409521,-2068.457845
433.908076,2146.597232,-8068.244768,-1915.238745
433.908398,888.247130,-8438.347739,-2221.676944
433.908719,-222.061783,-10140.821405,-2221.676944
433.909041,-1628.453072,-11621.233289,-2987.772442
433.909363,-2738.761985,-11917.315666,-2834.553343
433.909684,-2294.638420,-11695.253884,-1991.848295
433.910006,-1184.329507,-11251.130318,-1608.800546
433.910328,0.000000,-10066.800811,-1149.143247
433.910650,740.205942,-9252.574275,0.000000
433.910971,1702.473667,-9178.553681,0.000000
433.911293,1406.391290,-8660.409521,-1072.533697
433.911615,1184.329507,-8364.327145,-229.828649
433.911937,1110.308913,-8660.409521,229.828649
433.912258,1406.391290,-8882.471304,-459.657299
433.912580,1184.329507,-9178.553681,-1149.143247
433.912902,814.226536,-8882.471304,-459.657299
433.913224,-370.102971,-8364.327145,0.000000
433.913545,-1332.370696,-8142.265362,-1762.019645
433.913867,-2146.597232,-9548.656652,-3064.381992
433.914189,-3034.844362,-10807.006753,-3294.210641
433.914511,-3923.091493,-10436.903782,-2528.115143
433.914832,-3849.070898,-10510.924376,-2298.286494
433.915154,-3108.864956,-10362.883188,-1532.190996
433.915476,-2368.659014,-10140.821405,-1838.629195
433.915798,-1924.535449,-9622.677246,-1149.143247
433.916119,-1702.473667,-9400.615463,-306.438199
433.916441,-518.144159,-8512.368333,995.924147
433.916763,592.164754,-7105.977043,612.876398
433.917085,2146.597232,-7328.038826,-689.485948
433.917406,3256.906145,-7698.141797,-919.314598
433.917728,3108.864956,-7846.182985,76.609550
433.918050,2590.720797,-8290.306550,536.266849
433.918372,1850.514855,-9030.512492,0.000000
433.918693,666.185348,-9844.739029,-1225.752797
433.919015,-1258.350101,-10288.862594,-1225.752797
433.919337,-1554.432478,-11029.068536,-1455.581446
433.919659,-1036.288319,-10214.842000,-2451.505594
433.919980,-148.041188,-8808.450710,-2987.772442
433.920302,-222.061783,-9844.739029,-1302.362347
433.920624,-370.102971,-10658.965565,229.828649
433.920946,-1184.329507,-9622.677246,-919.314598
433.921267,-1406.391290,-8882.471304,-2374.896044
433.921589,-1480.411884,-9474.636058,-2298.286494
433.921911,-1184.329507,-8364.327145,-2834.553343
433.922233,-1776.494261,-8438.347739,-2911.162892
433.922554,-1258.350101,-9474.636058,-1378.971896
433.922876,-1184.329507,-10066.800811,76.609550
433.923198,-1702.473667,-9696.697840,-1072.533697
433.923520,-2442.679609,-9622.677246,-2145.067394
433.923841,-3182.885551,-9326.594869,-1149.143247
433.924163,-2738.761985,-9326.594869,-1455.581446
433.924485,-2072.576638,-9474.636058,-2068.457845
433.924807,-1480.411884,-9474.636058,-1685.410096
433.925128,-1110.308913,-9844.739029,-842.705048
433.925450,-370.102971,-10955.047942,-459.657299
433.925772,222.061783,-10881.027347,-383.047749
433.926094,1480.411884,-9548.656652,-1532.190996
433.926415,3108.864956,-8364.327145,-1838.629195
433.926737,4589.276840,-7920.203579,-1532.190996
433.927059,4441.235652,-7920.203579,-536.266849
433.927381,2886.803174,-7402.059420,-383.047749
433.927702,1110.308913,-7772.162391,-1149.143247
433.928024,-370.102971,-8808.450710,-2451.505594
433.928346,-2368.659014,-9992.780217,-2145.067394
433.928667,-4663.297435,-10807.006753,-1608.800546
433.928989,-5181.441594,-11103.089130,-1608.800546
433.929311,-3997.112087,-10362.883188,-1685.410096
433.929633,-2738.761985,-9918.759623,-1762.019645
433.929954,-2368.659014,-9326.594869,-1225.752797
433.930276,-1924.535449,-8734.430116,-842.705048
433.930598,-1332.370696,-7846.182985,-459.657299
433.930920,296.082377,-7179.997637,-1225.752797
433.931241,1702.473667,-7920.203579,-1838.629195
433.931563,2812.782580,-8734.430116,-2298.286494
433.931885,3552.988522,-8956.491898,-2298.286494
433.932207,2960.823768,-9474.636058,-919.314598
433.932528,2146.597232,-9474.636058,-919.314598
433.932850,592.164754,-11103.089130,-2451.505594
433.933172,-1110.308913,-11251.130318,-2911.162892
433.933494,-2072.576638,-11547.212695,-1685.410096
433.933815,-1184.329507,-10881.027347,-1532.190996
433.934137,222.061783,-9770.718434,-2221.676944
433.934459,962.267725,-9918.759623,-1378.971896
433.934781,0.000000,-9178.553681,1072.533697
433.935102,-444.123565,-8660.409521,459.657299
433.935424,-370.102971,-9104.533087,-2068.457845
433.935746,-814.226536,-9770.718434,-1072.533697
433.936068,-1924.535449,-8956.491898,0.000000
433.936389,-1998.556043,-8142.265362,-919.314598
433.936711,-666.185348,-7698.141797,-1991.848295
433.937033,592.164754,-8438.347739,-2451.505594
433.937355,518.144159,-8956.491898,-2145.067394
433.937676,-444.123565,-9400.615463,-919.314598
433.937998,-1850.514855,-9474.636058,-1532.190996
433.938320,-2664.741391,-11325.150913,-1915.238745
433.938642,-2442.679609,-11399.171507,-2451.505594
433.938963,-2590.720797,-9992.780217,-2604.724693
433.939285,-2294.638420,-9844.739029,-2451.505594
433.939607,-1628.453072,-8956.491898,-536.266849
433.939929,-1406.391290,-8660.409521,-842.705048
433.940250,-296.082377,-9030.512492,-536.266849
433.940572,1036.288319,-8808.450710,153.219100
433.940894,1924.535449,-8364.327145,229.828649
433.941216,2368.659014,-7846.182985,229.828649
433.941537,2368.659014,-7254.018232,383.047749
433.941859,2072.576638,-6883.915261,-153.219100
433.942181,1110.308913,-7476.080014,-1762.019645
433.942503,0.000000,-8882.471304,-2221.676944
433.942824,-1110.308913,-10288.862594,-2221.676944
433.943146,-1480.411884,-11177.109724,-2068.457845
433.943468,-814.226536,-10955.047942,-2298.286494
433.943790,370.102971,-11103.089130,-2681.334243
433.944111,1332.370696,-10658.965565,-2528.115143
433.944433,962.267725,-9770.718434,-2374.896044
433.944755,444.123565,-9474.636058,-1532.190996
433.945077,-888.247130,-9844.739029,-1455.581446
433.945398,-1110.308913,-9400.615463,-1685.410096
433.945720,-592.164754,-8660.409521,-2757.943793
433.946042,296.082377,-8956.491898,-3217.601092
433.946364,1258.350101,-10362.883188,-1915.238745
433.946685,814.226536,-10436.903782,0.000000
433.947007,-296.082377,-9326.594869,0.000000
433.947329,-1628.453072,-9474.636058,-1532.190996
433.947650,-2664.741391,-10140.821405,-2604.724693
433.947972,-3775.050304,-10288.862594,-2987.772442
433.948294,-3775.050304,-9252.574275,-2528.115143
433.948616,-1776.494261,-9474.636058,-2528.115143
433.948937,444.123565,-10066.800811,-1991.848295
433.949259,1258.350101,-10955.047942,-995.924147
433.949581,666.185348,-11103.089130,612.876398
433.949903,444.123565,-9844.739029,229.828649
433.950224,592.164754,-8956.491898,-1532.190996
433.950546,1332.370696,-7698.141797,-2604.724693
433.950868,1702.473667,-7105.977043,-2604.724693
433.951190,1184.329507,-6217.729913,-1608.800546
433.951511,740.205942,-7105.977043,-689.485948
433.951833,444.123565,-8142.265362,-536.266849
433.952155,-444.123565,-9918.759623,-1685.410096
433.952477,-2516.700203,-10807.006753,-1532.190996
433.952798,-3552.988522,-10955.047942,0.000000
433.953120,-3108.864956,-10214.842000,-689.485948
433.953442,-2220.617826,-8734.430116,-1915.238745
433.953764,-1480.411884,-8586.388927,-1455.581446
433.954085,-2220.617826,-8808.450710,-76.609550
433.954407,-1998.556043,-8290.306550,-153.219100
433.954729,-888.247130,-8660.409521,-1532.190996
433.955051,1110.308913,-9104.533087,-2298.286494
433.955372,1480.411884,-8956.491898,-2298.286494
433.955694,2368.659014,-9474.636058,-995.924147
433.956016,2442.679609,-9770.718434,-612.876398
433.956338,1850.514855,-9474.636058,-1532.190996
433.956659,1554.432478,-10214.842000,-2374.896044
433.956981,370.102971,-10732.986159,-3064.381992
433.957303,-1258.350101,-11843.295072,-2451.505594
433.957625,-1998.556043,-11843.295072,-995.924147
433.957946,-1628.453072,-11251.130318,-766.095498
433.958268,0.000000,-11029.068536,-1532.190996
433.958590,1184.329507,-9696.697840,-1072.533697
433.958912,740.205942,-9030.512492,-153.219100
433.959233,0.000000,-7920.203579,0.000000
433.959555,-814.226536,-7402.059420,-766.095498
433.959877,-962.267725,-7624.121203,-1608.800546
433.960199,-888.247130,-8142.265362,-1685.410096
433.960520,222.061783,-9844.739029,-2298.286494
433.960842,592.164754,-8956.491898,-1915.238745
433.961164,592.164754,-9474.636058,-1225.752797
433.961486,222.061783,-9918.759623,-1608.800546
433.961807,-1110.308913,-10510.924376,-1532.190996
433.962129,-2590.720797,-10288.862594,-1915.238745
433.962451,-2664.741391,-9400.615463,-2374.896044
433.962773,-2146.597232,-8808.450710,-2604.724693
433.963094,-1480.411884,-8956.491898,-2221.676944
433.963416,-666.185348,-9104.533087,-689.485948
433.963738,-518.144159,-7772.162391,229.828649
433.964060,148.041188,-7994.224174,383.047749
433.964381,592.164754,-8660.409521,0.000000
433.964703,1036.288319,-7550.100608,-612.876398
433.965025,1036.288319,-6587.832884,-1225.752797
433.965347,1554.432478,-8290.306550,-459.657299
433.965668,1998.556043,-8290.306550,0.000000
433.965990,1628.453072,-7698.141797,-2068.457845
433.966312,1258.350101,-9030.512492,-3753.867940
433.966634,444.123565,-11621.233289,-2528.115143
433.966956,-1184.329507,-12731.542202,-1455.581446
433.967277,-2146.597232,-11547.212695,-1915.238745
433.967599,-814.226536,-10658.965565,-2528.115143
433.967921,0.000000,-10214.842000,-3600.648841
433.968243,-222.061783,-9326.594869,-3294.210641
433.968565,-1332.370696,-8438.347739,-1838.629195
433.968886,-1184.329507,-7698.141797,-1685.410096
433.969208,0.000000,-9696.697840,-1915.238745
433.969530,0.000000,-10881.027347,-1225.752797
433.969852,-1110.308913,-9696.697840,-1378.971896
433.970173,-740.205942,-9622.677246,-1455.581446
433.970495,444.123565,-10066.800811,-1991.848295
433.970817,222.061783,-9474.636058,-2681.334243
433.971139,-1110.308913,-9474.636058,-2681.334243
433.971461,-2886.803174,-10584.944971,-1838.629195
433.971782,-3108.864956,-11621.233289,-1762.019645
433.972104,-2442.679609,-11769.274478,-1915.238745
433.972426,-1036.288319,-10732.986159,-2068.457845
433.972748,888.247130,-10362.883188,-1225.752797
433.973069,1406.391290,-9770.718434,0.000000
433.973391,1184.329507,-9178.553681,383.047749
433.973713,888.247130,-8216.285956,76.609550
433.974035,666.185348,-8290.306550,-1915.238745
433.974357,1110.308913,-7402.059420,-2145.067394
433.974678,1110.308913,-7476.080014,-1225.752797
433.975000,962.267725,-7031.956449,-842.705048
433.975322,1110.308913,-6883.915261,-536.266849
433.975644,296.082377,-7920.203579,-995.924147
433.975965,-1110.308913,-9918.759623,-1455.581446
433.976287,-3849.070898,-11177.109724,-1608.800546
433.976609,-5255.462188,-11547.212695,-1608.800546
433.976931,-5181.441594,-10140.821405,-1072.533697
433.977253,-3330.926739,-9030.512492,-1532.190996
433.977574,-962.267725,-8512.368333,-2298.286494
433.977896,370.102971,-8438.347739,-1225.752797
433.978218,666.185348,-8364.327145,306.438199
433.978540,1406.391290,-7920.203579,689.485948
433.978862,1702.473667,-8290.306550,0.000000
433.979183,1924.535449,-8438.347739,-1302.362347
433.979505,1480.411884,-8438.347739,-1302.362347
433.979827,2220.617826,-8808.450710,-1302.362347
433.980149,3182.885551,-8882.471304,-1608.800546
433.980470,3627.009116,-9474.636058,-1455.581446
433.980792,2220.617826,-9474.636058,-842.705048
433.981114,74.020594,-10288.862594,0.000000
433.981436,-1924.535449,-11103.089130,-689.485948
433.981758,-2738.761985,-12065.356855,-2757.943793
433.982079,-3034.844362,-11029.068536,-3677.258390
433.982401,-2664.741391,-10362.883188,-2374.896044
433.982723,-2220.617826,-9918.759623,0.000000
433.983045,-1628.453072,-9178.553681,229.828649
433.983366,-1036.288319,-8290.306550,-1378.971896
433.983688,-592.164754,-8808.450710,-2451.505594
433.984010,148.041188,-9178.553681,-2681.334243
433.984332,74.020594,-8956.491898,-2681.334243
433.984654,1036.288319,-8882.471304,-1378.971896
433.984975,1332.370696,-8956.491898,-612.876398
433.985297,888.247130,-9104.533087,-1378.971896
433.985619,0.000000,-9474.636058,-2221.676944
433.985941,-1850.514855,-11177.109724,-2604.724693
433.986262,-2442.679609,-11177.109724,-2451.505594
433.986584,-2146.597232,-10955.047942,-1915.238745
433.986906,-1184.329507,-10807.006753,-1838.629195
433.987228,0.000000,-11103.089130,0.000000
433.987550,370.102971,-9770.718434,766.095498
433.987871,370.102971,-7846.182985,0.000000
433.988193,1258.350101,-7624.121203,-919.314598
433.988515,2294.638420,-7550.100608,-1532.190996
433.988837,1776.494261,-7402.059420,-842.705048
433.989159,1776.494261,-7179.997637,-306.438199
433.989480,2294.638420,-7105.977043,-306.438199
433.989802,1998.556043,-7920.203579,-1608.800546
433.990124,74.020594,-9030.512492,-1608.800546
433.990446,-2146.597232,-10066.800811,-2451.505594
433.990767,-4071.132681,-10214.842000,-2604.724693
433.991089,-4737.318029,-10584.944971,-2604.724693
433.991411,-4219.173869,-10955.047942,-2451.505594
433.991733,-3552.988522,-9400.615463,-2221.676944
433.992055,-2812.782580,-8882.471304,-3140.991542
433.992376,-1258.350101,-10066.800811,-2145.067394
433.992698,-592.164754,-10066.800811,-306.438199
433.993020,148.041188,-9400.615463,-612.876398
433.993342,1110.308913,-9178.553681,-919.314598
433.993663,1776.494261,-8216.285956,-612.876398
433.993985,1702.473667,-7994.224174,-995.924147
433.994307,2072.576638,-8290.306550,-1915.238745
433.994629,2516.700203,-8734.430116,-1838.629195
433.994951,2146.597232,-8956.491898,-1455.581446
433.995272,518.144159,-10436.903782,-842.705048
433.995594,-1850.514855,-11991.336260,0.000000
433.995916,-3552.988522,-12509.480420,-689.485948
433.996238,-3923.091493,-12139.377449,-1991.848295
433.996560,-3182.885551,-11103.089130,-2145.067394
433.996881,-1184.329507,-9696.697840,-1302.362347
433.997203,74.020594,-8364.327145,-2145.067394
433.997525,962.267725,-8586.388927,-536.266849
433.997847,888.247130,-8956.491898,919.314598
433.998168,148.041188,-8734.430116,0.000000
433.998490,518.144159,-7624.121203,-1608.800546
433.998812,962.267725,-7772.162391,-2374.896044
433.999134,1332.370696,-7920.203579,-2451.505594
433.999456,814.226536,-7328.038826,-1455.581446
433.999777,0.000000,-6957.935855,-459.657299
434.000099,-1184.329507,-8216.285956,-1378.971896
434.000421,-2664.741391,-9474.636058,-2451.505594
434.000743,-4441.235652,-11177.109724,-2451.505594
434.001064,-4811.338623,-11325.150913,-1991.848295
434.001386,-3330.926739,-10362.883188,-2604.724693
434.001708,-1036.288319,-10214.842000,-2451.505594
434.002030,592.164754,-10362.883188,536.266849
434.002352,370.102971,-8512.368333,2145.067394
434.002673,444.123565,-7031.956449,306.438199
434.002995,2072.576638,-7254.018232,-1915.238745
434.003317,3478.967927,-8512.368333,-1838.629195
434.003639,3775.050304,-8364.327145,-689.485948
434.003960,4071.132681,-8068.244768,229.828649
434.004282,4145.153275,-8882.471304,229.828649
434.004604,3330.926739,-9474.636058,-995.924147
434.004926,888.247130,-9844.739029,-2528.115143
434.005248,-2220.617826,-10584.944971,-3140.991542
434.005569,-4219.173869,-11029.068536,-2757.943793
434.005891,-4959.379811,-11399.171507,-2834.553343
434.006213,-4293.194464,-11695.253884,-2681.334243
434.006535,-2738.761985,-11769.274478,-1915.238745
434.006857,-1924.535449,-10881.027347,-1302.362347
434.007178,-1628.453072,-9252.574275,-1072.533697
434.007500,-740.205942,-8808.450710,-1149.143247
434.007822,-518.144159,-8364.327145,-1838.629195
434.008144,74.020594,-7179.997637,-2451.505594
434.008465,1036.288319,-7402.059420,-2451.505594
434.008787,1702.473667,-8586.388927,-1532.190996
434.009109,1110.308913,-9178.553681,-689.485948
434.009431,296.082377,-9326.594869,-919.314598
434.009753,-1184.329507,-9770.718434,-1532.190996
434.010074,-2220.617826,-10584.944971,-2068.457845
434.010396,-2812.782580,-9770.718434,-2604.724693
434.010718,-2220.617826,-9400.615463,-2834.553343
434.011040,-666.185348,-9992.780217,-2374.896044
434.011361,370.102971,-10288.862594,-1455.581446
434.011683,666.185348,-9548.656652,76.609550
434.012005,0.000000,-8808.450710,612.876398
434.012327,0.000000,-9252.574275,-536.266849
434.012649,444.123565,-8734.430116,-2604.724693
434.012970,888.247130,-7994.224174,-2221.676944
434.013292,1184.329507,-7179.997637,-1378.971896
434.013614,1924.535449,-7772.162391,-229.828649
434.013936,1480.411884,-8512.368333,-153.219100
434.014257,296.082377,-8660.409521,-995.924147
434.014579,-814.226536,-9548.656652,-2834.553343
434.014901,-2590.720797,-10807.006753,-2987.772442
434.015223,-4145.153275,-11399.171507,-3064.381992
434.015545,-4071.132681,-11029.068536,-2145.067394
434.015866,-2960.823768,-10584.944971,-1762.019645
434.016188,-888.247130,-10658.965565,-1915.238745
434.016510,518.144159,-10436.903782,-2068.457845
434.016832,1406.391290,-9474.636058,-1225.752797
434.017154,1998.556043,-8808.450710,0.000000
434.017475,1998.556043,-8290.306550,0.000000
434.017797,1776.494261,-8142.265362,-306.438199
434.018119,2294.638420,-7550.100608,-689.485948
434.018441,2368.659014,-8142.265362,-1608.800546
434.018762,2220.617826,-8808.450710,-1455.581446
434.019084,1702.473667,-9030.512492,-153.219100
434.019406,444.123565,-8882.471304,-229.828649
434.019728,-1776.494261,-10066.800811,-612.876398
434.020050,-3775.050304,-10881.027347,-612.876398
434.020371,-5181.441594,-10732.986159,-1838.629195
434.020693,-4959.379811,-10140.821405,-3677.258390
434.021015,-4145.153275,-10584.944971,-3600.648841
434.021337,-2886.803174,-10658.965565,-1302.362347
434.021658,-2220.617826,-9474.636058,459.657299
434.021980,-814.226536,-8364.327145,0.000000
434.022302,0.000000,-8586.388927,-1532.190996
434.022624,888.247130,-8216.285956,-2221.676944
434.022946,1554.432478,-8142.265362,-2374.896044
434.023267,2146.597232,-8290.306550,-2298.286494
434.023589,2072.576638,-8290.306550,0.000000
434.023911,1110.308913,-8438.347739,306.438199
434.024233,0.000000,-8956.491898,-689.485948
434.024555,-2072.576638,-9400.615463,-689.485948
434.024876,-2812.782580,-9992.780217,-1532.190996
434.025198,-3108.864956,-10066.800811,-2528.115143
434.025520,-1554.432478,-9622.677246,-2451.505594
434.025842,-296.082377,-9696.697840,-1072.533697
434.026163,592.164754,-9696.697840,383.047749
434.026485,1332.370696,-8808.450710,153.219100
434.026807,1702.473667,-8290.306550,-1302.362347
434.027129,1184.329507,-9400.615463,-1685.410096
434.027451,740.205942,-8808.450710,-1378.971896
434.027772,1554.432478,-8216.285956,-1915.238745
434.028094,2960.823768,-9030.512492,-2451.505594
434.028416,4071.132681,-9622.677246,-1532.190996
434.028738,2220.617826,-9326.594869,-1149.143247
434.029059,0.000000,-8512.368333,-1991.848295
434.029381,-1850.514855,-9104.533087,-2681.334243
434.029703,-3552.988522,-10362.883188,-3983.696590
434.030025,-5403.503377,-10658.965565,-4136.915689
434.030347,-5551.544565,-11251.130318,-2834.553343
434.030668,-3701.029710,-11473.192101,-1302.362347
434.030990,-1850.514855,-11695.253884,-1762.019645
434.031312,-888.247130,-11177.109724,-919.314598
434.031634,-444.123565,-9326.594869,-229.828649
434.031955,222.061783,-8512.368333,-1608.800546
434.032277,1776.494261,-8438.347739,-2145.067394
434.032599,2738.761985,-8290.306550,-1149.143247
434.032921,2886.803174,-8142.265362,-306.438199
434.033243,2368.659014,-8438.347739,76.609550
434.033564,1998.556043,-9104.533087,0.000000
434.033886,1406.391290,-10288.862594,-1149.143247
434.034208,-592.164754,-10288.862594,-1915.238745
434.034530,-2664.741391,-8882.471304,-1149.143247
434.034852,-3330.926739,-8586.388927,-1455.581446
434.035173,-2886.803174,-9326.594869,-2451.505594
434.035495,-2294.638420,-9992.780217,-1915.238745
434.035817,-2516.700203,-9104.533087,-1762.019645
434.036139,-1776.494261,-9030.512492,-1608.800546
434.036460,-222.061783,-9844.739029,-1455.581446
434.036782,518.144159,-9104.533087,-766.095498
434.037104,74.020594,-8068.244768,-919.314598
434.037426,888.247130,-7402.059420,-1378.971896
434.037748,1332.370696,-8438.347739,-1455.581446
434.038069,814.226536,-8808.450710,-1225.752797
434.038391,-592.164754,-8364.327145,-766.095498
434.038713,-1480.411884,-8364.327145,-1455.581446
434.039035,-2072.576638,-10140.821405,-1225.752797
434.039356,-2294.638420,-10584.944971,-2145.067394
434.039678,-2738.761985,-9474.636058,-1762.019645
434.040000,-1850.514855,-8882.471304,-1532.190996
434.040322,-518.144159,-9548.656652,-1378.971896
434.040644,74.020594,-10066.800811,-2298.286494
434.040965,74.020594,-9844.739029,-1608.800546
434.041287,518.144159,-10584.944971,-995.924147
434.041609,2220.617826,-10436.903782,-1378.971896
434.041931,3775.050304,-9030.512492,-1225.752797
434.042252,4515.256246,-8956.491898,-1608.800546
434.042574,4219.173869,-8216.285956,-612.876398
434.042896,2960.823768,-7846.182985,0.000000
434.043218,1554.432478,-8956.491898,-1532.190996
434.043540,-370.102971,-9696.697840,-2451.505594
434.043861,-2738.761985,-10066.800811,-1838.629195
434.044183,-4959.379811,-10436.903782,-1302.362347
434.044505,-6217.729913,-11769.274478,-1762.019645
434.044827,-6291.750507,-10807.006753,-1838.629195
434.045149,-5995.668130,-8956.491898,-2834.553343
434.045470,-4145.153275,-8364.327145,-2911.162892
434.045792,-2442.679609,-9326.594869,-2834.553343
434.046114,-1258.350101,-9252.574275,-2374.896044
434.046436,-370.102971,-9918.759623,-1532.190996
434.046757,1406.391290,-10066.800811,-995.924147
434.047079,2812.782580,-9844.739029,-1378.971896
434.047401,3256.906145,-9622.677246,-1378.971896
434.047723,2220.617826,-8586.388927,-689.485948
434.048045,1258.350101,-7328.038826,-1225.752797
434.048366,1110.308913,-8586.388927,-2374.896044
434.048688,148.041188,-10732.986159,-1302.362347
434.049010,-1110.308913,-9400.615463,153.219100
434.049332,-1776.494261,-7846.182985,0.000000
434.049653,-296.082377,-8734.430116,-1532.190996
434.049975,370.102971,-10140.821405,-1608.800546
434.050297,-518.144159,-8734.430116,-459.657299
434.050619,-1036.288319,-7550.100608,919.314598
434.050941,0.000000,-8216.285956,0.000000
434.051262,740.205942,-9400.615463,-2221.676944
434.051584,0.000000,-9548.656652,-2834.553343
434.051906,0.000000,-9696.697840,-1532.190996
434.052228,1998.556043,-9770.718434,-1608.800546
434.052550,3182.885551,-9178.553681,-3907.087040
434.052871,2886.803174,-9178.553681,-2987.772442
434.053193,592.164754,-9326.594869,-689.485948
434.053515,-1850.514855,-9400.615463,-2145.067394
434.053837,-3034.844362,-9844.739029,-4366.744339
434.054158,-3182.885551,-11621.233289,-3677.258390
434.054480,-3478.967927,-11473.192101,-2298.286494
434.054802,-2812.782580,-11325.150913,-1378.971896
434.055124,-1184.329507,-11103.089130,-306.438199
434.055446,370.102971,-10807.006753,0.000000
434.055767,1258.350101,-10214.842000,0.000000
434.056089,1332.370696,-8512.368333,-153.219100
434.056411,1554.432478,-7624.121203,-383.047749
434.056733,2590.720797,-8216.285956,-612.876398
434.057054,2886.803174,-8364.327145,-612.876398
434.057376,2960.823768,-7402.059420,-306.438199
434.057698,2516.700203,-8438.347739,-459.657299
434.058020,1850.514855,-10658.965565,-1378.971896
434.058342,0.000000,-10955.047942,-1532.190996
434.058663,-2368.659014,-10881.027347,-1991.848295
434.058985,-3404.947333,-10658.965565,-1302.362347
434.059307,-3330.926739,-9474.636058,-1302.362347
434.059629,-3108.864956,-8808.450710,-3140.991542
434.059950,-3034.844362,-7476.080014,-2757.943793
434.060272,-2886.803174,-6661.853478,-1608.800546
434.060594,-2960.823768,-7772.162391,-1378.971896
434.060916,-2590.720797,-8438.347739,-1378.971896
434.061238,-1924.535449,-7402.059420,-766.095498
434.061559,-1184.329507,-7550.100608,-1838.629195
434.061881,0.000000,-9400.615463,-1915.238745
434.062203,518.144159,-9474.636058,-1225.752797
434.062525,370.102971,-8734.430116,-1378.971896
434.062847,148.041188,-9474.636058,-766.095498
434.063168,-592.164754,-9622.677246,153.219100
434.063490,-1628.453072,-9770.718434,-1532.190996
434.063812,-1110.308913,-10732.986159,-2145.067394
434.064134,0.000000,-11251.130318,-1455.581446
434.064456,1110.308913,-10140.821405,-919.314598
434.064777,1628.453072,-9030.512492,-1608.800546
434.065099,1776.494261,-9326.594869,-995.924147
434.065421,1258.350101,-8956.491898,-995.924147
434.065743,518.144159,-8142.265362,-2451.505594
434.066065,74.020594,-8586.388927,-2757.943793
434.066387,740.205942,-9474.636058,-2451.505594
434.066708,1110.308913,-10066.800811,-2834.553343
434.067030,962.267725,-10288.862594,-2068.457845
434.067352,-370.102971,-10066.800811,-1302.362347
434.067674,-1628.453072,-10732.986159,-1838.629195
434.067996,-3701.029710,-11251.130318,-3140.991542
434.068318,-5477.523971,-11177.109724,-3677.258390
434.068639,-5995.668130,-12139.377449,-3140.991542
434.068961,-4959.379811,-11843.295072,-2374.896044
434.069283,-3256.906145,-10510.924376,-1302.362347
434.069605,-1184.329507,-8364.327145,-919.314598
434.069927,1110.308913,-7402.059420,-995.924147
434.070249,1998.556043,-7105.977043,-1302.362347
434.070570,1702.473667,-6809.894666,-536.266849
434.070892,2072.576638,-7031.956449,-459.657299
434.071214,2072.576638,-8142.265362,-1378.971896
434.071536,2072.576638,-10066.800811,-995.924147
434.071858,740.205942,-9770.718434,-1302.362347
434.072180,814.226536,-9844.739029,-1762.019645
434.072501,1702.473667,-11029.068536,-2451.505594
434.072823,1776.494261,-11843.295072,-1072.533697
434.073145,592.164754,-10066.800811,0.000000
434.073467,0.000000,-8142.265362,0.000000
434.073789,1110.308913,-8216.285956,-689.485948
434.074110,740.205942,-7698.141797,-1225.752797
434.074432,-1110.308913,-7772.162391,-1378.971896
434.074754,-2220.617826,-7179.997637,-229.828649
434.075076,-2146.597232,-8068.244768,0.000000
434.075398,-1406.391290,-8956.491898,-919.314598
434.075720,-1924.535449,-9474.636058,-306.438199
434.076041,-962.267725,-8142.265362,-1302.362347
434.076363,592.164754,-8290.306550,-3294.210641
434.076685,1406.391290,-9918.759623,-3830.477490
434.077007,-740.205942,-9474.636058,-1762.019645
434.077329,-2368.659014,-9474.636058,-2068.457845
434.077651,-3923.091493,-11251.130318,-2987.772442
434.077972,-4589.276840,-12731.542202,-2987.772442
434.078294,-5181.441594,-12731.542202,-3447.429741
434.078616,-5033.400406,-11473.192101,-3370.820191
434.078938,-3330.926739,-12065.356855,-1225.752797
434.079260,-2072.576638,-10955.047942,306.438199
434.079582,-1480.411884,-8808.450710,766.095498
434.079903,-1702.473667,-7031.956449,76.609550
434.080225,-888.247130,-7031.956449,-536.266849
434.080547,-1036.288319,-6735.874072,-1915.238745
434.080869,-1110.308913,-7698.141797,-1915.238745
434.081191,-592.164754,-9104.533087,-1072.533697
434.081513,592.164754,-9918.759623,-459.657299
434.081834,444.123565,-9770.718434,-689.485948
434.082156,-888.247130,-10362.883188,-919.314598
434.082478,-3849.070898,-10658.965565,-1685.410096
434.082800,-6661.853478,-10658.965565,-3217.601092
434.083122,-8512.368333,-9474.636058,-3983.696590
434.083444,-8882.471304,-8882.471304,-4060.306139
434.083765,-7031.956449,-8660.409521,-3447.429741
434.084087,-5699.585753,-8586.388927,-3447.429741
434.084409,-5181.441594,-8808.450710,-1072.533697
434.084731,-4737.318029,-8734.430116,459.657299
434.085053,-4293.194464,-8142.265362,-459.657299
434.085375,-3701.029710,-7994.224174,-2451.505594
434.085696,-3701.029710,-6587.832884,-2528.115143
434.086018,-3849.070898,-5921.647536,-1532.190996
434.086340,-1998.556043,-6365.771101,-1915.238745
434.086662,74.020594,-7994.224174,-2604.724693
434.086984,370.102971,-9696.697840,-1149.143247
434.087306,-740.205942,-11103.089130,919.314598
434.087627,-2220.617826,-11399.171507,0.000000
434.087949,-2960.823768,-11991.336260,-1608.800546
434.088271,-3849.070898,-11547.212695,-2221.676944
434.088593,-5699.585753,-9770.718434,-2221.676944
434.088915,-5403.503377,-8660.409521,-1915.238745
434.089237,-4071.132681,-9030.512492,-1915.238745
434.089558,-3034.844362,-9474.636058,-1149.143247
434.089880,-2368.659014,-9104.533087,-766.095498
434.090202,-1776.494261,-8660.409521,-919.314598
434.090524,-444.123565,-8808.450710,-1149.143247
434.090846,-222.061783,-9252.574275,-2145.067394
434.091168,-1850.514855,-8438.347739,-2451.505594
434.091489,-3552.988522,-7476.080014,-2528.115143
434.091811,-3330.926739,-8068.244768,-3447.429741
434.092133,-3404.947333,-9400.615463,-4903.011187
434.092455,-3256.906145,-10807.006753,-4826.401637
434.092777,-3849.070898,-10955.047942,-2834.553343
434.093099,-4071.132681,-12139.377449,-1991.848295
434.093420,-3849.070898,-13027.624579,-1762.019645
434.093742,-4959.379811,-12657.521608,-2221.676944
434.094064,-7031.956449,-11843.295072,-1225.752797
434.094386,-7994.224174,-10584.944971,0.000000
434.094708,-7698.141797,-8808.450710,-1532.190996
434.095029,-5181.441594,-7550.100608,-1838.629195
434.095351,-2516.700203,-7179.997637,0.000000
434.095673,-814.226536,-6513.812290,1072.533697
434.095995,740.205942,-5995.668130,1762.019645
434.096317,2220.617826,-7105.977043,1532.190996
434.096639,2368.659014,-7846.182985,76.609550
434.096960,1110.308913,-7402.059420,-995.924147
434.097282,-1332.370696,-8142.265362,-2145.067394
434.097604,-3849.070898,-9030.512492,-2451.505594
434.097926,-6069.688724,-9474.636058,-3524.039291
434.098248,-7624.121203,-10066.800811,-4060.306139
434.098570,-7994.224174,-10584.944971,-4366.744339
434.098891,-7254.018232,-11399.171507,-4366.744339
434.099213,-6661.853478,-11843.295072,-4366.744339
434.099535,-6143.709319,-11325.150913,-2374.896044
434.099857,-5329.482782,-10807.006753,0.000000
434.100179,-5107.421000,-8808.450710,0.000000
434.100501,-4737.318029,-7772.162391,-919.314598
434.100822,-4515.256246,-8142.265362,-612.876398
434.101144,-4737.318029,-8660.409521,1302.362347
434.101466,-3923.091493,-8512.368333,2451.505594
434.101788,-2072.576638,-7254.018232,1915.238745
434.102110,1406.391290,-7105.977043,536.266849
434.102432,3923.091493,-7105.977043,0.000000
434.102753,4145.153275,-7105.977043,842.705048
434.103075,2516.700203,-7031.956449,459.657299
434.103397,1258.350101,-8290.306550,-919.314598
434.103719,-222.061783,-9474.636058,-3370.820191
434.104041,-1776.494261,-10140.821405,-5286.058936
434.104363,-3478.967927,-11251.130318,-5592.497135
434.104684,-4441.235652,-11843.295072,-5362.668486
434.105006,-5847.626942,-12509.480420,-4979.620737
434.105328,-6809.894666,-13175.665768,-3524.039291
434.105650,-7846.182985,-12065.356855,-2451.505594
434.105972,-8142.265362,-9918.759623,-3294.210641
434.106294,-7550.100608,-8734.430116,-5056.230287
434.106615,-6587.832884,-9030.512492,-5362.668486
434.106937,-5773.606348,-8808.450710,-2145.067394
434.107259,-5181.441594,-8290.306550,842.705048
434.107581,-4145.153275,-8438.347739,1762.019645
434.107903,-2146.597232,-8512.368333,1378.971896
434.108225,-518.144159,-8364.327145,-383.047749
434.108546,1110.308913,-7328.038826,-1608.800546
434.108868,2738.761985,-6661.853478,-229.828649
434.109190,4663.297435,-6587.832884,-306.438199
434.109512,5699.585753,-8660.409521,-3064.381992
434.109834,5033.400406,-12139.377449,-3064.381992
434.110156,2146.597232,-14656.077652,-306.438199
434.110477,-3108.864956,-15840.407159,919.314598
434.110799,-7698.141797,-14434.015869,0.000000
434.111121,-10140.821405,-11251.130318,-1685.410096
434.111443,-10362.883188,-7328.038826,-4213.525239
434.111765,-10288.862594,-4663.297435,-5286.058936
434.112087,-10658.965565,-3552.988522,-3983.696590
434.112408,-9918.759623,-5033.400406,-1225.752797
434.112730,-8512.368333,-7105.977043,-306.438199
434.113052,-6809.894666,-9178.553681,-766.095498
434.113374,-5255.462188,-11325.150913,-1838.629195
434.113696,-4441.235652,-11029.068536,-1455.581446
434.114018,-3256.906145,-9474.636058,-1915.238745
434.114339,-1406.391290,-8068.244768,-2834.553343
434.114661,518.144159,-7179.997637,-2757.943793
434.114983,148.041188,-6587.832884,-2757.943793
434.115305,-1184.329507,-7698.141797,-2528.115143
434.115627,-2368.659014,-10436.903782,-2987.772442
434.115948,-3256.906145,-13471.748144,-1991.848295
434.116270,-4145.153275,-14656.077652,-995.924147
434.116592,-4737.318029,-13841.851115,306.438199
434.116914,-4589.276840,-11621.233289,995.924147
434.117236,-4811.338623,-9252.574275,995.924147
434.117558,-4219.173869,-6735.874072,153.219100
434.117879,-2812.782580,-3701.029710,-842.705048
434.118201,-888.247130,-3404.947333,-1685.410096
434.118523,740.205942,-5699.585753,-995.924147
434.118845,888.247130,-7476.080014,306.438199
434.119167,148.041188,-9104.533087,-1149.143247
434.119489,-296.082377,-11547.212695,-2451.505594
434.119810,-1628.453072,-13693.809927,-3140.991542
434.120132,-3775.050304,-13619.789333,-3677.258390
434.120454,-6069.688724,-12435.459826,-3370.820191
434.120776,-6809.894666,-12287.418637,-4060.306139
434.121098,-6883.915261,-12361.439231,-3447.429741
434.121420,-7550.100608,-10881.027347,-2298.286494
434.121741,-8512.368333,-8364.327145,-1378.971896
434.122063,-8364.327145,-6143.709319,-1149.143247
434.122385,-6587.832884,-6809.894666,-2528.115143
434.122707,-5033.400406,-7328.038826,-3217.601092
434.123029,-3923.091493,-7624.121203,-3140.991542
434.123351,-2886.803174,-7846.182985,-1532.190996
434.123672,-2220.617826,-7476.080014,612.876398
434.123994,-1036.288319,-6587.832884,-612.876398
434.124316,0.000000,-7698.141797,-3140.991542
434.124638,222.061783,-10288.862594,-3830.477490
434.124960,-740.205942,-13101.645173,-2145.067394
434.125282,-1554.432478,-15544.324782,766.095498
434.125603,-1480.411884,-15248.242405,3830.477490
434.125925,222.061783,-12583.501014,3294.210641
434.126247,2590.720797,-10732.986159,919.314598
434.126569,3775.050304,-9918.759623,153.219100
434.126891,2960.823768,-9252.574275,2987.772442
434.127213,1110.308913,-6957.935855,5209.449386
434.127534,-1406.391290,-4293.194464,5898.935335
434.127856,-3256.906145,-3923.091493,3217.601092
434.128178,-6735.874072,-3478.967927,459.657299
434.128500,-10066.800811,-2960.823768,-1838.629195
434.128822,-11325.150913,-3923.091493,-4213.525239
434.129144,-10288.862594,-6883.915261,-5745.716235
434.129465,-8882.471304,-8142.265362,-5592.497135
434.129787,-7920.203579,-10362.883188,-5056.230287
434.130109,-7328.038826,-15322.262999,-4903.011187
434.130431,-6883.915261,-18875.251521,-3907.087040
434.130753,-6661.853478,-17838.963202,-3983.696590
434.131075,-4737.318029,-15322.262999,-3907.087040
434.131396,-1406.391290,-13027.624579,-1762.019645
434.131718,0.000000,-10510.924376,842.705048
434.132040,-296.082377,-6661.853478,3753.867940
434.132362,148.041188,-3256.906145,5898.935335
434.132684,888.247130,-2738.761985,5132.839837
434.133006,592.164754,-3627.009116,3217.601092
434.133327,0.000000,-5699.585753,1991.848295
434.133649,-740.205942,-7772.162391,2604.724693
434.133971,-592.164754,-9844.739029,2987.772442
434.134293,814.226536,-11769.274478,1225.752797
434.134615,2812.782580,-12139.377449,-1685.410096
434.134937,3404.947333,-10214.842000,-3447.429741
434.135258,1924.535449,-11473.192101,-3600.648841
434.135580,222.061783,-15322.262999,-3217.601092
434.135902,-370.102971,-17468.860231,-2451.505594
434.136224,-1036.288319,-16432.571912,-3064.381992
434.136546,-370.102971,-14804.118840,-2528.115143
434.136867,370.102971,-13101.645173,612.876398
434.137189,-296.082377,-9696.697840,2757.943793
434.137511,-1924.535449,-5699.585753,3753.867940
434.137833,-1258.350101,-2886.803174,4596.572988
434.138155,74.020594,-888.247130,2987.772442
434.138477,1924.535449,148.041188,0.000000
434.138798,1998.556043,-2294.638420,842.705048
434.139120,1110.308913,-5107.421000,4749.792088
434.139442,1110.308913,-6883.915261,4979.620737
434.139764,2368.659014,-9696.697840,0.000000
434.140086,3997.112087,-11843.295072,-4443.353888
434.140408,2664.741391,-12065.356855,-4749.792088
434.140729,444.123565,-13767.830521,-2681.334243
434.141051,-1628.453072,-16728.654289,689.485948
434.141373,-2442.679609,-17616.901420,766.095498
434.141695,-3478.967927,-14730.098246,-1532.190996
434.142017,-3775.050304,-12657.521608,-995.924147
434.142339,-3182.885551,-12139.377449,2221.676944
434.142660,-3552.988522,-10658.965565,4136.915689
434.142982,-3775.050304,-8142.265362,7048.078582
434.143304,-4441.235652,-6217.729913,8197.221829
434.143626,-3552.988522,-6291.750507,6205.373534
434.143948,-3923.091493,-7698.141797,2681.334243
434.144270,-4441.235652,-7624.121203,3524.039291
434.144591,-2812.782580,-6217.729913,4979.620737
434.144913,2368.659014,-6883.915261,2451.505594
434.145235,6291.750507,-6291.750507,306.438199
434.145557,5847.626942,-3701.029710,766.095498
434.145879,3849.070898,-4589.276840,-229.828649
434.146201,2368.659014,-10955.047942,-3370.820191
434.146522,814.226536,-15988.448347,-5056.230287
434.146844,-3701.029710,-16580.613101,-5592.497135
434.147166,-8882.471304,-17246.798449,-1532.190996
434.147488,-11473.192101,-18209.066173,4136.915689
434.147810,-11843.295072,-15322.262999,4826.401637
434.148132,-10881.027347,-10510.924376,2911.162892
434.148453,-8512.368333,-9178.553681,2298.286494
434.148775,-6957.935855,-9844.739029,5056.230287
434.149097,-5477.523971,-7994.224174,8580.269578
434.149419,-3330.926739,-2368.659014,12487.356617
434.149741,592.164754,2886.803174,11338.213370
434.150063,5329.482782,814.226536,4979.620737
434.150384,9622.677246,-2590.720797,229.828649
434.150706,9030.512492,-4367.215058,0.000000
434.151028,5921.647536,-7328.038826,2681.334243
434.151350,4811.338623,-15470.304188,6435.202183
434.151672,3701.029710,-20503.704593,3753.867940
434.151994,-74.020594,-18431.127956,-2068.457845
434.152315,-3330.926739,-16062.468941,-3830.477490
434.152637,-3256.906145,-15692.365970,-306.438199
434.152959,-3034.844362,-11029.068536,766.095498
434.153281,-3256.906145,-4441.235652,153.219100
434.153603,-2220.617826,-3034.844362,2374.896044
434.153925,-1036.288319,-6735.874072,4979.620737
434.154246,-1776.494261,-7402.059420,4519.963438
434.154568,-3108.864956,-6587.832884,3447.429741
434.154890,-962.267725,-7105.977043,4519.963438
434.155212,2886.803174,-9252.574275,6281.983084
434.155534,3478.967927,-8882.471304,7814.174080
434.155856,4219.173869,-4219.173869,7354.516781
434.156177,8734.430116,-2960.823768,153.219100
434.156499,11991.336260,-6217.729913,-6588.421283
434.156821,8512.368333,-7994.224174,-4366.744339
434.157143,1776.494261,-9474.636058,383.047749
434.157465,-3330.926739,-16580.613101,-306.438199
434.157786,-5033.400406,-22354.219448,-3370.820191
434.158108,-6661.853478,-21317.931130,-7124.688131
434.158430,-7031.956449,-16654.633695,-8044.002729
434.158752,-4737.318029,-13323.706956,-3983.696590
434.159074,-2738.761985,-10807.006753,-766.095498
434.159396,-1998.556043,-7624.121203,1608.800546
434.159717,148.041188,-5181.441594,3140.991542
434.160039,1998.556043,-6587.832884,153.219100
434.160361,1628.453072,-9326.594869,-1915.238745
434.160683,962.267725,-9844.739029,3064.381992
434.161005,2294.638420,-6661.853478,4596.572988
434.161327,4737.318029,-7254.018232,306.438199
434.161648,6957.935855,-10807.006753,0.000000
434.161970,4367.215058,-10732.986159,1302.362347
434.162292,-2664.741391,-8882.471304,1378.971896
434.162614,-7994.224174,-8956.491898,1455.581446
434.162936,-9178.553681,-8512.368333,-1685.410096
434.163258,-9474.636058,-8068.244768,-8733.488677
434.163579,-10584.944971,-9400.615463,-9959.241474
434.163901,-10510.924376,-13619.789333,-3753.867940
434.164223,-8586.388927,-15988.448347,76.609550
434.164545,-4959.379811,-15174.221811,76.609550
434.164867,-2220.617826,-13619.789333,995.924147
434.165189,-1258.350101,-10955.047942,2681.334243
434.165510,1258.350101,-4959.379811,1838.629195
434.165832,4293.194464,0.000000,-459.657299
434.166154,7328.038826,888.247130,0.000000
434.166476,8364.327145,-2590.720797,4826.401637
434.166798,5921.647536,-7105.977043,8580.269578
434.167119,1480.411884,-9992.780217,8503.660028
434.167441,-518.144159,-12139.377449,6588.421283
434.167763,-2072.576638,-13249.686362,2757.943793
434.168084,-2516.700203,-11325.150913,0.000000
434.168406,-1998.556043,-8660.409521,229.828649
434.168728,-1110.308913,-7328.038826,1532.190996
434.169049,-740.205942,-8586.388927,2987.772442
434.169371,-1628.453072,-10436.903782,3370.820191
434.169693,-3849.070898,-10955.047942,1915.238745
434.170014,-4515.256246,-12509.480420,-459.657299
434.170336,-4145.153275,-13693.809927,0.000000
434.170658,-3108.864956,-11843.295072,2451.505594
434.170979,-1480.411884,-8956.491898,4519.963438
434.171301,1332.370696,-7624.121203,4596.572988
434.171623,3034.844362,-8438.347739,4443.353888
434.171944,3034.844362,-8956.491898,5362.668486
434.172266,2664.741391,-8142.265362,5822.325785
434.172588,3997.112087,-7105.977043,4673.182538
434.172909,5995.668130,-7105.977043,2911.162892
434.173231,5847.626942,-7624.121203,3447.429741
434.173553,3256.906145,-8808.450710,5056.230287
434.173874,0.000000,-10288.862594,4673.182538
434.174196,-2294.638420,-12213.398043,2681.334243
434.174518,-3552.988522,-14952.160028,-612.876398
434.174839,-4441.235652,-15544.324782,0.000000
434.175161,-3701.029710,-13471.748144,1532.190996
434.175483,-814.226536,-11325.150913,2374.896044
434.175804,1850.514855,-10288.862594,2911.162892
434.176126,2220.617826,-9770.718434,3983.696590
434.176448,-370.102971,-10510.924376,4136.915689
434.176769,-3701.029710,-9696.697840,4749.792088
434.177091,-5033.400406,-7698.141797,4213.525239
434.177413,-3108.864956,-6439.791695,1915.238745
434.177734,814.226536,-5403.503377,612.876398
434.178056,4145.153275,-3775.050304,1685.410096
434.178378,5107.421000,-4589.276840,2757.943793
434.178699,4515.256246,-8364.327145,3140.991542
434.179021,1776.494261,-11473.192101,2374.896044
434.179343,-1924.535449,-12435.459826,0.000000
434.179664,-6217.729913,-11473.192101,-3140.991542
434.179986,-7105.977043,-11029.068536,-4290.134789
434.180308,-5995.668130,-9252.574275,-5362.668486
434.180629,-4071.132681,-9030.512492,-5515.887586
434.180951,-2960.823768,-10955.047942,-3064.381992
434.181273,-2590.720797,-13989.892304,306.438199
434.181594,-3478.967927,-15248.242405,2068.457845
434.181916,-4589.276840,-13471.748144,1455.581446
434.182238,-3404.947333,-10066.800811,0.000000
434.182559,-1184.329507,-6513.812290,-1072.533697
434.182881,592.164754,-3256.906145,-1072.533697
434.183203,2368.659014,-2738.761985,842.705048
434.183524,5033.400406,-4885.359217,2451.505594
434.183846,6809.894666,-8068.244768,1762.019645
434.184168,6735.874072,-11473.192101,76.609550
434.184490,4663.297435,-11991.336260,-153.219100
434.184811,2368.659014,-10881.027347,0.000000
434.185133,-592.164754,-7179.997637,-2221.676944
434.185455,-2294.638420,-6069.688724,-6435.202183
434.185776,-4589.276840,-7402.059420,-8273.831378
434.186098,-7328.038826,-10510.924376,-7124.688131
434.186420,-9326.594869,-14285.974681,-3753.867940
434.186741,-9030.512492,-17320.819043,-1762.019645
434.187063,-7476.080014,-16358.551318,-1915.238745
434.187385,-4811.338623,-13027.624579,-2451.505594
434.187706,-2812.782580,-8586.388927,-2068.457845
434.188028,-666.185348,-5699.585753,-229.828649
434.188350,666.185348,-4515.256246,306.438199
434.188671,1924.535449,-5329.482782,1455.581446
434.188993,3627.009116,-6587.832884,3217.601092
434.189315,6069.688724,-8142.265362,3677.258390
434.189636,7994.224174,-8216.285956,2068.457845
434.189958,9474.636058,-7402.059420,612.876398
434.190280,8808.450710,-7105.977043,689.485948
434.190601,7476.080014,-7920.203579,306.438199
434.190923,4441.235652,-9770.718434,-919.314598
434.191245,74.020594,-10955.047942,-1838.629195
434.191566,-3701.029710,-13545.768739,-2145.067394
434.191888,-5107.421000,-15100.201217,-2451.505594
434.192210,-6291.750507,-14211.954086,-2987.772442
434.192531,-5773.606348,-11547.212695,-2604.724693
434.192853,-4811.338623,-9844.739029,-689.485948
434.193175,-3923.091493,-9252.574275,1225.752797
434.193496,-3701.029710,-9770.718434,1762.019645
434.193818,-3627.009116,-8882.471304,1685.410096
434.194140,-2516.700203,-7031.956449,1072.533697
434.194461,-222.061783,-5921.647536,459.657299
434.194783,1702.473667,-5181.441594,1072.533697
434.195105,2368.659014,-3849.070898,842.705048
434.195426,3256.906145,-5847.626942,1225.752797
434.195748,4071.132681,-9104.533087,0.000000
434.196070,3478.967927,-10955.047942,-995.924147
434.196391,1776.494261,-12583.501014,-1455.581446
434.196713,0.000000,-14285.974681,-995.924147
434.197035,-2442.679609,-14434.015869,-1225.752797
434.197356,-2886.803174,-13397.727550,-2068.457845
434.197678,-2664.741391,-11843.295072,-2604.724693
434.198000,-1850.514855,-10658.965565,-1915.238745
434.198321,-740.205942,-9548.656652,-1072.533697
434.198643,444.123565,-8586.388927,689.485948
434.198965,1184.329507,-7550.100608,2911.162892
434.199286,2368.659014,-6365.771101,2451.505594
434.199608,2960.823768,-5403.503377,536.266849
434.199930,2738.761985,-5033.400406,612.876398
434.200251,1332.370696,-4885.359217,2145.067394
434.200573,-296.082377,-5995.668130,1149.143247
434.200895,-666.185348,-8956.491898,-1455.581446
434.201216,-1480.411884,-9918.759623,-1838.629195
434.201538,-3330.926739,-10140.821405,-1378.971896
434.201860,-5995.668130,-11473.192101,-1762.019645
434.202181,-7031.956449,-11991.336260,-3370.820191
434.202503,-7254.018232,-10658.965565,-5669.106685
434.202825,-6513.812290,-10214.842000,-6741.640382
434.203146,-5033.400406,-12139.377449,-4136.915689
434.203468,-3552.988522,-12805.562797,-1685.410096
434.203790,-2368.659014,-11695.253884,-383.047749
434.204111,-1110.308913,-10214.842000,689.485948
434.204433,444.123565,-8142.265362,1149.143247
434.204755,2368.659014,-4663.297435,-1532.190996
434.205076,4367.215058,-3108.864956,-2911.162892
434.205398,5921.647536,-3923.091493,-1685.410096
434.205720,5773.606348,-5699.585753,766.095498
434.206041,4737.318029,-9030.512492,536.266849
434.206363,2368.659014,-12435.459826,536.266849
434.206685,-518.144159,-14730.098246,-766.095498
434.207006,-3330.926739,-14211.954086,-3677.258390
434.207328,-4515.256246,-11029.068536,-4826.401637
434.207650,-2812.782580,-9844.739029,-5592.497135
434.207972,-1110.308913,-10955.047942,-5209.449386
434.208293,0.000000,-10584.944971,-3217.601092
434.208615,666.185348,-9474.636058,-842.705048
434.208937,1554.432478,-9918.759623,-995.924147
434.209258,1628.453072,-9622.677246,-3140.991542
434.209580,888.247130,-8290.306550,-4749.792088
434.209902,444.123565,-6883.915261,-3447.429741
434.210223,1480.411884,-6883.915261,-1762.019645
434.210545,3182.885551,-7476.080014,-1455.581446
434.210867,2442.679609,-8364.327145,-1762.019645
434.211188,592.164754,-10362.883188,0.000000
434.211510,-1480.411884,-11473.192101,229.828649
434.211832,-2220.617826,-11843.295072,-1838.629195
434.212153,-2146.597232,-11177.109724,-3447.429741
434.212475,-1480.411884,-9992.780217,-2604.724693
434.212797,-1776.494261,-9252.574275,-1072.533697
434.213118,-962.267725,-8808.450710,-229.828649
434.213440,-370.102971,-9696.697840,-306.438199
434.213762,74.020594,-10214.842000,-842.705048
434.214083,148.041188,-8068.244768,-766.095498
434.214405,1702.473667,-6217.729913,-2298.286494
434.214727,2590.720797,-5107.421000,-1762.019645
434.215048,2442.679609,-6217.729913,-995.924147
434.215370,1480.411884,-7920.203579,-383.047749
434.215692,0.000000,-9770.718434,-383.047749
434.216013,-1480.411884,-11695.253884,-459.657299
434.216335,-3552.988522,-12879.583391,-383.047749
434.216657,-5033.400406,-11399.171507,-766.095498
434.216978,-4737.318029,-9474.636058,-1608.800546
434.217300,-2886.803174,-8660.409521,-1991.848295
434.217622,-1332.370696,-8290.306550,-1762.019645
434.217943,-444.123565,-7698.141797,-383.047749
434.218265,-888.247130,-7994.224174,766.095498
434.218587,-1184.329507,-8660.409521,1378.971896
434.218908,-814.226536,-8808.450710,612.876398
434.219230,0.000000,-7328.038826,-689.485948
434.219552,1850.514855,-7105.977043,-2068.457845
434.219873,2294.638420,-7994.224174,-995.924147
434.220195,1776.494261,-9252.574275,-153.219100
434.220517,1480.411884,-9844.739029,-459.657299
434.220838,814.226536,-11251.130318,-919.314598
434.221160,-148.041188,-12731.542202,-1685.410096
434.221482,-1776.494261,-12361.439231,-2374.896044
434.221803,-2294.638420,-11843.295072,-3064.381992
434.222125,-1258.350101,-11769.274478,-2451.505594
434.222447,-222.061783,-11843.295072,-1149.143247
434.222768,74.020594,-10436.903782,0.000000
434.223090,-518.144159,-9770.718434,1302.362347
434.223412,0.000000,-8660.409521,0.000000
434.223733,592.164754,-7698.141797,-2374.896044
434.224055,1036.288319,-6661.853478,-3753.867940
434.224377,1110.308913,-6957.935855,-2145.067394
434.224698,666.185348,-8660.409521,-842.705048
434.225020,-296.082377,-9918.759623,-612.876398
434.225342,-740.205942,-10362.883188,-2145.067394
434.225663,-1036.288319,-11029.068536,-3064.381992
434.225985,-2516.700203,-11843.295072,-2374.896044
434.226307,-4071.132681,-11325.150913,-1225.752797
434.226628,-3997.112087,-10214.842000,-1838.629195
434.226950,-2294.638420,-9622.677246,-2451.505594
434.227272,-296.082377,-10584.944971,-1762.019645
434.227593,444.123565,-9770.718434,-612.876398
434.227915,444.123565,-8438.347739,459.657299
434.228237,962.267725,-7698.141797,1072.533697
434.228558,2220.617826,-7105.977043,0.000000
434.228880,3478.967927,-5477.523971,-1378.971896
434.229202,3182.885551,-4663.297435,-1838.629195
434.229523,2590.720797,-5625.565159,-1302.362347
434.229845,2368.659014,-7550.100608,-1225.752797
434.230167,1924.535449,-9474.636058,-2068.457845
434.230488,740.205942,-11325.150913,-2298.286494
434.230810,-1406.391290,-13397.727550,-766.095498
434.231132,-3478.967927,-14137.933492,-612.876398
434.231453,-3849.070898,-13175.665768,-1685.410096
434.231775,-2072.576638,-10140.821405,-2987.772442
434.232097,-370.102971,-8290.306550,-2834.553343
434.232419,1332.370696,-6217.729913,-1991.848295
434.232740,1776.494261,-5699.585753,-153.219100
434.233062,1702.473667,-7105.977043,1072.533697
434.233384,962.267725,-8808.450710,0.000000
434.233705,666.185348,-8586.388927,-1378.971896
434.234027,148.041188,-8586.388927,-2528.115143
434.234349,0.000000,-9400.615463,-2451.505594
434.234670,148.041188,-9844.739029,-2604.724693
434.234992,1110.308913,-10658.965565,-3447.429741
434.235314,222.061783,-11547.212695,-2451.505594
434.235635,-2516.700203,-13027.624579,-1302.362347
434.235957,-4885.359217,-12953.603985,-1378.971896
434.236279,-5773.606348,-11917.315666,-2834.553343
434.236600,-3849.070898,-9918.759623,-4136.915689
434.236922,-1480.411884,-8956.491898,-3217.601092
434.237244,0.000000,-8364.327145,-2221.676944
434.237565,814.226536,-8142.265362,842.705048
434.237887,518.144159,-8808.450710,2451.505594
434.238209,444.123565,-8586.388927,1378.971896
434.238530,1628.453072,-6217.729913,-1225.752797
434.238852,2072.576638,-5181.441594,-3677.258390
434.239174,1924.535449,-6217.729913,-3753.867940
434.239495,1776.494261,-7994.224174,-1838.629195
434.239817,2146.597232,-9844.739029,-536.266849
434.240139,1036.288319,-11843.295072,-1455.581446
434.240460,-2294.638420,-13693.809927,-1072.533697
434.240782,-5033.400406,-14434.015869,-1762.019645
434.241104,-5847.626942,-14063.912898,-3140.991542
434.241425,-3997.112087,-11843.295072,-3983.696590
434.241747,-2368.659014,-10140.821405,-2604.724693
434.242069,-962.267725,-7031.956449,842.705048
434.242390,518.144159,-4885.359217,1915.238745
434.242712,1332.370696,-4515.256246,1378.971896
434.243034,1406.391290,-5329.482782,-1072.533697
434.243355,1332.370696,-5477.523971,-2757.943793
434.243677,888.247130,-5551.544565,-2374.896044
434.243999,1702.473667,-7994.224174,-1225.752797
434.244320,2294.638420,-9770.718434,-1302.362347
434.244642,2664.741391,-11177.109724,-1991.848295
434.244964,1480.411884,-11917.315666,-2145.067394
434.245285,-1628.453072,-13249.686362,-1685.410096
434.245607,-3627.009116,-13545.768739,-2145.067394
434.245929,-4293.194464,-12287.418637,-3064.381992
434.246250,-2294.638420,-10584.944971,-4443.353888
434.246572,-370.102971,-9474.636058,-3370.820191
434.246894,1110.308913,-8734.430116,-919.314598
434.247215,1628.453072,-8216.285956,2451.505594
434.247537,1850.514855,-7846.182985,1915.238745
434.247859,1628.453072,-7105.977043,153.219100
434.248180,2220.617826,-5995.668130,-1838.629195
434.248502,2664.741391,-5625.565159,-2681.334243
434.248824,3182.885551,-6513.812290,-2145.067394
434.249145,2960.823768,-7698.141797,-1302.362347
434.249467,3034.844362,-9918.759623,-1608.800546
434.249789,2072.576638,-12879.583391,-2145.067394
434.250110,-1110.308913,-15618.345376,-2221.676944
434.250432,-4737.318029,-15766.386565,-2221.676944
434.250754,-6365.771101,-14582.057057,-2834.553343
434.251075,-5107.421000,-13175.665768,-3753.867940
434.251397,-3923.091493,-11177.109724,-3217.601092
434.251719,-2516.700203,-7624.121203,-766.095498
434.252040,-1776.494261,-5551.544565,1378.971896
434.252362,-962.267725,-5033.400406,1991.848295
434.252684,-222.061783,-5107.421000,459.657299
434.253005,0.000000,-4811.338623,-766.095498
434.253327,444.123565,-5625.565159,-1072.533697
434.253649,814.226536,-7994.224174,-1072.533697
434.253970,888.247130,-9326.594869,-842.705048
434.254292,1480.411884,-10140.821405,-995.924147
434.254614,1258.350101,-10955.047942,-1225.752797
434.254935,-148.041188,-11621.233289,-1532.190996
434.255257,-2442.679609,-11251.130318,-1762.019645
434.255579,-3330.926739,-11621.233289,-1915.238745
434.255901,-2738.761985,-11769.274478,-1455.581446
434.256222,-1998.556043,-10510.924376,-995.924147
434.256544,-222.061783,-8216.285956,-306.438199
434.256866,592.164754,-6661.853478,1455.581446
434.257187,1406.391290,-5847.626942,2068.457845
434.257509,1628.453072,-4811.338623,0.000000
434.257831,2442.679609,-4293.194464,-2145.067394
434.258152,2294.638420,-6661.853478,-1915.238745
434.258474,1184.329507,-9474.636058,-459.657299
434.258796,0.000000,-10732.986159,0.000000
434.259117,222.061783,-11251.130318,-1225.752797
434.259439,888.247130,-11325.150913,-2604.724693
434.259761,-1406.391290,-11325.150913,-3830.477490
434.260082,-3701.029710,-10955.047942,-3524.039291
434.260404,-4293.194464,-12435.459826,-3370.820191
434.260726,-3108.864956,-13175.665768,-4213.525239
434.261047,-2368.659014,-12583.501014,-3294.210641
434.261369,-1702.473667,-11547.212695,-2451.505594
434.261691,-1258.350101,-10362.883188,-919.314598
434.262012,-666.185348,-8882.471304,-1532.190996
434.262334,-148.041188,-7105.977043,-2298.286494
434.262656,814.226536,-5255.462188,-2834.553343
434.262977,1702.473667,-5551.544565,-3524.039291
434.263299,1554.432478,-8216.285956,-2834.553343
434.263621,444.123565,-9918.759623,-1378.971896
434.263942,-148.041188,-11177.109724,-766.095498
434.264264,-148.041188,-12509.480420,-2145.067394
434.264586,-962.267725,-14434.015869,-3217.601092
434.264907,-2590.720797,-13175.665768,-2987.772442
434.265229,-3182.885551,-11473.192101,-2681.334243
434.265551,-1480.411884,-10584.944971,-2145.067394
434.265872,962.267725,-10066.800811,-1608.800546
434.266194,2294.638420,-7698.141797,-1225.752797
434.266516,2516.700203,-5921.647536,-612.876398
434.266837,2812.782580,-6587.832884,459.657299
434.267159,2442.679609,-6957.935855,0.000000
434.267481,1702.473667,-5847.626942,-1149.143247
434.267803,814.226536,-5921.647536,-1149.143247
434.268124,592.164754,-6883.915261,-1532.190996
434.268446,0.000000,-7254.018232,-1991.848295
434.268768,-592.164754,-8734.430116,-2374.896044
434.269089,-1406.391290,-10066.800811,-1685.410096
434.269411,-3108.864956,-11103.089130,-1225.752797
434.269733,-4293.194464,-11917.315666,-1072.533697
434.270055,-4811.338623,-12213.398043,-1608.800546
434.270376,-3997.112087,-10288.862594,-2757.943793
434.270698,-2368.659014,-9696.697840,-3217.601092
434.271020,-666.185348,-9474.636058,-1072.533697
434.271341,444.123565,-8734.430116,1838.629195
434.271663,1258.350101,-8216.285956,1762.019645
434.271985,1850.514855,-7476.080014,-383.047749
434.272307,2738.761985,-6217.729913,-1302.362347
434.272628,3775.050304,-5847.626942,-1762.019645
434.272950,4293.194464,-6957.935855,-1991.848295
434.273272,3701.029710,-8290.306550,-1608.800546
434.273593,2960.823768,-11177.109724,-1225.752797
434.273915,740.205942,-13101.645173,76.609550
434.274237,-2368.659014,-14285.974681,-536.266849
434.274558,-5033.400406,-13767.830521,-2681.334243
434.274880,-5921.647536,-12657.521608,-3447.429741
434.275202,-4737.318029,-11029.068536,-3524.039291
434.275524,-3775.050304,-9770.718434,-3140.991542
434.275845,-2294.638420,-9030.512492,-995.924147
434.276167,-1628.453072,-9548.656652,995.924147
434.276489,-2146.597232,-9104.533087,612.876398
434.276810,-2294.638420,-7328.038826,-1149.143247
434.277132,-1036.288319,-6883.915261,-2451.505594
434.277454,74.020594,-8068.244768,-2681.334243
434.277776,296.082377,-8290.306550,-1915.238745
434.278097,740.205942,-7328.038826,-766.095498
434.278419,2590.720797,-8586.388927,-689.485948
434.278741,2812.782580,-11917.315666,-2528.115143
434.279062,-740.205942,-13397.727550,-1608.800546
434.279384,-3701.029710,-12361.439231,-306.438199
434.279706,-3627.009116,-11029.068536,-1072.533697
434.280028,-666.185348,-9696.697840,-2987.772442
434.280349,1332.370696,-8438.347739,-3140.991542
434.280671,1628.453072,-6439.791695,-919.314598
434.280993,1036.288319,-6735.874072,1838.629195
434.281314,888.247130,-8512.368333,2681.334243
434.281636,444.123565,-8290.306550,842.705048
434.281958,0.000000,-5921.647536,-612.876398
434.282280,-148.041188,-4885.359217,-1378.971896
434.282601,666.185348,-5699.585753,-1991.848295
434.282923,1776.494261,-6291.750507,-2528.115143
434.283245,2072.576638,-7994.224174,-1991.848295
434.283566,148.041188,-10436.903782,-1838.629195
434.283888,-1924.535449,-13101.645173,-2145.067394
434.284210,-4515.256246,-13767.830521,-3140.991542
434.284532,-5403.503377,-13767.830521,-3830.477490
434.284853,-3849.070898,-11695.253884,-4596.572988
434.285175,-1628.453072,-9474.636058,-4979.620737
434.285497,296.082377,-8438.347739,-3447.429741
434.285818,888.247130,-9474.636058,-306.438199
434.286140,148.041188,-9474.636058,1302.362347
434.286462,0.000000,-8808.450710,0.000000
434.286784,444.123565,-7698.141797,-2298.286494
434.287105,1184.329507,-7476.080014,-3140.991542
434.287427,740.205942,-7846.182985,-2987.772442
434.287749,962.267725,-7328.038826,-1991.848295
434.288070,814.226536,-8438.347739,-612.876398
434.288392,296.082377,-10732.986159,-383.047749
434.288714,-1480.411884,-13027.624579,-2528.115143
434.289036,-3701.029710,-13693.809927,-3677.258390
434.289357,-4959.379811,-13915.871710,-2451.505594
434.289679,-3256.906145,-13397.727550,-2145.067394
434.290001,-518.144159,-11621.233289,-2528.115143
434.290322,1258.350101,-8216.285956,-1838.629195
434.290644,1406.391290,-7031.956449,383.047749
434.290966,1332.370696,-7179.997637,612.876398
434.291287,1036.288319,-7328.038826,-612.876398
434.291609,370.102971,-7105.977043,-1991.848295
434.291931,0.000000,-7772.162391,-1302.362347
434.292253,-74.020594,-8290.306550,76.609550
434.292574,0.000000,-6513.812290,383.047749
434.292896,296.082377,-6957.935855,-612.876398
434.293218,-518.144159,-8734.430116,-1762.019645
434.293539,-2812.782580,-9696.697840,-2681.334243
434.293861,-4589.276840,-10658.965565,-2451.505594
434.294183,-4219.173869,-11917.315666,-1455.581446
434.294505,-3478.967927,-12583.501014,-1685.410096
434.294826,-2220.617826,-11325.150913,-1915.238745
434.295148,-370.102971,-9030.512492,-689.485948
434.295470,1110.308913,-8142.265362,76.609550
434.295791,1554.432478,-7846.182985,459.657299
434.296113,1924.535449,-6587.832884,-306.438199
434.296435,2442.679609,-5551.544565,0.000000
434.296757,3478.967927,-5181.441594,-459.657299
434.297078,4441.235652,-6291.750507,-995.924147
434.297400,3627.009116,-7994.224174,-1072.533697
434.297722,2368.659014,-9770.718434,-1225.752797
434.298043,592.164754,-11399.171507,-919.314598
434.298365,-1628.453072,-13693.809927,-1225.752797
434.298687,-3701.029710,-13841.851115,-1915.238745
434.299009,-5033.400406,-12509.480420,-2528.115143
434.299330,-4293.194464,-11621.233289,-3064.381992
434.299652,-2442.679609,-10510.924376,-3830.477490
434.299974,-1036.288319,-9030.512492,-2298.286494
434.300295,-962.267725,-8512.368333,-995.924147
434.300617,-1332.370696,-9252.574275,0.000000
434.300939,-1406.391290,-9548.656652,-1838.629195
434.301261,-1332.370696,-8364.327145,-3140.991542
434.301582,-1332.370696,-8512.368333,-2528.115143
434.301904,-888.247130,-8438.347739,-1991.848295
434.302226,370.102971,-8438.347739,-2604.724693
434.302547,962.267725,-9252.574275,-2451.505594
434.302869,592.164754,-9992.780217,-1378.971896
434.303191,-888.247130,-11621.233289,-1685.410096
434.303513,-2294.638420,-10881.027347,-2834.553343
434.303834,-2146.597232,-11621.233289,-3140.991542
434.304156,-1480.411884,-11769.274478,-3370.820191
434.304478,-444.123565,-10288.862594,-2451.505594
434.304799,888.247130,-8660.409521,-383.047749
434.305121,2590.720797,-8808.450710,306.438199
434.305443,2368.659014,-8512.368333,306.438199
434.305765,1776.494261,-7031.956449,306.438199
434.306086,1554.432478,-4811.338623,-306.438199
434.306408,2442.679609,-4515.256246,-1532.190996
434.306730,2294.638420,-6735.874072,-1838.629195
434.307051,814.226536,-8068.244768,-1225.752797
434.307373,-1110.308913,-9326.594869,229.828649
434.307695,-1776.494261,-10807.006753,0.000000
434.308017,-2664.741391,-12435.459826,-1915.238745
434.308338,-3923.091493,-11473.192101,-2834.553343
434.308660,-4737.318029,-10140.821405,-2987.772442
434.308982,-3478.967927,-9622.677246,-3600.648841
434.309303,-1258.350101,-9178.553681,-3753.867940
434.309625,-370.102971,-8290.306550,-2451.505594
434.309947,-1036.288319,-8142.265362,-306.438199
434.310268,-1480.411884,-9474.636058,459.657299
434.310590,-1628.453072,-9030.512492,-1685.410096
434.310912,-1036.288319,-8734.430116,-3217.601092
434.311234,74.020594,-8586.388927,-1762.019645
434.311555,1036.288319,-8956.491898,0.000000
434.311877,962.267725,-8142.265362,-612.876398
434.312199,222.061783,-8660.409521,-612.876398
434.312520,0.000000,-9474.636058,-383.047749
434.312842,-962.267725,-10362.883188,-2451.505594
434.313164,-1850.514855,-10658.965565,-4060.306139
434.313486,-2368.659014,-11251.130318,-2987.772442
434.313807,-1332.370696,-12583.501014,-766.095498
434.314129,740.205942,-12731.542202,-306.438199
434.314451,2368.659014,-11029.068536,-1225.752797
434.314772,2738.761985,-9400.615463,-1608.800546
434.315094,2294.638420,-8956.491898,-1072.533697
434.315416,1702.473667,-7772.162391,-995.924147
434.315738,1998.556043,-7179.997637,-1532.190996
434.316059,2146.597232,-7772.162391,-1915.238745
434.316381,592.164754,-9178.553681,-1455.581446
434.316703,-888.247130,-9326.594869,229.828649
434.317024,-1036.288319,-10066.800811,0.000000
434.317346,-1924.535449,-10955.047942,-995.924147
434.317668,-3330.926739,-10732.986159,-2451.505594
434.317990,-3997.112087,-9104.533087,-1991.848295
434.318311,-3478.967927,-8290.306550,-1762.019645
434.318633,-2664.741391,-8512.368333,-2221.676944
434.318955,-2146.597232,-9696.697840,-2757.943793
434.319276,-2146.597232,-9992.780217,-2068.457845
434.319598,-1554.432478,-10436.903782,-995.924147
434.319920,-1110.308913,-10658.965565,-1149.143247
434.320242,-296.082377,-8882.471304,-1378.971896
434.320563,666.185348,-7328.038826,-1455.581446
434.320885,1776.494261,-6143.709319,-1838.629195
434.321207,1924.535449,-6217.729913,-1608.800546
434.321528,2146.597232,-6365.771101,-1532.190996
434.321850,1628.453072,-8142.265362,-1149.143247
434.322172,222.061783,-10510.924376,-689.485948
434.322494,-1998.556043,-11473.192101,-153.219100
434.322815,-2738.761985,-10807.006753,-459.657299
434.323137,-2294.638420,-10066.800811,-1608.800546
434.323459,-888.247130,-9178.553681,-2757.943793
434.323780,740.205942,-9252.574275,-2834.553343
434.324102,1406.391290,-8882.471304,-1225.752797
434.324424,1406.391290,-9622.677246,229.828649
434.324746,1554.432478,-9622.677246,536.266849
434.325067,1702.473667,-8586.388927,-1072.533697
434.325389,2294.638420,-7476.080014,-2374.896044
434.325711,1480.411884,-7328.038826,-3140.991542
434.326032,518.144159,-8956.491898,-2757.943793
434.326354,-666.185348,-10288.862594,-2068.457845
434.326676,-1850.514855,-12287.418637,-1685.410096
434.326997,-3478.967927,-12953.603985,-1915.238745
434.327319,-4219.173869,-12879.583391,-1915.238745
434.327641,-4589.276840,-10066.800811,-2451.505594
434.327963,-3330.926739,-7476.080014,-3753.867940
434.328284,-1480.411884,-7476.080014,-3907.087040
434.328606,-444.123565,-8660.409521,-2911.162892
434.328928,-888.247130,-9918.759623,-459.657299
434.329249,-1184.329507,-11399.171507,459.657299
434.329571,-740.205942,-12139.377449,689.485948
434.329893,444.123565,-9918.759623,-842.705048
434.330215,1924.535449,-7550.100608,-2221.676944
434.330536,3701.029710,-5773.606348,-2451.505594
434.330858,4811.338623,-6143.709319,-2604.724693
434.331180,4367.215058,-7920.203579,-536.266849
434.331501,2368.659014,-9992.780217,766.095498
434.331823,-370.102971,-11473.192101,459.657299
434.332145,-2886.803174,-11769.274478,-459.657299
434.332467,-3256.906145,-10214.842000,-995.924147
434.332788,-2220.617826,-8068.244768,-2834.553343
434.333110,-518.144159,-7550.100608,-3140.991542
434.333432,0.000000,-8290.306550,-766.095498
434.333753,-296.082377,-8956.491898,2374.896044
434.334075,-740.205942,-8660.409521,2374.896044
434.334397,-814.226536,-8290.306550,-153.219100
434.334719,-370.102971,-7698.141797,-2604.724693
434.335040,0.000000,-6883.915261,-3447.429741
434.335362,222.061783,-6587.832884,-2681.334243
434.335684,74.020594,-8586.388927,-383.047749
434.336005,-666.185348,-9622.677246,-306.438199
434.336327,-2072.576638,-11547.212695,-842.705048
434.336649,-3997.112087,-13693.809927,-2068.457845
434.336971,-6069.688724,-14285.974681,-2528.115143
434.337292,-6439.791695,-11399.171507,-3217.601092
434.337614,-4441.235652,-8660.409521,-3370.820191
434.337936,-1702.473667,-8438.347739,-2528.115143
434.338257,74.020594,-7698.141797,-1608.800546
434.338579,592.164754,-7179.997637,-1455.581446
434.338901,1184.329507,-9030.512492,-1762.019645
434.339223,1776.494261,-11473.192101,-1378.971896
434.339544,1110.308913,-11325.150913,-1455.581446
434.339866,1480.411884,-10288.862594,-1608.800546
434.340188,2812.782580,-8956.491898,-1991.848295
434.340509,4663.297435,-8364.327145,-2528.115143
434.340831,5181.441594,-7254.018232,-3677.258390
434.341153,3256.906145,-8882.471304,-3447.429741
434.341475,74.020594,-11695.253884,-1072.533697
434.341796,-2664.741391,-14063.912898,-689.485948
434.342118,-3923.091493,-13693.809927,-1838.629195
434.342440,-4145.153275,-11621.233289,-2374.896044
434.342761,-2442.679609,-9548.656652,-2068.457845
434.343083,0.000000,-7402.059420,-1378.971896
434.343405,814.226536,-5033.400406,-612.876398
434.343726,1184.329507,-5107.421000,536.266849
434.344048,1332.370696,-7031.956449,919.314598
434.344370,296.082377,-8068.244768,-995.924147
434.344692,-814.226536,-7772.162391,-1378.971896
434.345013,-888.247130,-7624.121203,-2221.676944
434.345335,370.102971,-8364.327145,-2911.162892
434.345657,1332.370696,-7994.224174,-3140.991542
434.345978,222.061783,-9992.780217,-1608.800546
434.346300,-1924.535449,-12657.521608,76.609550
434.346622,-4885.359217,-13767.830521,229.828649
434.346944,-5625.565159,-12287.418637,-1149.143247
434.347265,-4367.215058,-9474.636058,-2757.943793
434.347587,-2516.700203,-7920.203579,-2757.943793
434.347909,-888.247130,-5699.585753,-1762.019645
434.348230,222.061783,-5033.400406,612.876398
434.348552,1850.514855,-6291.750507,1302.362347
434.348874,1702.473667,-9326.594869,459.657299
434.349196,370.102971,-10288.862594,-306.438199
434.349517,-222.061783,-9622.677246,-76.609550
434.349839,1702.473667,-7698.141797,-1685.410096
434.350161,4885.359217,-7994.224174,-3217.601092
434.350482,6587.832884,-7476.080014,-3370.820191
434.350804,4959.379811,-9992.780217,-1532.190996
434.351126,1332.370696,-13323.706956,229.828649
434.351448,-2146.597232,-15100.201217,306.438199
434.351769,-3701.029710,-14804.118840,-766.095498
434.352091,-3034.844362,-12213.398043,-3677.258390
434.352413,-1258.350101,-10066.800811,-4519.963438
434.352734,370.102971,-7994.224174,-2451.505594
434.353056,1036.288319,-6883.915261,536.266849
434.353378,1332.370696,-7179.997637,1762.019645
434.353700,-148.041188,-8586.388927,612.876398
434.354021,-1776.494261,-8216.285956,-1838.629195
434.354343,-2738.761985,-7624.121203,-3677.258390
434.354665,-1628.453072,-7920.203579,-4366.744339
434.354986,0.000000,-9474.636058,-4213.525239
434.355308,1036.288319,-9918.759623,-2987.772442
434.355630,-148.041188,-11547.212695,-766.095498
434.355952,-2220.617826,-14137.933492,153.219100
434.356273,-4293.194464,-15766.386565,-1072.533697
434.356595,-5181.441594,-12879.583391,-3600.648841
434.356917,-4367.215058,-8956.491898,-4979.620737
434.357238,-1480.411884,-7772.162391,-3447.429741
434.357560,1480.411884,-6365.771101,-1072.533697
434.357882,2220.617826,-5181.441594,1072.533697
434.358204,1480.411884,-6365.771101,2145.067394
434.358525,444.123565,-8808.450710,1685.410096
434.358847,0.000000,-8808.450710,-919.314598
434.359169,222.061783,-8068.244768,-2451.505594
434.359490,1332.370696,-6957.935855,-2451.505594
434.359812,3182.885551,-7105.977043,-995.924147
434.360134,4589.276840,-6809.894666,-153.219100
434.360455,2738.761985,-9030.512492,0.000000
434.360777,-592.164754,-11843.295072,-1302.362347
434.361099,-4737.318029,-13397.727550,-1378.971896
434.361421,-5847.626942,-14063.912898,-1915.238745
434.361742,-4737.318029,-11769.274478,-2911.162892
434.362064,-2294.638420,-9844.739029,-2757.943793
434.362386,0.000000,-7846.182985,-689.485948
434.362707,814.226536,-6217.729913,1838.629195
434.363029,962.267725,-5625.565159,1225.752797
434.363351,74.020594,-7476.080014,-612.876398
434.363673,296.082377,-8512.368333,-2374.896044
434.363994,-592.164754,-7402.059420,-2298.286494
434.364316,444.123565,-7031.956449,-2221.676944
434.364638,2442.679609,-8438.347739,-1915.238745
434.364959,3775.050304,-9326.594869,-2221.676944
434.365281,2442.679609,-10658.965565,-1915.238745
434.365603,0.000000,-13989.892304,-1378.971896
434.365925,-2664.741391,-16358.551318,-383.047749
434.366246,-3923.091493,-14656.077652,-1762.019645
434.366568,-3034.844362,-10807.006753,-2451.505594
434.366890,-740.205942,-8808.450710,-1838.629195
434.367212,1258.350101,-5847.626942,-459.657299
434.367533,1924.535449,-3849.070898,612.876398
434.367855,2368.659014,-5403.503377,1072.533697
434.368177,1184.329507,-7994.224174,766.095498
434.368499,-222.061783,-9104.533087,-766.095498
434.368820,-888.247130,-9474.636058,-689.485948
434.369142,-444.123565,-9178.553681,-995.924147
434.369464,962.267725,-7994.224174,-2604.724693
434.369786,2590.720797,-7698.141797,-4213.525239
434.370107,1776.494261,-9474.636058,-3217.601092
434.370429,-1332.370696,-11843.295072,-2451.505594
434.370751,-5033.400406,-14285.974681,-1915.238745
434.371072,-5551.544565,-15322.262999,-2298.286494
434.371394,-4885.359217,-14063.912898,-3370.820191
434.371716,-3034.844362,-11843.295072,-3907.087040
434.372038,-962.267725,-9178.553681,-2374.896044
434.372359,74.020594,-7105.977043,842.705048
434.372681,1776.494261,-5921.647536,1149.143247
434.373003,2220.617826,-6143.709319,842.705048
434.373325,2368.659014,-5921.647536,-842.705048
434.373646,1110.308913,-6365.771101,-1302.362347
434.373968,518.144159,-7105.977043,-229.828649
434.374290,1850.514855,-7328.038826,-842.705048
434.374612,2960.823768,-8808.450710,-3524.039291
434.374933,2368.659014,-10955.047942,-3217.601092
434.375255,-1924.535449,-11769.274478,-536.266849
434.375577,-5551.544565,-13175.665768,612.876398
434.375899,-6143.709319,-13767.830521,-1762.019645
434.376220,-4219.173869,-11621.233289,-5439.278036
434.376542,-2664.741391,-9178.553681,-6052.154434
434.376864,-1036.288319,-6809.894666,-2757.943793
434.377186,-370.102971,-6809.894666,766.095498
434.377507,0.000000,-7994.224174,1838.629195
434.377829,-370.102971,-8734.430116,1072.533697
434.378151,-814.226536,-6439.791695,-2145.067394
434.378473,222.061783,-5625.565159,-3753.867940
434.378794,1554.432478,-6809.894666,-3830.477490
434.379116,1850.514855,-8660.409521,-2145.067394
434.379438,2664.741391,-8660.409521,-536.266849
434.379760,4219.173869,-10881.027347,-459.657299
434.380081,3330.926739,-13471.748144,-1608.800546
434.380403,-296.082377,-14137.933492,-2221.676944
434.380725,-3701.029710,-13397.727550,-2068.457845
434.381046,-2516.700203,-11991.336260,-1455.581446
434.381368,222.061783,-11177.109724,-2451.505594
434.381690,2220.617826,-9400.615463,-1991.848295
434.382012,1776.494261,-7328.038826,1149.143247
434.382333,1480.411884,-6587.832884,3907.087040
434.382655,1702.473667,-6143.709319,1532.190996
434.382977,2072.576638,-4737.318029,-3370.820191
434.383299,1184.329507,-4737.318029,-3983.696590
434.383620,-222.061783,-6661.853478,-2145.067394
434.383942,-1924.535449,-9622.677246,-995.924147
434.384264,-2516.700203,-12879.583391,-1302.362347
434.384586,-2960.823768,-14285.974681,-2451.505594
434.384907,-5033.400406,-14211.954086,-3064.381992
434.385229,-6365.771101,-13323.706956,-2834.553343
434.385551,-5625.565159,-12509.480420,-2757.943793
434.385873,-3775.050304,-10436.903782,-4366.744339
434.386194,-2294.638420,-8808.450710,-3294.210641
434.386516,-666.185348,-8586.388927,0.000000
434.386838,148.041188,-9178.553681,2451.505594
434.387160,962.267725,-7846.182985,1685.410096
434.387481,962.267725,-7254.018232,306.438199
434.387803,2812.782580,-5847.626942,153.219100
434.388125,5255.462188,-5181.441594,-689.485948
434.388447,6291.750507,-4885.359217,-842.705048
434.388768,5773.606348,-7550.100608,1149.143247
434.389090,4663.297435,-9918.759623,1608.800546
434.389412,2960.823768,-11843.295072,-612.876398
434.389734,888.247130,-13027.624579,-1608.800546
434.390055,-2146.597232,-13175.665768,-689.485948
434.390377,-3775.050304,-12435.459826,-1991.848295
434.390699,-3552.988522,-10955.047942,-2298.286494
434.391021,-2220.617826,-9918.759623,-1762.019645
434.391342,-1924.535449,-8068.244768,-1149.143247
434.391664,-2442.679609,-7105.977043,612.876398
434.391986,-3108.864956,-7624.121203,1225.752797
434.392307,-3627.009116,-7624.121203,-229.828649
434.392629,-2516.700203,-6217.729913,-2757.943793
434.392951,-1702.473667,-5699.585753,-2681.334243
434.393273,-1110.308913,-6513.812290,-459.657299
434.393594,-444.123565,-8142.265362,0.000000
434.393916,592.164754,-9548.656652,-2374.896044
434.394238,1258.350101,-11251.130318,-3217.601092
434.394560,370.102971,-12435.459826,-2374.896044
434.394881,-1776.494261,-13915.871710,-1225.752797
434.395203,-3182.885551,-13397.727550,-1072.533697
434.395525,-2590.720797,-12361.439231,-1838.629195
434.395847,-1332.370696,-11251.130318,-2451.505594
434.396168,74.020594,-9918.759623,-2221.676944
434.396490,518.144159,-8660.409521,-612.876398
434.396812,740.205942,-8068.244768,995.924147
434.397134,1258.350101,-7994.224174,766.095498
434.397455,1480.411884,-6809.894666,-383.047749
434.397777,1924.535449,-6069.688724,-2068.457845
434.398099,1258.350101,-6661.853478,-2451.505594
434.398421,814.226536,-9030.512492,-2221.676944
434.398742,74.020594,-8882.471304,-2987.772442
434.399064,740.205942,-9992.780217,-3524.039291
434.399386,-296.082377,-12287.418637,-2374.896044
434.399708,-2516.700203,-13619.789333,-1608.800546
434.400029,-3849.070898,-13545.768739,-2451.505594
434.400351,-3701.029710,-12213.398043,-2987.772442
434.400673,-2368.659014,-10584.944971,-3830.477490
434.400995,-962.267725,-8512.368333,-2681.334243
434.401316,592.164754,-6883.915261,-995.924147
434.401638,1776.494261,-6809.894666,229.828649
434.401960,1480.411884,-8364.327145,1072.533697
434.402282,888.247130,-7254.018232,153.219100
434.402603,1184.329507,-6513.812290,153.219100
434.402925,1924.535449,-6291.750507,-766.095498
434.403247,1998.556043,-6661.853478,-2451.505594
434.403568,1850.514855,-5921.647536,-2528.115143
434.403890,2146.597232,-7920.203579,-2604.724693
434.404212,1332.370696,-12287.418637,-1608.800546
434.404534,-1924.535449,-14952.160028,-1838.629195
434.404855,-4737.318029,-15396.283594,-1225.752797
434.405177,-5181.441594,-13397.727550,-1608.800546
434.405499,-2960.823768,-10955.047942,-3524.039291
434.405821,-296.082377,-7846.182985,-5209.449386
434.406142,592.164754,-6069.688724,-2604.724693
434.406464,666.185348,-6069.688724,1532.190996
434.406786,-444.123565,-6957.935855,2681.334243
434.407108,-444.123565,-6735.874072,229.828649
434.407429,0.000000,-7254.018232,-2451.505594
434.407751,-370.102971,-8142.265362,-3217.601092
434.408073,0.000000,-8956.491898,-2298.286494
434.408395,888.247130,-8808.450710,-1302.362347
434.408716,2294.638420,-9844.739029,-766.095498
434.409038,1480.411884,-11843.295072,-1455.581446
434.409360,-1036.288319,-13249.686362,-2451.505594
434.409682,-3108.864956,-14582.057057,-3064.381992
434.410003,-3849.070898,-14211.954086,-3370.820191
434.410325,-2220.617826,-12657.521608,-2834.553343
434.410647,888.247130,-10140.821405,-1455.581446
434.410969,2960.823768,-7328.038826,0.000000
434.411290,2886.803174,-6513.812290,612.876398
434.411612,1480.411884,-7328.038826,1149.143247
434.411934,592.164754,-7105.977043,0.000000
434.412256,592.164754,-7105.977043,-1915.238745
434.412577,518.144159,-8364.327145,-1685.410096
434.412899,-148.041188,-8882.471304,-383.047749
434.413221,74.020594,-7846.182985,-153.219100
434.413543,1258.350101,-8512.368333,-1302.362347
434.413864,444.123565,-10955.047942,-2068.457845
434.414186,-2516.700203,-11843.295072,-2451.505594
434.414508,-5033.400406,-12287.418637,-1838.629195
434.414829,-5329.482782,-12805.562797,-1455.581446
434.415151,-3775.050304,-12657.521608,-1762.019645
434.415473,-1702.473667,-9622.677246,-2298.286494
434.415795,0.000000,-7179.997637,-1378.971896
434.416116,740.205942,-5921.647536,1608.800546
434.416438,444.123565,-6809.894666,919.314598
434.416760,0.000000,-6217.729913,-153.219100
434.417082,370.102971,-6143.709319,-919.314598
434.417403,814.226536,-7031.956449,-766.095498
434.417725,962.267725,-7920.203579,-1455.581446
434.418047,370.102971,-7550.100608,-1685.410096
434.418369,1110.308913,-8808.450710,-1685.410096
434.418690,296.082377,-10658.965565,-1991.848295
434.419012,-2146.597232,-11843.295072,-2528.115143
434.419334,-4811.338623,-13545.768739,-1838.629195
434.419656,-5107.421000,-13693.809927,-1378.971896
434.419977,-3404.947333,-12509.480420,-2298.286494
434.420299,-370.102971,-9992.780217,-2451.505594
434.420621,1702.473667,-7846.182985,-1455.581446
434.420943,2220.617826,-6587.832884,1532.190996
434.421264,1110.308913,-5921.647536,1915.238745
434.421586,1406.391290,-6291.750507,-153.219100
434.421908,1998.556043,-6735.874072,-2221.676944
434.422230,1554.432478,-8512.368333,-2298.286494
434.422551,74.020594,-9622.677246,-1225.752797
434.422873,0.000000,-9178.553681,76.609550
434.423195,1480.411884,-9770.718434,-1532.190996
434.423517,1480.411884,-11473.192101,-3140.991542
434.423838,-592.164754,-11769.274478,-3447.429741
434.424160,-3330.926739,-11917.315666,-2834.553343
434.424482,-3775.050304,-13249.686362,-2451.505594
434.424804,-2516.700203,-13175.665768,-2298.286494
434.425125,-740.205942,-10584.944971,-3064.381992
434.425447,740.205942,-7698.141797,-2451.505594
434.425769,1554.432478,-7105.977043,-612.876398
434.426090,1184.329507,-7624.121203,842.705048
434.426412,1110.308913,-6809.894666,383.047749
434.426734,1184.329507,-6513.812290,-306.438199
434.427056,1332.370696,-7476.080014,-842.705048
434.427377,1184.329507,-8438.347739,-995.924147
434.427699,666.185348,-8364.327145,-1149.143247
434.428021,592.164754,-8364.327145,-842.705048
434.428343,148.041188,-10066.800811,-1072.533697
434.428664,-1332.370696,-10807.006753,-2298.286494
434.428986,-2960.823768,-11621.233289,-2221.676944
434.429308,-3627.009116,-12435.459826,-1532.190996
434.429630,-2886.803174,-12435.459826,-1532.190996
434.429951,-222.061783,-9030.512492,-2145.067394
434.430273,962.267725,-7698.141797,-2451.505594
434.430595,1480.411884,-7179.997637,-383.047749
434.430917,1036.288319,-6957.935855,0.000000
434.431238,296.082377,-6365.771101,-1991.848295
434.431560,0.000000,-7476.080014,-2604.724693
434.431882,0.000000,-10066.800811,-1455.581446
434.432204,-814.226536,-9918.759623,-1302.362347
434.432525,-962.267725,-9326.594869,-1991.848295
434.432847,-666.185348,-9474.636058,-919.314598
434.433169,-1332.370696,-10362.883188,-995.924147
434.433491,-3404.947333,-9992.780217,-2451.505594
434.433812,-4367.215058,-10584.944971,-3140.991542
434.434134,-4219.173869,-11399.171507,-2757.943793
434.434456,-3256.906145,-12065.356855,-2681.334243
434.434778,-1406.391290,-10214.842000,-2145.067394
434.435099,740.205942,-9104.533087,-1149.143247
434.435421,2294.638420,-9104.533087,-1608.800546
434.435743,1924.535449,-8734.430116,-1915.238745
434.436064,1702.473667,-7476.080014,-2145.067394
434.436386,2072.576638,-8068.244768,-2451.505594
434.436708,2220.617826,-9030.512492,-2221.676944
434.437030,1554.432478,-9622.677246,-2068.457845
434.437351,814.226536,-8808.450710,-1225.752797
434.437673,1554.432478,-9474.636058,-1072.533697
434.437995,666.185348,-11399.171507,-1838.629195
434.438317,-1628.453072,-11029.068536,-1455.581446
434.438638,-2442.679609,-10955.047942,-995.924147
434.438960,-2294.638420,-10510.924376,-766.095498
434.439282,-1628.453072,-10732.986159,-1302.362347
434.439604,-962.267725,-8956.491898,-1302.362347
434.439925,-740.205942,-7328.038826,-383.047749
434.440247,-148.041188,-6883.915261,919.314598
434.440569,518.144159,-7328.038826,-306.438199
434.440891,592.164754,-7105.977043,-1608.800546
434.441212,148.041188,-7476.080014,-1608.800546
434.441534,222.061783,-8734.430116,-459.657299
434.441856,222.061783,-9030.512492,-306.438199
434.442178,296.082377,-8660.409521,-2068.457845
434.442499,0.000000,-9178.553681,-2221.676944
434.442821,-1924.535449,-10288.862594,-1302.362347
434.443143,-3404.947333,-9622.677246,-1302.362347
434.443465,-3997.112087,-9622.677246,-2451.505594
434.443786,-3108.864956,-9844.739029,-2757.943793
434.444108,-2664.741391,-10881.027347,-1838.629195
434.444430,-1406.391290,-10140.821405,0.000000
434.444752,-222.061783,-9548.656652,612.876398
434.445073,962.267725,-8956.491898,612.876398
434.445395,1480.411884,-8364.327145,76.609550
434.445717,2590.720797,-7031.956449,-1072.533697
434.446039,2812.782580,-6291.750507,-1532.190996
434.446360,3182.885551,-7624.121203,-1302.362347
434.446682,2886.803174,-9252.574275,-1455.581446
434.447004,2516.700203,-10658.965565,-1608.800546
434.447325,1702.473667,-12435.459826,-1762.019645
434.447647,-518.144159,-14211.954086,-766.095498
434.447969,-2516.700203,-13471.748144,-766.095498
434.448291,-3108.864956,-11473.192101,-2298.286494
434.448612,-2146.597232,-9474.636058,-3447.429741
434.448934,-1110.308913,-9474.636058,-2528.115143
434.449256,-888.247130,-8216.285956,-1072.533697
434.449578,-148.041188,-7698.141797,0.000000
434.449899,148.041188,-8216.285956,459.657299
434.450221,-296.082377,-8956.491898,-459.657299
434.450543,-888.247130,-7476.080014,-1915.238745
434.450865,-1184.329507,-7476.080014,-1378.971896
434.451186,-888.247130,-8512.368333,-1608.800546
434.451508,-1258.350101,-10140.821405,-1762.019645
434.451830,-1776.494261,-10436.903782,-1838.629195
434.452152,-2368.659014,-10436.903782,-1225.752797
434.452473,-2812.782580,-10881.027347,-2221.676944
434.452795,-3478.967927,-10436.903782,-3447.429741
434.453117,-3182.885551,-9400.615463,-4443.353888
434.453439,-1702.473667,-9104.533087,-3753.867940
434.453760,-962.267725,-10510.924376,-2298.286494
434.454082,148.041188,-10584.944971,-1302.362347
434.454404,740.205942,-9474.636058,0.000000
434.454726,1702.473667,-9474.636058,-306.438199
434.455047,2294.638420,-8290.306550,-995.924147
434.455369,2886.803174,-5699.585753,-2068.457845
434.455691,3997.112087,-4219.173869,-2298.286494
434.456013,4737.318029,-5995.668130,-1685.410096
434.456334,3478.967927,-8808.450710,-919.314598
434.456656,1554.432478,-10955.047942,-306.438199
434.456978,-1110.308913,-12583.501014,0.000000
434.457300,-3701.029710,-14434.015869,-383.047749
434.457621,-4145.153275,-12953.603985,-1838.629195
434.457943,-3552.988522,-9548.656652,-2987.772442
434.458265,-1628.453072,-7402.059420,-2757.943793
434.458586,-222.061783,-7402.059420,-1685.410096
434.458908,592.164754,-6809.894666,0.000000
434.459230,518.144159,-7920.203579,1149.143247
434.459552,-962.267725,-9252.574275,536.266849
434.459873,-1850.514855,-9548.656652,-1225.752797
434.460195,-1924.535449,-7772.162391,-2911.162892
434.460517,-1110.308913,-6661.853478,-2374.896044
434.460839,0.000000,-7254.018232,-2451.505594
434.461160,0.000000,-8068.244768,-2681.334243
434.461482,0.000000,-10140.821405,-1838.629195
434.461804,-1998.556043,-11769.274478,-919.314598
434.462126,-4219.173869,-13767.830521,-919.314598
434.462447,-5107.421000,-12435.459826,-2145.067394
434.462769,-3923.091493,-10288.862594,-2834.553343
434.463091,-1924.535449,-7698.141797,-3370.820191
434.463413,74.020594,-8068.244768,-2681.334243
434.463734,1776.494261,-8068.244768,-1302.362347
434.464056,2738.761985,-8956.491898,0.000000
434.464378,3552.988522,-10881.027347,153.219100
434.464700,3478.967927,-10584.944971,-995.924147
434.465021,4071.132681,-9104.533087,-2145.067394
434.465343,4663.297435,-7402.059420,-2834.553343
434.465665,5033.400406,-7402.059420,-3140.991542
434.465987,5033.400406,-7772.162391,-2987.772442
434.466308,3552.988522,-10288.862594,-1991.848295
434.466630,222.061783,-12731.542202,-1532.190996
434.466952,-4219.173869,-15026.180623,-1072.533697
434.467273,-6439.791695,-14211.954086,-1302.362347
434.467595,-6069.688724,-11325.150913,-2757.943793
434.467917,-3849.070898,-8068.244768,-4903.011187
434.468239,-1628.453072,-6661.853478,-3294.210641
434.468560,-1406.391290,-5033.400406,-766.095498
434.468882,-1258.350101,-6365.771101,1072.533697
434.469204,-1776.494261,-8808.450710,536.266849
434.469526,-2960.823768,-10510.924376,-1302.362347
434.469847,-4071.132681,-10510.924376,-2068.457845
434.470169,-2960.823768,-9696.697840,-1991.848295
434.470491,-1628.453072,-8586.388927,-2298.286494
434.470813,666.185348,-6883.915261,-2451.505594
434.471134,1924.535449,-6439.791695,-1225.752797
434.471456,888.247130,-8068.244768,-995.924147
434.471778,-1628.453072,-10807.006753,-383.047749
434.472100,-3627.009116,-11917.315666,-1685.410096
434.472421,-3923.091493,-12435.459826,-2221.676944
434.472743,-2590.720797,-11399.171507,-1455.581446
434.473065,-592.164754,-9474.636058,459.657299
434.473386,1702.473667,-5921.647536,612.876398
434.473708,2960.823768,-4367.215058,-229.828649
434.474030,3775.050304,-6513.812290,-459.657299
434.474352,3034.844362,-8586.388927,-689.485948
434.474673,2146.597232,-8956.491898,-1149.143247
434.474995,1554.432478,-9104.533087,-2068.457845
434.475317,2886.803174,-10807.006753,-3064.381992
434.475639,3034.844362,-10955.047942,-3370.820191
434.475960,2220.617826,-11177.109724,-3524.039291
434.476282,0.000000,-12139.377449,-2528.115143
434.476604,-2442.679609,-14063.912898,-842.705048
434.476926,-4145.153275,-12139.377449,-1608.800546
434.477247,-3923.091493,-9770.718434,-2528.115143
434.477569,-2146.597232,-8586.388927,-2145.067394
434.477891,-888.247130,-8290.306550,-689.485948
434.478213,0.000000,-6439.791695,0.000000
434.478534,74.020594,-6957.935855,995.924147
434.478856,-296.082377,-9474.636058,2451.505594
434.479178,-1480.411884,-9622.677246,1532.190996
434.479499,-1998.556043,-6217.729913,-536.266849
434.479821,-296.082377,-4737.318029,-1991.848295
434.480143,2072.576638,-6291.750507,-2681.334243
434.480465,2590.720797,-7402.059420,-3830.477490
434.480786,0.000000,-10140.821405,-1762.019645
434.481108,-2220.617826,-13915.871710,153.219100
434.481430,-4811.338623,-17542.880825,0.000000
434.481752,-6809.894666,-16580.613101,-2757.943793
434.482073,-6883.915261,-12583.501014,-4366.744339
434.482395,-4737.318029,-9622.677246,-4060.306139
434.482717,-1480.411884,-7994.224174,-3370.820191
434.483039,888.247130,-5773.606348,-995.924147
434.483360,1776.494261,-5107.421000,1378.971896
434.483682,1776.494261,-5847.626942,1762.019645
434.484004,2368.659014,-7105.977043,229.828649
434.484325,2368.659014,-6365.771101,-1455.581446
434.484647,2738.761985,-5329.482782,-2681.334243
434.484969,4367.215058,-6809.894666,-2757.943793
434.485291,5921.647536,-7402.059420,-2145.067394
434.485612,5921.647536,-8956.491898,-1685.410096
434.485934,2516.700203,-11177.109724,-1455.581446
434.486256,-1332.370696,-14804.118840,-1685.410096
434.486578,-4293.194464,-15174.221811,-3294.210641
434.486899,-4515.256246,-13619.789333,-5669.106685
434.487221,-3330.926739,-11103.089130,-5209.449386
434.487543,-1850.514855,-9400.615463,-2681.334243
434.487865,-444.123565,-6291.750507,-995.924147
434.488186,888.247130,-4959.379811,-306.438199
434.488508,888.247130,-5773.606348,-1072.533697
