#time,accel_x,accel_y,accel_z
200.487619,-296.082377,-9474.636058,-1532.190996
200.487940,-518.144159,-9622.677246,-1455.581446
200.488262,-444.123565,-9400.615463,-1225.752797
200.488583,-148.041188,-9770.718434,-1532.190996
200.488905,-518.144159,-9326.594869,-1455.581446
200.489226,-296.082377,-9104.533087,-1532.190996
200.489548,-296.082377,-9030.512492,-1378.971896
200.489869,-148.041188,-9030.512492,-1762.019645
200.490191,0.000000,-8956.491898,-1378.971896
200.490512,-222.061783,-9252.574275,-1225.752797
200.490834,-222.061783,-9474.636058,-1072.533697
200.491156,-222.061783,-9548.656652,-1072.533697
200.491477,-444.123565,-9400.615463,-1302.362347
200.491799,0.000000,-8660.409521,-1225.752797
200.492120,-370.102971,-8956.491898,-1072.533697
200.492442,-296.082377,-9178.553681,-1149.143247
200.492763,-296.082377,-9178.553681,-1149.143247
200.493085,-444.123565,-9474.636058,-1149.143247
200.493406,-666.185348,-9326.594869,-1225.752797
200.493728,-444.123565,-9326.594869,-995.924147
200.494049,-296.082377,-9030.512492,-1072.533697
200.494371,-148.041188,-9326.594869,-995.924147
200.494692,-296.082377,-9030.512492,-1072.533697
200.495014,-222.061783,-9252.574275,-995.924147
200.495336,-592.164754,-9178.553681,-995.924147
200.495657,0.000000,-9474.636058,-1378.971896
200.495979,-370.102971,-9474.636058,-1455.581446
200.496300,-370.102971,-9474.636058,-1532.190996
200.496622,-296.082377,-9252.574275,-1378.971896
200.496943,-222.061783,-9400.615463,-1149.143247
200.497265,-666.185348,-9030.512492,-1378.971896
200.497586,-296.082377,-9400.615463,-1532.190996
200.497908,-518.144159,-9770.718434,-1532.190996
200.498229,-592.164754,-9548.656652,-1532.190996
200.498551,-592.164754,-9400.615463,-1455.581446
200.498873,-370.102971,-9178.553681,-1378.971896
200.499194,-444.123565,-9252.574275,-1608.800546
200.499516,-370.102971,-9400.615463,-1685.410096
200.499837,-370.102971,-9474.636058,-1608.800546
200.500159,-444.123565,-9622.677246,-1608.800546
200.500480,-370.102971,-9326.594869,-1991.848295
200.500802,-370.102971,-9400.615463,-1685.410096
200.501123,-518.144159,-9400.615463,-1685.410096
200.501445,-296.082377,-9326.594869,-1608.800546
200.501766,-222.061783,-9474.636058,-1532.190996
200.502088,-222.061783,-9252.574275,-1991.848295
200.502410,-518.144159,-9104.533087,-1915.238745
200.502731,-444.123565,-9622.677246,-1762.019645
200.503053,-370.102971,-9622.677246,-1532.190996
200.503374,-370.102971,-9548.656652,-1455.581446
200.503696,-370.102971,-9474.636058,-1455.581446
200.504017,0.000000,-9400.615463,-1838.629195
200.504339,-296.082377,-8956.491898,-1608.800546
200.504660,-296.082377,-9326.594869,-1838.629195
200.504982,-444.123565,-9326.594869,-1762.019645
200.505303,0.000000,-9474.636058,-1685.410096
200.505625,444.123565,-9622.677246,-1302.362347
200.505947,1184.329507,-10140.821405,-1378.971896
200.506268,1258.350101,-9844.739029,-919.314598
200.506590,740.205942,-9474.636058,-612.876398
200.506911,444.123565,-8808.450710,-1149.143247
200.507233,0.000000,-8808.450710,-1762.019645
200.507554,-370.102971,-8956.491898,-2374.896044
200.507876,-814.226536,-9030.512492,-1532.190996
200.508197,-814.226536,-9178.553681,-1762.019645
200.508519,0.000000,-9918.759623,-1915.238745
200.508840,370.102971,-10362.883188,-995.924147
200.509162,0.000000,-9696.697840,-689.485948
200.509484,148.041188,-9030.512492,-1532.190996
200.509805,1554.432478,-9474.636058,-2068.457845
200.510127,2146.597232,-10436.903782,-1915.238745
200.510448,1406.391290,-9844.739029,-766.095498
200.510770,1110.308913,-8882.471304,0.000000
200.511091,2220.617826,-9030.512492,-383.047749
200.511413,3478.967927,-9992.780217,-995.924147
200.511734,3182.885551,-9252.574275,0.000000
200.512056,2516.700203,-7920.203579,0.000000
200.512377,3034.844362,-7772.162391,-536.266849
200.512699,3478.967927,-8438.347739,-842.705048
200.513021,3182.885551,-9326.594869,-1072.533697
200.513342,2590.720797,-8290.306550,-995.924147
200.513664,2812.782580,-8438.347739,-1455.581446
200.513985,3627.009116,-9474.636058,-2145.067394
200.514307,4219.173869,-10955.047942,-1455.581446
200.514628,4441.235652,-10510.924376,-1532.190996
200.514950,4219.173869,-9770.718434,-1302.362347
200.515271,4589.276840,-10658.965565,-1149.143247
200.515593,4589.276840,-10510.924376,-1378.971896
200.515914,3849.070898,-9696.697840,-2374.896044
200.516236,3330.926739,-9326.594869,-1838.629195
200.516558,2738.761985,-9104.533087,-1225.752797
200.516879,3182.885551,-8882.471304,-1225.752797
200.517201,3849.070898,-8290.306550,-1685.410096
200.517522,4589.276840,-8364.327145,-1532.190996
200.517844,5255.462188,-8512.368333,-1072.533697
200.518165,5403.503377,-8364.327145,-1225.752797
200.518487,5033.400406,-8882.471304,-1532.190996
200.518808,4811.338623,-8956.491898,-1838.629195
200.519130,3330.926739,-9696.697840,-2298.286494
200.519451,1702.473667,-10362.883188,-2451.505594
200.519773,-222.061783,-11325.150913,-1685.410096
200.520095,-444.123565,-12879.583391,-2221.676944
200.520416,-1258.350101,-13767.830521,-1378.971896
200.520738,-1258.350101,-13323.706956,0.000000
200.521059,-1036.288319,-12213.398043,919.314598
200.521381,0.000000,-10436.903782,1072.533697
200.521702,814.226536,-9252.574275,1455.581446
200.522024,592.164754,-7624.121203,2068.457845
200.522345,-370.102971,-5773.606348,1838.629195
200.522667,-1332.370696,-4737.318029,842.705048
200.522988,-1702.473667,-4589.276840,-153.219100
200.523310,-1036.288319,-4367.215058,-2298.286494
200.523632,0.000000,-5033.400406,-3677.258390
200.523953,2368.659014,-6143.709319,-4903.011187
200.524275,4145.153275,-7920.203579,-4903.011187
200.524596,4293.194464,-9770.718434,-4519.963438
200.524918,2590.720797,-11473.192101,-4673.182538
200.525239,222.061783,-13323.706956,-4366.744339
200.525561,-1184.329507,-14656.077652,-4136.915689
200.525882,-3108.864956,-14359.995275,-3753.867940
200.526204,-4885.359217,-13397.727550,-2374.896044
200.526525,-4959.379811,-12287.418637,-306.438199
200.526847,-4145.153275,-11325.150913,2221.676944
200.527168,-3330.926739,-9474.636058,3753.867940
200.527490,-2590.720797,-6883.915261,4519.963438
200.527812,-1776.494261,-5033.400406,3983.696590
200.528133,-888.247130,-3627.009116,2451.505594
200.528455,-296.082377,-3849.070898,2528.115143
200.528776,-1998.556043,-2886.803174,2451.505594
200.529098,-2368.659014,-3182.885551,-306.438199
200.529419,-1110.308913,-4589.276840,-5822.325785
200.529741,1184.329507,-7105.977043,-10418.898773
200.530062,1776.494261,-10881.027347,-11568.042020
200.530384,1480.411884,-16580.613101,-7967.393179
200.530705,0.000000,-21243.910535,-3907.087040
200.531027,0.000000,-22354.219448,-3830.477490
200.531349,-666.185348,-20725.766376,-5669.106685
200.531670,-518.144159,-17690.922014,-5056.230287
200.531992,-370.102971,-13619.789333,-1608.800546
200.532313,-1776.494261,-8364.327145,1225.752797
200.532635,-1924.535449,-3849.070898,4979.620737
200.532956,-1332.370696,-2886.803174,7354.516781
200.533278,-1628.453072,-2442.679609,7584.345430
200.533599,-2738.761985,-1628.453072,6281.983084
200.533921,-2664.741391,-666.185348,4519.963438
200.534242,-814.226536,-2072.576638,383.047749
200.534564,962.267725,-4219.173869,-612.876398
200.534886,1184.329507,-3256.906145,766.095498
200.535207,3701.029710,-3997.112087,-3600.648841
200.535529,7476.080014,-8734.430116,-11108.384721
200.535850,9474.636058,-13619.789333,-13406.671215
200.536172,7402.059420,-17172.777854,-8580.269578
200.536493,3923.091493,-22724.322419,-4136.915689
200.536815,888.247130,-24278.754898,-2451.505594
200.537136,-518.144159,-19541.436869,-3753.867940
200.537458,-370.102971,-12435.459826,-4903.011187
200.537779,-814.226536,-8068.244768,-2681.334243
200.538101,-2294.638420,-4145.153275,1455.581446
200.538423,-2886.803174,222.061783,4826.401637
200.538744,-1036.288319,1702.473667,5975.544884
200.539066,0.000000,-3404.947333,3830.477490
200.539387,-1628.453072,-4737.318029,3983.696590
200.539709,-3923.091493,-2368.659014,2374.896044
200.540030,-2886.803174,-4515.256246,-2298.286494
200.540352,2146.597232,-8808.450710,-4979.620737
200.540673,5107.421000,-11103.089130,-4979.620737
200.540995,3775.050304,-15914.427753,-5515.887586
200.541316,2886.803174,-20799.786970,-4213.525239
200.541638,5403.503377,-19023.292709,-2451.505594
200.541960,6217.729913,-16506.592507,-6588.421283
200.542281,4293.194464,-18653.189738,-7277.907231
200.542603,1628.453072,-18357.107362,-2757.943793
200.542924,-2516.700203,-11103.089130,-919.314598
200.543246,-5995.668130,-5477.523971,76.609550
200.543567,-5921.647536,-2738.761985,1991.848295
200.543889,-5033.400406,2146.597232,-1225.752797
200.544210,-5403.503377,3923.091493,-4213.525239
200.544532,-6587.832884,-2368.659014,-229.828649
200.544853,-8142.265362,-7402.059420,5669.106685
200.545175,-7179.997637,-7105.977043,4519.963438
200.545497,-4663.297435,-8364.327145,-1991.848295
200.545818,-1850.514855,-11843.295072,-5132.839837
200.546140,-1702.473667,-13101.645173,-4290.134789
200.546461,-3330.926739,-14063.912898,-1378.971896
200.546783,-3923.091493,-15766.386565,229.828649
200.547104,-2368.659014,-14063.912898,-383.047749
200.547426,222.061783,-11843.295072,-3524.039291
200.547747,296.082377,-12139.377449,-3217.601092
200.548069,0.000000,-10510.924376,536.266849
200.548390,148.041188,-4663.297435,1225.752797
200.548712,1554.432478,-1184.329507,-766.095498
200.549034,2516.700203,-1850.514855,-383.047749
200.549355,666.185348,-5033.400406,76.609550
200.549677,-2664.741391,-8364.327145,-1762.019645
200.549998,-2738.761985,-11769.274478,-1225.752797
200.550320,-666.185348,-14211.954086,76.609550
200.550641,1110.308913,-14878.139434,306.438199
200.550963,2442.679609,-13841.851115,383.047749
200.551284,3182.885551,-11843.295072,842.705048
200.551606,3849.070898,-9696.697840,0.000000
200.551927,3330.926739,-8216.285956,-689.485948
200.552249,370.102971,-8512.368333,229.828649
200.552571,-3627.009116,-8216.285956,842.705048
200.552892,-5329.482782,-7105.977043,459.657299
200.553214,-3997.112087,-5995.668130,-2068.457845
200.553535,-888.247130,-5255.462188,-3677.258390
200.553857,444.123565,-4367.215058,-2911.162892
200.554178,-592.164754,-4367.215058,-1072.533697
200.554500,-1110.308913,-6661.853478,-1302.362347
200.554821,0.000000,-8956.491898,-3753.867940
200.555148,444.123565,-10066.800811,-7584.345430
200.555470,148.041188,-12879.583391,-7967.393179
200.555792,-222.061783,-17098.757260,-4366.744339
200.556114,0.000000,-18431.127956,0.000000
200.556436,1554.432478,-16062.468941,536.266849
200.556757,3330.926739,-13397.727550,153.219100
200.557079,5403.503377,-10807.006753,0.000000
200.557401,6143.709319,-6661.853478,-842.705048
200.557723,5551.544565,-3775.050304,-459.657299
200.558044,4737.318029,-3182.885551,1685.410096
200.558366,3478.967927,-4441.235652,2911.162892
200.558688,1850.514855,-5921.647536,1302.362347
200.559010,592.164754,-7402.059420,-2298.286494
200.559332,962.267725,-9400.615463,-4826.401637
200.559653,2812.782580,-11621.233289,-5056.230287
200.559975,3108.864956,-13989.892304,-4290.134789
200.560297,2960.823768,-15396.283594,-1762.019645
200.560619,1850.514855,-14137.933492,-306.438199
200.560940,740.205942,-13471.748144,-1532.190996
200.561262,-666.185348,-12435.459826,-3830.477490
200.561584,-2368.659014,-12065.356855,-4826.401637
200.561906,-3849.070898,-10584.944971,-3370.820191
200.562227,-4737.318029,-7624.121203,0.000000
200.562549,-4441.235652,-4589.276840,2451.505594
200.562871,-3923.091493,-1850.514855,1455.581446
200.563193,-3775.050304,-814.226536,-1225.752797
200.563515,-4071.132681,-1406.391290,-3524.039291
200.563836,-5033.400406,-3923.091493,-2987.772442
200.564158,-6069.688724,-6513.812290,-1149.143247
200.564480,-5551.544565,-8586.388927,-842.705048
200.564802,-4071.132681,-11473.192101,-4060.306139
200.565123,-1332.370696,-14211.954086,-4903.011187
200.565445,-1258.350101,-15100.201217,-2987.772442
200.565767,-2146.597232,-15914.427753,-995.924147
200.566089,-2442.679609,-15100.201217,306.438199
200.566411,-1628.453072,-11843.295072,-383.047749
200.566732,-296.082377,-9474.636058,-1838.629195
200.567054,444.123565,-7402.059420,-1149.143247
200.567376,666.185348,-5403.503377,229.828649
200.567698,444.123565,-3404.947333,-383.047749
200.568019,444.123565,-3923.091493,-612.876398
200.568341,0.000000,-7254.018232,-306.438199
200.568663,-1036.288319,-10288.862594,-1685.410096
200.568985,-1998.556043,-11991.336260,-2451.505594
200.569307,-1702.473667,-13989.892304,-1685.410096
200.569628,-666.185348,-14508.036463,-1302.362347
200.569950,888.247130,-13841.851115,-1991.848295
200.570272,1998.556043,-12361.439231,-1532.190996
200.570594,1258.350101,-11029.068536,-383.047749
200.570915,-1258.350101,-10584.944971,612.876398
200.571237,-3997.112087,-10436.903782,995.924147
200.571559,-5329.482782,-8512.368333,229.828649
200.571881,-5255.462188,-5403.503377,-1762.019645
200.572203,-2960.823768,-3923.091493,-2528.115143
200.572524,-1036.288319,-2146.597232,-1149.143247
200.572846,0.000000,-1406.391290,-612.876398
200.573168,740.205942,-3627.009116,-689.485948
200.573490,592.164754,-5773.606348,0.000000
200.573811,888.247130,-8808.450710,-3294.210641
200.574133,370.102971,-12065.356855,-5745.716235
200.574455,444.123565,-14656.077652,-5056.230287
200.574777,1258.350101,-15396.283594,-2681.334243
200.575099,1998.556043,-15396.283594,-536.266849
200.575420,3182.885551,-15840.407159,995.924147
200.575742,3478.967927,-13693.809927,229.828649
200.576064,3627.009116,-10658.965565,-1072.533697
200.576386,4663.297435,-8216.285956,0.000000
200.576707,5329.482782,-5625.565159,153.219100
200.577029,5477.523971,-3404.947333,-153.219100
200.577351,5329.482782,-3108.864956,612.876398
200.577673,3775.050304,-4885.359217,1915.238745
200.577995,2072.576638,-6365.771101,229.828649
200.578316,1480.411884,-8808.450710,-2757.943793
200.578638,2368.659014,-11251.130318,-4443.353888
200.578960,2368.659014,-14211.954086,-3907.087040
200.579282,2220.617826,-14359.995275,-2528.115143
200.579603,2220.617826,-12953.603985,-766.095498
200.579925,2072.576638,-12435.459826,-995.924147
200.580247,370.102971,-13619.789333,-2298.286494
200.580569,-2960.823768,-14063.912898,-2451.505594
200.580890,-5551.544565,-12879.583391,-1838.629195
200.581212,-6587.832884,-9474.636058,-1762.019645
200.581534,-5403.503377,-5995.668130,-1149.143247
200.581856,-3478.967927,-2294.638420,-459.657299
200.582178,-2368.659014,-1036.288319,-2221.676944
200.582499,-2442.679609,-2590.720797,-2374.896044
200.582821,-2590.720797,-5847.626942,-1915.238745
200.583143,-3701.029710,-7994.224174,-1762.019645
200.583465,-3997.112087,-10140.821405,-2451.505594
200.583786,-2664.741391,-11399.171507,-3983.696590
200.584108,-518.144159,-13767.830521,-5362.668486
200.584430,1110.308913,-14952.160028,-3447.429741
200.584752,370.102971,-13989.892304,0.000000
200.585074,-1184.329507,-13027.624579,612.876398
200.585395,-1554.432478,-12435.459826,-383.047749
200.585717,-1554.432478,-11177.109724,-1225.752797
200.586039,-2442.679609,-8142.265362,-2145.067394
200.586361,-2294.638420,-4959.379811,-536.266849
200.586682,-1924.535449,-2886.803174,919.314598
200.587004,-2146.597232,-3552.988522,-306.438199
200.587326,-2664.741391,-5921.647536,-842.705048
200.587648,-4145.153275,-8364.327145,-995.924147
200.587970,-4959.379811,-11547.212695,-1838.629195
200.588291,-4145.153275,-13101.645173,-1685.410096
200.588613,-2368.659014,-13471.748144,-2451.505594
200.588935,0.000000,-13101.645173,-2757.943793
200.589257,1480.411884,-11917.315666,-459.657299
200.589578,592.164754,-10732.986159,229.828649
200.589900,-1554.432478,-9770.718434,1072.533697
200.590222,-3182.885551,-8808.450710,229.828649
200.590544,-3552.988522,-9030.512492,-1532.190996
200.590866,-3330.926739,-7328.038826,-1762.019645
200.591187,-2516.700203,-4367.215058,536.266849
200.591509,-1776.494261,-888.247130,536.266849
200.591831,0.000000,-888.247130,-1302.362347
200.592153,666.185348,-3108.864956,-1762.019645
200.592474,-518.144159,-6365.771101,-2298.286494
200.592796,-1776.494261,-10140.821405,-2834.553343
200.593118,-740.205942,-15174.221811,-3830.477490
200.593440,962.267725,-14804.118840,-4443.353888
200.593762,2590.720797,-13767.830521,-4060.306139
200.594083,3997.112087,-15692.365970,-2145.067394
200.594405,4219.173869,-16802.674883,229.828649
200.594727,2960.823768,-13915.871710,153.219100
200.595049,2960.823768,-11177.109724,-536.266849
200.595370,4515.256246,-9622.677246,-306.438199
200.595692,5551.544565,-7402.059420,-383.047749
200.596014,6069.688724,-4441.235652,-1302.362347
200.596336,6809.894666,-3108.864956,842.705048
200.596658,6661.853478,-3997.112087,2221.676944
200.596979,4293.194464,-6365.771101,689.485948
200.597301,1406.391290,-8512.368333,-1532.190996
200.597623,222.061783,-11177.109724,-2834.553343
200.597945,296.082377,-13619.789333,-4519.963438
200.598266,1628.453072,-14730.098246,-4443.353888
200.598588,2442.679609,-13471.748144,-2298.286494
200.598910,2294.638420,-12287.418637,0.000000
200.599232,370.102971,-12731.542202,153.219100
200.599553,-1850.514855,-13397.727550,-536.266849
200.599875,-3478.967927,-12435.459826,-2068.457845
200.600197,-4219.173869,-9326.594869,-2757.943793
200.600519,-4589.276840,-5921.647536,-1532.190996
200.600841,-3552.988522,-2368.659014,612.876398
200.601162,-2516.700203,148.041188,536.266849
200.601484,-1628.453072,-1776.494261,-1225.752797
200.601806,-1406.391290,-4737.318029,-2451.505594
200.602128,-2516.700203,-7698.141797,-2451.505594
200.602449,-3627.009116,-9474.636058,-2068.457845
200.602771,-2516.700203,-11177.109724,-2911.162892
200.603093,0.000000,-13397.727550,-4366.744339
200.603415,1036.288319,-13841.851115,-3064.381992
200.603737,74.020594,-13767.830521,-536.266849
200.604058,-2220.617826,-13693.809927,536.266849
200.604380,-2664.741391,-13545.768739,-306.438199
200.604702,-2442.679609,-11473.192101,-1991.848295
200.605024,-2590.720797,-7846.182985,-1762.019645
200.605345,-2812.782580,-4885.359217,-306.438199
200.605667,-2368.659014,-2516.700203,459.657299
200.605989,-2220.617826,-2812.782580,-383.047749
200.606311,-2960.823768,-6365.771101,-1762.019645
200.606633,-4885.359217,-9030.512492,-1762.019645
200.606954,-6365.771101,-11843.295072,-1915.238745
200.607276,-6069.688724,-14137.933492,-1685.410096
200.607598,-3849.070898,-14359.995275,-2451.505594
200.607920,-666.185348,-13397.727550,-4136.915689
200.608241,1924.535449,-12213.398043,-3140.991542
200.608563,1258.350101,-11695.253884,383.047749
200.608885,-1110.308913,-10436.903782,2298.286494
200.609207,-3108.864956,-9104.533087,536.266849
200.609529,-3034.844362,-9252.574275,-1915.238745
200.609850,-2590.720797,-7476.080014,-2681.334243
200.610172,-2516.700203,-4737.318029,-1685.410096
200.610494,-2220.617826,-1850.514855,229.828649
200.610816,-518.144159,-814.226536,0.000000
200.611137,1332.370696,-2738.761985,-1532.190996
200.611459,888.247130,-6291.750507,-2528.115143
200.611781,-592.164754,-9622.677246,-3140.991542
200.612103,-444.123565,-13323.706956,-3753.867940
200.612425,518.144159,-13989.892304,-4749.792088
200.612746,2516.700203,-13915.871710,-3907.087040
200.613068,3923.091493,-15766.386565,-2145.067394
200.613390,3552.988522,-16062.468941,0.000000
200.613712,2146.597232,-13545.768739,1225.752797
200.614033,2442.679609,-11177.109724,-153.219100
200.614355,3997.112087,-8956.491898,-766.095498
200.614677,5181.441594,-6217.729913,-689.485948
200.614999,5699.585753,-3775.050304,-612.876398
200.615321,5921.647536,-2886.803174,1378.971896
200.615642,5773.606348,-3923.091493,2528.115143
200.615964,4071.132681,-5995.668130,1302.362347
200.616286,2220.617826,-8068.244768,-1608.800546
200.616608,1332.370696,-10658.965565,-3370.820191
200.616929,2146.597232,-13175.665768,-4136.915689
200.617251,3108.864956,-14211.954086,-4903.011187
200.617573,3923.091493,-14211.954086,-2681.334243
200.617895,3701.029710,-13175.665768,153.219100
200.618216,1480.411884,-12583.501014,612.876398
200.618538,-1258.350101,-12953.603985,-1072.533697
200.618860,-3256.906145,-12583.501014,-1838.629195
200.619182,-3701.029710,-10288.862594,-2834.553343
200.619504,-3404.947333,-6661.853478,-2451.505594
200.619825,-2072.576638,-3701.029710,153.219100
200.620147,-1184.329507,-1184.329507,1532.190996
200.620469,-1036.288319,-1184.329507,229.828649
200.620791,-1332.370696,-3701.029710,-2528.115143
200.621112,-3478.967927,-7476.080014,-3447.429741
200.621434,-4737.318029,-9918.759623,-3600.648841
200.621756,-4441.235652,-11103.089130,-4213.525239
200.622078,-1628.453072,-13101.645173,-4903.011187
200.622400,1036.288319,-13915.871710,-3064.381992
200.622721,962.267725,-14137.933492,-919.314598
200.623043,-1110.308913,-14063.912898,-153.219100
200.623365,-2664.741391,-13841.851115,-383.047749
200.623687,-2664.741391,-12065.356855,-1915.238745
200.624008,-2664.741391,-8882.471304,-3064.381992
200.624330,-2812.782580,-5625.565159,-1532.190996
200.624652,-2738.761985,-3034.844362,459.657299
200.624974,-2368.659014,-2812.782580,0.000000
200.625296,-2442.679609,-5773.606348,-1149.143247
200.625617,-3108.864956,-8586.388927,-1991.848295
200.625939,-4367.215058,-10288.862594,-2451.505594
200.626261,-4959.379811,-13101.645173,-1991.848295
200.626583,-3775.050304,-14508.036463,-1915.238745
200.626904,-1480.411884,-13693.809927,-2987.772442
200.627226,740.205942,-12731.542202,-3140.991542
200.627548,592.164754,-11695.253884,-766.095498
200.627870,-1998.556043,-10807.006753,689.485948
200.628192,-4293.194464,-9548.656652,919.314598
200.628513,-4367.215058,-8586.388927,-612.876398
200.628835,-3034.844362,-8142.265362,-2451.505594
200.629157,-1924.535449,-5107.421000,-1991.848295
200.629479,-1702.473667,-1628.453072,306.438199
200.629800,-592.164754,-592.164754,229.828649
200.630122,814.226536,-3034.844362,-919.314598
200.630444,74.020594,-5699.585753,-1455.581446
200.630766,-1332.370696,-8068.244768,-2987.772442
200.631088,-962.267725,-12805.562797,-4366.744339
200.631409,740.205942,-14952.160028,-4060.306139
200.631731,1776.494261,-13693.809927,-3217.601092
200.632053,2590.720797,-14211.954086,-1378.971896
200.632375,3182.885551,-15248.242405,459.657299
200.632696,2664.741391,-13619.789333,229.828649
200.633018,1480.411884,-10955.047942,-1685.410096
200.633340,2294.638420,-9474.636058,-1225.752797
200.633662,3330.926739,-7846.182985,383.047749
200.633984,4663.297435,-5551.544565,0.000000
200.634305,5403.503377,-3701.029710,689.485948
200.634627,5551.544565,-3997.112087,1915.238745
200.634949,4885.359217,-5403.503377,995.924147
200.635271,2886.803174,-7105.977043,-1378.971896
200.635592,2146.597232,-9474.636058,-2834.553343
200.635914,2960.823768,-12139.377449,-3370.820191
200.636236,4145.153275,-14137.933492,-4290.134789
200.636558,4959.379811,-14359.995275,-3064.381992
200.636879,4441.235652,-13841.851115,153.219100
200.637201,2886.803174,-13175.665768,1302.362347
200.637523,148.041188,-12879.583391,-306.438199
200.637845,-2220.617826,-12583.501014,-2145.067394
200.638167,-2368.659014,-10288.862594,-2681.334243
200.638488,-2738.761985,-6587.832884,-2068.457845
200.638810,-1924.535449,-3552.988522,-459.657299
200.639132,-1258.350101,-1258.350101,1378.971896
200.639454,-1628.453072,-1406.391290,0.000000
200.639775,-2294.638420,-4219.173869,-2451.505594
200.640097,-3849.070898,-7402.059420,-3983.696590
200.640419,-4737.318029,-10436.903782,-4519.963438
200.640741,-4441.235652,-11399.171507,-4673.182538
200.641063,-2368.659014,-12065.356855,-5515.887586
200.641384,518.144159,-13545.768739,-5286.058936
200.641706,814.226536,-14211.954086,-2451.505594
200.642028,-1406.391290,-14285.974681,-306.438199
200.642350,-3478.967927,-13767.830521,-459.657299
200.642671,-3256.906145,-12953.603985,-1685.410096
200.642993,-2220.617826,-9696.697840,-2451.505594
200.643315,-2146.597232,-6439.791695,-1991.848295
200.643637,-2220.617826,-3108.864956,459.657299
200.643959,-1850.514855,-1998.556043,842.705048
200.644280,-1776.494261,-4663.297435,-689.485948
200.644602,-2664.741391,-8290.306550,-2145.067394
200.644924,-4293.194464,-10436.903782,-1762.019645
200.645246,-5107.421000,-13545.768739,-1455.581446
200.645567,-4367.215058,-14952.160028,-1378.971896
200.645889,-1924.535449,-13767.830521,-2528.115143
200.646211,740.205942,-12435.459826,-2604.724693
200.646533,962.267725,-11251.130318,-1149.143247
200.646855,-1110.308913,-10214.842000,919.314598
200.647176,-4145.153275,-9178.553681,1149.143247
200.647498,-4737.318029,-9548.656652,-766.095498
200.647820,-4219.173869,-9104.533087,-2221.676944
200.648142,-3923.091493,-5477.523971,-1455.581446
200.648463,-2960.823768,-2516.700203,612.876398
200.648785,-1406.391290,-1406.391290,459.657299
200.649107,-296.082377,-2368.659014,-689.485948
200.649429,-888.247130,-4885.359217,-1302.362347
200.649751,-1924.535449,-8216.285956,-2145.067394
200.650072,-1332.370696,-12509.480420,-3140.991542
200.650394,0.000000,-13915.871710,-4136.915689
200.650716,1776.494261,-13101.645173,-3370.820191
200.651038,3256.906145,-14508.036463,-919.314598
200.651359,3034.844362,-16062.468941,1532.190996
200.651681,2220.617826,-13915.871710,1685.410096
200.652003,1702.473667,-10288.862594,-766.095498
200.652325,2590.720797,-8956.491898,-1991.848295
200.652646,4145.153275,-7846.182985,-1302.362347
200.652968,4737.318029,-6143.709319,-842.705048
200.653290,5995.668130,-3849.070898,612.876398
200.653612,6513.812290,-3775.050304,2451.505594
200.653934,6513.812290,-6439.791695,1225.752797
200.654255,3923.091493,-8660.409521,-995.924147
200.654577,1036.288319,-10362.883188,-2528.115143
200.654899,962.267725,-12213.398043,-4060.306139
200.655221,2960.823768,-14137.933492,-5209.449386
200.655542,4145.153275,-13915.871710,-3753.867940
200.655864,3849.070898,-13175.665768,229.828649
200.656186,2294.638420,-12213.398043,2604.724693
200.656508,370.102971,-12509.480420,1378.971896
200.656829,-1406.391290,-12139.377449,-1149.143247
200.657151,-2368.659014,-9178.553681,-1991.848295
200.657473,-3182.885551,-6069.688724,-2451.505594
200.657795,-2590.720797,-3775.050304,0.000000
200.658117,-1554.432478,-1702.473667,919.314598
200.658438,-1258.350101,-1184.329507,-229.828649
200.658760,-1554.432478,-4145.153275,-2221.676944
200.659082,-2072.576638,-8290.306550,-3600.648841
200.659404,-2960.823768,-10881.027347,-3983.696590
200.659725,-2886.803174,-11325.150913,-4826.401637
200.660047,-666.185348,-12509.480420,-5362.668486
200.660369,1702.473667,-14285.974681,-4290.134789
200.660691,1702.473667,-14656.077652,-2451.505594
200.661012,-1628.453072,-14359.995275,-306.438199
200.661334,-3552.988522,-14211.954086,-689.485948
200.661656,-3330.926739,-13101.645173,-2451.505594
200.661978,-2442.679609,-10214.842000,-3294.210641
200.662299,-2368.659014,-6217.729913,-995.924147
200.662621,-2220.617826,-3330.926739,766.095498
200.662943,-2072.576638,-1850.514855,919.314598
200.663265,-2590.720797,-3330.926739,-689.485948
200.663586,-4293.194464,-6587.832884,-2374.896044
200.663908,-6143.709319,-9696.697840,-3140.991542
200.664230,-6735.874072,-13471.748144,-3294.210641
200.664552,-4737.318029,-15100.201217,-2911.162892
200.664873,-962.267725,-14730.098246,-3753.867940
200.665195,2220.617826,-13915.871710,-3830.477490
200.665517,2146.597232,-12805.562797,-919.314598
200.665839,-592.164754,-11547.212695,1378.971896
200.666161,-2886.803174,-9918.759623,536.266849
200.666482,-3552.988522,-9030.512492,-2528.115143
200.666804,-3478.967927,-8142.265362,-3447.429741
200.667126,-3701.029710,-5477.523971,-1685.410096
200.667448,-3404.947333,-1776.494261,1455.581446
200.667769,-2220.617826,-518.144159,2068.457845
200.668091,-296.082377,-962.267725,0.000000
200.668413,-592.164754,-3849.070898,-2451.505594
200.668735,-2368.659014,-7105.977043,-2528.115143
200.669056,-2886.803174,-11251.130318,-1915.238745
200.669378,-1554.432478,-14211.954086,-2834.553343
200.669700,1702.473667,-13693.809927,-4213.525239
200.670022,3775.050304,-13841.851115,-3140.991542
200.670343,3701.029710,-15248.242405,-689.485948
200.670665,2072.576638,-15692.365970,1455.581446
200.670987,1480.411884,-13101.645173,689.485948
200.671309,2220.617826,-10288.862594,-2145.067394
200.671630,4071.132681,-8586.388927,-2221.676944
200.671952,5255.462188,-6439.791695,-383.047749
200.672274,5699.585753,-3923.091493,689.485948
200.672596,6883.915261,-2960.823768,2068.457845
200.672918,7031.956449,-5329.482782,1838.629195
200.673239,5181.441594,-7550.100608,536.266849
200.673561,2294.638420,-8734.430116,-1532.190996
200.673883,1036.288319,-10807.006753,-2987.772442
200.674205,2072.576638,-12953.603985,-3907.087040
200.674526,3775.050304,-14582.057057,-4136.915689
200.674848,4071.132681,-14730.098246,-1915.238745
200.675170,2368.659014,-14359.995275,1378.971896
200.675492,-444.123565,-13619.789333,2451.505594
200.675813,-2812.782580,-12805.562797,536.266849
200.676135,-3627.009116,-10732.986159,-2298.286494
200.676457,-3627.009116,-7698.141797,-3830.477490
200.676779,-2368.659014,-4737.318029,-2528.115143
200.677100,-962.267725,-2072.576638,-459.657299
200.677422,444.123565,-2294.638420,919.314598
200.677744,962.267725,-4663.297435,0.000000
200.678066,0.000000,-7698.141797,-2834.553343
200.678387,-2294.638420,-10066.800811,-3600.648841
200.678709,-3034.844362,-11473.192101,-3830.477490
200.679031,-2072.576638,-11621.233289,-5056.230287
200.679353,518.144159,-11621.233289,-5362.668486
200.679674,2368.659014,-12805.562797,-2451.505594
200.679996,814.226536,-13397.727550,766.095498
200.680318,-1554.432478,-13915.871710,1225.752797
200.680640,-2590.720797,-13323.706956,-153.219100
200.680962,-2516.700203,-10584.944971,-1532.190996
200.681283,-2738.761985,-7031.956449,-1149.143247
200.681605,-2590.720797,-3478.967927,842.705048
200.681927,-3034.844362,-1110.308913,1072.533697
200.682249,-2590.720797,-1628.453072,-689.485948
200.682570,-3108.864956,-5847.626942,-2528.115143
200.682892,-5255.462188,-9474.636058,-2451.505594
200.683214,-7254.018232,-12731.542202,-1838.629195
200.683536,-6735.874072,-14359.995275,-2681.334243
200.683857,-3182.885551,-14730.098246,-4519.963438
200.684179,444.123565,-13915.871710,-5515.887586
200.684501,1036.288319,-13027.624579,-2451.505594
200.684823,-740.205942,-11991.336260,842.705048
200.685144,-3701.029710,-11029.068536,1225.752797
200.685466,-4663.297435,-8734.430116,-612.876398
200.685788,-3923.091493,-7402.059420,-3140.991542
200.686110,-2590.720797,-7031.956449,-2757.943793
200.686431,-1998.556043,-3775.050304,-153.219100
200.686753,-962.267725,-296.082377,2374.896044
200.687075,666.185348,-1258.350101,689.485948
200.687397,1110.308913,-4737.318029,-842.705048
200.687718,-1628.453072,-6957.935855,-2221.676944
200.688040,-4219.173869,-9326.594869,-3830.477490
200.688362,-3404.947333,-13989.892304,-5056.230287
200.688684,-666.185348,-15026.180623,-4903.011187
200.689006,1628.453072,-14063.912898,-4136.915689
200.689327,2368.659014,-15174.221811,-842.705048
200.689649,1998.556043,-15618.345376,2145.067394
200.689971,814.226536,-13175.665768,0.000000
200.690293,518.144159,-10288.862594,-2374.896044
200.690614,1628.453072,-7476.080014,-2451.505594
200.690936,2220.617826,-5107.421000,-1378.971896
200.691258,3108.864956,-3627.009116,-689.485948
200.691580,5107.421000,-3775.050304,612.876398
200.691901,6587.832884,-5625.565159,229.828649
200.692223,5699.585753,-8660.409521,-612.876398
200.692545,3552.988522,-10140.821405,-612.876398
200.692867,1628.453072,-10881.027347,-842.705048
200.693188,1850.514855,-11843.295072,-2604.724693
200.693510,3849.070898,-11991.336260,-3830.477490
200.693832,4737.318029,-13545.768739,-3217.601092
200.694154,2812.782580,-13027.624579,229.828649
200.694475,296.082377,-13101.645173,3064.381992
200.694797,-1036.288319,-13545.768739,2298.286494
200.695119,-1184.329507,-12287.418637,-766.095498
200.695441,-296.082377,-8068.244768,-2374.896044
200.695763,-222.061783,-4367.215058,-1608.800546
200.696084,0.000000,-962.267725,612.876398
200.696406,74.020594,-148.041188,1378.971896
200.696728,0.000000,-1998.556043,-919.314598
200.697050,-1554.432478,-5699.585753,-2604.724693
200.697371,-3256.906145,-10214.842000,-3064.381992
200.697693,-4293.194464,-11991.336260,-3140.991542
200.698015,-2738.761985,-12287.418637,-4673.182538
200.698337,-148.041188,-13175.665768,-4749.792088
200.698658,1628.453072,-13841.851115,-2298.286494
200.698980,-518.144159,-13101.645173,306.438199
200.699302,-2738.761985,-12583.501014,153.219100
200.699624,-3034.844362,-12065.356855,-1378.971896
200.699945,-2146.597232,-10436.903782,-2987.772442
200.700267,-1776.494261,-8364.327145,-2145.067394
200.700589,-2072.576638,-5181.441594,536.266849
200.700911,-1850.514855,-2812.782580,1302.362347
200.701232,-1258.350101,-3478.967927,-536.266849
200.701554,-888.247130,-6883.915261,-2757.943793
200.701876,-2368.659014,-9696.697840,-2987.772442
200.702198,-3849.070898,-12509.480420,-2374.896044
200.702519,-3034.844362,-14952.160028,-1685.410096
200.702841,-592.164754,-14952.160028,-2911.162892
200.703163,2368.659014,-13545.768739,-3983.696590
200.703485,2590.720797,-12805.562797,-2528.115143
200.703807,-222.061783,-12657.521608,0.000000
200.704128,-3701.029710,-11103.089130,1915.238745
200.704450,-4959.379811,-9548.656652,-919.314598
200.704772,-4811.338623,-8882.471304,-3677.258390
200.705094,-4293.194464,-6883.915261,-2757.943793
200.705415,-4663.297435,-3108.864956,229.828649
200.705737,-4811.338623,-1184.329507,1072.533697
200.706059,-3034.844362,-666.185348,0.000000
200.706381,-2590.720797,-3034.844362,-2528.115143
200.706702,-3997.112087,-6587.832884,-4366.744339
200.707024,-5403.503377,-10510.924376,-3370.820191
200.707346,-3627.009116,-13101.645173,-3677.258390
200.707668,-222.061783,-13397.727550,-5439.278036
200.707989,2886.803174,-14285.974681,-4443.353888
200.708311,3478.967927,-15988.448347,-1302.362347
200.708633,1480.411884,-16136.489536,1455.581446
200.708955,740.205942,-13915.871710,1072.533697
200.709276,1628.453072,-9770.718434,-1608.800546
200.709598,3923.091493,-7105.977043,-2911.162892
200.709920,5181.441594,-4737.318029,-1072.533697
200.710242,5699.585753,-2738.761985,1532.190996
200.710563,6809.894666,-2146.597232,2528.115143
200.710885,7846.182985,-5181.441594,1532.190996
200.711207,7031.956449,-8660.409521,689.485948
200.711529,3478.967927,-10807.006753,-229.828649
200.711851,888.247130,-11621.233289,-1149.143247
200.712172,1184.329507,-12065.356855,-2451.505594
200.712494,3627.009116,-12213.398043,-3677.258390
200.712816,4737.318029,-11843.295072,-3447.429741
200.713138,3701.029710,-13175.665768,-1225.752797
200.713459,1332.370696,-14582.057057,1608.800546
200.713781,-1036.288319,-14952.160028,2068.457845
200.714103,-2442.679609,-12731.542202,-766.095498
200.714425,-3108.864956,-8068.244768,-1915.238745
200.714746,-3108.864956,-4367.215058,-2374.896044
200.715068,-2664.741391,-666.185348,-1302.362347
200.715390,-1998.556043,592.164754,-536.266849
200.715712,-1554.432478,-2220.617826,-1532.190996
200.716033,-1702.473667,-6661.853478,-2145.067394
200.716355,-3330.926739,-10288.862594,-2451.505594
200.716677,-3627.009116,-12213.398043,-3600.648841
200.716999,-1184.329507,-13027.624579,-4903.011187
200.717320,2146.597232,-13619.789333,-5439.278036
200.717642,3478.967927,-13471.748144,-2681.334243
200.717964,2368.659014,-13471.748144,-229.828649
200.718286,148.041188,-13471.748144,612.876398
200.718608,-518.144159,-13027.624579,-1302.362347
200.718929,-444.123565,-11399.171507,-3294.210641
200.719251,-518.144159,-9178.553681,-2068.457845
200.719573,-740.205942,-6069.688724,383.047749
200.719895,-592.164754,-3330.926739,1378.971896
200.720216,-222.061783,-3108.864956,689.485948
200.720538,-666.185348,-5033.400406,-842.705048
200.720860,-2368.659014,-7476.080014,-2451.505594
200.721182,-4071.132681,-10436.903782,-2528.115143
200.721503,-4441.235652,-12953.603985,-2374.896044
200.721825,-3404.947333,-14137.933492,-2221.676944
200.722147,-740.205942,-14359.995275,-3064.381992
200.722469,222.061783,-13989.892304,-3140.991542
200.722790,-1776.494261,-13027.624579,-842.705048
200.723112,-4515.256246,-10881.027347,1302.362347
200.723434,-6069.688724,-10436.903782,-919.314598
200.723756,-6143.709319,-9474.636058,-2757.943793
200.724077,-5551.544565,-6143.709319,-3217.601092
200.724399,-5107.421000,-2738.761985,-1225.752797
200.724721,-4145.153275,-1850.514855,459.657299
200.725043,-2442.679609,-962.267725,383.047749
200.725364,-1998.556043,-2516.700203,-1838.629195
200.725686,-1998.556043,-6439.791695,-2145.067394
200.726008,-2738.761985,-10214.842000,-2145.067394
200.726330,-1850.514855,-13101.645173,-3907.087040
200.726652,-222.061783,-12731.542202,-4596.572988
200.726973,2886.803174,-13397.727550,-3294.210641
200.727295,4145.153275,-15692.365970,-1072.533697
200.727617,2960.823768,-16580.613101,842.705048
200.727939,2146.597232,-14359.995275,919.314598
200.728260,2960.823768,-10881.027347,-1455.581446
200.728582,4737.318029,-9252.574275,-2068.457845
200.728904,4885.359217,-6513.812290,-459.657299
200.729226,4737.318029,-3256.906145,383.047749
200.729547,5773.606348,-2146.597232,1225.752797
200.729869,6957.935855,-4959.379811,1762.019645
200.730191,5107.421000,-7624.121203,229.828649
200.730513,2220.617826,-9252.574275,-1225.752797
200.730834,444.123565,-10214.842000,-1991.848295
200.731156,888.247130,-11917.315666,-2987.772442
200.731478,2146.597232,-12213.398043,-3677.258390
200.731800,3108.864956,-11917.315666,-3447.429741
200.732121,3182.885551,-13545.768739,-2528.115143
200.732443,1628.453072,-15100.201217,0.000000
200.732765,-962.267725,-15174.221811,1225.752797
200.733087,-2960.823768,-12509.480420,306.438199
200.733408,-3404.947333,-8586.388927,-1225.752797
200.733730,-2960.823768,-5033.400406,-2451.505594
200.734052,-2294.638420,-1332.370696,-1762.019645
200.734374,-2146.597232,592.164754,-919.314598
200.734696,-1406.391290,-1332.370696,-766.095498
200.735017,-1776.494261,-5181.441594,-1378.971896
200.735339,-2368.659014,-9252.574275,-1838.629195
200.735661,-3182.885551,-11325.150913,-2528.115143
200.735983,-1258.350101,-12805.562797,-4749.792088
200.736304,1702.473667,-13545.768739,-5439.278036
200.736626,3034.844362,-13471.748144,-3370.820191
200.736948,2294.638420,-13323.706956,0.000000
200.737270,296.082377,-14063.912898,1378.971896
200.737591,-370.102971,-13693.809927,0.000000
200.737913,-814.226536,-11769.274478,-2604.724693
200.738235,-740.205942,-9474.636058,-2221.676944
200.738557,-1110.308913,-6883.915261,459.657299
200.738878,-1850.514855,-3478.967927,1685.410096
200.739200,-2368.659014,-2368.659014,1149.143247
200.739522,-2442.679609,-3701.029710,-306.438199
200.739844,-3552.988522,-6513.812290,-2757.943793
200.740165,-4811.338623,-9326.594869,-3370.820191
200.740487,-6069.688724,-12139.377449,-2451.505594
200.740809,-5107.421000,-14063.912898,-1532.190996
200.741131,-2146.597232,-14952.160028,-2911.162892
200.741453,518.144159,-14211.954086,-3907.087040
200.741774,-148.041188,-12879.583391,-2757.943793
200.742096,-2812.782580,-11843.295072,0.000000
200.742418,-4885.359217,-11251.130318,459.657299
200.742740,-5773.606348,-9770.718434,-1302.362347
200.743061,-4737.318029,-7698.141797,-3294.210641
200.743383,-3330.926739,-4515.256246,-2528.115143
200.743705,-2072.576638,-1850.514855,229.828649
200.744027,-740.205942,-148.041188,842.705048
200.744348,0.000000,-1036.288319,153.219100
200.744670,148.041188,-4441.235652,-536.266849
200.744992,-1036.288319,-7994.224174,-2374.896044
200.745314,-1480.411884,-12509.480420,-3983.696590
200.745635,-592.164754,-14211.954086,-4443.353888
200.745957,1036.288319,-13989.892304,-3830.477490
200.746279,3256.906145,-15396.283594,-2221.676944
200.746601,3182.885551,-16580.613101,229.828649
200.746922,2072.576638,-15396.283594,689.485948
200.747244,1998.556043,-11695.253884,-995.924147
200.747566,3034.844362,-8808.450710,-1378.971896
200.747888,4589.276840,-6809.894666,-1838.629195
200.748209,4737.318029,-3997.112087,-995.924147
200.748531,4663.297435,-2664.741391,459.657299
200.748853,4811.338623,-3997.112087,2298.286494
200.749175,4071.132681,-6957.935855,919.314598
200.749497,2294.638420,-8882.471304,-1532.190996
200.749818,814.226536,-10807.006753,-2374.896044
200.750140,444.123565,-12139.377449,-2374.896044
200.750462,1998.556043,-12805.562797,-2911.162892
200.750784,3997.112087,-11991.336260,-2681.334243
200.751105,5033.400406,-13397.727550,-2757.943793
200.751427,3404.947333,-14211.954086,-689.485948
200.751749,0.000000,-14359.995275,1762.019645
200.752071,-3108.864956,-13027.624579,1762.019645
200.752392,-3997.112087,-9622.677246,-766.095498
200.752714,-3701.029710,-6217.729913,-2451.505594
200.753036,-2738.761985,-2664.741391,-2451.505594
200.753358,-2368.659014,-296.082377,-842.705048
200.753679,-1776.494261,-962.267725,-383.047749
200.754001,-1480.411884,-4515.256246,-1532.190996
200.754323,-2072.576638,-7846.182985,-2298.286494
200.754645,-2590.720797,-10881.027347,-2987.772442
200.754966,-1924.535449,-13101.645173,-4903.011187
200.755288,0.000000,-13989.892304,-6128.763984
200.755610,2294.638420,-14211.954086,-4290.134789
200.755932,2516.700203,-14063.912898,-1455.581446
200.756253,666.185348,-14285.974681,1072.533697
200.756575,-296.082377,-13471.748144,0.000000
200.756897,-740.205942,-11177.109724,-1838.629195
200.757219,-740.205942,-8956.491898,-2451.505594
200.757541,-1110.308913,-6661.853478,383.047749
200.757862,-1776.494261,-3330.926739,2298.286494
200.758184,-2516.700203,-1776.494261,1991.848295
200.758506,-2960.823768,-2738.761985,612.876398
200.758828,-3627.009116,-5551.544565,-2451.505594
200.759150,-4737.318029,-8586.388927,-4213.525239
200.759471,-5699.585753,-11917.315666,-2987.772442
200.759793,-4737.318029,-15174.221811,-1762.019645
200.760115,-2220.617826,-15988.448347,-2298.286494
200.760437,888.247130,-15396.283594,-3600.648841
200.760759,1184.329507,-13397.727550,-2911.162892
200.761081,-1184.329507,-12065.356855,-919.314598
200.761402,-4515.256246,-10807.006753,229.828649
200.761724,-5699.585753,-8956.491898,-536.266849
200.762046,-5107.421000,-7105.977043,-2987.772442
200.762368,-3330.926739,-5403.503377,-2911.162892
200.762690,-1924.535449,-2664.741391,-383.047749
200.763012,-1332.370696,0.000000,1378.971896
200.763333,0.000000,-1184.329507,229.828649
200.763655,666.185348,-4441.235652,-766.095498
200.763977,-296.082377,-7328.038826,-2221.676944
200.764299,-1924.535449,-10807.006753,-3830.477490
200.764621,-2368.659014,-13619.789333,-4519.963438
200.764943,-148.041188,-14285.974681,-4213.525239
200.765264,1850.514855,-15322.262999,-3447.429741
200.765586,2812.782580,-17024.736666,-1455.581446
200.765908,2442.679609,-16654.633695,306.438199
200.766230,2294.638420,-13989.892304,-842.705048
200.766552,3478.967927,-10214.842000,-1532.190996
200.766873,4663.297435,-6513.812290,-1915.238745
200.767195,5181.441594,-3552.988522,-1302.362347
200.767517,5033.400406,-2368.659014,-306.438199
200.767839,4811.338623,-3701.029710,1685.410096
200.768161,4589.276840,-5921.647536,2834.553343
200.768483,3552.988522,-8068.244768,-689.485948
200.768804,2442.679609,-10288.862594,-2298.286494
200.769126,1998.556043,-11695.253884,-2068.457845
200.769448,2146.597232,-12065.356855,-2374.896044
200.769770,3923.091493,-12509.480420,-2681.334243
200.770092,4885.359217,-12879.583391,-2834.553343
200.770414,3404.947333,-14063.912898,-1608.800546
200.770735,0.000000,-14656.077652,842.705048
200.771057,-3330.926739,-13989.892304,1225.752797
200.771379,-4515.256246,-11325.150913,-153.219100
200.771701,-4071.132681,-7179.997637,-2145.067394
200.772023,-2664.741391,-3404.947333,-2451.505594
200.772345,-2368.659014,-222.061783,-1225.752797
200.772666,-1776.494261,-518.144159,-229.828649
200.772988,-1776.494261,-3552.988522,-919.314598
200.773310,-2294.638420,-6883.915261,-1991.848295
200.773632,-3478.967927,-10140.821405,-2298.286494
200.773954,-3256.906145,-12805.562797,-3677.258390
200.774275,-1480.411884,-14137.933492,-5132.839837
200.774597,1332.370696,-13915.871710,-4596.572988
200.774919,2590.720797,-13027.624579,-1915.238745
200.775241,1850.514855,-13323.706956,536.266849
200.775563,148.041188,-13249.686362,612.876398
200.775885,-1258.350101,-11843.295072,-1225.752797
200.776206,-1850.514855,-9918.759623,-1685.410096
200.776528,-1998.556043,-8068.244768,0.000000
200.776850,-2368.659014,-5329.482782,1991.848295
200.777172,-2738.761985,-2886.803174,1149.143247
200.777494,-2516.700203,-2812.782580,536.266849
200.777816,-2146.597232,-5107.421000,-1149.143247
200.778137,-3034.844362,-8068.244768,-2681.334243
200.778459,-4293.194464,-10658.965565,-2528.115143
200.778781,-4663.297435,-13989.892304,-1378.971896
200.779103,-2516.700203,-15618.345376,-2068.457845
200.779425,0.000000,-15322.262999,-3140.991542
200.779746,444.123565,-13693.809927,-2757.943793
200.780068,-1258.350101,-12435.459826,-1149.143247
200.780390,-3849.070898,-11029.068536,689.485948
200.780712,-4959.379811,-9474.636058,-306.438199
200.781034,-5329.482782,-7476.080014,-2298.286494
200.781356,-4293.194464,-4737.318029,-3140.991542
200.781677,-2664.741391,-2886.803174,-995.924147
200.781999,-1776.494261,-666.185348,306.438199
200.782321,-666.185348,-888.247130,-306.438199
200.782643,0.000000,-4145.153275,-612.876398
200.782965,-962.267725,-7476.080014,-1685.410096
200.783287,-2590.720797,-10436.903782,-3983.696590
200.783608,-2738.761985,-13397.727550,-4903.011187
200.783930,-888.247130,-14063.912898,-4903.011187
200.784252,1332.370696,-15026.180623,-3753.867940
200.784574,2664.741391,-16506.592507,-1225.752797
200.784896,2812.782580,-15544.324782,153.219100
200.785218,2886.803174,-13323.706956,-306.438199
200.785539,3330.926739,-10288.862594,-1838.629195
200.785861,4219.173869,-7476.080014,-1455.581446
200.786183,4959.379811,-4737.318029,-1072.533697
200.786505,5033.400406,-3256.906145,-842.705048
200.786827,5107.421000,-3923.091493,1072.533697
200.787148,4811.338623,-5995.668130,995.924147
200.787470,2960.823768,-7476.080014,-919.314598
200.787792,1850.514855,-9918.759623,-1991.848295
200.788114,1184.329507,-11547.212695,-2221.676944
200.788436,1628.453072,-12583.501014,-2757.943793
200.788758,2960.823768,-12731.542202,-2987.772442
200.789079,4071.132681,-13101.645173,-1685.410096
200.789401,2960.823768,-13915.871710,-1225.752797
200.789723,222.061783,-13767.830521,536.266849
200.790045,-2368.659014,-13101.645173,383.047749
200.790367,-3478.967927,-10955.047942,-1378.971896
200.790689,-3034.844362,-7624.121203,-2757.943793
200.791010,-1924.535449,-4515.256246,-2145.067394
200.791332,-1924.535449,-1702.473667,0.000000
200.791654,-1554.432478,-814.226536,229.828649
200.791976,-1406.391290,-3182.885551,-842.705048
200.792298,-1776.494261,-6365.771101,-2604.724693
200.792620,-2812.782580,-9104.533087,-2911.162892
200.792941,-3849.070898,-11325.150913,-3294.210641
200.793263,-2516.700203,-12953.603985,-4060.306139
200.793585,-296.082377,-13693.809927,-3600.648841
200.793907,518.144159,-13619.789333,-1608.800546
200.794229,148.041188,-13175.665768,-459.657299
200.794550,-814.226536,-13471.748144,612.876398
200.794872,-1036.288319,-12435.459826,-612.876398
200.795194,-592.164754,-9622.677246,-1608.800546
200.795516,-222.061783,-7105.977043,-919.314598
200.795838,0.000000,-4737.318029,919.314598
200.796160,0.000000,-3256.906145,1378.971896
200.796481,-740.205942,-4071.132681,0.000000
200.796803,-1184.329507,-6365.771101,-1302.362347
200.797125,-2664.741391,-9104.533087,-2681.334243
200.797447,-4515.256246,-11843.295072,-2451.505594
200.797769,-4885.359217,-13619.789333,-1608.800546
200.798091,-3627.009116,-13619.789333,-2298.286494
200.798412,-888.247130,-13841.851115,-3677.258390
200.798734,-148.041188,-12805.562797,-2451.505594
200.799056,-1628.453072,-11843.295072,0.000000
200.799378,-3997.112087,-11621.233289,1225.752797
200.799700,-4959.379811,-9696.697840,229.828649
200.800022,-4959.379811,-7624.121203,-1991.848295
200.800343,-4219.173869,-5329.482782,-2528.115143
200.800665,-3108.864956,-3478.967927,-766.095498
200.800987,-2146.597232,-888.247130,76.609550
200.801309,-962.267725,-1110.308913,-1302.362347
200.801631,592.164754,-4811.338623,-1455.581446
200.801952,222.061783,-7698.141797,-1532.190996
200.802274,-296.082377,-9844.739029,-2987.772442
200.802596,148.041188,-11991.336260,-4826.401637
200.802918,1332.370696,-12583.501014,-4673.182538
200.803240,2368.659014,-14359.995275,-3370.820191
200.803562,1406.391290,-15766.386565,-1225.752797
200.803883,370.102971,-15988.448347,689.485948
200.804205,592.164754,-13619.789333,-612.876398
200.804527,1850.514855,-10881.027347,-2451.505594
200.804849,3997.112087,-8734.430116,-1762.019645
200.805171,4441.235652,-4811.338623,-536.266849
200.805493,4959.379811,-2516.700203,-459.657299
200.805814,4737.318029,-3330.926739,-153.219100
200.806136,3849.070898,-5847.626942,1072.533697
200.806458,1628.453072,-7624.121203,-766.095498
200.806780,-518.144159,-9696.697840,-2911.162892
200.807102,0.000000,-12287.418637,-3600.648841
200.807423,2220.617826,-13693.809927,-4596.572988
200.807745,4219.173869,-14137.933492,-4979.620737
200.808067,5255.462188,-15322.262999,-2145.067394
200.808389,4737.318029,-13693.809927,1838.629195
200.808711,2220.617826,-12065.356855,1915.238745
200.809033,0.000000,-11547.212695,-919.314598
200.809354,-1110.308913,-11325.150913,-2221.676944
200.809676,-1332.370696,-8068.244768,-2528.115143
200.809998,-1406.391290,-4515.256246,-1149.143247
200.810320,0.000000,-1850.514855,1608.800546
200.810642,740.205942,-740.205942,2298.286494
200.810964,592.164754,-1924.535449,-153.219100
200.811285,-1406.391290,-4737.318029,-2834.553343
200.811607,-3627.009116,-8586.388927,-3294.210641
200.811929,-5033.400406,-10955.047942,-3294.210641
200.812251,-4737.318029,-11917.315666,-4443.353888
200.812573,-2368.659014,-13101.645173,-5362.668486
200.812895,-814.226536,-13619.789333,-2757.943793
200.813216,-1480.411884,-14137.933492,-459.657299
200.813538,-3256.906145,-14359.995275,0.000000
200.813860,-3478.967927,-13545.768739,-536.266849
200.814182,-2146.597232,-10362.883188,-2451.505594
200.814504,-1036.288319,-7402.059420,-2604.724693
200.814825,0.000000,-4811.338623,-842.705048
200.815147,296.082377,-2368.659014,536.266849
200.815469,74.020594,-2886.803174,76.609550
200.815791,-296.082377,-6661.853478,0.000000
200.816113,-1702.473667,-9548.656652,-842.705048
200.816435,-2960.823768,-12213.398043,-1838.629195
200.816756,-2960.823768,-14137.933492,-1991.848295
200.817078,-740.205942,-13767.830521,-1762.019645
200.817400,2072.576638,-13101.645173,-2528.115143
200.817722,3108.864956,-12509.480420,-1915.238745
200.818044,1258.350101,-12139.377449,383.047749
200.818366,-2516.700203,-11473.192101,1455.581446
200.818687,-5773.606348,-9844.739029,153.219100
200.819009,-6439.791695,-8734.430116,-1838.629195
200.819331,-5107.421000,-6809.894666,-3294.210641
200.819653,-3701.029710,-4293.194464,-2681.334243
200.819975,-2516.700203,-1998.556043,-306.438199
200.820297,-1776.494261,-1554.432478,76.609550
200.820618,-1110.308913,-3330.926739,-459.657299
200.820940,-1406.391290,-6513.812290,-2451.505594
200.821262,-3108.864956,-9696.697840,-4366.744339
200.821584,-3404.947333,-13471.748144,-5286.058936
200.821906,-1702.473667,-14211.954086,-4903.011187
200.822227,74.020594,-13841.851115,-3600.648841
200.822549,1406.391290,-14137.933492,-1225.752797
200.822871,1184.329507,-14285.974681,766.095498
200.823193,962.267725,-13323.706956,-229.828649
200.823515,962.267725,-11029.068536,-1762.019645
200.823837,2072.576638,-8512.368333,-1302.362347
200.824158,3923.091493,-6143.709319,-306.438199
200.824480,5625.565159,-4293.194464,-229.828649
200.824802,5773.606348,-4219.173869,0.000000
200.825124,5033.400406,-5699.585753,1838.629195
200.825446,3552.988522,-6661.853478,1455.581446
200.825768,1924.535449,-8068.244768,-1608.800546
200.826089,1332.370696,-10732.986159,-3524.039291
200.826411,2886.803174,-13101.645173,-4290.134789
200.826733,3849.070898,-13693.809927,-4366.744339
200.827055,4737.318029,-13767.830521,-1762.019645
200.827377,5033.400406,-13545.768739,995.924147
200.827698,3552.988522,-12953.603985,1072.533697
200.828020,740.205942,-13101.645173,-995.924147
200.828342,-1850.514855,-12213.398043,-995.924147
200.828664,-2886.803174,-8512.368333,-1378.971896
200.828986,-2960.823768,-4367.215058,-1685.410096
200.829308,-1924.535449,-370.102971,-536.266849
200.829629,-1480.411884,814.226536,0.000000
200.829951,-1924.535449,-1702.473667,-1762.019645
200.830273,-3627.009116,-5921.647536,-3140.991542
200.830595,-5699.585753,-9548.656652,-2528.115143
200.830917,-6365.771101,-12139.377449,-2757.943793
200.831239,-5329.482782,-12805.562797,-5286.058936
200.831560,-2294.638420,-13619.789333,-6894.859482
200.831882,518.144159,-14211.954086,-5362.668486
200.832204,888.247130,-14359.995275,-1532.190996
200.832526,-148.041188,-14730.098246,1762.019645
200.832848,-222.061783,-13915.871710,536.266849
200.833170,888.247130,-11843.295072,-1838.629195
200.833491,1480.411884,-9030.512492,-2528.115143
200.833813,1850.514855,-6217.729913,-612.876398
200.834135,1702.473667,-2738.761985,2068.457845
200.834457,1332.370696,-1998.556043,1532.190996
200.834779,222.061783,-4663.297435,689.485948
200.835100,-1776.494261,-7698.141797,-229.828649
200.835422,-3923.091493,-10436.903782,-1838.629195
200.835744,-4663.297435,-13249.686362,-2298.286494
200.836066,-3182.885551,-14063.912898,-1685.410096
200.836388,-222.061783,-13989.892304,-2298.286494
200.836710,1480.411884,-13397.727550,-1685.410096
200.837031,814.226536,-12805.562797,306.438199
200.837353,-2294.638420,-11843.295072,689.485948
200.837675,-4885.359217,-10510.924376,-306.438199
200.837997,-7105.977043,-8586.388927,-2221.676944
200.838319,-6957.935855,-6217.729913,-3140.991542
200.838641,-5477.523971,-3923.091493,-2451.505594
200.838962,-3923.091493,-1850.514855,-229.828649
200.839284,-1554.432478,-962.267725,0.000000
200.839606,-666.185348,-3330.926739,-919.314598
200.839928,-962.267725,-6439.791695,-1225.752797
200.840250,-2590.720797,-7846.182985,-2298.286494
200.840572,-2886.803174,-10214.842000,-4749.792088
200.840893,-1332.370696,-12583.501014,-5515.887586
200.841215,962.267725,-13915.871710,-4213.525239
200.841537,1924.535449,-16062.468941,-2145.067394
200.841859,2294.638420,-17246.798449,1072.533697
200.842181,2886.803174,-16062.468941,1685.410096
200.842502,3775.050304,-12065.356855,-383.047749
200.842824,5107.421000,-8586.388927,-2145.067394
200.843146,5773.606348,-5181.441594,-1149.143247
200.843468,5995.668130,-2812.782580,-383.047749
200.843790,5477.523971,-2664.741391,459.657299
200.844112,4589.276840,-4959.379811,1455.581446
200.844433,3182.885551,-7698.141797,459.657299
200.844755,1628.453072,-10658.965565,-1608.800546
200.845077,0.000000,-12287.418637,-2604.724693
200.845399,0.000000,-12583.501014,-2911.162892
200.845721,1110.308913,-12139.377449,-3294.210641
200.846043,2664.741391,-11991.336260,-3370.820191
200.846364,2886.803174,-12287.418637,-2451.505594
200.846686,1110.308913,-13101.645173,-1149.143247
200.847008,-1406.391290,-13545.768739,0.000000
200.847330,-3775.050304,-12583.501014,0.000000
200.847652,-4367.215058,-9474.636058,-1225.752797
200.847974,-3775.050304,-5995.668130,-1991.848295
200.848295,-2516.700203,-2442.679609,-1838.629195
200.848617,-1776.494261,-666.185348,-1225.752797
200.848939,-962.267725,-814.226536,-1915.238745
200.849261,-1184.329507,-4737.318029,-2374.896044
200.849583,-2146.597232,-8290.306550,-1685.410096
200.849904,-2886.803174,-10066.800811,-2528.115143
200.850226,-1628.453072,-12435.459826,-4903.011187
200.850548,1036.288319,-14285.974681,-5515.887586
200.850870,2442.679609,-14730.098246,-3370.820191
200.851192,1924.535449,-14285.974681,0.000000
200.851514,1110.308913,-14508.036463,1378.971896
200.851835,1036.288319,-13397.727550,153.219100
200.852157,1110.308913,-10807.006753,-2298.286494
200.852479,888.247130,-8364.327145,-1608.800546
200.852801,148.041188,-6143.709319,1072.533697
200.853123,-370.102971,-3849.070898,1532.190996
200.853445,-1184.329507,-2368.659014,1149.143247
200.853766,-1480.411884,-4663.297435,306.438199
200.854088,-3182.885551,-6809.894666,-2068.457845
200.854410,-4959.379811,-9104.533087,-3524.039291
200.854732,-5847.626942,-11991.336260,-2834.553343
200.855054,-5255.462188,-14063.912898,-1685.410096
200.855375,-3478.967927,-14952.160028,-2298.286494
200.855697,-1332.370696,-14137.933492,-3447.429741
200.856019,-518.144159,-12953.603985,-2681.334243
200.856341,-1702.473667,-12139.377449,-689.485948
200.856663,-3627.009116,-11547.212695,229.828649
200.856985,-4959.379811,-9400.615463,383.047749
200.857306,-4589.276840,-5847.626942,-1149.143247
200.857628,-2960.823768,-3478.967927,-2068.457845
200.857950,-1184.329507,-1776.494261,-766.095498
200.858272,222.061783,-962.267725,76.609550
200.858594,1110.308913,-3404.947333,766.095498
200.858916,962.267725,-5699.585753,1072.533697
200.859238,740.205942,-7476.080014,-919.314598
200.859560,222.061783,-10288.862594,-4673.182538
200.859882,296.082377,-12805.562797,-5209.449386
200.860204,148.041188,-14137.933492,-3447.429741
200.860525,888.247130,-16432.571912,-1838.629195
200.860847,1110.308913,-17764.942608,76.609550
200.861169,1332.370696,-15914.427753,-153.219100
200.861491,2072.576638,-12953.603985,-1838.629195
200.861813,3034.844362,-9770.718434,-1532.190996
200.862135,3775.050304,-6365.771101,-229.828649
200.862457,3627.009116,-3701.029710,-306.438199
200.862779,3330.926739,-2368.659014,76.609550
200.863101,2664.741391,-3849.070898,76.609550
200.863423,1184.329507,-6735.874072,-1149.143247
200.863744,370.102971,-8364.327145,-2834.553343
200.864066,0.000000,-10066.800811,-3217.601092
200.864388,518.144159,-11621.233289,-2451.505594
200.864710,1406.391290,-12731.542202,-2221.676944
200.865032,2516.700203,-13471.748144,-2528.115143
200.865354,2886.803174,-13693.809927,-3140.991542
200.865676,1628.453072,-14211.954086,-2145.067394
200.865998,-296.082377,-13989.892304,-306.438199
200.866320,-1924.535449,-12139.377449,0.000000
200.866642,-1850.514855,-9178.553681,-842.705048
200.866963,-814.226536,-6069.688724,-1532.190996
200.867285,-222.061783,-3108.864956,-766.095498
200.867607,148.041188,-1184.329507,-689.485948
200.867929,0.000000,-1702.473667,-842.705048
200.868251,-666.185348,-4293.194464,-1608.800546
200.868573,-1850.514855,-7105.977043,-2298.286494
200.868895,-2664.741391,-9400.615463,-3140.991542
200.869217,-1776.494261,-11769.274478,-4596.572988
200.869539,-666.185348,-13767.830521,-5286.058936
200.869861,814.226536,-14804.118840,-3830.477490
200.870182,814.226536,-14359.995275,-995.924147
200.870504,0.000000,-14508.036463,306.438199
200.870826,-296.082377,-14063.912898,0.000000
200.871148,-518.144159,-11695.253884,-1455.581446
200.871470,-740.205942,-8438.347739,-1838.629195
200.871792,-814.226536,-6069.688724,0.000000
200.872114,-962.267725,-4219.173869,1455.581446
200.872436,-1332.370696,-2664.741391,1149.143247
200.872758,-1998.556043,-3775.050304,536.266849
200.873080,-2664.741391,-6069.688724,-1149.143247
200.873401,-3404.947333,-8512.368333,-2757.943793
200.873723,-4737.318029,-11325.150913,-2298.286494
200.874045,-4959.379811,-13323.706956,-766.095498
200.874367,-3330.926739,-14285.974681,-1991.848295
200.874689,-1036.288319,-14952.160028,-3600.648841
200.875011,296.082377,-14211.954086,-3064.381992
200.875333,-592.164754,-12731.542202,-842.705048
200.875655,-2664.741391,-11843.295072,766.095498
200.875977,-3701.029710,-9844.739029,1302.362347
200.876299,-3775.050304,-7105.977043,-995.924147
200.876621,-2960.823768,-4515.256246,-2451.505594
200.876942,-1702.473667,-2368.659014,-1149.143247
200.877264,-962.267725,-518.144159,0.000000
200.877586,-222.061783,-1702.473667,0.000000
200.877908,0.000000,-4811.338623,229.828649
200.878230,-1036.288319,-7328.038826,-536.266849
200.878552,-1776.494261,-10288.862594,-3983.696590
200.878874,-1702.473667,-13175.665768,-5439.278036
200.879196,-740.205942,-14211.954086,-4519.963438
200.879518,148.041188,-15322.262999,-3064.381992
200.879840,1036.288319,-17024.736666,-1072.533697
200.880161,1480.411884,-16358.551318,306.438199
200.880483,2294.638420,-13545.768739,-995.924147
200.880805,3330.926739,-10510.924376,-2145.067394
200.881127,4737.318029,-7772.162391,-1072.533697
200.881449,4737.318029,-4737.318029,-229.828649
200.881771,4441.235652,-2442.679609,536.266849
200.882093,3923.091493,-2664.741391,1225.752797
200.882415,3256.906145,-5403.503377,229.828649
200.882737,1850.514855,-7920.203579,-2374.896044
200.883059,888.247130,-10288.862594,-3370.820191
200.883380,74.020594,-11399.171507,-2298.286494
200.883702,740.205942,-12953.603985,-2145.067394
200.884024,2072.576638,-13693.809927,-2451.505594
200.884346,3256.906145,-13915.871710,-3140.991542
200.884668,2590.720797,-14211.954086,-2451.505594
200.884990,296.082377,-13619.789333,-306.438199
200.885312,-1628.453072,-12583.501014,383.047749
200.885634,-2072.576638,-10140.821405,-689.485948
200.885956,-1702.473667,-7179.997637,-2221.676944
200.886278,-962.267725,-4219.173869,-1378.971896
200.886599,-666.185348,-1702.473667,-612.876398
200.886921,-296.082377,-962.267725,-612.876398
200.887243,-814.226536,-2368.659014,-1532.190996
200.887565,-2072.576638,-6217.729913,-2145.067394
200.887887,-3849.070898,-9104.533087,-1685.410096
200.888209,-4219.173869,-10881.027347,-3830.477490
200.888531,-2960.823768,-13471.748144,-5592.497135
200.888853,-666.185348,-15248.242405,-4979.620737
200.889175,-296.082377,-14359.995275,-1838.629195
200.889497,-814.226536,-14285.974681,229.828649
200.889818,-666.185348,-13841.851115,842.705048
200.890140,-222.061783,-11917.315666,-919.314598
200.890462,148.041188,-8808.450710,-2221.676944
200.890784,148.041188,-6291.750507,-1072.533697
200.891106,0.000000,-4589.276840,1072.533697
200.891428,-888.247130,-3701.029710,1685.410096
200.891750,-962.267725,-4071.132681,306.438199
200.892072,-1776.494261,-6439.791695,-1225.752797
200.892394,-2442.679609,-8956.491898,-3064.381992
200.892716,-3330.926739,-11547.212695,-3064.381992
200.893037,-3997.112087,-13915.871710,-1378.971896
200.893359,-3256.906145,-14063.912898,-842.705048
200.893681,-1184.329507,-14359.995275,-2374.896044
200.894003,222.061783,-13767.830521,-3140.991542
200.894325,-222.061783,-12139.377449,-1455.581446
200.894647,-2738.761985,-11325.150913,306.438199
200.894969,-4589.276840,-9696.697840,536.266849
200.895291,-4589.276840,-7698.141797,-383.047749
200.895613,-3849.070898,-5107.421000,-1455.581446
200.895935,-2368.659014,-2368.659014,-1378.971896
200.896256,-962.267725,-740.205942,-842.705048
200.896578,0.000000,-1998.556043,-995.924147
200.896900,148.041188,-4811.338623,0.000000
200.897222,-666.185348,-6439.791695,-536.266849
200.897544,-1036.288319,-9548.656652,-3753.867940
200.897866,-962.267725,-12435.459826,-5975.544884
200.898188,-148.041188,-14137.933492,-5286.058936
200.898510,0.000000,-15840.407159,-3600.648841
200.898832,370.102971,-18061.024985,-1149.143247
200.899154,1554.432478,-17320.819043,689.485948
200.899475,2294.638420,-13693.809927,-306.438199
200.899797,3478.967927,-9696.697840,-1149.143247
200.900119,4959.379811,-6883.915261,-383.047749
200.900441,5107.421000,-4071.132681,76.609550
200.900763,4367.215058,-1850.514855,842.705048
200.901085,4145.153275,-2442.679609,1378.971896
200.901407,3108.864956,-5773.606348,383.047749
200.901729,1480.411884,-8438.347739,-1685.410096
200.902051,370.102971,-10066.800811,-2451.505594
200.902373,444.123565,-11843.295072,-2528.115143
200.902694,1628.453072,-13101.645173,-3294.210641
200.903016,2664.741391,-13915.871710,-3600.648841
200.903338,2886.803174,-13619.789333,-3370.820191
200.903660,2294.638420,-13841.851115,-1915.238745
200.903982,740.205942,-14211.954086,-995.924147
200.904304,-740.205942,-13841.851115,-536.266849
200.904626,-1924.535449,-10955.047942,-1149.143247
200.904948,-1924.535449,-7476.080014,-1991.848295
200.905270,-1110.308913,-5033.400406,-1838.629195
200.905592,-962.267725,-1258.350101,-306.438199
200.905913,-666.185348,518.144159,-459.657299
200.906235,-962.267725,-1110.308913,-1915.238745
200.906557,-2146.597232,-5329.482782,-2221.676944
200.906879,-4145.153275,-8660.409521,-1762.019645
200.907201,-4959.379811,-9844.739029,-3140.991542
200.907523,-2886.803174,-12805.562797,-5515.887586
200.907845,0.000000,-15248.242405,-5745.716235
200.908167,666.185348,-15248.242405,-2604.724693
200.908489,-296.082377,-14434.015869,0.000000
200.908811,-814.226536,-13915.871710,383.047749
200.909133,0.000000,-12435.459826,-1532.190996
200.909454,1036.288319,-9770.718434,-2911.162892
200.909776,814.226536,-6883.915261,-2221.676944
200.910098,740.205942,-4959.379811,689.485948
200.910420,148.041188,-3627.009116,1685.410096
200.910742,-370.102971,-3552.988522,1072.533697
200.911064,-1554.432478,-5625.565159,0.000000
200.911386,-3404.947333,-7920.203579,-2374.896044
200.911708,-5181.441594,-10732.986159,-3447.429741
200.912030,-6069.688724,-13323.706956,-2145.067394
200.912352,-5181.441594,-14137.933492,-1149.143247
200.912673,-2516.700203,-13693.809927,-1838.629195
200.912995,-444.123565,-14211.954086,-2451.505594
200.913317,-296.082377,-12509.480420,-1608.800546
200.913639,-1924.535449,-10881.027347,0.000000
200.913961,-3404.947333,-9622.677246,0.000000
200.914283,-3701.029710,-7994.224174,0.000000
200.914605,-3182.885551,-6217.729913,-2374.896044
200.914927,-2368.659014,-3775.050304,-2374.896044
200.915249,-518.144159,-2368.659014,-1225.752797
200.915571,962.267725,-2960.823768,-612.876398
200.915892,666.185348,-5033.400406,-842.705048
200.916214,-370.102971,-6513.812290,0.000000
200.916536,-740.205942,-9104.533087,-1532.190996
200.916858,-296.082377,-11547.212695,-4673.182538
200.917180,222.061783,-12953.603985,-4749.792088
200.917502,0.000000,-13693.809927,-2528.115143
200.917824,222.061783,-14434.015869,459.657299
200.918146,962.267725,-14878.139434,1378.971896
200.918468,2072.576638,-13397.727550,0.000000
200.918790,2886.803174,-10881.027347,-1455.581446
200.919111,3923.091493,-8956.491898,-459.657299
200.919433,3997.112087,-7105.977043,536.266849
200.919755,3108.864956,-4293.194464,459.657299
200.920077,2590.720797,-2664.741391,1149.143247
200.920399,2146.597232,-3478.967927,-459.657299
200.920721,444.123565,-6809.894666,-3064.381992
200.921043,370.102971,-9474.636058,-4136.915689
200.921365,1110.308913,-11473.192101,-3907.087040
200.921687,2368.659014,-13915.871710,-4136.915689
200.922009,4293.194464,-15396.283594,-2604.724693
200.922330,5107.421000,-15618.345376,-1762.019645
200.922652,4145.153275,-14285.974681,-1608.800546
200.922974,1036.288319,-13545.768739,383.047749
200.923296,-1110.308913,-11769.274478,1532.190996
200.923618,-2442.679609,-8142.265362,-536.266849
200.923940,-1998.556043,-5995.668130,-2145.067394
200.924262,0.000000,-4589.276840,-1225.752797
200.924584,444.123565,-2368.659014,306.438199
200.924906,148.041188,-1406.391290,1608.800546
200.925228,-444.123565,-2442.679609,766.095498
200.925549,-1776.494261,-5181.441594,-1225.752797
200.925871,-3404.947333,-8216.285956,-3753.867940
200.926193,-5033.400406,-10584.944971,-5362.668486
200.926515,-4885.359217,-13027.624579,-6052.154434
200.926837,-3330.926739,-14211.954086,-5745.716235
200.927159,-1702.473667,-15396.283594,-3983.696590
200.927481,-1776.494261,-16432.571912,-1532.190996
200.927803,-2072.576638,-16580.613101,-536.266849
200.928125,-1554.432478,-13989.892304,-1378.971896
200.928447,-814.226536,-10214.842000,-2757.943793
200.928768,222.061783,-6661.853478,-2221.676944
200.929090,444.123565,-3849.070898,-229.828649
200.929412,0.000000,-1702.473667,919.314598
200.929734,-962.267725,-1998.556043,1455.581446
200.930056,-2072.576638,-4589.276840,383.047749
200.930378,-3478.967927,-8438.347739,-2221.676944
200.930700,-4959.379811,-12361.439231,-2221.676944
200.931022,-5551.544565,-14434.015869,-995.924147
200.931344,-3404.947333,-14434.015869,-1532.190996
200.931666,444.123565,-13915.871710,-2451.505594
200.931987,3256.906145,-13249.686362,-2068.457845
200.932309,2738.761985,-11473.192101,-153.219100
200.932631,0.000000,-10881.027347,689.485948
200.932953,-2738.761985,-11251.130318,842.705048
200.933275,-3775.050304,-9474.636058,-612.876398
200.933597,-3627.009116,-6217.729913,-2987.772442
200.933919,-2368.659014,-3775.050304,-2145.067394
200.934241,-1850.514855,-1998.556043,306.438199
200.934563,-1110.308913,-888.247130,459.657299
200.934885,-370.102971,-2442.679609,-766.095498
200.935206,-296.082377,-5699.585753,-1532.190996
200.935528,-1998.556043,-8512.368333,-2068.457845
200.935850,-3552.988522,-11399.171507,-3830.477490
200.936172,-2664.741391,-13989.892304,-4826.401637
200.936494,-1110.308913,-14730.098246,-3524.039291
200.936816,-370.102971,-14211.954086,-1762.019645
200.937138,0.000000,-14434.015869,689.485948
200.937460,222.061783,-14137.933492,842.705048
200.937782,1554.432478,-11695.253884,-1072.533697
200.938104,3034.844362,-8808.450710,-1991.848295
200.938425,4885.359217,-6217.729913,-766.095498
200.938747,5107.421000,-4737.318029,-1149.143247
200.939069,5033.400406,-3923.091493,0.000000
200.939391,4441.235652,-4441.235652,995.924147
200.939713,3034.844362,-7179.997637,-919.314598
200.940035,1776.494261,-10140.821405,-2757.943793
200.940357,1850.514855,-12509.480420,-3294.210641
200.940679,2072.576638,-13841.851115,-3830.477490
200.941001,3552.988522,-14730.098246,-3217.601092
200.941323,5403.503377,-14359.995275,-1225.752797
200.941645,5625.565159,-13249.686362,76.609550
200.941966,4145.153275,-11325.150913,1072.533697
200.942288,1184.329507,-11251.130318,306.438199
200.942610,-1628.453072,-11177.109724,-766.095498
200.942932,-2368.659014,-8660.409521,-1991.848295
200.943254,-2368.659014,-5329.482782,-1532.190996
200.943576,-2220.617826,-2368.659014,689.485948
200.943898,-2072.576638,-370.102971,1685.410096
200.944220,-2220.617826,-1258.350101,-1225.752797
200.944542,-2886.803174,-4293.194464,-4213.525239
200.944864,-4219.173869,-8882.471304,-4290.134789
200.945185,-6217.729913,-11621.233289,-3370.820191
200.945507,-5847.626942,-11991.336260,-4979.620737
200.945829,-3627.009116,-13027.624579,-6205.373534
200.946151,-888.247130,-15026.180623,-5515.887586
200.946473,-222.061783,-16210.510130,-2604.724693
200.946795,-1184.329507,-16136.489536,0.000000
200.947117,-1258.350101,-14285.974681,306.438199
200.947439,518.144159,-10658.965565,-306.438199
200.947761,2368.659014,-7031.956449,-2145.067394
200.948083,2590.720797,-4145.153275,-766.095498
200.948404,1628.453072,-1406.391290,1378.971896
200.948726,666.185348,-1332.370696,1685.410096
200.949048,-370.102971,-4737.318029,1302.362347
200.949370,-2146.597232,-8290.306550,-536.266849
200.949692,-4145.153275,-12065.356855,-2068.457845
200.950014,-5107.421000,-14434.015869,-1991.848295
200.950336,-3849.070898,-14730.098246,-1915.238745
200.950658,-74.020594,-14137.933492,-2451.505594
200.950980,2220.617826,-12953.603985,-2451.505594
200.951302,1998.556043,-11991.336260,-536.266849
200.951623,-666.185348,-11621.233289,689.485948
200.951945,-3478.967927,-11251.130318,-229.828649
200.952267,-4811.338623,-9030.512492,-1532.190996
200.952589,-4515.256246,-6143.709319,-2987.772442
200.952911,-3775.050304,-3997.112087,-2298.286494
200.953233,-3330.926739,-2146.597232,306.438199
200.953555,-2072.576638,-888.247130,0.000000
200.953877,-666.185348,-2738.761985,-1225.752797
200.954199,0.000000,-6365.771101,-1762.019645
200.954521,-2146.597232,-8290.306550,-2145.067394
200.954842,-2960.823768,-10362.883188,-4060.306139
200.955164,-1924.535449,-12731.542202,-4596.572988
200.955486,0.000000,-14211.954086,-3830.477490
200.955808,444.123565,-14434.015869,-2374.896044
200.956130,666.185348,-16284.530724,-229.828649
200.956452,1702.473667,-15840.407159,842.705048
200.956774,2812.782580,-13027.624579,-459.657299
200.957096,4515.256246,-9622.677246,-1225.752797
200.957418,5921.647536,-6217.729913,-459.657299
200.957740,6957.935855,-2738.761985,-383.047749
200.958061,6365.771101,-3182.885551,-153.219100
200.958383,5255.462188,-4589.276840,1302.362347
200.958705,3627.009116,-6809.894666,536.266849
200.959027,1702.473667,-9030.512492,-2068.457845
200.959349,814.226536,-10807.006753,-3524.039291
200.959671,1258.350101,-12657.521608,-3370.820191
200.959993,1406.391290,-13101.645173,-4060.306139
200.960315,2220.617826,-13989.892304,-2987.772442
200.960637,1776.494261,-14211.954086,-995.924147
200.960959,148.041188,-12805.562797,0.000000
200.961281,-2738.761985,-11843.295072,-153.219100
200.961603,-3849.070898,-12509.480420,-1455.581446
200.961924,-3627.009116,-9548.656652,-2221.676944
200.962246,-3256.906145,-5699.585753,-1991.848295
200.962568,-2220.617826,-2368.659014,-306.438199
200.962890,-666.185348,-888.247130,229.828649
200.963212,-222.061783,-1110.308913,-383.047749
200.963534,-1480.411884,-4145.153275,-2757.943793
200.963856,-2960.823768,-8142.265362,-2604.724693
200.964178,-4219.173869,-10881.027347,-2145.067394
200.964500,-3552.988522,-11769.274478,-3524.039291
200.964822,-1110.308913,-13397.727550,-5439.278036
200.965144,1406.391290,-14434.015869,-3753.867940
200.965466,1628.453072,-14211.954086,-995.924147
200.965787,222.061783,-14285.974681,306.438199
200.966109,-444.123565,-13471.748144,306.438199
200.966431,0.000000,-10510.924376,-995.924147
200.966753,592.164754,-7994.224174,-2374.896044
200.967075,592.164754,-5699.585753,-766.095498
200.967397,370.102971,-3627.009116,1455.581446
200.967719,-518.144159,-2442.679609,1455.581446
200.968041,-1480.411884,-4219.173869,536.266849
200.968363,-3256.906145,-7328.038826,-1378.971896
200.968685,-5403.503377,-9992.780217,-2604.724693
200.969007,-6661.853478,-12657.521608,-3140.991542
200.969328,-5551.544565,-13767.830521,-2604.724693
200.969650,-2590.720797,-14508.036463,-2528.115143
200.969972,888.247130,-13619.789333,-2451.505594
200.970294,1406.391290,-12879.583391,-612.876398
200.970616,-296.082377,-12287.418637,1072.533697
200.970938,-2368.659014,-11399.171507,919.314598
200.971260,-3330.926739,-9252.574275,-919.314598
200.971582,-2960.823768,-6587.832884,-2757.943793
200.971904,-1628.453072,-4219.173869,-2145.067394
200.972226,-518.144159,-2368.659014,76.609550
200.972548,444.123565,-1110.308913,766.095498
200.972870,1184.329507,-2664.741391,-383.047749
200.973191,1036.288319,-6439.791695,-1302.362347
200.973513,-888.247130,-8364.327145,-2604.724693
200.973835,-2294.638420,-11547.212695,-4290.134789
200.974157,-1850.514855,-13989.892304,-5286.058936
200.974479,-296.082377,-14508.036463,-4366.744339
200.974801,814.226536,-15248.242405,-2911.162892
200.975123,1184.329507,-16876.695478,-306.438199
200.975445,1406.391290,-16506.592507,383.047749
200.975767,2220.617826,-12583.501014,-1149.143247
200.976089,3330.926739,-9400.615463,-1762.019645
200.976411,4441.235652,-6439.791695,-766.095498
200.976733,5255.462188,-3330.926739,-153.219100
200.977054,4589.276840,-1998.556043,229.828649
200.977376,3775.050304,-3478.967927,1225.752797
200.977698,1776.494261,-5921.647536,536.266849
200.978020,-296.082377,-8216.285956,-1991.848295
200.978342,-1406.391290,-10658.965565,-2451.505594
200.978664,-1258.350101,-12435.459826,-3524.039291
200.978986,666.185348,-13471.748144,-3753.867940
200.979308,2368.659014,-14063.912898,-3370.820191
200.979630,2664.741391,-14285.974681,-1149.143247
200.979952,1332.370696,-13323.706956,536.266849
200.980274,-1184.329507,-11843.295072,306.438199
200.980595,-2146.597232,-12139.377449,-1532.190996
200.980917,-1924.535449,-9918.759623,-2528.115143
200.981239,-1480.411884,-6291.750507,-1838.629195
200.981561,-962.267725,-2886.803174,0.000000
200.981883,148.041188,-962.267725,1991.848295
200.982205,444.123565,-444.123565,0.000000
200.982527,-296.082377,-3108.864956,-2681.334243
200.982849,-2738.761985,-7105.977043,-2757.943793
200.983171,-4737.318029,-9992.780217,-1378.971896
200.983493,-4589.276840,-11917.315666,-3140.991542
200.983815,-2516.700203,-13101.645173,-5056.230287
200.984137,-370.102971,-14137.933492,-4060.306139
200.984458,-296.082377,-14508.036463,-1608.800546
200.984780,-1554.432478,-15026.180623,229.828649
200.985102,-1850.514855,-14285.974681,153.219100
200.985424,-814.226536,-11547.212695,-1991.848295
200.985746,296.082377,-7772.162391,-2834.553343
200.986068,666.185348,-6143.709319,-842.705048
200.986390,518.144159,-4145.153275,1455.581446
200.986712,0.000000,-2516.700203,995.924147
200.987034,-296.082377,-4145.153275,0.000000
200.987356,-1850.514855,-7550.100608,-1302.362347
200.987678,-4293.194464,-9918.759623,-3064.381992
200.988000,-5773.606348,-12657.521608,-3064.381992
200.988321,-5329.482782,-13767.830521,-1915.238745
200.988643,-2738.761985,-14359.995275,-2068.457845
200.988965,0.000000,-13397.727550,-2987.772442
200.989287,1258.350101,-12583.501014,-2145.067394
200.989609,296.082377,-11547.212695,306.438199
200.989931,-1924.535449,-10658.965565,1149.143247
200.990253,-2590.720797,-9844.739029,0.000000
200.990575,-2442.679609,-7772.162391,-1378.971896
200.990897,-1998.556043,-4885.359217,-1762.019645
200.991219,-1702.473667,-2368.659014,-229.828649
200.991541,-592.164754,-1406.391290,383.047749
200.991862,444.123565,-2368.659014,-766.095498
200.992184,222.061783,-4811.338623,-1762.019645
200.992506,-814.226536,-6587.832884,-1608.800546
200.992828,-1110.308913,-10140.821405,-4136.915689
200.993150,-592.164754,-12583.501014,-5669.106685
200.993472,148.041188,-13989.892304,-4903.011187
200.993794,592.164754,-16210.510130,-2528.115143
200.994116,444.123565,-17320.819043,153.219100
200.994438,1258.350101,-16210.510130,459.657299
200.994760,1702.473667,-12509.480420,-1072.533697
200.995082,3478.967927,-8882.471304,-1838.629195
200.995404,4885.359217,-6439.791695,-842.705048
200.995725,4737.318029,-4071.132681,0.000000
200.996047,4219.173869,-2368.659014,995.924147
200.996369,3849.070898,-3404.947333,1685.410096
200.996691,2590.720797,-5995.668130,-306.438199
200.997013,740.205942,-8956.491898,-3370.820191
200.997335,0.000000,-11103.089130,-4290.134789
200.997657,222.061783,-11843.295072,-3447.429741
200.997979,1628.453072,-13397.727550,-3830.477490
200.998301,3034.844362,-15026.180623,-3294.210641
200.998623,3182.885551,-15248.242405,-2145.067394
200.998945,1554.432478,-14211.954086,-842.705048
200.999267,0.000000,-13323.706956,0.000000
200.999588,-1554.432478,-12435.459826,-383.047749
200.999910,-1924.535449,-9696.697840,-2451.505594
201.000232,-1702.473667,-6291.750507,-1685.410096
201.000554,-1110.308913,-2886.803174,76.609550
201.000876,-592.164754,-962.267725,1378.971896
201.001198,-370.102971,148.041188,153.219100
201.001520,-888.247130,-1850.514855,-2451.505594
201.001842,-2516.700203,-5773.606348,-2987.772442
201.002164,-4663.297435,-9918.759623,-1915.238745
201.002486,-5107.421000,-11769.274478,-2987.772442
201.002808,-3256.906145,-13101.645173,-5439.278036
201.003129,-888.247130,-14211.954086,-4903.011187
201.003451,0.000000,-15026.180623,-2298.286494
201.003773,-1554.432478,-15248.242405,0.000000
201.004095,-2146.597232,-14211.954086,536.266849
201.004417,-962.267725,-11769.274478,-1302.362347
201.004739,888.247130,-8142.265362,-2374.896044
201.005061,962.267725,-5921.647536,-1915.238745
201.005383,666.185348,-3627.009116,842.705048
201.005705,0.000000,-1998.556043,1685.410096
201.006027,-370.102971,-3552.988522,689.485948
201.006349,-1628.453072,-6883.915261,-766.095498
201.006671,-3404.947333,-9474.636058,-2451.505594
201.006992,-5255.462188,-12213.398043,-2604.724693
201.007314,-5625.565159,-14063.912898,-1608.800546
201.007636,-3849.070898,-14582.057057,-1608.800546
201.007958,-1184.329507,-13989.892304,-3140.991542
201.008280,592.164754,-12583.501014,-2374.896044
201.008602,296.082377,-11399.171507,-229.828649
201.008924,-1850.514855,-11251.130318,919.314598
201.009246,-3108.864956,-10510.924376,76.609550
201.009568,-3552.988522,-8438.347739,-1455.581446
201.009890,-2812.782580,-5477.523971,-2068.457845
201.010212,-1776.494261,-3330.926739,-1378.971896
201.010534,-222.061783,-1628.453072,-229.828649
201.010855,518.144159,-1924.535449,-1302.362347
201.011177,1036.288319,-5033.400406,-1378.971896
201.011499,0.000000,-7550.100608,-1225.752797
201.011821,-1702.473667,-10288.862594,-3447.429741
201.012143,-1480.411884,-13175.665768,-5515.887586
201.012465,0.000000,-14582.057057,-5056.230287
201.012787,814.226536,-15174.221811,-2987.772442
201.013109,1554.432478,-15988.448347,-612.876398
201.013431,1998.556043,-15470.304188,1072.533697
201.013753,2368.659014,-12879.583391,229.828649
201.014075,3478.967927,-9992.780217,-1532.190996
201.014396,4145.153275,-7550.100608,-766.095498
201.014718,4589.276840,-5625.565159,229.828649
201.015040,4441.235652,-3404.947333,459.657299
201.015362,3701.029710,-2738.761985,1532.190996
201.015684,3256.906145,-4589.276840,383.047749
201.016006,2072.576638,-7105.977043,-2374.896044
201.016328,1036.288319,-9474.636058,-3907.087040
201.016650,888.247130,-11103.089130,-4213.525239
201.016972,1554.432478,-13249.686362,-3524.039291
201.017294,2960.823768,-15100.201217,-3447.429741
201.017616,3330.926739,-15618.345376,-2451.505594
201.017938,2220.617826,-14508.036463,-766.095498
201.018259,0.000000,-13175.665768,306.438199
201.018581,-1184.329507,-12287.418637,-153.219100
201.018903,-2368.659014,-9770.718434,-1302.362347
201.019225,-2442.679609,-6513.812290,-1378.971896
201.019547,-2368.659014,-2960.823768,0.000000
201.019869,-1776.494261,-666.185348,1302.362347
201.020191,-1258.350101,74.020594,689.485948
201.020513,-370.102971,-1702.473667,-2221.676944
201.020835,-2368.659014,-5551.544565,-2834.553343
201.021157,-4663.297435,-8882.471304,-1685.410096
201.021479,-5107.421000,-10955.047942,-2987.772442
201.021801,-3552.988522,-13101.645173,-5898.935335
201.022122,-666.185348,-15100.201217,-6665.030833
201.022444,-296.082377,-15914.427753,-3753.867940
201.022766,-1406.391290,-16654.633695,-919.314598
201.023088,-2146.597232,-16358.551318,153.219100
201.023410,-962.267725,-13397.727550,-1149.143247
201.023732,1554.432478,-9696.697840,-3064.381992
201.024054,2220.617826,-6365.771101,-2374.896044
201.024376,1776.494261,-4071.132681,383.047749
201.024698,740.205942,-2072.576638,2068.457845
201.025020,-444.123565,-3108.864956,2221.676944
201.025342,-2368.659014,-6513.812290,689.485948
201.025663,-5033.400406,-8808.450710,-1991.848295
201.025985,-6513.812290,-11473.192101,-3217.601092
201.026307,-6365.771101,-13693.809927,-2145.067394
201.026629,-4737.318029,-14063.912898,-1072.533697
201.026951,-1332.370696,-13693.809927,-1532.190996
201.027273,666.185348,-12805.562797,-1685.410096
201.027595,888.247130,-11991.336260,-1225.752797
201.027917,-1406.391290,-10955.047942,0.000000
201.028239,-3182.885551,-10140.821405,-459.657299
201.028561,-3330.926739,-9252.574275,-1762.019645
201.028883,-2516.700203,-6735.874072,-2911.162892
201.029205,-2442.679609,-3627.009116,-1991.848295
201.029526,-1406.391290,-1850.514855,0.000000
201.029848,222.061783,-2368.659014,0.000000
201.030170,518.144159,-3997.112087,-1378.971896
201.030492,0.000000,-6143.709319,-1072.533697
201.030814,-1332.370696,-8734.430116,-1991.848295
201.031136,-1332.370696,-11399.171507,-3907.087040
201.031458,-888.247130,-12657.521608,-4060.306139
201.031780,-444.123565,-13767.830521,-2068.457845
201.032102,148.041188,-15470.304188,76.609550
201.032424,1184.329507,-15396.283594,1762.019645
201.032746,1924.535449,-13323.706956,0.000000
201.033067,3330.926739,-9992.780217,-1072.533697
201.033389,4737.318029,-7550.100608,-919.314598
201.033711,4663.297435,-5181.441594,0.000000
201.034033,4145.153275,-3256.906145,306.438199
201.034355,4219.173869,-3108.864956,-229.828649
201.034677,3256.906145,-5551.544565,-1608.800546
201.034999,2146.597232,-9252.574275,-3370.820191
201.035321,1036.288319,-12139.377449,-3524.039291
201.035643,888.247130,-13767.830521,-3217.601092
201.035965,1776.494261,-13915.871710,-2681.334243
201.036287,3478.967927,-14211.954086,-3064.381992
201.036609,4293.194464,-13767.830521,-3217.601092
201.036930,3108.864956,-13693.809927,-1532.190996
201.037252,666.185348,-12879.583391,1455.581446
201.037574,-1628.453072,-11621.233289,2604.724693
201.037896,-2442.679609,-9104.533087,383.047749
201.038218,-2516.700203,-6439.791695,-842.705048
201.038540,-1702.473667,-4441.235652,-383.047749
201.038862,-1332.370696,-2146.597232,459.657299
201.039184,-814.226536,-740.205942,689.485948
201.039506,-666.185348,-1702.473667,-1302.362347
201.039828,-962.267725,-5625.565159,-2451.505594
201.040150,-3404.947333,-8734.430116,-2987.772442
201.040472,-4219.173869,-10807.006753,-4673.182538
201.040793,-3627.009116,-13693.809927,-7124.688131
201.041115,-1480.411884,-15766.386565,-6281.983084
201.041437,-1332.370696,-16654.633695,-3677.258390
201.041759,-2220.617826,-17024.736666,-1149.143247
201.042081,-1776.494261,-16358.551318,-612.876398
201.042403,-222.061783,-13249.686362,-1378.971896
201.042725,1406.391290,-9030.512492,-2374.896044
201.043047,1998.556043,-5033.400406,-1225.752797
201.043369,1480.411884,-2516.700203,1608.800546
201.043691,296.082377,-1406.391290,2987.772442
201.044013,-1110.308913,-2146.597232,2298.286494
201.044334,-2368.659014,-4737.318029,229.828649
201.044656,-3997.112087,-8216.285956,-1991.848295
201.044978,-5773.606348,-11991.336260,-2681.334243
201.045300,-7031.956449,-13989.892304,-1149.143247
201.045622,-5255.462188,-14285.974681,-1532.190996
201.045944,-1258.350101,-15026.180623,-3600.648841
201.046266,1776.494261,-14434.015869,-4136.915689
201.046588,1850.514855,-12583.501014,-1762.019645
201.046910,-666.185348,-11769.274478,536.266849
201.047232,-2294.638420,-10881.027347,612.876398
201.047554,-2368.659014,-8808.450710,-1685.410096
201.047876,-1850.514855,-5995.668130,-3524.039291
201.048197,-962.267725,-3404.947333,-1915.238745
201.048519,-1110.308913,-2368.659014,536.266849
201.048841,-888.247130,-1258.350101,0.000000
201.049163,-148.041188,-2516.700203,-1149.143247
201.049485,-518.144159,-5699.585753,-1225.752797
201.049807,-2368.659014,-8290.306550,-1838.629195
201.050129,-3108.864956,-11029.068536,-4136.915689
201.050451,-1702.473667,-13471.748144,-4673.182538
201.050773,592.164754,-14804.118840,-3370.820191
201.051095,1332.370696,-15100.201217,-1302.362347
201.051417,1110.308913,-15544.324782,306.438199
201.051739,1110.308913,-14730.098246,459.657299
201.052060,2368.659014,-12065.356855,-1915.238745
201.052382,4071.132681,-8882.471304,-2987.772442
201.052704,5625.565159,-6735.874072,-1608.800546
201.053026,5403.503377,-4811.338623,76.609550
201.053348,4515.256246,-2516.700203,1149.143247
201.053670,4145.153275,-4293.194464,536.266849
201.053992,3108.864956,-7179.997637,-1991.848295
201.054314,2072.576638,-9474.636058,-4519.963438
201.054636,1036.288319,-11621.233289,-4136.915689
201.054958,1036.288319,-13249.686362,-2757.943793
201.055280,2220.617826,-14137.933492,-1225.752797
201.055601,3997.112087,-14730.098246,-2145.067394
201.055923,4071.132681,-14434.015869,-1685.410096
201.056245,2072.576638,-13915.871710,229.828649
201.056567,-888.247130,-12435.459826,1991.848295
201.056889,-2590.720797,-10584.944971,689.485948
201.057211,-2664.741391,-7328.038826,-689.485948
201.057533,-1702.473667,-4219.173869,-1608.800546
201.057855,-814.226536,-1702.473667,-1302.362347
201.058177,-740.205942,-814.226536,0.000000
201.058499,-518.144159,-2368.659014,-612.876398
201.058820,-1776.494261,-4737.318029,-1762.019645
201.059142,-3330.926739,-8586.388927,-1991.848295
201.059464,-4589.276840,-11177.109724,-3140.991542
201.059786,-4219.173869,-12509.480420,-5975.544884
201.060108,-2368.659014,-13175.665768,-6435.202183
201.060430,-888.247130,-14063.912898,-4060.306139
201.060752,-1184.329507,-15174.221811,-1225.752797
201.061074,-1702.473667,-16358.551318,919.314598
201.061395,-2072.576638,-14211.954086,306.438199
201.061717,-888.247130,-10584.944971,-1532.190996
201.062039,888.247130,-6735.874072,-1608.800546
201.062361,1480.411884,-4367.215058,0.000000
201.062683,222.061783,-1924.535449,1685.410096
201.063005,-888.247130,-1702.473667,2604.724693
201.063327,-2220.617826,-4293.194464,1762.019645
201.063649,-4219.173869,-7772.162391,-1225.752797
201.063970,-5847.626942,-11029.068536,-2834.553343
201.064292,-7402.059420,-13841.851115,-2451.505594
201.064614,-5847.626942,-14359.995275,-1915.238745
201.064936,-1480.411884,-14434.015869,-3140.991542
201.065258,2072.576638,-14285.974681,-3370.820191
201.065580,3034.844362,-11917.315666,-1225.752797
201.065902,444.123565,-10955.047942,536.266849
201.066224,-1998.556043,-11251.130318,1072.533697
201.066545,-3034.844362,-9474.636058,-1302.362347
201.066867,-2960.823768,-6439.791695,-3524.039291
201.067189,-2146.597232,-4145.153275,-2604.724693
201.067511,-1332.370696,-2294.638420,306.438199
201.067833,-888.247130,-1184.329507,306.438199
201.068155,-222.061783,-2368.659014,-842.705048
201.068477,-740.205942,-5847.626942,-1302.362347
201.068799,-2294.638420,-8216.285956,-2451.505594
201.069120,-3627.009116,-11251.130318,-5209.449386
201.069442,-2812.782580,-13397.727550,-5592.497135
201.069764,-666.185348,-14063.912898,-4060.306139
201.070086,1110.308913,-15174.221811,-2145.067394
201.070408,1406.391290,-16580.613101,-306.438199
201.070730,1924.535449,-15322.262999,459.657299
201.071052,2368.659014,-12509.480420,-1149.143247
201.071374,4293.194464,-9844.739029,-2374.896044
201.071695,5551.544565,-7179.997637,-1072.533697
201.072017,5847.626942,-4145.153275,-153.219100
201.072339,5551.544565,-1776.494261,919.314598
201.072661,5255.462188,-3034.844362,1072.533697
201.072983,4293.194464,-6513.812290,-1225.752797
201.073305,2368.659014,-9622.677246,-3217.601092
201.073627,888.247130,-11843.295072,-3217.601092
201.073949,1184.329507,-13471.748144,-2528.115143
201.074270,2590.720797,-13471.748144,-1838.629195
201.074592,4145.153275,-13915.871710,-2604.724693
201.074914,4367.215058,-13915.871710,-1838.629195
201.075236,2368.659014,-13841.851115,766.095498
201.075558,-222.061783,-12583.501014,2145.067394
201.075880,-2368.659014,-10732.986159,1378.971896
201.076202,-2812.782580,-7920.203579,-1532.190996
201.076524,-1998.556043,-5403.503377,-1915.238745
201.076845,-1554.432478,-2368.659014,-153.219100
201.077167,-1628.453072,-148.041188,766.095498
201.077489,-962.267725,-518.144159,-689.485948
201.077811,-1184.329507,-3849.070898,-2068.457845
201.078133,-3478.967927,-7994.224174,-2451.505594
201.078455,-5773.606348,-11103.089130,-2298.286494
201.078777,-5551.544565,-12657.521608,-4596.572988
201.079099,-3330.926739,-14063.912898,-6358.592633
201.079420,-1406.391290,-14730.098246,-4749.792088
201.079742,-1776.494261,-14730.098246,-1532.190996
201.080064,-2516.700203,-15766.386565,76.609550
201.080386,-2294.638420,-14582.057057,306.438199
201.080708,-1110.308913,-11103.089130,-1762.019645
201.081030,296.082377,-7402.059420,-2374.896044
201.081352,444.123565,-4515.256246,-229.828649
201.081674,0.000000,-2886.803174,1915.238745
201.081995,-666.185348,-2072.576638,2374.896044
201.082317,-1480.411884,-3997.112087,842.705048
201.082639,-2516.700203,-7402.059420,-1762.019645
201.082961,-4293.194464,-11473.192101,-3064.381992
201.083283,-6661.853478,-14211.954086,-1838.629195
201.083605,-5773.606348,-14656.077652,-995.924147
201.083927,-2146.597232,-14434.015869,-2911.162892
201.084249,1554.432478,-13989.892304,-4136.915689
201.084570,2220.617826,-12361.439231,-1991.848295
201.084892,-518.144159,-10510.924376,766.095498
201.085214,-3034.844362,-10881.027347,1225.752797
201.085536,-3849.070898,-9992.780217,-229.828649
201.085858,-4219.173869,-7105.977043,-2451.505594
201.086180,-4145.153275,-3552.988522,-2528.115143
201.086502,-3256.906145,-2072.576638,0.000000
201.086824,-1776.494261,-1184.329507,0.000000
201.087145,-296.082377,-2146.597232,-1378.971896
201.087467,0.000000,-5329.482782,-1608.800546
201.087789,-888.247130,-7550.100608,-2221.676944
201.088111,-1258.350101,-11029.068536,-5669.106685
201.088433,74.020594,-13175.665768,-6511.811733
201.088755,1776.494261,-14434.015869,-4673.182538
201.089077,2738.761985,-16358.551318,-2068.457845
201.089399,2812.782580,-17394.839637,612.876398
201.089720,3182.885551,-15248.242405,1915.238745
201.090042,4515.256246,-12139.377449,-919.314598
201.090364,5921.647536,-8956.491898,-1915.238745
201.090686,6735.874072,-6513.812290,-1149.143247
201.091008,6143.709319,-3775.050304,536.266849
201.091330,5181.441594,-1480.411884,2221.676944
201.091652,4885.359217,-2442.679609,2221.676944
201.091974,3034.844362,-6217.729913,-919.314598
201.092295,444.123565,-9400.615463,-3524.039291
201.092617,-962.267725,-11029.068536,-4060.306139
201.092939,-888.247130,-12287.418637,-3983.696590
201.093261,1924.535449,-14137.933492,-3983.696590
201.093583,4367.215058,-14878.139434,-3370.820191
201.093905,4737.318029,-15026.180623,-2451.505594
201.094227,2886.803174,-14656.077652,0.000000
201.094549,148.041188,-13915.871710,2451.505594
201.094871,-2072.576638,-11917.315666,383.047749
201.095192,-2294.638420,-8586.388927,-2834.553343
201.095514,-1776.494261,-5329.482782,-2834.553343
201.095836,-518.144159,-2664.741391,-689.485948
201.096158,-222.061783,-666.185348,1762.019645
201.096480,148.041188,222.061783,1455.581446
201.096802,-148.041188,-2072.576638,-306.438199
201.097124,-2442.679609,-5995.668130,-2068.457845
201.097446,-4959.379811,-9770.718434,-2911.162892
201.097767,-5551.544565,-12213.398043,-5362.668486
201.098089,-3627.009116,-13989.892304,-6818.249932
201.098411,-1998.556043,-15026.180623,-4290.134789
201.098733,-1406.391290,-15544.324782,-1302.362347
201.099055,-2368.659014,-16506.592507,153.219100
201.099377,-2442.679609,-15470.304188,-229.828649
201.099699,-1702.473667,-11769.274478,-2374.896044
201.100021,-370.102971,-7624.121203,-3064.381992
201.100342,0.000000,-4293.194464,-612.876398
201.100664,-222.061783,-2812.782580,1915.238745
201.100986,-1258.350101,-1924.535449,2451.505594
201.101308,-1924.535449,-3552.988522,1608.800546
201.101630,-3552.988522,-6439.791695,-1149.143247
201.101952,-5255.462188,-9770.718434,-2757.943793
201.102274,-6661.853478,-12953.603985,-2681.334243
201.102596,-6957.935855,-14508.036463,-1378.971896
201.102917,-4367.215058,-14582.057057,-1302.362347
201.103239,-592.164754,-14359.995275,-2911.162892
201.103561,1480.411884,-13027.624579,-3370.820191
201.103883,1036.288319,-10955.047942,-1302.362347
201.104205,-1850.514855,-10362.883188,612.876398
201.104527,-3330.926739,-10436.903782,612.876398
201.104849,-3108.864956,-8438.347739,-1225.752797
201.105171,-2516.700203,-4885.359217,-2757.943793
201.105492,-1702.473667,-2072.576638,-2528.115143
201.105814,-296.082377,-1554.432478,-459.657299
201.106136,222.061783,-2812.782580,-995.924147
201.106458,-666.185348,-5403.503377,-536.266849
201.106780,-1406.391290,-7550.100608,-995.924147
201.107102,-1406.391290,-10807.006753,-4136.915689
201.107424,-370.102971,-12657.521608,-6435.202183
201.107746,444.123565,-13989.892304,-4749.792088
201.108067,1184.329507,-15174.221811,-1991.848295
201.108389,1924.535449,-16210.510130,383.047749
201.108711,3034.844362,-15174.221811,766.095498
201.109033,4367.215058,-11991.336260,-842.705048
201.109355,5403.503377,-9548.656652,-2451.505594
201.109677,5847.626942,-8512.368333,-612.876398
201.109999,5107.421000,-6069.688724,1762.019645
201.110321,4663.297435,-2220.617826,2145.067394
201.110642,4959.379811,-2294.638420,-229.828649
201.110964,5033.400406,-5403.503377,-2451.505594
201.111286,3034.844362,-7920.203579,-3830.477490
201.111608,1036.288319,-9548.656652,-3600.648841
201.111930,1332.370696,-11695.253884,-2681.334243
201.112252,2886.803174,-13545.768739,-2298.286494
201.112574,4071.132681,-14804.118840,-3677.258390
201.112896,3256.906145,-15322.262999,-2987.772442
201.113217,1924.535449,-14878.139434,-383.047749
201.113539,74.020594,-13471.748144,1225.752797
201.113861,-1184.329507,-10955.047942,689.485948
201.114183,-1480.411884,-7846.182985,-536.266849
201.114505,-1702.473667,-5255.462188,-995.924147
201.114827,-1554.432478,-3330.926739,-153.219100
201.115149,-2072.576638,-1480.411884,1072.533697
201.115471,-1924.535449,-296.082377,153.219100
201.115792,-1554.432478,-1850.514855,-1762.019645
201.116114,-3034.844362,-6365.771101,-3064.381992
201.116436,-5255.462188,-9918.759623,-2451.505594
201.116758,-5403.503377,-12213.398043,-4213.525239
201.117080,-3849.070898,-13767.830521,-6665.030833
201.117402,-1702.473667,-15470.304188,-5592.497135
201.117724,-1406.391290,-15840.407159,-3217.601092
201.118046,-2812.782580,-16876.695478,-1072.533697
201.118367,-3182.885551,-16358.551318,0.000000
201.118689,-1702.473667,-12435.459826,-1532.190996
201.119011,0.000000,-7994.224174,-2987.772442
201.119333,518.144159,-5181.441594,-1608.800546
201.119655,74.020594,-3182.885551,1991.848295
201.119977,-1036.288319,-1924.535449,2911.162892
201.120299,-1480.411884,-2590.720797,1991.848295
201.120621,-2220.617826,-5699.585753,-919.314598
201.120942,-4293.194464,-9622.677246,-3064.381992
201.121264,-6069.688724,-13249.686362,-2451.505594
201.121586,-7254.018232,-14508.036463,-153.219100
201.121908,-4885.359217,-14952.160028,-995.924147
201.122230,-962.267725,-14359.995275,-3447.429741
201.122552,1332.370696,-12805.562797,-3830.477490
201.122874,0.000000,-10658.965565,-1072.533697
201.123196,-2442.679609,-10807.006753,689.485948
201.123517,-3478.967927,-10732.986159,536.266849
201.123839,-3108.864956,-8364.327145,-1225.752797
201.124161,-2664.741391,-5033.400406,-2681.334243
201.124483,-2146.597232,-2738.761985,-1302.362347
201.124805,-444.123565,-2072.576638,-306.438199
201.125127,222.061783,-2146.597232,-1532.190996
201.125449,444.123565,-4737.318029,-1302.362347
201.125771,0.000000,-6957.935855,-229.828649
201.126092,-666.185348,-9918.759623,-2987.772442
201.126414,0.000000,-12953.603985,-5439.278036
201.126736,1184.329507,-13545.768739,-4060.306139
201.127058,2294.638420,-14434.015869,-1762.019645
201.127380,2738.761985,-15618.345376,306.438199
201.127702,3034.844362,-15396.283594,1685.410096
201.128024,3330.926739,-12139.377449,459.657299
201.128346,4589.276840,-9548.656652,-1608.800546
201.128667,5477.523971,-7698.141797,-1608.800546
201.128989,5403.503377,-5847.626942,-459.657299
201.129311,4589.276840,-3034.844362,1149.143247
201.129633,4367.215058,-2220.617826,1072.533697
201.129955,3775.050304,-5625.565159,-153.219100
201.130277,2294.638420,-8882.471304,-3677.258390
201.130599,444.123565,-11103.089130,-4519.963438
201.130921,-296.082377,-12287.418637,-3600.648841
201.131242,592.164754,-13693.809927,-2757.943793
201.131564,3256.906145,-14582.057057,-2451.505594
201.131886,3627.009116,-14211.954086,-3370.820191
201.132208,2442.679609,-13915.871710,-919.314598
201.132530,222.061783,-12879.583391,2298.286494
201.132852,-1480.411884,-11399.171507,1378.971896
201.133174,-2146.597232,-8734.430116,-1455.581446
201.133496,-1702.473667,-5477.523971,-1915.238745
201.133817,-1258.350101,-3701.029710,0.000000
201.134139,-1554.432478,-1554.432478,1378.971896
201.134461,-1036.288319,-740.205942,689.485948
201.134783,-888.247130,-2442.679609,-1378.971896
201.135105,-1850.514855,-6217.729913,-2987.772442
201.135427,-4145.153275,-9326.594869,-2911.162892
201.135749,-4145.153275,-11251.130318,-4596.572988
201.136071,-2664.741391,-12879.583391,-6358.592633
201.136393,-518.144159,-14730.098246,-5669.106685
201.136714,-444.123565,-16062.468941,-2374.896044
201.137036,-2220.617826,-16876.695478,-459.657299
201.137358,-2738.761985,-16432.571912,0.000000
201.137680,-1850.514855,-13101.645173,-1608.800546
201.138002,-296.082377,-8660.409521,-2681.334243
201.138324,444.123565,-5181.441594,-1302.362347
201.138646,148.041188,-2516.700203,2068.457845
201.138968,-740.205942,-1258.350101,2451.505594
201.139289,-1480.411884,-1998.556043,1685.410096
201.139611,-2960.823768,-5255.462188,-919.314598
201.139933,-5477.523971,-9030.512492,-3524.039291
201.140255,-7179.997637,-12879.583391,-2911.162892
201.140577,-7920.203579,-14434.015869,-1225.752797
201.140899,-5181.441594,-15026.180623,-1838.629195
201.141221,-1184.329507,-14878.139434,-3677.258390
201.141543,1628.453072,-13545.768739,-3907.087040
201.141864,814.226536,-11251.130318,-766.095498
201.142186,-1110.308913,-11029.068536,842.705048
201.142508,-2220.617826,-10584.944971,306.438199
201.142830,-2072.576638,-8216.285956,-1991.848295
201.143152,-1554.432478,-5403.503377,-3140.991542
201.143474,-1628.453072,-3478.967927,-383.047749
201.143796,-1258.350101,-1332.370696,1762.019645
201.144118,-222.061783,-740.205942,229.828649
201.144439,1036.288319,-3034.844362,-1608.800546
201.144761,222.061783,-6513.812290,-1149.143247
201.145083,-1850.514855,-8734.430116,-2451.505594
201.145405,-2220.617826,-11695.253884,-4596.572988
201.145727,-740.205942,-14137.933492,-4903.011187
201.146049,1036.288319,-15100.201217,-3064.381992
201.146371,1776.494261,-16358.551318,-1302.362347
201.146693,1924.535449,-16728.654289,536.266849
201.147014,2664.741391,-14656.077652,229.828649
201.147336,3849.070898,-11029.068536,-1991.848295
201.147658,5329.482782,-7846.182985,-2374.896044
201.147980,5921.647536,-5255.462188,-459.657299
201.148302,5107.421000,-2516.700203,0.000000
201.148624,4737.318029,-2146.597232,459.657299
201.148946,5181.441594,-5107.421000,0.000000
201.149268,4145.153275,-8438.347739,-2451.505594
201.149589,2220.617826,-11029.068536,-3217.601092
201.149911,1480.411884,-12731.542202,-1991.848295
201.150233,1924.535449,-13175.665768,-1608.800546
201.150555,3849.070898,-13989.892304,-3447.429741
201.150877,3923.091493,-14211.954086,-2987.772442
201.151199,2294.638420,-13989.892304,-1455.581446
201.151521,-370.102971,-13175.665768,995.924147
201.151843,-2664.741391,-11843.295072,1685.410096
201.152164,-3034.844362,-9622.677246,-612.876398
201.152486,-2960.823768,-6587.832884,-1608.800546
201.152808,-2146.597232,-4293.194464,-1302.362347
201.153130,-1850.514855,-1998.556043,76.609550
201.153452,-1332.370696,-1258.350101,153.219100
201.153774,-740.205942,-2368.659014,-1608.800546
201.154096,-2146.597232,-5921.647536,-2834.553343
201.154418,-4145.153275,-9622.677246,-2834.553343
201.154739,-5181.441594,-11547.212695,-3677.258390
201.155061,-3997.112087,-13545.768739,-6281.983084
201.155383,-1850.514855,-15026.180623,-6205.373534
201.155705,-962.267725,-14878.139434,-3217.601092
201.156027,-1110.308913,-14878.139434,0.000000
201.156349,-1554.432478,-15174.221811,536.266849
201.156671,-888.247130,-12657.521608,76.609550
201.156993,222.061783,-8882.471304,-1685.410096
201.157314,814.226536,-5107.421000,-1532.190996
201.157636,518.144159,-3182.885551,1455.581446
201.157958,-148.041188,-1850.514855,3140.991542
201.158280,-1258.350101,-2146.597232,2451.505594
201.158602,-1850.514855,-4737.318029,306.438199
201.158924,-3256.906145,-8364.327145,-2298.286494
201.159246,-5107.421000,-12213.398043,-2911.162892
201.159568,-7402.059420,-13471.748144,-1302.362347
201.159889,-5847.626942,-14285.974681,-1838.629195
201.160211,-2442.679609,-14582.057057,-4213.525239
201.160533,-296.082377,-13545.768739,-3983.696590
201.160855,-962.267725,-11769.274478,-1762.019645
201.161177,-2368.659014,-11621.233289,229.828649
201.161499,-3182.885551,-10881.027347,229.828649
201.161820,-2960.823768,-8808.450710,-1685.410096
201.162142,-1998.556043,-5329.482782,-2757.943793
201.162464,-1184.329507,-2886.803174,-919.314598
201.162786,-740.205942,-1554.432478,612.876398
201.163108,-296.082377,-1628.453072,-76.609550
201.163430,296.082377,-4367.215058,-1225.752797
201.163751,-518.144159,-7402.059420,-1455.581446
201.164073,-1776.494261,-10140.821405,-2451.505594
201.164395,-1702.473667,-13027.624579,-4366.744339
201.164717,518.144159,-13915.871710,-4443.353888
201.165039,2368.659014,-13841.851115,-3217.601092
201.165361,3034.844362,-14804.118840,-842.705048
201.165682,2368.659014,-15396.283594,1149.143247
201.166004,2368.659014,-14063.912898,536.266849
201.166326,3330.926739,-11029.068536,-1915.238745
201.166648,4515.256246,-9622.677246,-2451.505594
201.166970,4663.297435,-7550.100608,-459.657299
201.167292,3552.988522,-3627.009116,1072.533697
201.167613,2812.782580,-1184.329507,612.876398
201.167935,2886.803174,-3478.967927,-459.657299
201.168257,2812.782580,-7179.997637,-3677.258390
201.168579,962.267725,-10140.821405,-4903.011187
201.168901,-296.082377,-12435.459826,-3830.477490
201.169223,592.164754,-14285.974681,-2451.505594
201.169544,2664.741391,-14804.118840,-2834.553343
201.169866,3627.009116,-13767.830521,-3983.696590
201.170188,3034.844362,-14137.933492,-2374.896044
201.170510,814.226536,-14137.933492,689.485948
201.170832,-1776.494261,-12435.459826,2221.676944
201.171154,-2738.761985,-9030.512492,766.095498
201.171475,-1998.556043,-5699.585753,-1072.533697
201.171797,-444.123565,-3330.926739,-919.314598
201.172119,222.061783,-1258.350101,919.314598
201.172441,296.082377,0.000000,1532.190996
201.172763,740.205942,-1258.350101,76.609550
201.173085,-74.020594,-5255.462188,-842.705048
201.173406,-2368.659014,-9104.533087,-1455.581446
201.173728,-3923.091493,-10436.903782,-3600.648841
201.174050,-3108.864956,-12583.501014,-6588.421283
201.174372,-962.267725,-14804.118840,-6588.421283
201.174694,-370.102971,-15840.407159,-3370.820191
201.175016,-1850.514855,-16432.571912,459.657299
201.175337,-2664.741391,-17098.757260,1149.143247
201.175659,-2442.679609,-14434.015869,-383.047749
201.175981,-1110.308913,-10214.842000,-2834.553343
201.176303,-592.164754,-5699.585753,-2681.334243
201.176625,-148.041188,-2516.700203,536.266849
201.176947,-962.267725,-888.247130,2374.896044
201.177269,-1258.350101,-1554.432478,2451.505594
201.177590,-2146.597232,-4663.297435,459.657299
201.177912,-4145.153275,-8882.471304,-2911.162892
201.178234,-6661.853478,-13323.706956,-3217.601092
201.178556,-8216.285956,-14952.160028,-1608.800546
201.178878,-6217.729913,-14730.098246,-1915.238745
201.179200,-1258.350101,-14211.954086,-4443.353888
201.179521,2368.659014,-13545.768739,-4443.353888
201.179843,2294.638420,-11991.336260,-1378.971896
201.180165,0.000000,-11695.253884,1532.190996
201.180487,-2146.597232,-11843.295072,1685.410096
201.180809,-2516.700203,-9770.718434,-1455.581446
201.181131,-2146.597232,-6883.915261,-3370.820191
201.181452,-1850.514855,-4219.173869,-1532.190996
201.181774,-1850.514855,-1924.535449,1532.190996
201.182096,-1258.350101,0.000000,1149.143247
201.182418,74.020594,-962.267725,-1072.533697
201.182740,296.082377,-5033.400406,-2221.676944
201.183062,-1998.556043,-8660.409521,-2528.115143
201.183383,-3330.926739,-11399.171507,-3983.696590
201.183705,-1850.514855,-13989.892304,-4749.792088
201.184027,1184.329507,-14952.160028,-4826.401637
201.184349,2368.659014,-15248.242405,-2451.505594
201.184671,1998.556043,-15248.242405,0.000000
201.184993,1184.329507,-14656.077652,612.876398
201.185314,2220.617826,-12361.439231,-1072.533697
201.185636,3997.112087,-9770.718434,-2681.334243
201.185958,4589.276840,-6661.853478,-2298.286494
201.186280,4441.235652,-3627.009116,229.828649
201.186602,3849.070898,-1554.432478,1378.971896
201.186924,3701.029710,-2664.741391,229.828649
201.187245,3552.988522,-6365.771101,-1915.238745
201.187567,2072.576638,-9400.615463,-3830.477490
201.187889,444.123565,-12287.418637,-4136.915689
201.188211,666.185348,-14063.912898,-2757.943793
201.188533,2738.761985,-14730.098246,-2221.676944
201.188855,5329.482782,-14508.036463,-3064.381992
201.189176,6217.729913,-14211.954086,-2451.505594
201.189498,4441.235652,-14285.974681,153.219100
201.189820,1184.329507,-12879.583391,2834.553343
201.190142,-1110.308913,-10510.924376,1608.800546
201.190464,-1554.432478,-7698.141797,0.000000
201.190786,-1406.391290,-5107.421000,-1532.190996
201.191107,-1184.329507,-2220.617826,0.000000
201.191429,-1554.432478,-222.061783,919.314598
201.191751,-962.267725,-296.082377,383.047749
201.192073,-1332.370696,-3404.947333,-1149.143247
201.192395,-2516.700203,-7476.080014,-2145.067394
201.192717,-5107.421000,-10436.903782,-3140.991542
201.193038,-5181.441594,-12657.521608,-4979.620737
201.193360,-2812.782580,-13989.892304,-6741.640382
201.193682,-1184.329507,-14952.160028,-5669.106685
201.194004,-1110.308913,-15840.407159,-2145.067394
201.194326,-1998.556043,-17616.901420,-229.828649
201.194648,-2294.638420,-15840.407159,842.705048
201.194969,-1036.288319,-11547.212695,-1838.629195
201.195291,962.267725,-7105.977043,-3064.381992
201.195613,1702.473667,-3627.009116,-1072.533697
201.195935,1036.288319,-1628.453072,2221.676944
201.196257,-148.041188,-1110.308913,3064.381992
201.196579,-1258.350101,-3552.988522,2451.505594
201.196900,-2812.782580,-6883.915261,-612.876398
201.197222,-4885.359217,-11029.068536,-2987.772442
201.197544,-6291.750507,-14656.077652,-2528.115143
201.197866,-5921.647536,-14285.974681,-1149.143247
201.198188,-2220.617826,-14359.995275,-2145.067394
201.198510,1776.494261,-13915.871710,-3064.381992
201.198831,2664.741391,-12583.501014,-1991.848295
201.199153,370.102971,-11399.171507,76.609550
201.199475,-2812.782580,-11843.295072,153.219100
201.199797,-4515.256246,-10584.944971,-612.876398
201.200119,-4589.276840,-7105.977043,-2757.943793
201.200441,-4367.215058,-4071.132681,-3140.991542
201.200762,-3775.050304,-1924.535449,-689.485948
201.201084,-2664.741391,-1036.288319,0.000000
201.201406,-2072.576638,-2442.679609,-1455.581446
201.201728,-2516.700203,-6217.729913,-1225.752797
201.202050,-3627.009116,-8512.368333,-1915.238745
201.202372,-3701.029710,-11843.295072,-4979.620737
201.202693,-1850.514855,-13767.830521,-6818.249932
201.203015,814.226536,-13693.809927,-5056.230287
201.203337,2368.659014,-15248.242405,-2298.286494
201.203659,2664.741391,-16284.530724,842.705048
201.203981,3182.885551,-15248.242405,1838.629195
201.204303,4145.153275,-11843.295072,-995.924147
201.204624,5551.544565,-8956.491898,-2604.724693
201.204946,6809.894666,-7328.038826,-1378.971896
201.205268,6365.771101,-4811.338623,76.609550
201.205590,5033.400406,-2590.720797,1685.410096
201.205912,4219.173869,-3182.885551,2451.505594
201.206234,2590.720797,-5403.503377,-612.876398
201.206555,296.082377,-7994.224174,-4749.792088
201.206877,-1110.308913,-10436.903782,-4903.011187
201.207199,-296.082377,-11991.336260,-4136.915689
201.207521,1554.432478,-13619.789333,-3447.429741
201.207843,3849.070898,-15248.242405,-2528.115143
201.208165,4737.318029,-14804.118840,-1225.752797
201.208486,2812.782580,-14434.015869,-459.657299
201.208808,148.041188,-13175.665768,919.314598
201.209130,-2146.597232,-11251.130318,689.485948
201.209452,-2886.803174,-8142.265362,-1762.019645
201.209774,-1998.556043,-4737.318029,-2834.553343
201.210096,-370.102971,-2516.700203,-612.876398
201.210417,0.000000,-962.267725,766.095498
201.210739,370.102971,-1184.329507,689.485948
201.211061,-444.123565,-2960.823768,-1072.533697
201.211383,-1924.535449,-6439.791695,-2221.676944
201.211705,-3849.070898,-10066.800811,-2374.896044
201.212027,-4145.153275,-11695.253884,-4673.182538
201.212348,-2664.741391,-13767.830521,-6205.373534
201.212670,-370.102971,-14804.118840,-4443.353888
201.212992,370.102971,-15174.221811,-1302.362347
201.213314,-740.205942,-15544.324782,383.047749
201.213636,-444.123565,-15100.201217,459.657299
201.213958,370.102971,-12065.356855,-1149.143247
201.214279,1110.308913,-8216.285956,-2298.286494
201.214601,1184.329507,-5181.441594,-383.047749
201.214923,296.082377,-2812.782580,2451.505594
201.215245,-1036.288319,-1776.494261,2604.724693
201.215567,-1924.535449,-3256.906145,1149.143247
201.215889,-3627.009116,-6439.791695,-1378.971896
201.216210,-5329.482782,-10288.862594,-2911.162892
201.216532,-7105.977043,-13397.727550,-2221.676944
201.216854,-7476.080014,-14359.995275,-1915.238745
201.217176,-5181.441594,-14730.098246,-1838.629195
201.217498,-1998.556043,-14434.015869,-3753.867940
201.217820,-148.041188,-13027.624579,-3370.820191
201.218141,-962.267725,-11029.068536,-1149.143247
201.218463,-2960.823768,-10362.883188,229.828649
201.218785,-3775.050304,-10436.903782,153.219100
201.219107,-3478.967927,-8364.327145,-1378.971896
201.219429,-2664.741391,-5403.503377,-2451.505594
201.219751,-1998.556043,-2886.803174,-612.876398
201.220072,0.000000,-1554.432478,383.047749
201.220394,222.061783,-2368.659014,-459.657299
201.220716,-370.102971,-4589.276840,-229.828649
201.221038,-962.267725,-6883.915261,-689.485948
201.221360,-1184.329507,-10214.842000,-4213.525239
201.221682,-518.144159,-12435.459826,-5515.887586
201.222003,0.000000,-13101.645173,-3600.648841
201.222325,1184.329507,-15692.365970,-1685.410096
201.222647,1776.494261,-17172.777854,459.657299
201.222969,1998.556043,-15322.262999,766.095498
201.223291,2368.659014,-11843.295072,-1149.143247
201.223613,4145.153275,-8438.347739,-2681.334243
201.223935,4885.359217,-6291.750507,-1685.410096
201.224256,4515.256246,-4885.359217,-536.266849
201.224578,3478.967927,-3404.947333,842.705048
201.224900,3108.864956,-3182.885551,1455.581446
201.225222,2146.597232,-5107.421000,-1838.629195
201.225544,962.267725,-8438.347739,-3983.696590
201.225866,0.000000,-10658.965565,-4443.353888
201.226187,592.164754,-11991.336260,-3370.820191
201.226509,1924.535449,-13545.768739,-2604.724693
201.226831,3775.050304,-14878.139434,-2068.457845
201.227153,4293.194464,-14285.974681,-2068.457845
201.227475,3034.844362,-13841.851115,-1532.190996
201.227797,1036.288319,-13767.830521,459.657299
201.228118,-444.123565,-12139.377449,1302.362347
201.228440,-1184.329507,-8142.265362,0.000000
201.228762,-1184.329507,-4737.318029,-1455.581446
201.229084,148.041188,-3330.926739,-383.047749
201.229406,740.205942,-2368.659014,536.266849
201.229728,592.164754,-1480.411884,0.000000
201.230049,-296.082377,-3182.885551,-1455.581446
201.230371,-888.247130,-6957.935855,-1608.800546
201.230693,-1332.370696,-9992.780217,-2374.896044
201.231015,-2220.617826,-11029.068536,-4290.134789
201.231337,-1554.432478,-13619.789333,-5898.935335
201.231659,-296.082377,-15396.283594,-4519.963438
201.231980,-296.082377,-15766.386565,-1991.848295
201.232302,-1406.391290,-16062.468941,-689.485948
201.232624,-1184.329507,-15470.304188,0.000000
201.232946,-370.102971,-12287.418637,-995.924147
201.233268,74.020594,-8068.244768,-1915.238745
201.233590,0.000000,-4589.276840,-383.047749
201.233911,-370.102971,-2590.720797,1685.410096
201.234233,-1628.453072,-1406.391290,1685.410096
201.234555,-2516.700203,-3552.988522,766.095498
201.234877,-3923.091493,-6217.729913,-919.314598
201.235199,-5403.503377,-9400.615463,-2987.772442
201.235521,-6661.853478,-12731.542202,-2834.553343
201.235842,-6883.915261,-14211.954086,-1225.752797
201.236164,-4959.379811,-14582.057057,-1762.019645
201.236486,-2294.638420,-14434.015869,-3753.867940
201.236808,-148.041188,-13471.748144,-3524.039291
201.237130,-592.164754,-11769.274478,-1532.190996
201.237452,-2590.720797,-11251.130318,0.000000
201.237773,-2960.823768,-10732.986159,153.219100
201.238095,-3034.844362,-8364.327145,-459.657299
201.238417,-2886.803174,-5033.400406,-1762.019645
201.238739,-2368.659014,-3182.885551,-383.047749
201.239061,-1628.453072,-1628.453072,612.876398
201.239383,-1036.288319,-1184.329507,-1532.190996
201.239704,-666.185348,-3997.112087,-995.924147
201.240026,-1480.411884,-6587.832884,-153.219100
201.240348,-2072.576638,-9252.574275,-2911.162892
201.240670,-1628.453072,-11843.295072,-5209.449386
201.240992,0.000000,-13175.665768,-3983.696590
201.241314,814.226536,-15248.242405,-2451.505594
201.241635,888.247130,-17098.757260,-842.705048
201.241957,1184.329507,-16506.592507,612.876398
201.242279,2072.576638,-13397.727550,-766.095498
201.242601,3923.091493,-9770.718434,-2834.553343
201.242923,5625.565159,-7254.018232,-1991.848295
201.243245,5551.544565,-4737.318029,-1072.533697
201.243566,4737.318029,-3034.844362,153.219100
201.243888,4219.173869,-2812.782580,1302.362347
201.244210,3404.947333,-5255.462188,-383.047749
201.244532,2368.659014,-8512.368333,-3524.039291
201.244854,1554.432478,-11177.109724,-4673.182538
201.245176,1184.329507,-12287.418637,-3753.867940
201.245497,1850.514855,-13175.665768,-3064.381992
201.245819,3404.947333,-14730.098246,-2145.067394
201.246141,3997.112087,-15174.221811,-2528.115143
201.246463,3034.844362,-14582.057057,-1915.238745
201.246785,740.205942,-14285.974681,306.438199
201.247107,-1184.329507,-13027.624579,1302.362347
201.247428,-1924.535449,-9326.594869,-306.438199
201.247750,-1184.329507,-5847.626942,-1685.410096
201.248072,-222.061783,-3256.906145,-919.314598
201.248394,1258.350101,-1776.494261,459.657299
201.248716,740.205942,-1184.329507,383.047749
201.249038,0.000000,-2516.700203,-842.705048
201.249359,-888.247130,-6217.729913,-1915.238745
201.249681,-2590.720797,-9696.697840,-2528.115143
201.250003,-3627.009116,-11251.130318,-3677.258390
201.250325,-2516.700203,-12805.562797,-5898.935335
201.250647,-222.061783,-14582.057057,-5209.449386
201.250969,296.082377,-15026.180623,-2374.896044
201.251290,-666.185348,-15396.283594,0.000000
201.251612,-1110.308913,-15692.365970,536.266849
201.251934,-666.185348,-13175.665768,-536.266849
201.252256,-370.102971,-9030.512492,-1991.848295
201.252578,0.000000,-4885.359217,-1455.581446
201.252900,296.082377,-2738.761985,919.314598
201.253221,-222.061783,-1184.329507,2451.505594
201.253543,-1776.494261,-2442.679609,2298.286494
201.253865,-2960.823768,-5329.482782,459.657299
201.254187,-4737.318029,-8956.491898,-2298.286494
201.254509,-6217.729913,-12583.501014,-3140.991542
201.254831,-7031.956449,-14508.036463,-1838.629195
201.255152,-6217.729913,-14508.036463,-1302.362347
201.255474,-3404.947333,-14211.954086,-3294.210641
201.255796,-814.226536,-13323.706956,-3677.258390
201.256118,-592.164754,-12065.356855,-2145.067394
201.256440,-2516.700203,-11843.295072,-229.828649
201.256762,-4219.173869,-11103.089130,612.876398
201.257083,-4589.276840,-8956.491898,0.000000
201.257405,-3849.070898,-5181.441594,-1762.019645
201.257727,-3330.926739,-2368.659014,-842.705048
201.258049,-2368.659014,-592.164754,0.000000
201.258371,-1554.432478,-1110.308913,-1072.533697
201.258693,-1480.411884,-4293.194464,-612.876398
201.259014,-1924.535449,-6957.935855,229.828649
201.259336,-2294.638420,-9918.759623,-3064.381992
201.259658,-1332.370696,-11917.315666,-6128.763984
201.259980,-370.102971,-12879.583391,-5439.278036
201.260302,1036.288319,-14730.098246,-3600.648841
201.260624,1628.453072,-16950.716072,-689.485948
201.260946,1850.514855,-16654.633695,689.485948
201.261268,2516.700203,-13915.871710,-612.876398
201.261590,3627.009116,-10732.986159,-2451.505594
201.261912,4959.379811,-8290.306550,-1991.848295
201.262233,5403.503377,-5625.565159,-995.924147
201.262555,4737.318029,-3478.967927,0.000000
201.262877,4589.276840,-2590.720797,1685.410096
201.263199,3627.009116,-4367.215058,766.095498
201.263521,2072.576638,-7031.956449,-2374.896044
201.263843,370.102971,-9326.594869,-3830.477490
201.264165,1036.288319,-11547.212695,-3830.477490
201.264487,1998.556043,-13027.624579,-3447.429741
201.264809,2960.823768,-14359.995275,-2451.505594
201.265131,3701.029710,-15322.262999,-1991.848295
201.265453,3108.864956,-14434.015869,-1915.238745
201.265775,888.247130,-13397.727550,-612.876398
201.266096,-1110.308913,-12065.356855,766.095498
201.266418,-2072.576638,-9474.636058,-689.485948
201.266740,-1702.473667,-6587.832884,-2298.286494
201.267062,-222.061783,-3997.112087,-153.219100
201.267384,962.267725,-2146.597232,919.314598
201.267706,1110.308913,-1184.329507,842.705048
201.268028,888.247130,-1850.514855,-1149.143247
201.268350,222.061783,-5329.482782,-2145.067394
201.268672,-1036.288319,-8512.368333,-2374.896044
201.268994,-2368.659014,-10436.903782,-2374.896044
201.269316,-2590.720797,-12805.562797,-4519.963438
201.269638,-740.205942,-14656.077652,-4443.353888
201.269960,0.000000,-15100.201217,-2681.334243
201.270281,-592.164754,-15396.283594,-612.876398
201.270603,-592.164754,-15692.365970,306.438199
201.270925,-370.102971,-13249.686362,-612.876398
201.271247,296.082377,-9400.615463,-1991.848295
201.271569,592.164754,-5921.647536,-1302.362347
201.271891,444.123565,-3997.112087,919.314598
201.272213,-296.082377,-2812.782580,2068.457845
201.272535,-1776.494261,-2738.761985,1532.190996
201.272857,-2960.823768,-5995.668130,0.000000
201.273179,-4515.256246,-9474.636058,-2221.676944
201.273501,-5995.668130,-12583.501014,-2834.553343
201.273823,-7105.977043,-14211.954086,-1532.190996
201.274144,-6217.729913,-14211.954086,-842.705048
201.274466,-3330.926739,-13545.768739,-2757.943793
201.274788,-1332.370696,-13027.624579,-3907.087040
201.275110,-1036.288319,-11843.295072,-2451.505594
201.275432,-2886.803174,-11621.233289,-229.828649
