#time,accel_x,accel_y,accel_z
457.366978,-592.164754,-9252.574275,-1532.190996
457.367301,-370.102971,-8956.491898,-1455.581446
457.367623,-148.041188,-9178.553681,-1455.581446
457.367945,-370.102971,-9178.553681,-1608.800546
457.368268,-592.164754,-9178.553681,-1378.971896
457.368590,-296.082377,-9696.697840,-1532.190996
457.368912,-444.123565,-9548.656652,-1762.019645
457.369234,-370.102971,-9474.636058,-1455.581446
457.369557,-222.061783,-9326.594869,-1608.800546
457.369879,-222.061783,-8882.471304,-1455.581446
457.370201,-148.041188,-9104.533087,-1302.362347
457.370524,-148.041188,-9400.615463,-1532.190996
457.370846,-444.123565,-9400.615463,-1532.190996
457.371168,-296.082377,-9326.594869,-1532.190996
457.371491,-518.144159,-9104.533087,-1149.143247
457.371813,-296.082377,-9696.697840,-1762.019645
457.372135,-296.082377,-9474.636058,-1838.629195
457.372458,-444.123565,-9252.574275,-1762.019645
457.372780,-296.082377,-9252.574275,-1685.410096
457.373102,-444.123565,-8734.430116,-1532.190996
457.373425,-592.164754,-9474.636058,-1608.800546
457.373747,-740.205942,-9400.615463,-1762.019645
457.374069,-518.144159,-9474.636058,-1762.019645
457.374392,-518.144159,-9474.636058,-1685.410096
457.374714,-592.164754,-9326.594869,-1915.238745
457.375036,74.020594,-9622.677246,-1762.019645
457.375358,-444.123565,-9400.615463,-1685.410096
457.375681,-518.144159,-9326.594869,-1762.019645
457.376003,-444.123565,-9326.594869,-1762.019645
457.376325,-592.164754,-9252.574275,-1838.629195
457.376648,-222.061783,-9474.636058,-1838.629195
457.376970,-444.123565,-9400.615463,-1685.410096
457.377292,-592.164754,-9474.636058,-1532.190996
457.377615,-296.082377,-9326.594869,-1838.629195
457.377937,-518.144159,-9326.594869,-1685.410096
457.378259,-296.082377,-9178.553681,-1532.190996
457.378582,-296.082377,-9326.594869,-995.924147
457.378904,-518.144159,-9400.615463,-1608.800546
457.379226,-518.144159,-9400.615463,-1455.581446
457.379549,-518.144159,-9400.615463,-1532.190996
457.379871,-370.102971,-9326.594869,-1455.581446
457.380193,-370.102971,-8882.471304,-1378.971896
457.380515,74.020594,-9400.615463,-1838.629195
457.380838,-296.082377,-9474.636058,-1455.581446
457.381160,-370.102971,-9326.594869,-1532.190996
457.381482,-444.123565,-9178.553681,-1608.800546
457.381805,-444.123565,-9474.636058,-1608.800546
457.382127,-444.123565,-9474.636058,-1532.190996
457.382449,-444.123565,-9474.636058,-1532.190996
457.382772,-296.082377,-9178.553681,-1532.190996
457.383094,0.000000,-9252.574275,-1532.190996
457.383416,592.164754,-8882.471304,-1532.190996
457.383739,1480.411884,-9696.697840,-1532.190996
457.384061,2220.617826,-9844.739029,-1532.190996
457.384383,2220.617826,-9474.636058,-612.876398
457.384706,1332.370696,-8808.450710,-306.438199
457.385028,444.123565,-8734.430116,-1762.019645
457.385350,-296.082377,-9104.533087,-1991.848295
457.385673,-1998.556043,-9326.594869,-2451.505594
457.385995,-3108.864956,-9844.739029,-2145.067394
457.386317,-3627.009116,-9622.677246,-2451.505594
457.386639,-2368.659014,-9696.697840,-2451.505594
457.386962,444.123565,-10584.944971,-2145.067394
457.387284,2738.761985,-11399.171507,-1302.362347
457.387606,3182.885551,-10140.821405,-153.219100
457.387929,2368.659014,-8586.388927,0.000000
457.388251,2072.576638,-8364.327145,-842.705048
457.388573,2738.761985,-9326.594869,-2451.505594
457.388896,1924.535449,-9474.636058,-1838.629195
457.389218,888.247130,-9326.594869,-766.095498
457.389540,-444.123565,-7772.162391,0.000000
457.389863,148.041188,-7402.059420,-1378.971896
457.390185,1406.391290,-9474.636058,-2834.553343
457.390507,888.247130,-10140.821405,-1838.629195
457.390830,-740.205942,-8808.450710,-459.657299
457.391152,-1554.432478,-8660.409521,-2221.676944
457.391474,-444.123565,-9474.636058,-3753.867940
457.391797,370.102971,-9918.759623,-2757.943793
457.392119,370.102971,-10584.944971,-1072.533697
457.392441,962.267725,-10362.883188,-1302.362347
457.392763,2368.659014,-9326.594869,-2145.067394
457.393086,3627.009116,-9770.718434,-1838.629195
457.393408,4515.256246,-11103.089130,-459.657299
457.393730,3923.091493,-10658.965565,-229.828649
457.394053,2738.761985,-8290.306550,-612.876398
457.394375,2886.803174,-7698.141797,-1072.533697
457.394697,2960.823768,-8364.327145,-919.314598
457.395020,2442.679609,-8438.347739,-1302.362347
457.395342,1184.329507,-7698.141797,-1149.143247
457.395664,1036.288319,-8364.327145,-689.485948
457.395987,2220.617826,-9918.759623,-766.095498
457.396309,2886.803174,-10510.924376,-1378.971896
457.396631,2664.741391,-9326.594869,-2068.457845
457.396954,2368.659014,-9474.636058,-1838.629195
457.397276,3034.844362,-9918.759623,-995.924147
457.397598,2516.700203,-9326.594869,-1762.019645
457.397921,2738.761985,-9474.636058,-2451.505594
457.398243,2294.638420,-9992.780217,-1915.238745
457.398565,2368.659014,-9622.677246,-1225.752797
457.398887,2812.782580,-9326.594869,-1608.800546
457.399210,2664.741391,-9326.594869,-2068.457845
457.399532,1998.556043,-9474.636058,-1455.581446
457.399854,1332.370696,-8734.430116,-842.705048
457.400177,518.144159,-7846.182985,-1225.752797
457.400499,-296.082377,-8364.327145,-2221.676944
457.400821,-740.205942,-9252.574275,-1762.019645
457.401144,-888.247130,-9918.759623,-1378.971896
457.401466,-370.102971,-10955.047942,-766.095498
457.401788,74.020594,-11547.212695,-1149.143247
457.402111,962.267725,-11621.233289,-1072.533697
457.402433,1850.514855,-11251.130318,-383.047749
457.402755,2442.679609,-10732.986159,-153.219100
457.403078,2368.659014,-9622.677246,-919.314598
457.403400,2590.720797,-8808.450710,-1225.752797
457.403722,2368.659014,-7994.224174,-842.705048
457.404045,1628.453072,-8068.244768,-459.657299
457.404367,1480.411884,-8216.285956,-919.314598
457.404689,1480.411884,-7994.224174,-1532.190996
457.405011,1332.370696,-8438.347739,-1302.362347
457.405334,1406.391290,-8364.327145,-1532.190996
457.405656,1554.432478,-7994.224174,-1762.019645
457.405978,1554.432478,-8068.244768,-1762.019645
457.406301,1110.308913,-8660.409521,-1838.629195
457.406623,1184.329507,-9474.636058,-1991.848295
457.406945,740.205942,-10214.842000,-2528.115143
457.407268,444.123565,-10807.006753,-2221.676944
457.407590,592.164754,-11695.253884,-1915.238745
457.407912,814.226536,-11399.171507,-689.485948
457.408235,1406.391290,-10807.006753,-1149.143247
457.408557,1776.494261,-10214.842000,-1455.581446
457.408879,2368.659014,-9844.739029,-689.485948
457.409202,2886.803174,-9252.574275,-229.828649
457.409524,2812.782580,-8438.347739,229.828649
457.409846,3775.050304,-7920.203579,-1072.533697
457.410168,4959.379811,-7476.080014,-1762.019645
457.410491,5995.668130,-7920.203579,-1915.238745
457.410813,6069.688724,-8290.306550,-1149.143247
457.411135,5403.503377,-8660.409521,-612.876398
457.411458,4737.318029,-9474.636058,-1532.190996
457.411780,3775.050304,-10732.986159,-2528.115143
457.412102,2516.700203,-12287.418637,-2681.334243
457.412425,888.247130,-12657.521608,-2145.067394
457.412747,148.041188,-11769.274478,-1532.190996
457.413069,370.102971,-10510.924376,-995.924147
457.413392,666.185348,-8956.491898,-536.266849
457.413714,370.102971,-7476.080014,0.000000
457.414036,148.041188,-6883.915261,229.828649
457.414359,296.082377,-6069.688724,-383.047749
457.414681,888.247130,-5699.585753,-919.314598
457.415003,1110.308913,-6143.709319,-1608.800546
457.415326,1110.308913,-7624.121203,-1608.800546
457.415648,814.226536,-8882.471304,-1608.800546
457.415970,592.164754,-10288.862594,-1762.019645
457.416292,666.185348,-11251.130318,-1915.238745
457.416615,296.082377,-10881.027347,-2451.505594
457.416937,-222.061783,-11103.089130,-2757.943793
457.417259,-1258.350101,-10881.027347,-2528.115143
457.417582,-1998.556043,-11399.171507,-2528.115143
457.417904,-2886.803174,-11399.171507,-2374.896044
457.418226,-3552.988522,-11029.068536,-1838.629195
457.418549,-3849.070898,-11177.109724,-2374.896044
457.418871,-2886.803174,-11177.109724,-1302.362347
457.419193,-1850.514855,-10807.006753,-383.047749
457.419516,-518.144159,-9548.656652,383.047749
457.419838,666.185348,-7698.141797,536.266849
457.420160,2590.720797,-6291.750507,-459.657299
457.420483,4737.318029,-5551.544565,-536.266849
457.420805,6143.709319,-5625.565159,-1225.752797
457.421127,6587.832884,-6217.729913,-766.095498
457.421450,6439.791695,-6809.894666,-1225.752797
457.421772,6735.874072,-8512.368333,-3140.991542
457.422094,6439.791695,-11695.253884,-3370.820191
457.422416,5625.565159,-13989.892304,-2834.553343
457.422739,3182.885551,-13027.624579,-1302.362347
457.423061,518.144159,-11843.295072,-306.438199
457.423383,-1110.308913,-11325.150913,-1378.971896
457.423706,-3108.864956,-10214.842000,-2451.505594
457.424028,-5773.606348,-8586.388927,-1532.190996
457.424350,-7402.059420,-6809.894666,-1685.410096
457.424673,-7328.038826,-6883.915261,-2911.162892
457.424995,-3997.112087,-8734.430116,-2834.553343
457.425317,0.000000,-8882.471304,-2221.676944
457.425640,3552.988522,-9326.594869,-2528.115143
457.425962,6957.935855,-11029.068536,-2298.286494
457.426284,10658.965565,-11103.089130,-612.876398
457.426607,13175.665768,-9918.759623,-995.924147
457.426929,14211.954086,-7994.224174,-1991.848295
457.427251,13915.871710,-7624.121203,-1991.848295
457.427574,11695.253884,-8808.450710,-1149.143247
457.427896,9326.594869,-10140.821405,-383.047749
457.428218,4959.379811,-10288.862594,76.609550
457.428540,888.247130,-11547.212695,-306.438199
457.428863,-1702.473667,-12361.439231,-1072.533697
457.429185,-4589.276840,-13027.624579,0.000000
457.429507,-7772.162391,-11621.233289,2681.334243
457.429830,-9030.512492,-6439.791695,2681.334243
457.430152,-8512.368333,-3034.844362,76.609550
457.430474,-6291.750507,-3108.864956,-2221.676944
457.430797,-1628.453072,-4441.235652,-3294.210641
457.431119,2368.659014,-7550.100608,-4749.792088
457.431441,5403.503377,-10584.944971,-3370.820191
457.431764,8808.450710,-12583.501014,-1149.143247
457.432086,10214.842000,-13693.809927,-1608.800546
457.432408,10140.821405,-12139.377449,-2757.943793
457.432731,7402.059420,-10584.944971,-3753.867940
457.433053,3552.988522,-8364.327145,-4979.620737
457.433375,1480.411884,-8512.368333,-5898.935335
457.433698,74.020594,-8956.491898,-4213.525239
457.434021,-1702.473667,-10066.800811,-766.095498
457.434343,-3849.070898,-12583.501014,2145.067394
457.434666,-6439.791695,-11769.274478,4903.011187
457.434988,-6587.832884,-9474.636058,4213.525239
457.435311,-5477.523971,-5995.668130,0.000000
457.435633,-2368.659014,-7031.956449,-1532.190996
457.435956,3182.885551,-7328.038826,-383.047749
457.436279,7179.997637,-5107.421000,-306.438199
457.436601,10732.986159,-6513.812290,-1915.238745
457.436924,12287.418637,-9992.780217,-612.876398
457.437246,11251.130318,-11473.192101,1302.362347
457.437569,7105.977043,-11695.253884,-2068.457845
457.437891,1480.411884,-12879.583391,-6511.811733
457.438214,-3404.947333,-15470.304188,-7048.078582
457.438536,-6809.894666,-15248.242405,-4979.620737
457.438859,-10066.800811,-10362.883188,-2145.067394
457.439182,-10807.006753,-7105.977043,-1378.971896
457.439504,-9104.533087,-4589.276840,-2604.724693
457.439827,-5107.421000,-5329.482782,-1915.238745
457.440149,-3108.864956,-6883.915261,-1225.752797
457.440472,-2072.576638,-8882.471304,2298.286494
457.440794,-444.123565,-10214.842000,3217.601092
457.441117,2146.597232,-7624.121203,1302.362347
457.441440,4219.173869,-5329.482782,76.609550
457.441762,3552.988522,-4885.359217,-995.924147
457.442085,2590.720797,-7550.100608,-2681.334243
457.442407,1998.556043,-10214.842000,-2911.162892
457.442730,1628.453072,-10362.883188,-2604.724693
457.443052,2442.679609,-11547.212695,-4060.306139
457.443375,3478.967927,-12879.583391,-5822.325785
457.443697,4071.132681,-14285.974681,-4903.011187
457.444020,2738.761985,-12953.603985,-1378.971896
457.444343,0.000000,-11177.109724,766.095498
457.444665,-1924.535449,-11251.130318,-612.876398
457.444988,-3256.906145,-10288.862594,-2681.334243
457.445310,-3997.112087,-10066.800811,-2374.896044
457.445633,-4071.132681,-10066.800811,0.000000
457.445955,-2516.700203,-9104.533087,1149.143247
457.446278,0.000000,-7920.203579,2145.067394
457.446601,2960.823768,-6069.688724,1838.629195
457.446923,5329.482782,-4737.318029,1225.752797
457.447246,5847.626942,-4515.256246,-459.657299
457.447568,4959.379811,-5699.585753,-2528.115143
457.447891,4367.215058,-6883.915261,-3064.381992
457.448213,2516.700203,-8068.244768,-3524.039291
457.448536,-296.082377,-9548.656652,-3524.039291
457.448858,-3330.926739,-11547.212695,-3524.039291
457.449181,-5477.523971,-13397.727550,-4673.182538
457.449504,-5403.503377,-14508.036463,-5362.668486
457.449826,-5551.544565,-14434.015869,-4596.572988
457.450149,-5255.462188,-13471.748144,-3140.991542
457.450471,-4515.256246,-10362.883188,-1762.019645
457.450794,-2442.679609,-8660.409521,0.000000
457.451116,-370.102971,-7179.997637,612.876398
457.451439,2220.617826,-7846.182985,229.828649
457.451762,4737.318029,-7698.141797,-612.876398
457.452084,5921.647536,-7402.059420,-995.924147
457.452407,5699.585753,-8364.327145,1991.848295
457.452729,4589.276840,-9030.512492,4673.182538
457.453052,3256.906145,-8364.327145,3294.210641
457.453374,2294.638420,-7328.038826,-383.047749
457.453697,2294.638420,-7624.121203,-3140.991542
457.454020,1998.556043,-9326.594869,-3830.477490
457.454342,740.205942,-10510.924376,-2374.896044
457.454665,-962.267725,-9474.636058,-383.047749
457.454987,-1110.308913,-9918.759623,-919.314598
457.455310,-1184.329507,-9548.656652,-1915.238745
457.455632,-2516.700203,-9030.512492,-3600.648841
457.455955,-5403.503377,-8808.450710,-4903.011187
457.456277,-7105.977043,-10214.842000,-3600.648841
457.456600,-7550.100608,-10881.027347,-612.876398
457.456923,-6217.729913,-9992.780217,-919.314598
457.457245,-4663.297435,-7476.080014,-3140.991542
457.457568,-2516.700203,-6587.832884,-4060.306139
457.457890,-222.061783,-7402.059420,-2298.286494
457.458213,740.205942,-9326.594869,-459.657299
457.458535,222.061783,-9326.594869,612.876398
457.458858,148.041188,-9400.615463,-612.876398
457.459181,1110.308913,-10140.821405,-2681.334243
457.459503,1258.350101,-11251.130318,-2757.943793
457.459826,-148.041188,-10362.883188,-1225.752797
457.460148,-592.164754,-9400.615463,-306.438199
457.460471,444.123565,-10436.903782,229.828649
457.460793,2072.576638,-12213.398043,306.438199
457.461116,2812.782580,-12287.418637,-919.314598
457.461438,2738.761985,-9844.739029,-1915.238745
457.461761,2812.782580,-8068.244768,-689.485948
457.462084,3330.926739,-8586.388927,229.828649
457.462406,2738.761985,-7179.997637,0.000000
457.462729,592.164754,-5625.565159,-1915.238745
457.463051,-2220.617826,-5921.647536,-2757.943793
457.463374,-4589.276840,-7698.141797,-2145.067394
457.463696,-5773.606348,-9474.636058,-3753.867940
457.464019,-7254.018232,-10436.903782,-5745.716235
457.464342,-7920.203579,-10881.027347,-5362.668486
457.464664,-6809.894666,-11621.233289,-3370.820191
457.464987,-5699.585753,-10510.924376,-2298.286494
457.465309,-4145.153275,-9326.594869,-3983.696590
457.465632,-2738.761985,-9474.636058,-4673.182538
457.465954,370.102971,-10510.924376,-2451.505594
457.466277,3256.906145,-10436.903782,-2145.067394
457.466599,4293.194464,-10732.986159,-1915.238745
457.466922,4441.235652,-11769.274478,76.609550
457.467245,4589.276840,-11547.212695,3294.210641
457.467567,4293.194464,-9400.615463,3294.210641
457.467890,3775.050304,-6513.812290,1378.971896
457.468212,3849.070898,-6217.729913,-995.924147
457.468535,4885.359217,-7105.977043,-1532.190996
457.468857,5921.647536,-7254.018232,766.095498
457.469180,4885.359217,-7476.080014,2145.067394
457.469503,4145.153275,-7476.080014,842.705048
457.469825,3775.050304,-8882.471304,-689.485948
457.470148,1702.473667,-9548.656652,-2145.067394
457.470470,-2220.617826,-9548.656652,-3600.648841
457.470793,-5255.462188,-10658.965565,-5286.058936
457.471115,-6365.771101,-12361.439231,-5209.449386
457.471438,-6365.771101,-12509.480420,-3983.696590
457.471761,-6735.874072,-11177.109724,-3753.867940
457.472083,-7031.956449,-9844.739029,-2681.334243
457.472406,-6291.750507,-10066.800811,-3753.867940
457.472728,-4071.132681,-10955.047942,-2911.162892
457.473051,-2146.597232,-10066.800811,-2451.505594
457.473373,-666.185348,-8364.327145,-1915.238745
457.473696,1258.350101,-7476.080014,-689.485948
457.474018,2886.803174,-7772.162391,0.000000
457.474341,2664.741391,-9104.533087,919.314598
457.474664,1480.411884,-8808.450710,2911.162892
457.474986,1036.288319,-8364.327145,2068.457845
457.475309,1998.556043,-9252.574275,-919.314598
457.475631,4071.132681,-10881.027347,-2374.896044
457.475954,4219.173869,-8512.368333,-1225.752797
457.476276,2664.741391,-7476.080014,612.876398
457.476599,2368.659014,-7624.121203,1915.238745
457.476922,2738.761985,-7772.162391,612.876398
457.477244,1110.308913,-7846.182985,-3294.210641
457.477567,-2368.659014,-8956.491898,-4903.011187
457.477889,-6365.771101,-11547.212695,-3064.381992
457.478212,-7846.182985,-12435.459826,-2528.115143
457.478534,-7105.977043,-11399.171507,-3600.648841
457.478857,-6143.709319,-9474.636058,-4596.572988
457.479179,-5773.606348,-9326.594869,-3753.867940
457.479502,-4811.338623,-8956.491898,-1991.848295
457.479825,-4663.297435,-8882.471304,-1532.190996
457.480147,-3775.050304,-8882.471304,-2374.896044
457.480470,-1406.391290,-8956.491898,-2451.505594
457.480792,1258.350101,-7846.182985,-2068.457845
457.481115,1406.391290,-8290.306550,-2374.896044
457.481437,1554.432478,-9178.553681,689.485948
457.481760,2072.576638,-10732.986159,1225.752797
457.482083,3404.947333,-10807.006753,306.438199
457.482405,3997.112087,-9770.718434,0.000000
457.482728,3627.009116,-8068.244768,-689.485948
457.483050,3256.906145,-8142.265362,-1608.800546
457.483373,3256.906145,-8660.409521,-306.438199
457.483695,2590.720797,-7994.224174,459.657299
457.484018,1998.556043,-7179.997637,-1608.800546
457.484340,1776.494261,-8068.244768,-3983.696590
457.484663,148.041188,-9918.759623,-3830.477490
457.484986,-1406.391290,-11769.274478,-2987.772442
457.485308,-2442.679609,-12435.459826,-3294.210641
457.485631,-3034.844362,-12805.562797,-4826.401637
457.485953,-3701.029710,-12287.418637,-4519.963438
457.486276,-4441.235652,-10140.821405,-1455.581446
457.486598,-5181.441594,-7772.162391,-2451.505594
457.486921,-4589.276840,-7624.121203,-4903.011187
457.487244,-1850.514855,-9030.512492,-4903.011187
457.487566,222.061783,-9474.636058,-2834.553343
457.487889,1332.370696,-9252.574275,-153.219100
457.488211,2220.617826,-9992.780217,995.924147
457.488534,3182.885551,-10436.903782,1455.581446
457.488856,3997.112087,-9844.739029,995.924147
457.489179,3330.926739,-8956.491898,306.438199
457.489502,1776.494261,-8290.306550,536.266849
457.489824,1776.494261,-7772.162391,0.000000
457.490147,2220.617826,-6587.832884,612.876398
457.490469,1628.453072,-6735.874072,536.266849
457.490792,740.205942,-8068.244768,76.609550
457.491114,518.144159,-8734.430116,-306.438199
457.491437,0.000000,-8956.491898,-1915.238745
457.491759,-1702.473667,-9104.533087,-2374.896044
457.492082,-3330.926739,-9400.615463,-3140.991542
457.492405,-4811.338623,-9622.677246,-4136.915689
457.492727,-4885.359217,-10066.800811,-4136.915689
457.493050,-4885.359217,-10140.821405,-4136.915689
457.493372,-4737.318029,-11103.089130,-4136.915689
457.493695,-4145.153275,-11843.295072,-2757.943793
457.494017,-3775.050304,-11621.233289,-1225.752797
457.494340,-3627.009116,-10584.944971,-1149.143247
457.494663,-2146.597232,-9474.636058,-1149.143247
457.494985,-592.164754,-8290.306550,-1225.752797
457.495308,222.061783,-6735.874072,-689.485948
457.495630,1036.288319,-5773.606348,306.438199
457.495953,1480.411884,-7846.182985,612.876398
457.496275,1924.535449,-10807.006753,76.609550
457.496598,2220.617826,-12287.418637,1149.143247
457.496920,888.247130,-10214.842000,1225.752797
457.497243,222.061783,-8364.327145,-229.828649
457.497566,740.205942,-8660.409521,-1685.410096
457.497888,962.267725,-7772.162391,-1685.410096
457.498211,0.000000,-7105.977043,-2221.676944
457.498533,-518.144159,-7846.182985,-2451.505594
457.498856,-1036.288319,-9326.594869,-2834.553343
457.499178,-1776.494261,-10436.903782,-4060.306139
457.499501,-2960.823768,-10732.986159,-4826.401637
457.499824,-3997.112087,-11177.109724,-3830.477490
457.500146,-3923.091493,-11843.295072,-3064.381992
457.500469,-3478.967927,-11991.336260,-3064.381992
457.500791,-3404.947333,-10066.800811,-2451.505594
457.501114,-3552.988522,-7624.121203,-2068.457845
457.501436,-2294.638420,-6365.771101,-1762.019645
457.501759,-518.144159,-6883.915261,-2145.067394
457.502081,1258.350101,-8142.265362,-1378.971896
457.502404,2960.823768,-9030.512492,-383.047749
457.502727,3701.029710,-9030.512492,0.000000
457.503049,4145.153275,-9696.697840,1149.143247
457.503372,4367.215058,-10362.883188,1762.019645
457.503694,4145.153275,-9548.656652,-1072.533697
457.504017,3330.926739,-10140.821405,-1532.190996
457.504339,2664.741391,-9326.594869,306.438199
457.504662,1776.494261,-8586.388927,-229.828649
457.504985,1036.288319,-9030.512492,-1838.629195
457.505307,370.102971,-9548.656652,-1378.971896
457.505630,740.205942,-9400.615463,-1532.190996
457.505952,370.102971,-8882.471304,-2911.162892
457.506275,-518.144159,-8438.347739,-3217.601092
457.506597,-1406.391290,-8142.265362,-2987.772442
457.506920,-1702.473667,-8882.471304,-3830.477490
457.507243,-2294.638420,-11325.150913,-4903.011187
457.507565,-3627.009116,-11917.315666,-4213.525239
457.507888,-5329.482782,-11325.150913,-2757.943793
457.508210,-5625.565159,-9474.636058,-1378.971896
457.508533,-4589.276840,-8734.430116,-2451.505594
457.508855,-2886.803174,-9030.512492,-3447.429741
457.509178,-962.267725,-9622.677246,-2451.505594
457.509500,592.164754,-10066.800811,-229.828649
457.509823,1776.494261,-9696.697840,842.705048
457.510146,2960.823768,-8586.388927,1149.143247
457.510468,4219.173869,-8660.409521,0.000000
457.510791,4293.194464,-11103.089130,-1225.752797
457.511113,2590.720797,-11843.295072,919.314598
457.511436,0.000000,-9326.594869,1762.019645
457.511758,-1998.556043,-7105.977043,306.438199
457.512081,-1554.432478,-7402.059420,0.000000
457.512404,-592.164754,-7328.038826,-1915.238745
457.512726,-1332.370696,-6883.915261,-2757.943793
457.513049,-1924.535449,-7846.182985,-2068.457845
457.513371,-1480.411884,-9548.656652,-766.095498
457.513694,-1258.350101,-9992.780217,-1915.238745
457.514016,-3330.926739,-8364.327145,-3217.601092
457.514339,-5477.523971,-9548.656652,-4136.915689
457.514661,-6513.812290,-11843.295072,-4979.620737
457.514984,-6365.771101,-12805.562797,-4826.401637
457.515307,-6661.853478,-10807.006753,-2834.553343
457.515629,-6439.791695,-9104.533087,-1072.533697
457.515952,-4219.173869,-8216.285956,-1608.800546
457.516274,-1110.308913,-8438.347739,-3064.381992
457.516597,1628.453072,-8956.491898,-2374.896044
457.516919,3034.844362,-8734.430116,-1302.362347
457.517242,4367.215058,-9252.574275,-536.266849
457.517565,4737.318029,-9326.594869,2298.286494
457.517887,3256.906145,-9252.574275,2221.676944
457.518210,1776.494261,-9178.553681,1991.848295
457.518532,1554.432478,-9622.677246,153.219100
457.518855,2590.720797,-9696.697840,-1608.800546
457.519177,3478.967927,-9548.656652,-1455.581446
457.519500,4293.194464,-7772.162391,229.828649
457.519822,4219.173869,-7402.059420,1225.752797
457.520145,3478.967927,-8734.430116,766.095498
457.520468,2220.617826,-8734.430116,-612.876398
457.520790,74.020594,-7920.203579,-4213.525239
457.521113,-2294.638420,-9030.512492,-6358.592633
457.521435,-4145.153275,-10881.027347,-5132.839837
457.521758,-5033.400406,-12139.377449,-3600.648841
457.522080,-5329.482782,-11695.253884,-3370.820191
457.522403,-5181.441594,-9400.615463,-3140.991542
457.522726,-5033.400406,-7994.224174,-4060.306139
457.523048,-4515.256246,-9400.615463,-4136.915689
457.523371,-3182.885551,-10140.821405,-4136.915689
457.523693,-1036.288319,-9992.780217,-3217.601092
457.524016,1480.411884,-10214.842000,-2451.505594
457.524338,4885.359217,-10732.986159,-306.438199
457.524661,6217.729913,-9696.697840,383.047749
457.524984,6439.791695,-8660.409521,1302.362347
457.525306,5625.565159,-8956.491898,1915.238745
457.525629,4811.338623,-10807.006753,1762.019645
457.525951,3330.926739,-10362.883188,1762.019645
457.526274,1924.535449,-8438.347739,689.485948
457.526596,888.247130,-5995.668130,-766.095498
457.526919,962.267725,-6291.750507,-612.876398
457.527241,1110.308913,-6957.935855,612.876398
457.527564,518.144159,-7179.997637,-229.828649
457.527887,-814.226536,-8216.285956,-2604.724693
457.528209,-2664.741391,-9770.718434,-3140.991542
457.528532,-4811.338623,-11399.171507,-3600.648841
457.528854,-7031.956449,-12139.377449,-5209.449386
457.529177,-8512.368333,-11621.233289,-6128.763984
457.529499,-8068.244768,-11103.089130,-5975.544884
457.529822,-7476.080014,-10658.965565,-4213.525239
457.530145,-5995.668130,-10288.862594,-3370.820191
457.530467,-4145.153275,-9992.780217,-4136.915689
457.530790,-1702.473667,-10732.986159,-3830.477490
457.531112,1184.329507,-10658.965565,-1149.143247
457.531435,3404.947333,-9622.677246,766.095498
457.531757,4663.297435,-7772.162391,1225.752797
457.532080,5477.523971,-6439.791695,1072.533697
457.532402,4663.297435,-6883.915261,1302.362347
457.532725,3404.947333,-9030.512492,2298.286494
457.533048,1406.391290,-9104.533087,2604.724693
457.533370,0.000000,-8364.327145,1149.143247
457.533693,-296.082377,-7476.080014,-229.828649
457.534015,444.123565,-7846.182985,-689.485948
457.534338,1702.473667,-8882.471304,-459.657299
457.534660,2072.576638,-8808.450710,0.000000
457.534982,814.226536,-8290.306550,-1302.362347
457.535305,222.061783,-10066.800811,-2911.162892
457.535627,-2072.576638,-10288.862594,-4443.353888
457.535950,-5625.565159,-10214.842000,-5056.230287
457.536272,-8660.409521,-11103.089130,-5362.668486
457.536595,-7772.162391,-13619.789333,-5669.106685
457.536917,-6735.874072,-12657.521608,-5056.230287
457.537240,-5477.523971,-10288.862594,-3830.477490
457.537562,-3552.988522,-8364.327145,-1685.410096
457.537885,-1036.288319,-8216.285956,-2451.505594
457.538207,2368.659014,-8142.265362,-1991.848295
457.538530,3923.091493,-7846.182985,-383.047749
457.538852,4663.297435,-6883.915261,689.485948
457.539175,5033.400406,-7402.059420,919.314598
457.539497,5477.523971,-8068.244768,2145.067394
457.539820,5255.462188,-8734.430116,1838.629195
457.540142,4293.194464,-10955.047942,153.219100
457.540465,3997.112087,-11843.295072,995.924147
457.540787,2886.803174,-8882.471304,1762.019645
457.541110,1554.432478,-6291.750507,383.047749
457.541432,592.164754,-7772.162391,-766.095498
457.541754,1628.453072,-9400.615463,-766.095498
457.542077,1702.473667,-8586.388927,-1991.848295
457.542399,0.000000,-8660.409521,-3753.867940
457.542722,-2072.576638,-9400.615463,-3217.601092
457.543044,-3701.029710,-9548.656652,-3447.429741
457.543367,-4515.256246,-11251.130318,-5669.106685
457.543689,-5329.482782,-13101.645173,-5515.887586
457.544012,-6661.853478,-12213.398043,-4366.744339
457.544334,-6439.791695,-10658.965565,-3830.477490
457.544657,-4811.338623,-9696.697840,-3294.210641
457.544979,-1554.432478,-9474.636058,-2681.334243
457.545302,814.226536,-8586.388927,-2451.505594
457.545624,2442.679609,-8734.430116,-2221.676944
457.545947,3701.029710,-8660.409521,689.485948
457.546269,4737.318029,-8512.368333,1455.581446
457.546592,5033.400406,-8142.265362,1225.752797
457.546914,4737.318029,-8438.347739,1072.533697
457.547237,3552.988522,-10066.800811,229.828649
457.547559,1998.556043,-11695.253884,919.314598
457.547882,444.123565,-9474.636058,1532.190996
457.548204,-444.123565,-6661.853478,0.000000
457.548526,-222.061783,-6661.853478,-1378.971896
457.548849,370.102971,-7994.224174,-1685.410096
457.549171,666.185348,-8882.471304,-1149.143247
457.549494,-888.247130,-9104.533087,-1455.581446
457.549816,-1998.556043,-10510.924376,-2451.505594
457.550139,-3330.926739,-10881.027347,-3064.381992
457.550461,-5255.462188,-9400.615463,-5286.058936
457.550784,-8290.306550,-9400.615463,-5898.935335
457.551106,-8364.327145,-12509.480420,-5592.497135
457.551429,-7476.080014,-12435.459826,-3600.648841
457.551751,-6661.853478,-9696.697840,-2451.505594
457.552074,-5255.462188,-8438.347739,-2298.286494
457.552396,-1924.535449,-9474.636058,-2834.553343
457.552719,1036.288319,-10362.883188,-1762.019645
457.553041,2664.741391,-8660.409521,0.000000
457.553364,3552.988522,-6143.709319,1149.143247
457.553686,4885.359217,-6661.853478,153.219100
457.554009,6069.688724,-8512.368333,1149.143247
457.554331,5329.482782,-9474.636058,1455.581446
457.554654,3108.864956,-10732.986159,919.314598
457.554976,1702.473667,-11473.192101,1455.581446
457.555298,1332.370696,-8956.491898,1838.629195
457.555621,962.267725,-7105.977043,0.000000
457.555943,0.000000,-7105.977043,-1685.410096
457.556266,-518.144159,-7254.018232,-1225.752797
457.556588,-666.185348,-7698.141797,-1149.143247
457.556911,-1036.288319,-8734.430116,-2221.676944
457.557233,-1406.391290,-10140.821405,-3524.039291
457.557556,-3478.967927,-9400.615463,-4749.792088
457.557878,-5921.647536,-9326.594869,-4290.134789
457.558201,-7031.956449,-11621.233289,-3830.477490
457.558523,-6365.771101,-13323.706956,-4290.134789
457.558846,-5625.565159,-10807.006753,-5362.668486
457.559168,-4515.256246,-8660.409521,-4903.011187
457.559491,-1332.370696,-9178.553681,-3753.867940
457.559813,2220.617826,-10214.842000,-2145.067394
457.560136,3775.050304,-9918.759623,-1072.533697
457.560458,4737.318029,-9400.615463,-459.657299
457.560781,6069.688724,-8882.471304,306.438199
457.561103,7105.977043,-9474.636058,153.219100
457.561426,6217.729913,-9474.636058,1072.533697
457.561748,4219.173869,-9252.574275,1685.410096
457.562071,3478.967927,-9252.574275,2374.896044
457.562393,4367.215058,-8364.327145,995.924147
457.562715,4811.338623,-7328.038826,919.314598
457.563038,3552.988522,-7179.997637,153.219100
457.563360,2368.659014,-7476.080014,229.828649
457.563683,1480.411884,-8808.450710,-306.438199
457.564005,740.205942,-9918.759623,-919.314598
457.564328,-222.061783,-9844.739029,-2451.505594
457.564650,-2442.679609,-9548.656652,-5209.449386
457.564973,-4885.359217,-9104.533087,-5056.230287
457.565295,-6143.709319,-10436.903782,-4979.620737
457.565618,-6661.853478,-11917.315666,-5439.278036
457.565940,-6883.915261,-11769.274478,-4979.620737
457.566263,-7105.977043,-11251.130318,-4596.572988
457.566585,-6957.935855,-11177.109724,-4366.744339
457.566908,-4959.379811,-11473.192101,-3753.867940
457.567230,-2368.659014,-11473.192101,-2681.334243
457.567553,0.000000,-9326.594869,-1685.410096
457.567875,2368.659014,-7105.977043,0.000000
457.568198,4219.173869,-6439.791695,1072.533697
457.568520,4441.235652,-6587.832884,536.266849
457.568843,3478.967927,-7772.162391,1378.971896
457.569165,1850.514855,-9474.636058,2911.162892
457.569487,888.247130,-9178.553681,1915.238745
457.569810,740.205942,-9252.574275,-459.657299
457.570132,1110.308913,-8882.471304,-1225.752797
457.570455,1776.494261,-8586.388927,-153.219100
457.570777,2886.803174,-9622.677246,229.828649
457.571100,2442.679609,-9326.594869,689.485948
457.571422,1110.308913,-9030.512492,153.219100
457.571745,-1480.411884,-7698.141797,-1762.019645
457.572067,-2960.823768,-9400.615463,-3753.867940
457.572390,-4811.338623,-11547.212695,-5592.497135
457.572712,-7920.203579,-12509.480420,-5056.230287
457.573035,-11251.130318,-10807.006753,-2681.334243
457.573357,-12435.459826,-9104.533087,-1378.971896
457.573680,-10955.047942,-8290.306550,-4366.744339
457.574002,-8142.265362,-8734.430116,-6128.763984
457.574325,-4811.338623,-8956.491898,-5056.230287
457.574647,-1554.432478,-9178.553681,-2451.505594
457.574970,2146.597232,-9474.636058,-306.438199
457.575292,5699.585753,-8882.471304,1225.752797
457.575615,7920.203579,-7846.182985,153.219100
457.575937,7920.203579,-8216.285956,-689.485948
457.576259,6069.688724,-9474.636058,1225.752797
457.576582,3552.988522,-10436.903782,2451.505594
457.576904,2812.782580,-10288.862594,612.876398
457.577227,3552.988522,-9252.574275,-612.876398
457.577549,4811.338623,-7994.224174,-153.219100
457.577872,5033.400406,-7105.977043,612.876398
457.578194,5255.462188,-7698.141797,995.924147
457.578517,4293.194464,-7624.121203,1302.362347
457.578839,3256.906145,-7920.203579,-612.876398
457.579162,518.144159,-8734.430116,-3064.381992
457.579484,-3404.947333,-9622.677246,-3677.258390
457.579807,-6957.935855,-10584.944971,-4903.011187
457.580129,-8068.244768,-11177.109724,-6128.763984
457.580452,-7031.956449,-12657.521608,-5898.935335
457.580774,-5773.606348,-11547.212695,-4213.525239
457.581097,-3923.091493,-10584.944971,-4673.182538
457.581419,-1998.556043,-11843.295072,-5209.449386
457.581742,148.041188,-12509.480420,-3370.820191
457.582064,1776.494261,-11769.274478,-2451.505594
457.582387,2886.803174,-8956.491898,-1685.410096
457.582709,4071.132681,-6957.935855,-383.047749
457.583031,4515.256246,-6587.832884,0.000000
457.583354,3775.050304,-7550.100608,766.095498
457.583676,2368.659014,-9104.533087,2987.772442
457.583999,1036.288319,-8216.285956,3677.258390
457.584321,592.164754,-6587.832884,919.314598
457.584644,1110.308913,-5847.626942,-536.266849
457.584966,2294.638420,-6587.832884,-536.266849
457.585289,2886.803174,-8216.285956,0.000000
457.585611,1998.556043,-8512.368333,1225.752797
457.585934,592.164754,-9252.574275,1225.752797
457.586256,-592.164754,-9548.656652,-766.095498
457.586579,-1776.494261,-10881.027347,-3907.087040
457.586901,-4367.215058,-11917.315666,-6665.030833
457.587224,-7476.080014,-13767.830521,-5439.278036
457.587546,-9918.759623,-13175.665768,-3140.991542
457.587869,-11103.089130,-10732.986159,-2834.553343
457.588191,-9400.615463,-9474.636058,-5286.058936
457.588514,-7772.162391,-9400.615463,-6358.592633
457.588836,-4737.318029,-9992.780217,-5439.278036
457.589159,-2886.803174,-9918.759623,-1915.238745
457.589481,0.000000,-9474.636058,919.314598
457.589803,3256.906145,-8068.244768,1302.362347
457.590126,6069.688724,-6883.915261,-459.657299
457.590448,6143.709319,-7254.018232,229.828649
457.590771,4071.132681,-8512.368333,1608.800546
457.591093,1776.494261,-9474.636058,1225.752797
457.591416,222.061783,-9030.512492,995.924147
457.591738,-148.041188,-7920.203579,1302.362347
457.592061,962.267725,-7105.977043,-689.485948
457.592383,2516.700203,-9548.656652,-3370.820191
457.592706,3182.885551,-10584.944971,-1608.800546
457.593028,1924.535449,-9400.615463,1762.019645
457.593351,0.000000,-7772.162391,1685.410096
457.593673,-1406.391290,-8586.388927,-2374.896044
457.593996,-3404.947333,-9400.615463,-5898.935335
457.594318,-6291.750507,-12435.459826,-6588.421283
457.594641,-9622.677246,-11769.274478,-3830.477490
457.594963,-10955.047942,-11029.068536,-2834.553343
457.595286,-8660.409521,-11547.212695,-4136.915689
457.595608,-3849.070898,-9918.759623,-4213.525239
457.595931,-962.267725,-8956.491898,-5515.887586
457.596253,740.205942,-9770.718434,-4290.134789
457.596576,2960.823768,-9844.739029,229.828649
457.596898,5551.544565,-8808.450710,1225.752797
457.597220,7698.141797,-5403.503377,306.438199
457.597543,8068.244768,-4737.318029,-612.876398
457.597865,6143.709319,-7772.162391,0.000000
457.598188,4145.153275,-11325.150913,2221.676944
457.598510,3256.906145,-11029.068536,3524.039291
457.598833,2442.679609,-8216.285956,1991.848295
457.599155,3997.112087,-6291.750507,76.609550
457.599478,4663.297435,-6291.750507,-1072.533697
457.599800,3701.029710,-6883.915261,-153.219100
457.600123,2368.659014,-8734.430116,842.705048
457.600445,962.267725,-8660.409521,-536.266849
457.600768,-296.082377,-8660.409521,-2681.334243
457.601090,-3108.864956,-8882.471304,-3753.867940
457.601413,-6587.832884,-11103.089130,-4979.620737
457.601735,-8364.327145,-13767.830521,-5669.106685
457.602058,-8512.368333,-14508.036463,-5439.278036
457.602380,-7994.224174,-13249.686362,-4596.572988
457.602703,-6587.832884,-10732.986159,-4366.744339
457.603025,-5033.400406,-9992.780217,-4903.011187
457.603348,-1924.535449,-11029.068536,-4673.182538
457.603670,296.082377,-9918.759623,-2451.505594
457.603992,2146.597232,-9104.533087,-1149.143247
457.604315,4589.276840,-7846.182985,306.438199
457.604637,5181.441594,-6291.750507,1149.143247
457.604960,4589.276840,-7031.956449,1378.971896
457.605282,3256.906145,-8438.347739,1072.533697
457.605605,1554.432478,-9844.739029,612.876398
457.605927,74.020594,-9252.574275,536.266849
457.606250,-1036.288319,-7846.182985,-229.828649
457.606572,-1036.288319,-7179.997637,-766.095498
457.606895,148.041188,-7846.182985,-1608.800546
457.607217,296.082377,-8438.347739,-1225.752797
457.607540,518.144159,-9326.594869,-919.314598
457.607862,-1110.308913,-9252.574275,-1225.752797
457.608185,-2738.761985,-9696.697840,-2604.724693
457.608507,-4589.276840,-11325.150913,-5132.839837
457.608830,-7031.956449,-13175.665768,-5898.935335
457.609152,-10066.800811,-13915.871710,-3983.696590
457.609475,-10955.047942,-12361.439231,-2987.772442
457.609797,-9918.759623,-10436.903782,-3600.648841
457.610120,-5625.565159,-9104.533087,-3983.696590
457.610442,-3108.864956,-7772.162391,-4673.182538
457.610764,-296.082377,-7920.203579,-2451.505594
457.611087,962.267725,-7550.100608,1225.752797
457.611409,4071.132681,-7402.059420,2374.896044
457.611732,6143.709319,-6217.729913,76.609550
457.612054,6365.771101,-6883.915261,-995.924147
457.612377,4737.318029,-9104.533087,459.657299
457.612699,3256.906145,-11103.089130,1072.533697
457.613022,1554.432478,-11325.150913,2451.505594
457.613344,1036.288319,-8882.471304,2068.457845
457.613667,1776.494261,-6957.935855,-842.705048
457.613989,3256.906145,-6735.874072,-3217.601092
457.614312,4663.297435,-7402.059420,-2068.457845
457.614634,3775.050304,-7624.121203,229.828649
457.614957,3330.926739,-8882.471304,229.828649
457.615279,2590.720797,-10584.944971,-1991.848295
457.615602,-296.082377,-10732.986159,-2451.505594
457.615924,-4811.338623,-10066.800811,-3447.429741
457.616247,-7624.121203,-10955.047942,-5286.058936
457.616569,-7550.100608,-13027.624579,-6281.983084
457.616892,-6291.750507,-12657.521608,-5209.449386
457.617214,-4959.379811,-10362.883188,-3064.381992
457.617536,-3627.009116,-9104.533087,-2757.943793
457.617859,-370.102971,-10214.842000,-3064.381992
457.618181,1776.494261,-10288.862594,-2528.115143
457.618504,3775.050304,-9474.636058,-2145.067394
457.618826,4293.194464,-7624.121203,-842.705048
457.619149,3997.112087,-6883.915261,229.828649
457.619471,3108.864956,-7179.997637,459.657299
457.619794,2220.617826,-8364.327145,842.705048
457.620116,1554.432478,-9770.718434,536.266849
457.620439,1184.329507,-9622.677246,536.266849
457.620761,814.226536,-7402.059420,76.609550
457.621084,1480.411884,-6883.915261,0.000000
457.621406,2368.659014,-7105.977043,0.000000
457.621729,2960.823768,-8586.388927,0.000000
457.622051,2368.659014,-8882.471304,-306.438199
457.622374,1332.370696,-8142.265362,-1302.362347
457.622696,-962.267725,-8512.368333,-3064.381992
457.623019,-3552.988522,-10807.006753,-3983.696590
457.623341,-6143.709319,-12287.418637,-3907.087040
457.623664,-9474.636058,-12879.583391,-3753.867940
457.623986,-10881.027347,-12361.439231,-3907.087040
457.624309,-9918.759623,-11621.233289,-3753.867940
457.624631,-6809.894666,-9474.636058,-4903.011187
457.624953,-4219.173869,-9178.553681,-5362.668486
457.625276,-2294.638420,-9326.594869,-3064.381992
457.625598,-222.061783,-9548.656652,612.876398
457.625921,2220.617826,-8364.327145,689.485948
457.626243,4219.173869,-6661.853478,-689.485948
457.626566,4663.297435,-6809.894666,-1608.800546
457.626888,3330.926739,-7624.121203,-383.047749
457.627211,1406.391290,-9770.718434,1685.410096
457.627533,-370.102971,-10140.821405,2451.505594
457.627856,-1110.308913,-8364.327145,536.266849
457.628178,222.061783,-7772.162391,-1378.971896
457.628501,2590.720797,-7105.977043,-2757.943793
457.628823,3330.926739,-7624.121203,-2528.115143
457.629146,2442.679609,-9104.533087,536.266849
457.629468,1998.556043,-8882.471304,1762.019645
457.629791,1924.535449,-9918.759623,-919.314598
457.630113,444.123565,-11029.068536,-4903.011187
457.630436,-2664.741391,-11769.274478,-4596.572988
457.630758,-6883.915261,-13027.624579,-3753.867940
457.631081,-8512.368333,-12953.603985,-2987.772442
457.631403,-8882.471304,-10881.027347,-3140.991542
457.631725,-6587.832884,-9844.739029,-4290.134789
457.632048,-4737.318029,-7846.182985,-5286.058936
457.632370,-1258.350101,-9622.677246,-5286.058936
457.632693,0.000000,-9104.533087,-2757.943793
457.633015,2886.803174,-11473.192101,-306.438199
457.633338,4885.359217,-9474.636058,689.485948
457.633660,6587.832884,-7698.141797,153.219100
457.633983,5995.668130,-7179.997637,-383.047749
457.634305,4737.318029,-9030.512492,-306.438199
457.634628,3923.091493,-10881.027347,1378.971896
457.634950,2442.679609,-10066.800811,2604.724693
457.635273,1406.391290,-6069.688724,2145.067394
457.635595,1850.514855,-5329.482782,229.828649
457.635918,2294.638420,-5995.668130,-1302.362347
457.636240,3108.864956,-7402.059420,-766.095498
457.636563,3478.967927,-8734.430116,0.000000
457.636885,3552.988522,-8882.471304,459.657299
457.637208,2368.659014,-9326.594869,-459.657299
457.637530,-814.226536,-9696.697840,-1225.752797
457.637853,-4441.235652,-11473.192101,-2528.115143
457.638175,-7698.141797,-11917.315666,-4596.572988
457.638498,-9622.677246,-12213.398043,-5439.278036
457.638820,-8956.491898,-11991.336260,-5209.449386
457.639143,-7105.977043,-10066.800811,-5132.839837
457.639465,-3997.112087,-9696.697840,-4213.525239
457.639788,-814.226536,-9992.780217,-3447.429741
457.640110,1628.453072,-11177.109724,-689.485948
457.640433,3478.967927,-9696.697840,76.609550
457.640755,4293.194464,-6439.791695,-612.876398
457.641078,3478.967927,-6143.709319,-459.657299
457.641400,2146.597232,-7476.080014,153.219100
457.641723,888.247130,-8586.388927,1762.019645
457.642045,0.000000,-8734.430116,842.705048
457.642367,-962.267725,-7402.059420,459.657299
457.642690,148.041188,-7031.956449,1302.362347
457.643012,2072.576638,-7550.100608,-229.828649
457.643335,3775.050304,-8808.450710,-1762.019645
457.643657,3552.988522,-9104.533087,-536.266849
457.643980,2220.617826,-7994.224174,766.095498
457.644302,962.267725,-7550.100608,-689.485948
457.644625,-1258.350101,-8438.347739,-3140.991542
457.644947,-4515.256246,-10732.986159,-5745.716235
457.645270,-6809.894666,-14211.954086,-6511.811733
457.645592,-9178.553681,-15248.242405,-4749.792088
457.645915,-10658.965565,-14211.954086,-1685.410096
457.646237,-9770.718434,-11547.212695,-2681.334243
457.646560,-7254.018232,-8216.285956,-5439.278036
457.646882,-3701.029710,-8068.244768,-6511.811733
457.647205,-2146.597232,-7698.141797,-4213.525239
457.647527,-222.061783,-8364.327145,-1455.581446
457.647850,1924.535449,-8142.265362,-153.219100
457.648172,3627.009116,-7846.182985,-306.438199
457.648495,3923.091493,-8512.368333,-1072.533697
457.648817,3478.967927,-10066.800811,689.485948
457.649140,2812.782580,-11769.274478,1991.848295
457.649462,3108.864956,-10066.800811,612.876398
457.649785,3997.112087,-8290.306550,-306.438199
457.650107,4959.379811,-6735.874072,536.266849
457.650430,5699.585753,-5699.585753,229.828649
457.650752,4959.379811,-7031.956449,-919.314598
457.651075,3923.091493,-8956.491898,-383.047749
457.651397,3108.864956,-9326.594869,459.657299
457.651720,1332.370696,-8512.368333,-766.095498
457.652042,-1036.288319,-8734.430116,-3370.820191
457.652365,-4145.153275,-12509.480420,-4673.182538
457.652687,-6513.812290,-13989.892304,-4213.525239
457.653010,-8660.409521,-11029.068536,-2068.457845
457.653332,-9252.574275,-9252.574275,-3677.258390
457.653655,-7846.182985,-8660.409521,-5362.668486
457.653977,-4589.276840,-9474.636058,-5362.668486
457.654300,-1776.494261,-10510.924376,-4903.011187
457.654622,-148.041188,-12139.377449,-2145.067394
457.654945,2368.659014,-11991.336260,612.876398
457.655267,5255.462188,-9030.512492,306.438199
457.655590,6143.709319,-5477.523971,-766.095498
457.655912,5255.462188,-6217.729913,459.657299
457.656235,3256.906145,-8216.285956,2528.115143
457.656557,1924.535449,-9252.574275,2451.505594
457.656880,1406.391290,-7772.162391,1685.410096
457.657202,1850.514855,-7402.059420,919.314598
457.657525,2886.803174,-7402.059420,0.000000
457.657847,3404.947333,-7476.080014,0.000000
457.658170,3478.967927,-7994.224174,383.047749
457.658492,3182.885551,-9400.615463,1072.533697
457.658815,2072.576638,-8438.347739,-229.828649
457.659137,-370.102971,-8216.285956,-2298.286494
457.659460,-3256.906145,-10658.965565,-4596.572988
457.659782,-5995.668130,-13915.871710,-5209.449386
457.660105,-8438.347739,-14434.015869,-4366.744339
457.660427,-9770.718434,-13471.748144,-2604.724693
457.660750,-9474.636058,-10584.944971,-2451.505594
457.661072,-6587.832884,-8290.306550,-3907.087040
457.661395,-3775.050304,-7994.224174,-5286.058936
457.661717,-2368.659014,-9770.718434,-4290.134789
457.662039,-962.267725,-9400.615463,-1149.143247
457.662362,962.267725,-8586.388927,536.266849
457.662684,2960.823768,-7105.977043,383.047749
457.663007,3552.988522,-6957.935855,-536.266849
457.663329,2812.782580,-8512.368333,0.000000
457.663652,1628.453072,-9770.718434,1685.410096
457.663974,1184.329507,-9992.780217,1302.362347
457.664297,1554.432478,-8956.491898,842.705048
457.664619,2072.576638,-7402.059420,306.438199
457.664942,2960.823768,-7105.977043,-1532.190996
457.665264,3775.050304,-9030.512492,-1991.848295
457.665587,3034.844362,-9622.677246,76.609550
457.665909,2220.617826,-8364.327145,612.876398
457.666232,1258.350101,-7179.997637,-1455.581446
457.666554,-518.144159,-7550.100608,-3830.477490
457.666877,-2812.782580,-10436.903782,-4979.620737
457.667199,-6143.709319,-12731.542202,-4213.525239
457.667522,-8068.244768,-12731.542202,-2604.724693
457.667844,-9178.553681,-10214.842000,-3370.820191
457.668167,-7476.080014,-9474.636058,-5209.449386
457.668489,-3997.112087,-8808.450710,-6358.592633
457.668812,-444.123565,-11399.171507,-5745.716235
457.669134,1036.288319,-10955.047942,-2911.162892
457.669457,3182.885551,-10510.924376,-842.705048
457.669779,5403.503377,-8660.409521,-306.438199
457.670102,6883.915261,-7105.977043,-612.876398
457.670424,5625.565159,-8364.327145,-1532.190996
457.670747,2738.761985,-10436.903782,0.000000
457.671069,666.185348,-11547.212695,1608.800546
457.671392,-148.041188,-9548.656652,1685.410096
457.671714,-592.164754,-6735.874072,153.219100
457.672037,370.102971,-5995.668130,-1532.190996
457.672359,1554.432478,-7254.018232,-1532.190996
457.672682,2960.823768,-9104.533087,0.000000
457.673004,2516.700203,-8290.306550,536.266849
457.673327,2220.617826,-7846.182985,-766.095498
457.673649,1554.432478,-8660.409521,-2834.553343
457.673972,-518.144159,-10955.047942,-3983.696590
457.674294,-4145.153275,-13841.851115,-5056.230287
457.674617,-7402.059420,-14137.933492,-3600.648841
457.674939,-9400.615463,-12213.398043,-2911.162892
457.675262,-8734.430116,-10140.821405,-4979.620737
457.675584,-5551.544565,-9548.656652,-6052.154434
457.675907,-2664.741391,-9844.739029,-4903.011187
457.676229,-1628.453072,-9252.574275,-3830.477490
457.676552,370.102971,-9326.594869,-383.047749
457.676874,2294.638420,-8734.430116,1838.629195
457.677197,4441.235652,-6439.791695,1532.190996
457.677519,4071.132681,-6217.729913,-919.314598
457.677842,2368.659014,-8142.265362,459.657299
457.678164,518.144159,-10436.903782,2298.286494
457.678487,-370.102971,-9474.636058,2757.943793
457.678809,-444.123565,-7698.141797,2681.334243
457.679132,518.144159,-6291.750507,76.609550
457.679454,2368.659014,-7254.018232,-2145.067394
457.679777,4145.153275,-9326.594869,0.000000
457.680099,3478.967927,-9326.594869,995.924147
457.680422,2146.597232,-9474.636058,612.876398
457.680744,296.082377,-9030.512492,-612.876398
457.681066,-2368.659014,-8216.285956,-1225.752797
457.681389,-4811.338623,-9252.574275,-4673.182538
457.681711,-6217.729913,-12805.562797,-6818.249932
457.682034,-7328.038826,-14804.118840,-4060.306139
457.682356,-8734.430116,-11769.274478,229.828649
457.682679,-8586.388927,-8364.327145,-229.828649
457.683001,-5477.523971,-7624.121203,-2834.553343
457.683324,-1998.556043,-9030.512492,-6511.811733
457.683646,814.226536,-9474.636058,-5592.497135
457.683969,1554.432478,-9326.594869,-2068.457845
457.684291,3775.050304,-9030.512492,1225.752797
457.684614,5403.503377,-8734.430116,1225.752797
457.684936,6217.729913,-9474.636058,-306.438199
457.685259,4811.338623,-10288.862594,-229.828649
457.685581,2664.741391,-11399.171507,459.657299
457.685904,1110.308913,-11177.109724,842.705048
457.686226,518.144159,-8438.347739,536.266849
457.686549,888.247130,-6513.812290,76.609550
457.686871,1480.411884,-6365.771101,-995.924147
457.687194,2072.576638,-7031.956449,-1608.800546
457.687516,3256.906145,-8660.409521,-1378.971896
457.687839,2812.782580,-7328.038826,-995.924147
457.688161,1850.514855,-8290.306550,-2298.286494
457.688484,0.000000,-10214.842000,-3294.210641
457.688806,-2664.741391,-11991.336260,-3983.696590
457.689129,-5699.585753,-12953.603985,-4366.744339
457.689451,-7179.997637,-12065.356855,-3983.696590
457.689774,-7920.203579,-10362.883188,-5592.497135
457.690096,-6809.894666,-8956.491898,-6052.154434
457.690419,-4367.215058,-8586.388927,-5286.058936
457.690741,-2590.720797,-10066.800811,-4136.915689
457.691064,74.020594,-10140.821405,-2757.943793
457.691386,2294.638420,-10881.027347,-1762.019645
457.691709,3552.988522,-9622.677246,-1149.143247
457.692031,3775.050304,-8364.327145,-459.657299
457.692354,2146.597232,-8734.430116,383.047749
457.692676,0.000000,-9178.553681,1991.848295
457.692999,-296.082377,-9178.553681,1608.800546
457.693321,296.082377,-8512.368333,689.485948
457.693644,1628.453072,-7698.141797,-612.876398
457.693966,3182.885551,-8290.306550,-536.266849
457.694289,3701.029710,-8364.327145,1149.143247
457.694611,4441.235652,-8586.388927,1685.410096
457.694934,3627.009116,-8290.306550,1225.752797
457.695256,2590.720797,-7550.100608,-1378.971896
457.695579,-370.102971,-7105.977043,-3370.820191
457.695901,-4071.132681,-8438.347739,-4443.353888
457.696224,-6439.791695,-12139.377449,-5209.449386
457.696546,-7994.224174,-15174.221811,-4443.353888
457.696869,-8068.244768,-13841.851115,-2834.553343
457.697191,-8586.388927,-10362.883188,-1455.581446
457.697514,-6809.894666,-8068.244768,-3217.601092
457.697836,-4737.318029,-8068.244768,-4596.572988
457.698159,-2812.782580,-9474.636058,-3907.087040
457.698481,-1184.329507,-9400.615463,-2451.505594
457.698804,518.144159,-8364.327145,-995.924147
457.699126,2812.782580,-7772.162391,76.609550
457.699449,4219.173869,-8956.491898,536.266849
457.699771,2960.823768,-9326.594869,1532.190996
457.700094,1850.514855,-9918.759623,3217.601092
457.700416,1110.308913,-9622.677246,2681.334243
457.700738,1924.535449,-8808.450710,383.047749
457.701061,3182.885551,-7402.059420,-766.095498
457.701383,4145.153275,-6735.874072,-766.095498
457.701706,4441.235652,-7476.080014,-766.095498
457.702028,4589.276840,-8142.265362,842.705048
457.702351,3552.988522,-8364.327145,536.266849
457.702673,1332.370696,-8068.244768,-1455.581446
457.702996,-1702.473667,-9104.533087,-3600.648841
457.703318,-3552.988522,-11769.274478,-4673.182538
457.703641,-5403.503377,-15396.283594,-5592.497135
457.703963,-7105.977043,-14359.995275,-2757.943793
457.704286,-8660.409521,-9400.615463,-459.657299
457.704608,-7920.203579,-6365.771101,-2834.553343
457.704931,-4589.276840,-6735.874072,-5515.887586
457.705253,-518.144159,-9622.677246,-5898.935335
457.705576,1110.308913,-10436.903782,-3753.867940
457.705898,1776.494261,-11103.089130,-1302.362347
457.706221,3849.070898,-10066.800811,919.314598
457.706543,6513.812290,-9474.636058,459.657299
457.706866,5921.647536,-9474.636058,-1149.143247
457.707188,3182.885551,-9622.677246,229.828649
457.707511,592.164754,-9474.636058,2221.676944
457.707833,74.020594,-8808.450710,1072.533697
457.708156,444.123565,-7550.100608,-153.219100
457.708478,888.247130,-7550.100608,-2451.505594
457.708801,1406.391290,-7846.182985,-2451.505594
457.709123,2516.700203,-8882.471304,-1838.629195
457.709446,3552.988522,-9918.759623,0.000000
457.709768,2590.720797,-8882.471304,842.705048
457.710091,592.164754,-7920.203579,-1532.190996
457.710413,-3108.864956,-8660.409521,-4443.353888
457.710736,-5847.626942,-11547.212695,-5592.497135
457.711058,-8882.471304,-13693.809927,-6511.811733
457.711381,-10288.862594,-12509.480420,-4903.011187
457.711703,-9992.780217,-10214.842000,-2451.505594
457.712026,-7550.100608,-8364.327145,-3600.648841
457.712348,-4219.173869,-8290.306550,-4060.306139
457.712671,-2442.679609,-9918.759623,-4136.915689
457.712993,-1332.370696,-10510.924376,-2911.162892
457.713316,0.000000,-9178.553681,-2451.505594
457.713638,1924.535449,-7476.080014,-229.828649
457.713961,3034.844362,-7994.224174,0.000000
457.714283,2294.638420,-8956.491898,459.657299
457.714606,740.205942,-10436.903782,1762.019645
457.714928,370.102971,-9844.739029,1991.848295
457.715251,1702.473667,-9400.615463,0.000000
457.715573,2516.700203,-7476.080014,-1302.362347
457.715896,3627.009116,-7105.977043,-842.705048
457.716218,3775.050304,-7772.162391,229.828649
457.716541,3330.926739,-8290.306550,1685.410096
457.716863,2664.741391,-8216.285956,842.705048
457.717186,518.144159,-7179.997637,-2145.067394
457.717508,-1628.453072,-7402.059420,-3983.696590
457.717831,-3404.947333,-10436.903782,-5439.278036
457.718153,-4737.318029,-13841.851115,-4979.620737
457.718476,-5995.668130,-14285.974681,-2221.676944
457.718798,-7105.977043,-11251.130318,306.438199
457.719121,-6069.688724,-8438.347739,-1838.629195
457.719443,-3404.947333,-7846.182985,-4826.401637
457.719766,-1258.350101,-8808.450710,-6205.373534
457.720088,296.082377,-9696.697840,-3907.087040
457.720410,1850.514855,-9252.574275,-689.485948
457.720733,4737.318029,-8660.409521,766.095498
457.721055,6587.832884,-8660.409521,536.266849
457.721378,6217.729913,-9252.574275,229.828649
457.721700,3330.926739,-10658.965565,1225.752797
457.722023,1036.288319,-11547.212695,2451.505594
457.722345,296.082377,-9400.615463,2145.067394
457.722668,518.144159,-6069.688724,153.219100
457.722990,2220.617826,-5181.441594,-1149.143247
457.723313,3997.112087,-6735.874072,-1915.238745
457.723635,4737.318029,-7994.224174,-153.219100
457.723958,3923.091493,-9252.574275,919.314598
457.724280,2368.659014,-9548.656652,459.657299
457.724603,296.082377,-10140.821405,-2604.724693
457.724925,-1628.453072,-11695.253884,-5056.230287
457.725248,-4367.215058,-12213.398043,-4979.620737
457.725570,-6883.915261,-11695.253884,-3294.210641
457.725893,-8512.368333,-10214.842000,-2451.505594
457.726215,-8586.388927,-9104.533087,-2681.334243
457.726538,-6587.832884,-8290.306550,-4213.525239
457.726860,-3849.070898,-9104.533087,-6128.763984
457.727183,-1480.411884,-11177.109724,-5362.668486
457.727505,-222.061783,-11621.233289,-1685.410096
457.727828,1184.329507,-10732.986159,153.219100
457.728150,3108.864956,-7772.162391,0.000000
457.728473,3108.864956,-7624.121203,-689.485948
457.728795,1924.535449,-8882.471304,-383.047749
457.729118,148.041188,-9104.533087,612.876398
457.729440,-1406.391290,-7328.038826,1302.362347
457.729763,-814.226536,-7698.141797,-383.047749
457.730085,1258.350101,-9474.636058,-1608.800546
457.730408,3256.906145,-9770.718434,-689.485948
457.730730,3182.885551,-9104.533087,-383.047749
457.731053,2220.617826,-8586.388927,612.876398
457.731375,1332.370696,-8142.265362,459.657299
457.731698,0.000000,-7031.956449,-2451.505594
457.732020,-2590.720797,-6809.894666,-4673.182538
457.732343,-4959.379811,-9178.553681,-5898.935335
457.732665,-5995.668130,-13323.706956,-6205.373534
457.732988,-6217.729913,-15692.365970,-4366.744339
457.733310,-7105.977043,-14211.954086,-919.314598
457.733633,-7772.162391,-10658.965565,0.000000
457.733955,-5995.668130,-8068.244768,-2681.334243
457.734278,-4219.173869,-6661.853478,-5822.325785
457.734600,-2146.597232,-7698.141797,-4903.011187
457.734923,-370.102971,-7254.018232,-3447.429741
457.735245,2368.659014,-7328.038826,-1302.362347
457.735568,4737.318029,-9104.533087,842.705048
457.735890,5551.544565,-10732.986159,2145.067394
457.736213,3478.967927,-11103.089130,2374.896044
457.736535,1776.494261,-11177.109724,2451.505594
457.736857,1036.288319,-9252.574275,2451.505594
457.737180,1998.556043,-6735.874072,-842.705048
457.737502,3404.947333,-6217.729913,-2298.286494
457.737824,4367.215058,-6217.729913,-153.219100
457.738147,4737.318029,-6735.874072,766.095498
457.738469,4589.276840,-8364.327145,919.314598
457.738791,4071.132681,-9992.780217,0.000000
457.739114,1332.370696,-9400.615463,-2298.286494
457.739436,-1776.494261,-9548.656652,-4673.182538
457.739759,-3330.926739,-11473.192101,-5822.325785
457.740081,-5255.462188,-14285.974681,-5439.278036
457.740403,-6809.894666,-13619.789333,-3447.429741
457.740726,-8364.327145,-9252.574275,-612.876398
457.741048,-7624.121203,-5847.626942,-2451.505594
457.741370,-3701.029710,-6883.915261,-4979.620737
457.741693,888.247130,-11103.089130,-5669.106685
457.742015,1776.494261,-11399.171507,-2681.334243
457.742337,1776.494261,-10140.821405,-459.657299
457.742660,4145.153275,-9474.636058,1302.362347
457.742982,6513.812290,-9252.574275,842.705048
457.743304,5773.606348,-9548.656652,-689.485948
457.743627,2442.679609,-8290.306550,229.828649
457.743949,666.185348,-7328.038826,3753.867940
457.744272,1258.350101,-7624.121203,1915.238745
457.744594,2294.638420,-8364.327145,-1685.410096
457.744916,3182.885551,-9104.533087,-1608.800546
457.745239,3256.906145,-8734.430116,-1378.971896
457.745561,3108.864956,-9252.574275,306.438199
457.745883,2220.617826,-9252.574275,995.924147
457.746206,74.020594,-8068.244768,-459.657299
457.746528,-2664.741391,-7031.956449,-3830.477490
457.746850,-5699.585753,-8364.327145,-6128.763984
457.747173,-7254.018232,-12213.398043,-5286.058936
457.747495,-8660.409521,-14582.057057,-5822.325785
457.747817,-9178.553681,-13101.645173,-3677.258390
457.748140,-9030.512492,-10436.903782,-842.705048
457.748462,-6291.750507,-8438.347739,-1762.019645
457.748785,-3923.091493,-8808.450710,-4749.792088
457.749107,-2442.679609,-9844.739029,-4060.306139
457.749429,-1924.535449,-8586.388927,-2987.772442
457.749752,296.082377,-8068.244768,-3140.991542
457.750074,3034.844362,-8808.450710,-383.047749
457.750396,3849.070898,-9844.739029,1532.190996
457.750719,2516.700203,-9696.697840,1378.971896
457.751041,1184.329507,-9770.718434,2145.067394
457.751363,1554.432478,-9400.615463,1838.629195
457.751686,2146.597232,-9030.512492,-306.438199
457.752008,2368.659014,-7550.100608,-1225.752797
457.752331,2146.597232,-6587.832884,-536.266849
457.752653,2516.700203,-7031.956449,0.000000
457.752975,3849.070898,-7994.224174,612.876398
457.753298,2886.803174,-8290.306550,-536.266849
457.753620,296.082377,-7994.224174,-2221.676944
457.753942,-1998.556043,-9474.636058,-4290.134789
457.754265,-4367.215058,-11917.315666,-4979.620737
457.754587,-5329.482782,-13101.645173,-4673.182538
457.754909,-7624.121203,-12731.542202,-4826.401637
457.755232,-8882.471304,-11991.336260,-4136.915689
457.755554,-8142.265362,-10881.027347,-1915.238745
457.755876,-6513.812290,-8216.285956,-3140.991542
457.756199,-2516.700203,-8586.388927,-5439.278036
457.756521,370.102971,-9104.533087,-3983.696590
457.756844,2590.720797,-9030.512492,-1455.581446
457.757166,4737.318029,-8068.244768,-1378.971896
457.757488,6661.853478,-8586.388927,689.485948
457.757811,7031.956449,-11399.171507,2451.505594
457.758133,5403.503377,-11103.089130,1838.629195
457.758455,3478.967927,-8586.388927,3294.210641
457.758778,3627.009116,-6143.709319,3370.820191
457.759100,4663.297435,-5995.668130,-536.266849
457.759422,6291.750507,-7772.162391,-2068.457845
457.759745,6365.771101,-6957.935855,-153.219100
457.760067,4441.235652,-6661.853478,1378.971896
457.760389,3775.050304,-9474.636058,1378.971896
457.760712,2072.576638,-10658.965565,0.000000
457.761034,-740.205942,-9770.718434,-3600.648841
457.761357,-3701.029710,-9252.574275,-6435.202183
457.761679,-6439.791695,-11917.315666,-6205.373534
457.762001,-7402.059420,-12805.562797,-2911.162892
457.762324,-8290.306550,-10510.924376,-2221.676944
457.762646,-8660.409521,-7846.182985,-3217.601092
457.762968,-5921.647536,-8956.491898,-4060.306139
457.763291,-3108.864956,-10732.986159,-4749.792088
457.763613,-2368.659014,-11621.233289,-4366.744339
457.763935,-2220.617826,-10436.903782,-1762.019645
457.764258,518.144159,-9474.636058,76.609550
457.764580,4515.256246,-8438.347739,0.000000
457.764902,5033.400406,-7402.059420,0.000000
457.765225,3108.864956,-6513.812290,1838.629195
457.765547,2072.576638,-8216.285956,995.924147
457.765870,962.267725,-9474.636058,919.314598
457.766192,1184.329507,-10066.800811,1685.410096
457.766514,1036.288319,-7772.162391,0.000000
457.766837,1258.350101,-7698.141797,-2987.772442
457.767159,2072.576638,-9474.636058,-842.705048
457.767481,2368.659014,-9696.697840,1762.019645
457.767804,2220.617826,-8734.430116,-306.438199
457.768126,814.226536,-8438.347739,-3217.601092
457.768448,-1554.432478,-8956.491898,-3907.087040
457.768771,-4219.173869,-10288.862594,-4596.572988
457.769093,-7254.018232,-12583.501014,-4903.011187
457.769416,-9918.759623,-13471.748144,-3907.087040
457.769738,-11473.192101,-12213.398043,-2604.724693
457.770060,-10214.842000,-10140.821405,-3370.820191
457.770383,-8068.244768,-9030.512492,-4979.620737
457.770705,-3701.029710,-9474.636058,-5592.497135
457.771027,-1480.411884,-8586.388927,-3600.648841
457.771350,814.226536,-9474.636058,-2145.067394
457.771672,3627.009116,-8216.285956,0.000000
457.771994,5921.647536,-7994.224174,76.609550
457.772317,5181.441594,-8586.388927,-689.485948
457.772639,3404.947333,-9548.656652,1225.752797
457.772961,962.267725,-10362.883188,3600.648841
457.773284,0.000000,-8734.430116,1915.238745
457.773606,888.247130,-6957.935855,-1149.143247
457.773929,2886.803174,-6735.874072,-1915.238745
457.774251,4737.318029,-6365.771101,-1762.019645
457.774573,4959.379811,-7624.121203,689.485948
457.774896,4737.318029,-9770.718434,1838.629195
457.775218,4145.153275,-9992.780217,1072.533697
457.775540,2886.803174,-9844.739029,-2834.553343
457.775863,-888.247130,-9548.656652,-5439.278036
457.776185,-4515.256246,-10584.944971,-4903.011187
457.776507,-7624.121203,-11843.295072,-3217.601092
457.776830,-8216.285956,-11991.336260,-3140.991542
457.777152,-6661.853478,-11325.150913,-3753.867940
457.777474,-3256.906145,-10436.903782,-4060.306139
457.777797,-518.144159,-10066.800811,-4366.744339
457.778119,1332.370696,-11029.068536,-2145.067394
457.778442,1628.453072,-9918.759623,76.609550
457.778764,2886.803174,-8586.388927,229.828649
457.779086,4515.256246,-6957.935855,-766.095498
457.779409,4663.297435,-6291.750507,-1225.752797
457.779731,2960.823768,-7920.203579,536.266849
457.780053,1406.391290,-9474.636058,2987.772442
457.780376,518.144159,-9844.739029,4213.525239
457.780698,370.102971,-8142.265362,2374.896044
457.781020,1702.473667,-7105.977043,-995.924147
457.781343,3034.844362,-6809.894666,-2451.505594
457.781665,3330.926739,-7476.080014,-689.485948
457.781987,2220.617826,-7846.182985,995.924147
457.782310,1628.453072,-8586.388927,306.438199
457.782632,814.226536,-9474.636058,-2221.676944
457.782955,-1406.391290,-9474.636058,-3830.477490
457.783277,-4737.318029,-10732.986159,-5132.839837
457.783599,-7254.018232,-12953.603985,-5286.058936
457.783922,-8956.491898,-14063.912898,-3753.867940
457.784244,-10066.800811,-11991.336260,-2451.505594
457.784566,-9030.512492,-10510.924376,-2911.162892
457.784889,-5995.668130,-8956.491898,-3753.867940
457.785211,-3256.906145,-8512.368333,-5286.058936
457.785533,-592.164754,-9252.574275,-3447.429741
457.785856,1184.329507,-9252.574275,0.000000
457.786178,3849.070898,-7772.162391,1915.238745
457.786501,4515.256246,-7698.141797,995.924147
457.786823,4441.235652,-8956.491898,0.000000
457.787145,2442.679609,-10066.800811,306.438199
457.787468,148.041188,-9770.718434,689.485948
457.787790,-1110.308913,-8956.491898,1072.533697
457.788112,-518.144159,-7402.059420,153.219100
457.788435,1924.535449,-7031.956449,-1532.190996
457.788757,3478.967927,-8290.306550,-2451.505594
457.789079,3330.926739,-9326.594869,153.219100
457.789402,740.205942,-7920.203579,842.705048
457.789724,-1036.288319,-8068.244768,-1608.800546
457.790046,-2146.597232,-8734.430116,-4596.572988
457.790369,-3478.967927,-10066.800811,-7737.564530
457.790691,-6069.688724,-11991.336260,-7354.516781
457.791014,-8956.491898,-12879.583391,-3753.867940
457.791336,-9992.780217,-11991.336260,-842.705048
457.791658,-7328.038826,-11251.130318,-2911.162892
457.791981,-2960.823768,-9548.656652,-5592.497135
457.792303,-1850.514855,-8808.450710,-5439.278036
457.792625,222.061783,-8660.409521,-3600.648841
457.792948,2220.617826,-8956.491898,-1149.143247
457.793270,5181.441594,-9252.574275,306.438199
457.793592,7476.080014,-7846.182985,536.266849
457.793915,6957.935855,-8512.368333,-383.047749
457.794237,5255.462188,-9400.615463,383.047749
457.794559,3627.009116,-11547.212695,1991.848295
457.794882,2368.659014,-11843.295072,2681.334243
457.795204,1776.494261,-9178.553681,2451.505594
457.795527,2442.679609,-6513.812290,306.438199
457.795849,3923.091493,-5995.668130,-1532.190996
457.796171,5107.421000,-7031.956449,-919.314598
457.796494,3775.050304,-7402.059420,0.000000
457.796816,1702.473667,-8586.388927,0.000000
457.797138,1776.494261,-11029.068536,-1072.533697
457.797461,-518.144159,-11103.089130,-2987.772442
457.797783,-3701.029710,-11103.089130,-4749.792088
457.798105,-6513.812290,-11621.233289,-5286.058936
457.798428,-8364.327145,-11843.295072,-4826.401637
457.798750,-8808.450710,-11251.130318,-3677.258390
457.799072,-7920.203579,-9696.697840,-2681.334243
457.799395,-6365.771101,-8142.265362,-3983.696590
457.799717,-3034.844362,-9474.636058,-5439.278036
457.800040,-1406.391290,-10732.986159,-2834.553343
457.800362,666.185348,-11251.130318,76.609550
457.800684,2664.741391,-8512.368333,919.314598
457.801007,3552.988522,-6957.935855,459.657299
457.801329,3404.947333,-7254.018232,-229.828649
457.801651,2664.741391,-7402.059420,1072.533697
457.801974,1184.329507,-8808.450710,2145.067394
457.802296,0.000000,-8068.244768,2528.115143
457.802618,-296.082377,-7846.182985,1378.971896
457.802941,666.185348,-7254.018232,-306.438199
457.803263,2738.761985,-8438.347739,-1455.581446
457.803586,3330.926739,-9178.553681,-306.438199
457.803908,2960.823768,-8882.471304,459.657299
457.804230,1036.288319,-7179.997637,0.000000
457.804553,-296.082377,-7624.121203,-2451.505594
457.804875,-2072.576638,-9474.636058,-5362.668486
457.805197,-4589.276840,-12213.398043,-7048.078582
457.805520,-7550.100608,-14211.954086,-5286.058936
457.805842,-10214.842000,-13693.809927,-2757.943793
457.806164,-10881.027347,-11621.233289,-1915.238745
457.806487,-7846.182985,-9474.636058,-4290.134789
457.806809,-4219.173869,-8882.471304,-5898.935335
457.807131,-1554.432478,-9400.615463,-5362.668486
457.807454,444.123565,-8808.450710,-1991.848295
457.807776,2812.782580,-8734.430116,459.657299
457.808099,5625.565159,-8068.244768,842.705048
457.808421,6661.853478,-8068.244768,-306.438199
457.808743,5107.421000,-9326.594869,-229.828649
457.809066,3034.844362,-11547.212695,1685.410096
457.809388,1184.329507,-10955.047942,1915.238745
457.809710,444.123565,-8956.491898,1685.410096
457.810033,1110.308913,-6217.729913,76.609550
457.810355,2516.700203,-5329.482782,-2374.896044
457.810677,4663.297435,-6661.853478,-1838.629195
457.811000,3775.050304,-7179.997637,-995.924147
457.811322,2294.638420,-8882.471304,383.047749
457.811644,1480.411884,-9844.739029,-1149.143247
457.811967,0.000000,-10807.006753,-4136.915689
457.812289,-3034.844362,-11251.130318,-5669.106685
457.812612,-5995.668130,-12435.459826,-5669.106685
457.812934,-8660.409521,-12805.562797,-4290.134789
457.813256,-8142.265362,-11843.295072,-3447.429741
457.813579,-6217.729913,-9474.636058,-3753.867940
457.813901,-2664.741391,-8290.306550,-3753.867940
457.814223,-1406.391290,-8660.409521,-4136.915689
457.814546,74.020594,-10066.800811,-2834.553343
457.814868,888.247130,-9844.739029,-612.876398
457.815190,2590.720797,-8660.409521,-995.924147
457.815513,4589.276840,-7550.100608,-1378.971896
457.815835,4515.256246,-7698.141797,-1302.362347
457.816157,2590.720797,-9178.553681,1455.581446
457.816480,666.185348,-10066.800811,3064.381992
457.816802,0.000000,-9992.780217,3064.381992
457.817125,222.061783,-7994.224174,995.924147
457.817447,2368.659014,-5995.668130,-1762.019645
457.817769,4219.173869,-6735.874072,-2911.162892
457.818092,4663.297435,-8216.285956,-459.657299
457.818414,3256.906145,-9400.615463,1838.629195
457.818736,1924.535449,-9252.574275,1072.533697
457.819059,740.205942,-9400.615463,-1608.800546
457.819381,-1628.453072,-10066.800811,-4290.134789
457.819703,-4441.235652,-11029.068536,-5669.106685
457.820026,-7105.977043,-13323.706956,-4443.353888
457.820348,-8882.471304,-12287.418637,-1608.800546
457.820671,-9178.553681,-9030.512492,-1302.362347
457.820993,-7772.162391,-7476.080014,-3294.210641
457.821315,-5181.441594,-8586.388927,-4903.011187
457.821638,-4145.153275,-9474.636058,-5745.716235
457.821960,-2516.700203,-11251.130318,-2834.553343
457.822282,-1406.391290,-11473.192101,306.438199
457.822605,2220.617826,-10288.862594,842.705048
457.822927,4589.276840,-8364.327145,-383.047749
457.823249,3701.029710,-7994.224174,-919.314598
457.823572,2220.617826,-9474.636058,995.924147
457.823894,962.267725,-9844.739029,2604.724693
457.824216,592.164754,-7254.018232,2374.896044
457.824539,962.267725,-5329.482782,1149.143247
457.824861,1998.556043,-5107.421000,-919.314598
457.825184,3849.070898,-7994.224174,-919.314598
457.825506,4367.215058,-9474.636058,306.438199
457.825828,3256.906145,-9400.615463,1072.533697
457.826151,2590.720797,-8956.491898,0.000000
457.826473,2368.659014,-8660.409521,-2604.724693
457.826795,-222.061783,-9400.615463,-4596.572988
457.827118,-3923.091493,-11917.315666,-4519.963438
457.827440,-7328.038826,-13175.665768,-3524.039291
457.827762,-9252.574275,-11843.295072,-3217.601092
457.828085,-8808.450710,-9622.677246,-4519.963438
457.828407,-6957.935855,-9030.512492,-5209.449386
457.828729,-3182.885551,-9696.697840,-4903.011187
457.829052,-1406.391290,-10658.965565,-4596.572988
457.829374,592.164754,-10658.965565,-2068.457845
457.829697,2442.679609,-9770.718434,-536.266849
457.830019,4663.297435,-8068.244768,0.000000
457.830341,4219.173869,-7698.141797,-1302.362347
457.830664,2220.617826,-8882.471304,-842.705048
457.830986,740.205942,-10436.903782,1072.533697
457.831308,296.082377,-9992.780217,2068.457845
457.831631,518.144159,-7328.038826,1685.410096
457.831953,2294.638420,-4737.318029,-689.485948
457.832275,4441.235652,-5625.565159,-2757.943793
457.832598,6439.791695,-8142.265362,-1838.629195
457.832920,4959.379811,-8956.491898,459.657299
457.833242,3108.864956,-9696.697840,153.219100
457.833565,3182.885551,-11399.171507,-2221.676944
457.833887,2220.617826,-12065.356855,-5132.839837
457.834210,-1184.329507,-11399.171507,-4749.792088
457.834532,-5403.503377,-11325.150913,-3753.867940
457.834854,-7328.038826,-11251.130318,-2604.724693
457.835177,-5921.647536,-12213.398043,-3294.210641
457.835499,-4589.276840,-9696.697840,-4903.011187
457.835821,-3404.947333,-8364.327145,-5898.935335
457.836144,-2664.741391,-10436.903782,-3983.696590
457.836458,-1332.370696,-11473.192101,-995.924147
457.836780,518.144159,-10658.965565,306.438199
457.837103,1406.391290,-7698.141797,-383.047749
457.837425,1702.473667,-6661.853478,-1225.752797
457.837748,1850.514855,-8290.306550,-459.657299
457.838070,888.247130,-9400.615463,1225.752797
457.838393,-1702.473667,-8882.471304,3447.429741
457.838715,-2368.659014,-6809.894666,2834.553343
457.839037,-296.082377,-6513.812290,-306.438199
457.839360,3478.967927,-8068.244768,-3217.601092
457.839682,4367.215058,-8290.306550,-2451.505594
457.840005,2368.659014,-8438.347739,995.924147
457.840327,296.082377,-8734.430116,2528.115143
457.840650,222.061783,-9474.636058,919.314598
457.840972,-666.185348,-9252.574275,-4443.353888
457.841295,-2368.659014,-10214.842000,-8273.831378
457.841617,-5403.503377,-12805.562797,-6435.202183
457.841939,-6661.853478,-14137.933492,-1608.800546
457.842262,-7179.997637,-11325.150913,919.314598
457.842584,-6513.812290,-7920.203579,-1072.533697
457.842907,-4219.173869,-6661.853478,-4749.792088
457.843229,-2960.823768,-8068.244768,-6281.983084
457.843552,-2442.679609,-9844.739029,-4060.306139
457.843874,-2368.659014,-10214.842000,-766.095498
457.844196,1406.391290,-10362.883188,1532.190996
457.844519,4885.359217,-9252.574275,1149.143247
457.844841,5847.626942,-8512.368333,306.438199
457.845164,4367.215058,-9104.533087,306.438199
457.845486,1480.411884,-10658.965565,1838.629195
457.845809,-888.247130,-9326.594869,3064.381992
457.846131,-1628.453072,-6883.915261,1225.752797
457.846454,0.000000,-6069.688724,-2528.115143
457.846776,2590.720797,-7920.203579,-4903.011187
457.847098,3627.009116,-9696.697840,-2528.115143
457.847421,2442.679609,-10436.903782,1608.800546
457.847743,888.247130,-9770.718434,2451.505594
457.848066,1184.329507,-9548.656652,-1149.143247
457.848388,1184.329507,-9696.697840,-6128.763984
457.848711,-1110.308913,-11473.192101,-7354.516781
457.849033,-5181.441594,-11991.336260,-4290.134789
457.849356,-7624.121203,-10955.047942,-1378.971896
457.849678,-7476.080014,-8438.347739,-1302.362347
457.850000,-5107.421000,-7476.080014,-4443.353888
457.850323,-1628.453072,-7920.203579,-5745.716235
457.850645,-1406.391290,-8512.368333,-5209.449386
457.850968,-296.082377,-11251.130318,-2911.162892
457.851290,2220.617826,-11991.336260,-383.047749
457.851613,5107.421000,-10658.965565,1225.752797
457.851935,6513.812290,-7476.080014,0.000000
457.852258,5181.441594,-6365.771101,-1762.019645
457.852580,3552.988522,-8882.471304,76.609550
457.852902,1628.453072,-11695.253884,1225.752797
457.853225,-296.082377,-11177.109724,3064.381992
457.853547,-1184.329507,-7550.100608,2145.067394
457.853870,740.205942,-5921.647536,-1838.629195
457.854192,3849.070898,-8068.244768,-3294.210641
457.854515,5773.606348,-9252.574275,-1072.533697
457.854837,4145.153275,-8290.306550,919.314598
457.855160,2738.761985,-7031.956449,1455.581446
457.855482,2368.659014,-8438.347739,-612.876398
457.855804,74.020594,-9400.615463,-3907.087040
457.856127,-4219.173869,-10288.862594,-6665.030833
457.856449,-8734.430116,-12139.377449,-4903.011187
457.856772,-9844.739029,-12213.398043,-3907.087040
457.857094,-8660.409521,-11029.068536,-4673.182538
457.857417,-6143.709319,-9474.636058,-5439.278036
457.857739,-3701.029710,-8956.491898,-4903.011187
457.858061,-3849.070898,-10436.903782,-4136.915689
457.858384,-2294.638420,-11843.295072,-2221.676944
457.858706,-814.226536,-11251.130318,-1532.190996
457.859029,2220.617826,-9178.553681,-1685.410096
457.859351,3701.029710,-7254.018232,-1378.971896
457.859674,2738.761985,-7920.203579,919.314598
457.859996,592.164754,-9548.656652,3983.696590
457.860319,-1258.350101,-8290.306550,4596.572988
457.860641,-1628.453072,-6587.832884,1072.533697
457.860963,666.185348,-6587.832884,-2528.115143
457.861286,4663.297435,-7994.224174,-2834.553343
457.861608,5995.668130,-8734.430116,-995.924147
457.861931,5699.585753,-10362.883188,2451.505594
457.862253,5329.482782,-10214.842000,4443.353888
457.862576,4367.215058,-8660.409521,1072.533697
457.862898,1406.391290,-7105.977043,-4596.572988
457.863221,-2886.803174,-8438.347739,-7124.688131
457.863543,-6217.729913,-11399.171507,-6281.983084
457.863865,-7698.141797,-14359.995275,-4443.353888
457.864188,-7920.203579,-13101.645173,-1378.971896
457.864510,-8290.306550,-9992.780217,-306.438199
457.864833,-6661.853478,-7402.059420,-2451.505594
457.865155,-6365.771101,-8438.347739,-5132.839837
457.865478,-5403.503377,-9400.615463,-4673.182538
457.865800,-4811.338623,-9104.533087,-3370.820191
457.866123,-1628.453072,-8068.244768,-2221.676944
457.866445,1850.514855,-7402.059420,-689.485948
457.866767,4737.318029,-8586.388927,-612.876398
457.867090,3478.967927,-9918.759623,-306.438199
457.867412,1702.473667,-11843.295072,1762.019645
457.867735,1036.288319,-12065.356855,2451.505594
457.868057,962.267725,-9622.677246,-153.219100
457.868380,2146.597232,-6291.750507,-1532.190996
457.868702,4071.132681,-5255.462188,-2068.457845
457.869024,6439.791695,-7179.997637,-1225.752797
457.869347,8142.265362,-9400.615463,1149.143247
457.869669,7328.038826,-8734.430116,1762.019645
457.869992,5773.606348,-9030.512492,995.924147
457.870314,3701.029710,-9622.677246,-229.828649
457.870637,1776.494261,-11399.171507,-3140.991542
457.870959,-1332.370696,-12805.562797,-4903.011187
457.871282,-4367.215058,-12287.418637,-2834.553343
457.871604,-6957.935855,-9400.615463,383.047749
457.871926,-7772.162391,-7328.038826,-2145.067394
457.872249,-6439.791695,-6809.894666,-6281.983084
457.872571,-2886.803174,-9622.677246,-7201.297681
457.872894,-2220.617826,-11177.109724,-4979.620737
457.873216,-1332.370696,-12435.459826,-2221.676944
457.873539,370.102971,-11695.253884,-1225.752797
457.873861,2220.617826,-9622.677246,-612.876398
457.874184,2368.659014,-8660.409521,-1762.019645
457.874506,518.144159,-9030.512492,-1378.971896
457.874828,-1480.411884,-10140.821405,1225.752797
457.875151,-2368.659014,-8734.430116,1302.362347
457.875473,-1258.350101,-6365.771101,1685.410096
457.875796,1110.308913,-5033.400406,459.657299
457.876118,3997.112087,-6291.750507,-1532.190996
457.876441,6735.874072,-9326.594869,-842.705048
457.876763,5995.668130,-8438.347739,1838.629195
457.877086,4071.132681,-7179.997637,3064.381992
457.877408,1924.535449,-8290.306550,1302.362347
457.877730,-962.267725,-9622.677246,-1378.971896
457.878053,-4663.297435,-9474.636058,-4366.744339
457.878375,-7105.977043,-11177.109724,-6128.763984
457.878698,-6957.935855,-13175.665768,-4903.011187
457.879020,-5551.544565,-14285.974681,-3753.867940
457.879343,-5033.400406,-10881.027347,-1072.533697
457.879665,-6143.709319,-7105.977043,-1378.971896
457.879987,-5329.482782,-7920.203579,-3064.381992
457.880310,-3775.050304,-10066.800811,-4366.744339
457.880632,-3108.864956,-9696.697840,-5822.325785
457.880955,-2442.679609,-7624.121203,-5592.497135
457.881277,-888.247130,-8660.409521,-1685.410096
457.881600,222.061783,-10955.047942,2451.505594
457.881922,222.061783,-11473.192101,3753.867940
457.882245,-1406.391290,-9474.636058,2451.505594
457.882567,-962.267725,-7031.956449,153.219100
457.882889,1628.453072,-6291.750507,-3983.696590
457.883212,3923.091493,-7402.059420,-4673.182538
457.883534,4737.318029,-8290.306550,-766.095498
457.883857,4737.318029,-8142.265362,1838.629195
457.884179,5255.462188,-8808.450710,1149.143247
457.884502,5107.421000,-10510.924376,-842.705048
457.884824,2812.782580,-10362.883188,-2374.896044
457.885147,-888.247130,-9992.780217,-4290.134789
457.885469,-3108.864956,-11769.274478,-6052.154434
457.885791,-4737.318029,-14359.995275,-4136.915689
457.886114,-4959.379811,-13323.706956,-612.876398
457.886436,-5995.668130,-7328.038826,-1302.362347
457.886759,-5329.482782,-4293.194464,-4979.620737
457.887081,-2368.659014,-7624.121203,-6435.202183
457.887404,-296.082377,-10584.944971,-4213.525239
457.887726,-222.061783,-11325.150913,-1991.848295
457.888049,1036.288319,-10955.047942,-1302.362347
457.888371,3701.029710,-10658.965565,-153.219100
457.888693,5329.482782,-10362.883188,-919.314598
457.889016,3997.112087,-9030.512492,-919.314598
457.889338,444.123565,-8364.327145,1225.752797
457.889661,-1258.350101,-8734.430116,2757.943793
457.889983,-1258.350101,-8068.244768,1838.629195
457.890306,370.102971,-5551.544565,-689.485948
457.890628,1554.432478,-4811.338623,-3907.087040
457.890950,4663.297435,-8512.368333,-2834.553343
457.891273,6217.729913,-10807.006753,383.047749
457.891595,5181.441594,-9474.636058,2834.553343
457.891918,3256.906145,-8068.244768,2221.676944
457.892240,1258.350101,-8956.491898,-1149.143247
457.892563,-1480.411884,-10584.944971,-5209.449386
457.892885,-4441.235652,-12213.398043,-6052.154434
457.893208,-7550.100608,-12213.398043,-4213.525239
457.893530,-8068.244768,-10955.047942,-995.924147
457.893852,-6587.832884,-8290.306550,-1072.533697
457.894175,-3552.988522,-7328.038826,-2681.334243
457.894497,-3108.864956,-8882.471304,-3447.429741
457.894820,-1554.432478,-10732.986159,-2451.505594
457.895142,-1480.411884,-11251.130318,-2757.943793
457.895465,222.061783,-10584.944971,-2451.505594
457.895787,1406.391290,-8956.491898,-383.047749
457.896110,1628.453072,-9696.697840,689.485948
457.896432,-666.185348,-10362.883188,612.876398
457.896754,-2738.761985,-9178.553681,3370.820191
457.897077,-3034.844362,-7550.100608,2068.457845
457.897399,-962.267725,-5625.565159,-2451.505594
457.897722,2220.617826,-6513.812290,-4443.353888
457.898044,4515.256246,-9030.512492,-2221.676944
457.898367,4589.276840,-9326.594869,1225.752797
457.898689,4589.276840,-9474.636058,2451.505594
457.899012,3404.947333,-9400.615463,1378.971896
457.899334,1184.329507,-8956.491898,-1225.752797
457.899656,-2738.761985,-8956.491898,-4749.792088
457.899979,-6661.853478,-9252.574275,-5209.449386
457.900301,-7402.059420,-11695.253884,-4903.011187
457.900624,-5699.585753,-13397.727550,-4903.011187
457.900946,-3997.112087,-11177.109724,-2145.067394
457.901269,-3775.050304,-7105.977043,229.828649
457.901591,-4071.132681,-5551.544565,-2221.676944
457.901913,-2738.761985,-9326.594869,-3447.429741
457.902236,-1998.556043,-11695.253884,-3064.381992
457.902558,-1776.494261,-9696.697840,-4749.792088
457.902881,-370.102971,-8660.409521,-4443.353888
457.903203,2072.576638,-9178.553681,842.705048
457.903526,2960.823768,-11177.109724,2145.067394
457.903848,1332.370696,-10658.965565,2298.286494
457.904171,-666.185348,-9548.656652,2987.772442
457.904493,148.041188,-7994.224174,1378.971896
457.904815,1998.556043,-6513.812290,-3217.601092
457.905138,3034.844362,-6069.688724,-4290.134789
457.905460,3997.112087,-7476.080014,-1838.629195
457.905783,5773.606348,-9252.574275,1149.143247
457.906105,7105.977043,-9178.553681,1915.238745
457.906428,5773.606348,-8586.388927,76.609550
457.906750,2960.823768,-9252.574275,-1532.190996
457.907073,-148.041188,-10658.965565,-4213.525239
457.907395,-2442.679609,-12805.562797,-5515.887586
457.907717,-4589.276840,-14285.974681,-4213.525239
457.908040,-5995.668130,-10658.965565,-1149.143247
457.908362,-5699.585753,-6365.771101,-766.095498
457.908685,-4959.379811,-5699.585753,-4596.572988
457.909007,-2442.679609,-9474.636058,-5362.668486
457.909330,-2664.741391,-11251.130318,-3370.820191
457.909652,-1924.535449,-11547.212695,-2451.505594
457.909975,-1036.288319,-11103.089130,-3753.867940
457.910297,1110.308913,-11029.068536,-2374.896044
457.910619,2072.576638,-10362.883188,-766.095498
457.910942,518.144159,-9474.636058,-229.828649
457.911264,-1480.411884,-9030.512492,689.485948
457.911587,-2368.659014,-8438.347739,1149.143247
457.911909,-1184.329507,-7105.977043,-383.047749
457.912232,740.205942,-5181.441594,-2757.943793
457.912554,3108.864956,-6735.874072,-2834.553343
457.912876,6217.729913,-9770.718434,-1302.362347
457.913199,8216.285956,-11251.130318,995.924147
457.913521,7476.080014,-9252.574275,2221.676944
457.913844,4367.215058,-7994.224174,1838.629195
457.914166,740.205942,-8512.368333,-689.485948
457.914489,-3701.029710,-9178.553681,-3907.087040
457.914811,-7179.997637,-10214.842000,-5975.544884
457.915134,-8660.409521,-12509.480420,-4979.620737
457.915456,-8068.244768,-12731.542202,-3064.381992
457.915778,-6365.771101,-10881.027347,0.000000
457.916101,-4885.359217,-7846.182985,-1225.752797
457.916423,-2886.803174,-7698.141797,-2834.553343
457.916746,-1258.350101,-10436.903782,-1838.629195
457.917068,-1406.391290,-9844.739029,-3140.991542
457.917391,-1776.494261,-8438.347739,-4826.401637
457.917713,-962.267725,-8512.368333,-2451.505594
457.918036,0.000000,-10955.047942,1378.971896
457.918358,-592.164754,-10362.883188,2757.943793
457.918680,-1998.556043,-8216.285956,2987.772442
457.919003,-2220.617826,-6661.853478,2451.505594
457.919325,370.102971,-6513.812290,-1915.238745
457.919648,3552.988522,-7179.997637,-4060.306139
457.919970,5107.421000,-7772.162391,-2068.457845
457.920293,5995.668130,-8882.471304,229.828649
457.920615,6513.812290,-9400.615463,2451.505594
457.920938,5773.606348,-9770.718434,1608.800546
457.921260,2590.720797,-9474.636058,-1532.190996
457.921582,-1850.514855,-9622.677246,-3907.087040
457.921905,-5033.400406,-10732.986159,-4826.401637
457.922227,-6069.688724,-11695.253884,-4826.401637
457.922550,-5625.565159,-13175.665768,-4673.182538
457.922872,-4589.276840,-11843.295072,-1608.800546
457.923195,-3330.926739,-8512.368333,0.000000
457.923517,-3108.864956,-6217.729913,-1915.238745
457.923839,-1850.514855,-8808.450710,-3753.867940
457.924162,-370.102971,-10584.944971,-3217.601092
457.924484,-148.041188,-9474.636058,-4366.744339
457.924807,296.082377,-8882.471304,-4749.792088
457.925129,1924.535449,-10140.821405,-612.876398
457.925452,2738.761985,-10881.027347,2374.896044
457.925774,1184.329507,-9844.739029,1762.019645
457.926097,-296.082377,-8438.347739,2374.896044
457.926419,888.247130,-7328.038826,1532.190996
457.926741,3552.988522,-7254.018232,-3524.039291
457.927064,5255.462188,-7402.059420,-5745.716235
457.927386,5403.503377,-9178.553681,-1302.362347
457.927709,5181.441594,-9104.533087,2374.896044
457.928031,4515.256246,-8808.450710,1532.190996
457.928354,2072.576638,-8956.491898,-459.657299
457.928676,-1850.514855,-9474.636058,-2068.457845
457.928999,-4885.359217,-9770.718434,-4673.182538
457.929321,-7254.018232,-11029.068536,-6511.811733
457.929643,-8216.285956,-12287.418637,-4060.306139
457.929966,-7772.162391,-10658.965565,-1072.533697
457.930288,-7476.080014,-7994.224174,-1685.410096
457.930611,-6735.874072,-7402.059420,-3294.210641
457.930933,-4959.379811,-9548.656652,-4673.182538
457.931256,-3849.070898,-10807.006753,-3600.648841
457.931578,-3701.029710,-11769.274478,-3140.991542
457.931901,-2442.679609,-10881.027347,-2451.505594
457.932223,-1554.432478,-9400.615463,-459.657299
457.932545,-1036.288319,-8438.347739,1149.143247
457.932868,-814.226536,-6217.729913,2374.896044
457.933190,-222.061783,-6291.750507,-306.438199
457.933513,592.164754,-9252.574275,-2681.334243
457.933835,814.226536,-11177.109724,-153.219100
457.934158,666.185348,-8364.327145,919.314598
457.934480,-740.205942,-7105.977043,-1225.752797
457.934803,74.020594,-8734.430116,-689.485948
457.935125,814.226536,-8660.409521,-229.828649
457.935447,-222.061783,-7031.956449,-3600.648841
457.935770,-2812.782580,-7402.059420,-4213.525239
457.936092,-5329.482782,-9918.759623,-1608.800546
457.936415,-6587.832884,-10807.006753,-1685.410096
457.936737,-6439.791695,-11621.233289,-5745.716235
457.937060,-6291.750507,-13989.892304,-7814.174080
457.937382,-6143.709319,-14508.036463,-4060.306139
457.937705,-7550.100608,-11103.089130,1302.362347
457.938027,-8512.368333,-7624.121203,612.876398
457.938350,-6365.771101,-7550.100608,-3370.820191
457.938672,-2368.659014,-8216.285956,-4366.744339
457.938995,-296.082377,-8512.368333,-5362.668486
457.939317,370.102971,-7994.224174,-3064.381992
457.939640,1554.432478,-8956.491898,3907.087040
457.939962,4145.153275,-8660.409521,6281.983084
457.940285,5773.606348,-7402.059420,842.705048
457.940607,4737.318029,-8512.368333,-2451.505594
457.940930,1776.494261,-12213.398043,-1685.410096
457.941252,-1776.494261,-12213.398043,459.657299
457.941575,-5329.482782,-8734.430116,459.657299
457.941897,-6217.729913,-7254.018232,-766.095498
457.942220,-4293.194464,-7031.956449,-2604.724693
457.942542,-2960.823768,-6809.894666,-4290.134789
457.942865,-4219.173869,-7328.038826,-4136.915689
457.943187,-3923.091493,-8956.491898,-1608.800546
457.943510,-1850.514855,-10288.862594,-2681.334243
457.943832,0.000000,-10436.903782,-4060.306139
457.944155,-296.082377,-10066.800811,-4213.525239
457.944477,-1850.514855,-11177.109724,-4366.744339
457.944800,-3108.864956,-11251.130318,-1378.971896
457.945122,-3330.926739,-10140.821405,-1378.971896
457.945445,-3997.112087,-9770.718434,-3524.039291
457.945767,-3775.050304,-10362.883188,-2451.505594
457.946090,-3330.926739,-10510.924376,-689.485948
457.946412,-3849.070898,-8660.409521,-1072.533697
457.946735,-3330.926739,-8734.430116,-919.314598
457.947057,-888.247130,-9474.636058,0.000000
457.947380,888.247130,-7920.203579,229.828649
457.947702,1110.308913,-5773.606348,2068.457845
457.948025,2368.659014,-5773.606348,2757.943793
457.948347,4589.276840,-7698.141797,-2374.896044
457.948670,6439.791695,-12139.377449,-3600.648841
457.948992,5477.523971,-13397.727550,-153.219100
457.949314,1406.391290,-10658.965565,1762.019645
457.949637,-1998.556043,-9548.656652,-306.438199
457.949959,-4367.215058,-10807.006753,-2221.676944
457.950282,-7179.997637,-11103.089130,-4366.744339
457.950604,-12953.603985,-8512.368333,-6052.154434
457.950927,-16210.510130,-7994.224174,-4903.011187
457.951249,-15914.427753,-7994.224174,-2528.115143
457.951572,-11843.295072,-10362.883188,-6281.983084
457.951894,-10732.986159,-12139.377449,-4519.963438
457.952217,-8586.388927,-11325.150913,229.828649
457.952539,-6217.729913,-6735.874072,0.000000
457.952862,-1924.535449,-5329.482782,-3217.601092
457.953184,1850.514855,-6587.832884,-4903.011187
457.953507,2516.700203,-5625.565159,-4749.792088
457.953829,2886.803174,-5329.482782,-2221.676944
457.954152,5181.441594,-7624.121203,0.000000
457.954474,7476.080014,-12287.418637,-153.219100
457.954797,7105.977043,-16284.530724,-1302.362347
457.955119,3627.009116,-14137.933492,612.876398
457.955442,-740.205942,-10881.027347,3217.601092
457.955764,-3997.112087,-11103.089130,1455.581446
457.956087,-6587.832884,-9178.553681,-383.047749
457.956409,-8734.430116,-4663.297435,-2528.115143
457.956732,-9696.697840,-2590.720797,-4213.525239
457.957054,-7402.059420,-6661.853478,-2221.676944
457.957377,-4293.194464,-10881.027347,612.876398
457.957699,-2072.576638,-10510.924376,612.876398
457.958022,-222.061783,-9474.636058,229.828649
457.958344,2590.720797,-10362.883188,-2298.286494
457.958667,3997.112087,-9992.780217,-2757.943793
457.958989,2664.741391,-9104.533087,-3370.820191
457.959312,444.123565,-6735.874072,-4673.182538
457.959634,0.000000,-6365.771101,-5362.668486
457.959957,148.041188,-8364.327145,-4979.620737
457.960279,-518.144159,-11399.171507,-5745.716235
457.960602,-2442.679609,-13397.727550,-3983.696590
457.960924,-4441.235652,-16062.468941,-1302.362347
457.961247,-4589.276840,-16876.695478,459.657299
457.961569,-5107.421000,-12805.562797,0.000000
457.961892,-5403.503377,-8290.306550,-1072.533697
457.962214,-5107.421000,-4589.276840,-1455.581446
457.962537,-4441.235652,-2886.803174,-1302.362347
457.962859,-3775.050304,-1924.535449,383.047749
457.963182,-2368.659014,-3256.906145,229.828649
457.963504,-444.123565,-6587.832884,-459.657299
457.963827,1332.370696,-11029.068536,-919.314598
457.964149,1480.411884,-13767.830521,-995.924147
457.964472,592.164754,-14211.954086,-766.095498
457.964794,222.061783,-13323.706956,-1608.800546
457.965117,-148.041188,-11769.274478,-3140.991542
457.965439,-592.164754,-9474.636058,-2681.334243
457.965762,-1924.535449,-8586.388927,-2451.505594
457.966084,-3108.864956,-8808.450710,-1991.848295
457.966407,-3330.926739,-9844.739029,-1991.848295
457.966729,-3701.029710,-10510.924376,-995.924147
457.967052,-4885.359217,-9030.512492,-536.266849
457.967374,-6069.688724,-7105.977043,-612.876398
457.967697,-6809.894666,-5403.503377,-1302.362347
457.968019,-6735.874072,-4737.318029,-2451.505594
457.968342,-6661.853478,-5329.482782,-3600.648841
457.968664,-6957.935855,-7031.956449,-4060.306139
457.968987,-6291.750507,-9400.615463,-3064.381992
457.969309,-5477.523971,-12213.398043,-2528.115143
457.969632,-4219.173869,-13915.871710,-2681.334243
457.969954,-3404.947333,-13915.871710,-3447.429741
457.970277,-2664.741391,-12879.583391,-3524.039291
457.970599,-1702.473667,-11547.212695,-2834.553343
457.970922,-1776.494261,-10140.821405,-2528.115143
457.971244,-1554.432478,-8808.450710,-2451.505594
457.971567,-1184.329507,-8512.368333,-2068.457845
457.971889,-814.226536,-8512.368333,-766.095498
457.972212,0.000000,-8734.430116,76.609550
457.972534,370.102971,-8512.368333,612.876398
457.972856,888.247130,-7772.162391,612.876398
457.973179,1184.329507,-6809.894666,689.485948
457.973501,1110.308913,-6661.853478,0.000000
457.973824,148.041188,-7105.977043,-1225.752797
457.974146,-962.267725,-7550.100608,-1685.410096
457.974469,-1480.411884,-9474.636058,-1608.800546
457.974791,-1332.370696,-11325.150913,-1915.238745
457.975114,-1258.350101,-12953.603985,-1838.629195
457.975436,-1406.391290,-13249.686362,-1378.971896
457.975759,-1480.411884,-12213.398043,-153.219100
457.976081,-1406.391290,-11177.109724,0.000000
457.976404,-1332.370696,-9696.697840,-842.705048
457.976726,-1924.535449,-7994.224174,-1302.362347
457.977049,-3108.864956,-7031.956449,-842.705048
457.977371,-3701.029710,-6809.894666,-689.485948
457.977694,-3849.070898,-7105.977043,-612.876398
457.978016,-4293.194464,-7846.182985,-1455.581446
457.978339,-4515.256246,-7550.100608,-1915.238745
457.978661,-4145.153275,-7846.182985,-2604.724693
457.978984,-3627.009116,-8586.388927,-2911.162892
457.979306,-3775.050304,-8364.327145,-2604.724693
457.979629,-4145.153275,-8660.409521,-2374.896044
457.979951,-4145.153275,-9844.739029,-3447.429741
457.980274,-3330.926739,-11843.295072,-3140.991542
457.980596,-3108.864956,-12435.459826,-2374.896044
457.980919,-2886.803174,-11547.212695,-383.047749
457.981241,-1554.432478,-10807.006753,-459.657299
457.981564,-370.102971,-9992.780217,-995.924147
457.981886,-370.102971,-8586.388927,0.000000
457.982209,-1110.308913,-7772.162391,1149.143247
457.982531,-1850.514855,-7402.059420,1072.533697
457.982854,-2220.617826,-7179.997637,-229.828649
457.983176,-2590.720797,-6735.874072,-1072.533697
457.983499,-2442.679609,-7550.100608,-1149.143247
457.983821,-1924.535449,-9178.553681,-766.095498
457.984144,-1406.391290,-9992.780217,-229.828649
457.984466,-1258.350101,-9622.677246,-459.657299
457.984789,-814.226536,-9844.739029,-2068.457845
457.985111,-518.144159,-11547.212695,-2834.553343
457.985434,-1110.308913,-12139.377449,-2911.162892
457.985756,-2516.700203,-11843.295072,-3600.648841
457.986079,-2886.803174,-12213.398043,-3600.648841
457.986401,-2294.638420,-12953.603985,-2451.505594
457.986724,-2220.617826,-12065.356855,-1532.190996
457.987046,-2738.761985,-11251.130318,-229.828649
457.987369,-2516.700203,-10510.924376,-153.219100
457.987691,-1628.453072,-9252.574275,-766.095498
457.988014,-888.247130,-7179.997637,0.000000
457.988336,0.000000,-7179.997637,383.047749
457.988659,1554.432478,-7994.224174,612.876398
457.988981,2812.782580,-7994.224174,459.657299
457.989304,3108.864956,-8216.285956,1225.752797
457.989626,3701.029710,-10732.986159,1608.800546
457.989949,3552.988522,-11917.315666,1915.238745
457.990271,2960.823768,-11769.274478,1532.190996
457.990594,2516.700203,-10732.986159,1149.143247
457.990916,2368.659014,-10214.842000,1455.581446
457.991239,2294.638420,-9992.780217,1685.410096
457.991561,1776.494261,-9030.512492,2834.553343
457.991884,-296.082377,-7402.059420,3217.601092
457.992206,-962.267725,-7624.121203,2528.115143
457.992529,-1332.370696,-8068.244768,2068.457845
457.992851,-1998.556043,-7846.182985,1915.238745
457.993174,-2960.823768,-7846.182985,2221.676944
457.993496,-3108.864956,-7920.203579,3064.381992
457.993819,-2960.823768,-8290.306550,3064.381992
457.994141,-3404.947333,-7772.162391,2681.334243
457.994464,-3034.844362,-8734.430116,2451.505594
457.994786,-2516.700203,-9178.553681,2681.334243
457.995109,-1998.556043,-9474.636058,1838.629195
457.995431,-1998.556043,-10436.903782,2145.067394
457.995754,-2072.576638,-11103.089130,3524.039291
457.996076,-2072.576638,-11695.253884,3983.696590
457.996399,-2294.638420,-11325.150913,3600.648841
457.996721,-2516.700203,-10658.965565,3370.820191
457.997043,-2368.659014,-9548.656652,2911.162892
457.997366,-1554.432478,-8882.471304,2987.772442
457.997688,-518.144159,-8068.244768,3294.210641
457.998011,148.041188,-8290.306550,3907.087040
457.998333,148.041188,-8586.388927,3677.258390
457.998656,-370.102971,-9252.574275,2681.334243
457.998978,-1480.411884,-9770.718434,1685.410096
457.999301,-2516.700203,-10436.903782,842.705048
457.999623,-3330.926739,-10214.842000,0.000000
457.999946,-4219.173869,-9696.697840,-612.876398
458.000268,-4515.256246,-9548.656652,-995.924147
458.000591,-3775.050304,-10066.800811,-1608.800546
458.000913,-3701.029710,-10436.903782,-1608.800546
458.001236,-3182.885551,-10362.883188,-1455.581446
458.001558,-2664.741391,-10732.986159,-1378.971896
458.001881,-1702.473667,-10510.924376,-1455.581446
458.002203,-444.123565,-10362.883188,-689.485948
458.002526,1406.391290,-9844.739029,-153.219100
458.002848,3108.864956,-8586.388927,612.876398
458.003171,4959.379811,-6809.894666,306.438199
458.003493,6809.894666,-5477.523971,306.438199
458.003816,7994.224174,-4885.359217,-995.924147
458.004138,7550.100608,-6069.688724,-1455.581446
458.004461,6587.832884,-7920.203579,-2145.067394
458.004783,3404.947333,-9696.697840,-2834.553343
458.005106,-296.082377,-11177.109724,-1991.848295
458.005428,-3923.091493,-10807.006753,-1991.848295
458.005751,-6735.874072,-11473.192101,-4519.963438
458.006073,-7402.059420,-12805.562797,-6205.373534
458.006396,-5773.606348,-12435.459826,-6205.373534
458.006718,-3478.967927,-12361.439231,-5362.668486
458.007041,-296.082377,-13027.624579,-3524.039291
458.007363,4145.153275,-14063.912898,-229.828649
458.007686,6365.771101,-12435.459826,1302.362347
458.008008,7105.977043,-10658.965565,612.876398
458.008331,6587.832884,-8068.244768,1685.410096
458.008653,6143.709319,-5995.668130,2451.505594
458.008976,4737.318029,-4663.297435,689.485948
458.009298,2812.782580,-4219.173869,0.000000
458.009621,-1628.453072,-4367.215058,1149.143247
458.009943,-5033.400406,-5625.565159,689.485948
458.010266,-7105.977043,-8068.244768,-1608.800546
458.010588,-7994.224174,-12213.398043,-3600.648841
458.010911,-9178.553681,-12657.521608,-3524.039291
458.011233,-7994.224174,-14656.077652,-4366.744339
458.011556,-6217.729913,-15174.221811,-4213.525239
458.011878,-3701.029710,-15026.180623,-919.314598
458.012201,-3034.844362,-12435.459826,-459.657299
458.012523,-2960.823768,-9918.759623,-2374.896044
458.012846,-3034.844362,-8290.306550,-2528.115143
458.013168,-2960.823768,-7846.182985,-1838.629195
458.013491,-3330.926739,-8660.409521,-459.657299
458.013813,-3997.112087,-10066.800811,2374.896044
458.014136,-3330.926739,-10881.027347,4826.401637
458.014458,-2072.576638,-9992.780217,5056.230287
458.014781,-1110.308913,-8882.471304,5209.449386
458.015103,-1036.288319,-7920.203579,5975.544884
458.015426,-740.205942,-6291.750507,5745.716235
458.015748,74.020594,-4959.379811,4519.963438
458.016071,1554.432478,-4515.256246,3830.477490
458.016393,3034.844362,-5699.585753,2604.724693
458.016716,3923.091493,-7254.018232,2681.334243
458.017038,4441.235652,-9474.636058,2987.772442
458.017361,5255.462188,-11103.089130,3830.477490
458.017683,5847.626942,-12361.439231,3753.867940
458.018006,5255.462188,-12287.418637,2834.553343
458.018328,3997.112087,-11103.089130,2528.115143
458.018651,2220.617826,-9400.615463,1838.629195
458.018973,-666.185348,-9770.718434,995.924147
458.019296,-3775.050304,-10658.965565,4213.525239
458.019618,-8068.244768,-7920.203579,5822.325785
458.019941,-9918.759623,-7624.121203,3677.258390
458.020263,-8586.388927,-9474.636058,766.095498
458.020585,-4737.318029,-9770.718434,1302.362347
458.020908,-1480.411884,-8660.409521,919.314598
458.021230,1702.473667,-8956.491898,1532.190996
458.021553,5329.482782,-10140.821405,4290.134789
458.021875,8586.388927,-11029.068536,3677.258390
458.022198,9178.553681,-11473.192101,1532.190996
458.022520,7105.977043,-10658.965565,2451.505594
458.022843,6809.894666,-8216.285956,4673.182538
458.023165,6957.935855,-5181.441594,229.828649
458.023488,7254.018232,-7550.100608,-3753.867940
458.023810,6291.750507,-11695.253884,-2221.676944
458.024133,2664.741391,-11251.130318,1455.581446
458.024455,-4515.256246,-10214.842000,3294.210641
458.024778,-8956.491898,-13841.851115,2911.162892
458.025100,-11399.171507,-15692.365970,-995.924147
458.025423,-15174.221811,-13915.871710,-6511.811733
458.025745,-17838.963202,-9548.656652,-3753.867940
458.026068,-16950.716072,-4515.256246,1302.362347
458.026390,-10807.006753,-3404.947333,-2757.943793
458.026713,-2516.700203,-6143.709319,-5056.230287
458.027035,4293.194464,-8068.244768,-2757.943793
458.027358,7105.977043,-9844.739029,-2681.334243
458.027680,8734.430116,-13101.645173,-689.485948
458.028003,10510.924376,-12657.521608,2834.553343
458.028325,9326.594869,-7772.162391,-536.266849
458.028648,6809.894666,-5329.482782,-5745.716235
458.028970,5181.441594,-8882.471304,-5056.230287
458.029293,2220.617826,-12139.377449,-1225.752797
458.029615,-4367.215058,-12435.459826,919.314598
458.029938,-11177.109724,-12731.542202,2987.772442
458.030260,-12509.480420,-13471.748144,2987.772442
458.030583,-10362.883188,-11547.212695,-2298.286494
458.030905,-7920.203579,-9400.615463,-6971.469032
458.031228,-5033.400406,-6069.688724,-4366.744339
458.031550,-1332.370696,-2146.597232,1608.800546
458.031873,1850.514855,-1110.308913,1455.581446
458.032195,4145.153275,-2886.803174,-1302.362347
458.032518,3923.091493,-6439.791695,-2911.162892
458.032840,3034.844362,-9992.780217,-5056.230287
458.033163,3182.885551,-13249.686362,-5898.935335
458.033485,2960.823768,-15100.201217,-3294.210641
458.033808,1998.556043,-14730.098246,-1378.971896
458.034130,962.267725,-13323.706956,-1149.143247
458.034453,0.000000,-13323.706956,-842.705048
458.034775,-2516.700203,-13545.768739,-1532.190996
458.035098,-2590.720797,-11991.336260,-1532.190996
458.035420,-3034.844362,-6957.935855,-1915.238745
458.035743,0.000000,-4071.132681,-306.438199
458.036065,3404.947333,-5699.585753,919.314598
458.036388,6439.791695,-7550.100608,2221.676944
458.036710,6143.709319,-7550.100608,2451.505594
458.037033,6069.688724,-7994.224174,2298.286494
458.037355,4441.235652,-8956.491898,1455.581446
458.037678,1332.370696,-9548.656652,536.266849
458.038000,-1850.514855,-10362.883188,-536.266849
458.038323,-3552.988522,-11103.089130,-995.924147
458.038645,-3256.906145,-11325.150913,-2528.115143
458.038968,-962.267725,-13323.706956,-2451.505594
458.039290,-1702.473667,-10362.883188,0.000000
458.039613,-3182.885551,-10436.903782,1455.581446
458.039935,-4737.318029,-10140.821405,1225.752797
458.040258,-3775.050304,-10955.047942,-383.047749
458.040580,-3849.070898,-11473.192101,-1685.410096
458.040903,-3552.988522,-9844.739029,0.000000
458.041225,-3404.947333,-8808.450710,2987.772442
458.041548,-3330.926739,-7105.977043,4979.620737
458.041870,-3034.844362,-6143.709319,4903.011187
458.042193,-888.247130,-5033.400406,3524.039291
458.042515,2368.659014,-3775.050304,-612.876398
458.042838,5551.544565,-4589.276840,-2298.286494
458.043160,7328.038826,-5329.482782,459.657299
458.043483,7105.977043,-6735.874072,3064.381992
458.043805,4811.338623,-9696.697840,2145.067394
458.044128,2886.803174,-12805.562797,459.657299
458.044450,222.061783,-13545.768739,-1685.410096
458.044773,-2516.700203,-12879.583391,-2757.943793
458.045095,-4885.359217,-12879.583391,-2221.676944
458.045418,-6291.750507,-12213.398043,-383.047749
458.045740,-5847.626942,-11695.253884,76.609550
458.046063,-4885.359217,-9548.656652,0.000000
458.046385,-4293.194464,-9622.677246,-919.314598
458.046708,-4219.173869,-8660.409521,-1685.410096
458.047030,-3552.988522,-7179.997637,-689.485948
458.047353,-2368.659014,-6735.874072,-1149.143247
458.047675,370.102971,-6513.812290,-2451.505594
458.047998,3034.844362,-6661.853478,-3217.601092
458.048320,3849.070898,-6661.853478,-2911.162892
458.048643,1998.556043,-8586.388927,-2145.067394
458.048965,-962.267725,-12805.562797,-1762.019645
458.049288,-3256.906145,-15840.407159,-2987.772442
458.049610,-2738.761985,-17246.798449,-4673.182538
458.049933,-1110.308913,-15766.386565,-5439.278036
458.050255,1924.535449,-11695.253884,-4673.182538
458.050578,3849.070898,-7328.038826,-1838.629195
458.050900,5107.421000,-5625.565159,-1302.362347
458.051223,4885.359217,-7328.038826,-1532.190996
458.051545,3330.926739,-9326.594869,-2221.676944
458.051868,1036.288319,-9770.718434,-1991.848295
458.052190,-1702.473667,-7994.224174,-995.924147
458.052513,-2442.679609,-7328.038826,-1225.752797
458.052835,-1998.556043,-6143.709319,-1991.848295
458.053158,-370.102971,-5921.647536,-2528.115143
458.053480,1184.329507,-7105.977043,-2451.505594
458.053803,0.000000,-8068.244768,-2451.505594
458.054125,-1332.370696,-9992.780217,-2221.676944
458.054448,-2812.782580,-11177.109724,-3370.820191
458.054770,-1480.411884,-12435.459826,-5209.449386
458.055093,444.123565,-12139.377449,-6511.811733
458.055415,1406.391290,-9918.759623,-5898.935335
458.055738,148.041188,-9178.553681,-2604.724693
458.056060,-2664.741391,-8882.471304,0.000000
458.056383,-4811.338623,-10436.903782,0.000000
458.056705,-5033.400406,-12287.418637,-2987.772442
458.057028,-2886.803174,-11769.274478,-4673.182538
458.057350,666.185348,-8512.368333,-3524.039291
458.057673,3923.091493,-3478.967927,-1532.190996
458.057995,6439.791695,-1776.494261,1378.971896
458.058318,7402.059420,-2738.761985,1838.629195
458.058640,6217.729913,-5773.606348,-153.219100
458.058963,2664.741391,-9474.636058,-3217.601092
458.059285,-1480.411884,-12287.418637,-3600.648841
458.059608,-4737.318029,-14508.036463,-2834.553343
458.059930,-5773.606348,-14359.995275,-1838.629195
458.060253,-4663.297435,-14285.974681,-1455.581446
458.060576,-3034.844362,-12509.480420,-1915.238745
458.060898,-1036.288319,-10881.027347,-1225.752797
458.061221,-1554.432478,-7179.997637,-153.219100
458.061543,-1554.432478,-6439.791695,-1072.533697
458.061866,-2664.741391,-5921.647536,-2834.553343
458.062188,-1628.453072,-7846.182985,-3677.258390
458.062511,-814.226536,-10066.800811,-2451.505594
458.062833,-444.123565,-9918.759623,0.000000
458.063156,-2368.659014,-9474.636058,1762.019645
458.063478,-3627.009116,-9474.636058,2451.505594
458.063801,-4441.235652,-9992.780217,1072.533697
458.064123,-3701.029710,-10881.027347,-1685.410096
458.064446,-1480.411884,-9844.739029,-2987.772442
458.064768,1702.473667,-8808.450710,-2451.505594
458.065091,3997.112087,-7179.997637,0.000000
458.065413,4663.297435,-7031.956449,1378.971896
458.065736,4515.256246,-8882.471304,842.705048
458.066058,3256.906145,-11399.171507,-612.876398
458.066381,1776.494261,-13175.665768,-1915.238745
458.066703,-814.226536,-11843.295072,-689.485948
458.067026,-3182.885551,-11103.089130,842.705048
458.067348,-3478.967927,-9918.759623,2221.676944
458.067671,-2590.720797,-8882.471304,2528.115143
458.067993,-1036.288319,-6217.729913,2068.457845
458.068316,74.020594,-4663.297435,229.828649
458.068638,592.164754,-3923.091493,-306.438199
458.068961,666.185348,-6217.729913,-153.219100
458.069283,1110.308913,-8438.347739,-459.657299
458.069606,1406.391290,-10807.006753,-1915.238745
458.069928,1184.329507,-12509.480420,-1838.629195
458.070251,0.000000,-12139.377449,-1072.533697
458.070573,-2146.597232,-10807.006753,-689.485948
458.070896,-3701.029710,-9992.780217,-919.314598
458.071218,-3404.947333,-10214.842000,-1991.848295
458.071541,-1480.411884,-9992.780217,-2681.334243
458.071863,518.144159,-9030.512492,-2757.943793
458.072186,2368.659014,-6957.935855,-1302.362347
458.072508,2812.782580,-6217.729913,-842.705048
458.072831,3108.864956,-7624.121203,-1225.752797
458.073153,2664.741391,-9992.780217,-2604.724693
458.073476,1628.453072,-10955.047942,-3677.258390
458.073798,74.020594,-9548.656652,-3370.820191
458.074121,-1110.308913,-9178.553681,-2757.943793
458.074443,-1998.556043,-10436.903782,-2451.505594
458.074766,-2516.700203,-12361.439231,-2374.896044
458.075088,-2368.659014,-13545.768739,-2451.505594
458.075411,-1406.391290,-12657.521608,-2451.505594
458.075733,222.061783,-10436.903782,-3983.696590
458.076056,1480.411884,-8364.327145,-4519.963438
458.076378,1850.514855,-6661.853478,-3907.087040
458.076701,2220.617826,-7179.997637,-2987.772442
458.077023,1554.432478,-8882.471304,-3294.210641
458.077346,74.020594,-10288.862594,-3370.820191
458.077668,-2368.659014,-10362.883188,-3294.210641
458.077991,-5181.441594,-10066.800811,-2911.162892
458.078313,-5847.626942,-10584.944971,-2374.896044
458.078636,-3775.050304,-10288.862594,-2911.162892
458.078958,-1924.535449,-7254.018232,-3907.087040
458.079281,222.061783,-6217.729913,-3830.477490
458.079603,444.123565,-5403.503377,-1532.190996
458.079926,370.102971,-7031.956449,-1225.752797
458.080248,-518.144159,-8882.471304,-3370.820191
458.080571,-518.144159,-11621.233289,-5209.449386
458.080893,-296.082377,-12583.501014,-5132.839837
458.081216,-296.082377,-10955.047942,-2987.772442
458.081538,-1258.350101,-9844.739029,153.219100
458.081861,-2368.659014,-9104.533087,1685.410096
458.082183,-2294.638420,-9474.636058,0.000000
458.082506,-1110.308913,-9252.574275,-1991.848295
458.082828,-814.226536,-7698.141797,-2528.115143
458.083151,-592.164754,-7179.997637,-1532.190996
458.083473,370.102971,-7476.080014,383.047749
458.083796,1332.370696,-7772.162391,229.828649
458.084118,2442.679609,-9696.697840,-536.266849
458.084441,2072.576638,-10288.862594,-1378.971896
458.084763,148.041188,-9844.739029,-1532.190996
458.085086,-1924.535449,-9474.636058,-1608.800546
458.085408,-2960.823768,-9326.594869,-1455.581446
458.085731,-3034.844362,-10881.027347,-2298.286494
458.086053,-2072.576638,-11843.295072,-1991.848295
458.086376,-1036.288319,-10214.842000,-842.705048
458.086698,888.247130,-8734.430116,-306.438199
458.087021,1850.514855,-6365.771101,-842.705048
458.087343,2368.659014,-8142.265362,-2834.553343
458.087666,1850.514855,-10732.986159,-3140.991542
458.087988,740.205942,-12065.356855,-1685.410096
458.088311,-518.144159,-11547.212695,-153.219100
458.088633,-1554.432478,-8956.491898,306.438199
458.088956,-1850.514855,-7920.203579,-383.047749
458.089278,-1406.391290,-7846.182985,-919.314598
458.089601,0.000000,-8734.430116,-1685.410096
458.089923,1480.411884,-10955.047942,-689.485948
458.090246,2072.576638,-11251.130318,1455.581446
458.090568,3034.844362,-11029.068536,2451.505594
458.090891,2812.782580,-9622.677246,306.438199
458.091213,2368.659014,-9474.636058,-1378.971896
458.091536,1998.556043,-9030.512492,-1685.410096
458.091858,1628.453072,-7105.977043,-1991.848295
458.092181,0.000000,-6143.709319,-1762.019645
458.092503,-1628.453072,-8068.244768,-766.095498
458.092826,-4071.132681,-10214.842000,0.000000
458.093148,-5033.400406,-12139.377449,-306.438199
458.093471,-4071.132681,-12361.439231,-1378.971896
458.093793,-2516.700203,-9992.780217,-2374.896044
458.094116,-666.185348,-6439.791695,-1762.019645
458.094438,518.144159,-4367.215058,-1302.362347
458.094761,370.102971,-5477.523971,-1532.190996
458.095083,-222.061783,-8216.285956,-2528.115143
458.095406,-1184.329507,-10436.903782,-3753.867940
458.095728,-2738.761985,-11177.109724,-3677.258390
458.096051,-4441.235652,-11325.150913,-1991.848295
458.096373,-4515.256246,-12139.377449,-919.314598
458.096696,-2812.782580,-12287.418637,-612.876398
458.097019,-222.061783,-10140.821405,-383.047749
458.097341,1554.432478,-7105.977043,-612.876398
458.097664,2294.638420,-3775.050304,-842.705048
458.097986,2886.803174,-4737.318029,-2145.067394
458.098309,2442.679609,-6957.935855,-3677.258390
458.098631,2294.638420,-10066.800811,-4060.306139
458.098954,1924.535449,-12361.439231,-3294.210641
458.099276,222.061783,-12287.418637,-2528.115143
458.099599,-2442.679609,-11695.253884,-2757.943793
458.099921,-6069.688724,-11547.212695,-1991.848295
458.100244,-7105.977043,-10807.006753,-3064.381992
458.100566,-6069.688724,-10214.842000,-5286.058936
458.100889,-2886.803174,-9178.553681,-6205.373534
458.101211,0.000000,-7254.018232,-5132.839837
458.101534,1258.350101,-6513.812290,-2911.162892
458.101856,2516.700203,-7624.121203,-1302.362347
458.102179,3108.864956,-9992.780217,-2298.286494
458.102501,2220.617826,-11621.233289,-4290.134789
458.102824,518.144159,-11621.233289,-4443.353888
458.103146,-1850.514855,-10807.006753,-2374.896044
458.103469,-3108.864956,-10288.862594,-689.485948
458.103791,-2072.576638,-10066.800811,-459.657299
458.104114,444.123565,-9030.512492,-1302.362347
458.104436,2590.720797,-7179.997637,-1378.971896
458.104759,4219.173869,-6661.853478,0.000000
458.105081,4071.132681,-6143.709319,306.438199
458.105404,3478.967927,-8364.327145,-383.047749
458.105726,2294.638420,-10807.006753,-1378.971896
458.106049,1036.288319,-10955.047942,-2298.286494
458.106371,-370.102971,-10362.883188,-2911.162892
458.106694,-1776.494261,-9326.594869,-2604.724693
458.107016,-3108.864956,-8216.285956,-1302.362347
458.107339,-4589.276840,-8512.368333,-306.438199
458.107661,-3552.988522,-9696.697840,-383.047749
458.107984,-2294.638420,-10288.862594,-2221.676944
458.108306,-1702.473667,-9030.512492,-2374.896044
458.108629,-370.102971,-7550.100608,-1149.143247
458.108951,-148.041188,-5625.565159,-766.095498
458.109274,518.144159,-6735.874072,-1991.848295
458.109596,888.247130,-9400.615463,-2757.943793
458.109919,148.041188,-11473.192101,-2681.334243
458.110241,-666.185348,-11621.233289,-1072.533697
458.110564,-1850.514855,-11103.089130,306.438199
458.110886,-1850.514855,-10584.944971,612.876398
458.111209,-518.144159,-10362.883188,306.438199
458.111531,888.247130,-8586.388927,0.000000
458.111854,3108.864956,-8586.388927,-766.095498
458.112176,2146.597232,-7179.997637,459.657299
458.112499,814.226536,-8068.244768,1532.190996
458.112821,0.000000,-9474.636058,0.000000
458.113144,296.082377,-11177.109724,-2451.505594
458.113466,1184.329507,-12287.418637,-3907.087040
458.113789,444.123565,-10436.903782,-3140.991542
458.114111,-1184.329507,-9622.677246,-1225.752797
458.114434,-3256.906145,-9474.636058,612.876398
458.114756,-5551.544565,-9622.677246,-229.828649
458.115079,-6735.874072,-10214.842000,-2451.505594
458.115401,-6217.729913,-10362.883188,-4060.306139
458.115724,-4071.132681,-9474.636058,-4136.915689
458.116046,-2368.659014,-8660.409521,-2451.505594
458.116369,-1110.308913,-8882.471304,0.000000
458.116691,518.144159,-9918.759623,689.485948
458.117014,1332.370696,-10288.862594,-1455.581446
458.117336,1776.494261,-9178.553681,-3064.381992
458.117659,0.000000,-7476.080014,-2451.505594
458.117981,-2368.659014,-7179.997637,-919.314598
458.118304,-3108.864956,-8438.347739,76.609550
458.118626,-1554.432478,-10510.924376,306.438199
458.118949,370.102971,-10436.903782,-229.828649
458.119271,1998.556043,-9030.512492,-229.828649
458.119594,2368.659014,-7772.162391,306.438199
458.119916,2590.720797,-7254.018232,0.000000
458.120239,2886.803174,-8586.388927,-1149.143247
458.120561,2812.782580,-9400.615463,-2221.676944
458.120884,2220.617826,-8882.471304,-2528.115143
458.121206,148.041188,-7402.059420,-2374.896044
458.121529,-2368.659014,-6883.915261,-2068.457845
458.121851,-3849.070898,-8512.368333,-1762.019645
458.122174,-3997.112087,-11399.171507,-2681.334243
458.122496,-2664.741391,-12287.418637,-3600.648841
458.122819,-1406.391290,-10584.944971,-2987.772442
458.123141,-148.041188,-7476.080014,-2145.067394
458.123464,1036.288319,-5921.647536,-2145.067394
458.123786,2072.576638,-6291.750507,-3294.210641
458.124109,2368.659014,-9030.512492,-4060.306139
458.124431,1332.370696,-11103.089130,-3983.696590
458.124754,-518.144159,-12065.356855,-2757.943793
458.125076,-2220.617826,-12065.356855,-1838.629195
458.125399,-2442.679609,-11325.150913,-2604.724693
458.125721,-1406.391290,-11029.068536,-2451.505594
458.126044,1110.308913,-10584.944971,-2068.457845
458.126366,1998.556043,-8438.347739,-1838.629195
458.126689,2516.700203,-7031.956449,-689.485948
458.127011,1332.370696,-7105.977043,-229.828649
458.127334,1036.288319,-9400.615463,-1455.581446
458.127656,222.061783,-11399.171507,-3294.210641
458.127979,296.082377,-11621.233289,-4596.572988
458.128301,222.061783,-10658.965565,-4519.963438
458.128624,-962.267725,-9326.594869,-2374.896044
458.128946,-2516.700203,-9178.553681,-459.657299
458.129269,-4145.153275,-9918.759623,-766.095498
458.129591,-4293.194464,-11177.109724,-2528.115143
458.129914,-3849.070898,-11399.171507,-3600.648841
458.130236,-2664.741391,-9030.512492,-3294.210641
458.130559,-1036.288319,-7031.956449,-2451.505594
458.130881,666.185348,-6291.750507,-1378.971896
458.131204,2146.597232,-7476.080014,-1302.362347
458.131526,1628.453072,-9400.615463,-1838.629195
458.131849,0.000000,-11029.068536,-1455.581446
458.132171,-2516.700203,-11103.089130,-383.047749
458.132494,-4071.132681,-10584.944971,-536.266849
458.132816,-3775.050304,-9770.718434,-995.924147
458.133139,-1924.535449,-9622.677246,-1225.752797
458.133462,444.123565,-8142.265362,229.828649
458.133784,2590.720797,-7179.997637,536.266849
458.134107,2590.720797,-6513.812290,1608.800546
458.134429,1924.535449,-8290.306550,1378.971896
458.134752,814.226536,-10066.800811,-383.047749
458.135074,814.226536,-11325.150913,-2757.943793
458.135397,888.247130,-11473.192101,-2604.724693
458.135719,296.082377,-9474.636058,-919.314598
458.136042,-518.144159,-8660.409521,1225.752797
458.136364,-1850.514855,-8660.409521,1685.410096
458.136686,-3108.864956,-10436.903782,229.828649
458.137009,-3404.947333,-11325.150913,-1455.581446
458.137331,-2812.782580,-9770.718434,-1762.019645
458.137654,-666.185348,-8364.327145,-1608.800546
458.137976,148.041188,-6661.853478,0.000000
458.138299,1110.308913,-6291.750507,153.219100
458.138621,1406.391290,-7994.224174,-689.485948
458.138944,592.164754,-9770.718434,-1685.410096
458.139266,-2146.597232,-11029.068536,-1608.800546
458.139589,-5033.400406,-11251.130318,-459.657299
458.139911,-6661.853478,-11621.233289,0.000000
458.140234,-4885.359217,-11177.109724,0.000000
458.140556,-1480.411884,-9548.656652,-383.047749
458.140878,3182.885551,-7476.080014,-842.705048
458.141201,6217.729913,-5773.606348,612.876398
458.141523,6439.791695,-6291.750507,1378.971896
458.141846,5255.462188,-8882.471304,1302.362347
458.142168,3404.947333,-11843.295072,689.485948
458.142491,2220.617826,-13027.624579,-229.828649
458.142813,2072.576638,-9918.759623,-1225.752797
458.143136,2368.659014,-7179.997637,-1685.410096
458.143458,2738.761985,-5699.585753,-995.924147
458.143781,2220.617826,-6291.750507,-689.485948
458.144103,1332.370696,-8438.347739,-536.266849
458.144425,-592.164754,-10066.800811,-766.095498
458.144748,-2146.597232,-10881.027347,-1762.019645
458.145070,-2886.803174,-10584.944971,-3600.648841
458.145393,-3849.070898,-8882.471304,-4443.353888
458.145715,-2960.823768,-8364.327145,-4826.401637
458.146038,-1184.329507,-8068.244768,-5515.887586
458.146360,-666.185348,-8882.471304,-5592.497135
458.146683,-3034.844362,-10288.862594,-3753.867940
458.147005,-6291.750507,-11103.089130,-2068.457845
458.147328,-8290.306550,-12805.562797,-2681.334243
458.147650,-7402.059420,-14137.933492,-4443.353888
458.147973,-4737.318029,-12435.459826,-4903.011187
458.148295,-1258.350101,-8808.450710,-4290.134789
458.148617,1110.308913,-4737.318029,-1762.019645
458.148940,3034.844362,-4959.379811,-306.438199
458.149262,4145.153275,-7402.059420,-919.314598
458.149585,3404.947333,-9992.780217,-3064.381992
458.149907,3404.947333,-12435.459826,-4979.620737
458.150230,2442.679609,-12583.501014,-4213.525239
458.150552,1554.432478,-11177.109724,-2145.067394
458.150875,0.000000,-9622.677246,-536.266849
458.151197,-1258.350101,-8734.430116,-459.657299
458.151520,-1332.370696,-8142.265362,-2374.896044
458.151842,-1850.514855,-8882.471304,-3830.477490
458.152165,-2146.597232,-9104.533087,-3447.429741
458.152487,-2294.638420,-8216.285956,-2451.505594
458.152809,-666.185348,-7920.203579,-2451.505594
458.153132,1702.473667,-9104.533087,-2911.162892
458.153454,1998.556043,-10436.903782,-2604.724693
458.153777,370.102971,-9992.780217,-1608.800546
458.154099,-4071.132681,-8512.368333,-229.828649
458.154422,-7550.100608,-8808.450710,-1149.143247
458.154744,-7846.182985,-11251.130318,-2757.943793
458.155067,-5403.503377,-11843.295072,-2757.943793
458.155389,-2220.617826,-9548.656652,-1455.581446
458.155712,1184.329507,-6587.832884,689.485948
458.156034,3923.091493,-7105.977043,2834.553343
458.156356,5033.400406,-7254.018232,2528.115143
458.156679,4885.359217,-8142.265362,1072.533697
458.157001,3108.864956,-8956.491898,-995.924147
